time,ax,ay,az
0.0,-0.7280914306640626,8.084371948242188,5.322140502929688
0.0110000000000098,-0.2938385009765625,7.7896362304687505,5.484387207031251
0.0210000000000007,-0.0219818115234375,7.709185791015625,6.088662719726563
0.0310000000000059,0.2059112548828125,7.672549438476563,6.528747558593751
0.041000000000011,0.7795318603515625,7.711279296875,6.322238159179688
0.0510000000000019,1.3393951416015626,7.466787719726563,6.264218139648438
0.061000000000007,1.6004852294921876,7.297363281250001,6.227581787109376
0.0709999999999979,1.406985473632813,7.349850463867188,5.7338134765625
0.081000000000003,0.93729248046875,7.665521240234375,5.271148681640625
0.0910000000000081,0.48031005859375,7.939321899414063,5.2973175048828125
0.100999999999999,0.1018341064453125,8.384490966796875,5.488275146484376
0.1110000000000042,-0.36666259765625,8.350396728515626,5.7499633789062505
0.1210000000000093,-0.965704345703125,8.002276611328126,6.362911987304688
0.1310000000000002,-1.1324371337890626,7.494750976562501,6.636114501953125
0.1410000000000053,-0.8738891601562501,7.124649047851563,6.262124633789063
0.1510000000000104,-0.6464447021484375,7.153509521484375,5.868695068359376
0.1610000000000013,-0.5655456542968751,6.798959350585938,5.367001342773438
0.1720000000000112,-0.368756103515625,6.495251464843751,3.586624145507813
0.1820000000000021,-0.3481201171875,9.81360778808594,3.830368041992188
0.1920000000000072,0.8913848876953125,8.334097290039063,7.747616577148438
0.2019999999999981,0.457879638671875,6.471624755859375,6.189898681640625
0.2120000000000033,0.1721160888671875,8.533877563476564,7.674642944335938
0.2220000000000084,1.6736083984375,8.8345947265625,10.748956298828126
0.2319999999999993,0.7672698974609375,8.417538452148438,6.018231201171876
0.2420000000000044,-0.554180908203125,7.188949584960938,-0.506927490234375
0.2520000000000095,-0.9800598144531252,8.29327392578125,5.259783935546875
0.2620000000000004,-0.3037078857421875,7.921826171875001,10.559045410156251
0.2730000000000103,-1.242495727539063,6.190945434570313,4.480252075195313
0.2830000000000012,-0.5849853515625001,8.778219604492188,1.2269439697265625
0.2930000000000063,0.8629730224609375,9.998434448242188,9.434683227539065
0.3030000000000115,0.074468994140625,8.496493530273439,10.11163330078125
0.3130000000000024,-0.9117218017578126,7.099526977539063,1.4391357421875002
0.3230000000000075,-0.563751220703125,7.762869262695313,0.8225982666015625
0.3329999999999984,1.2915435791015626,7.7776733398437505,10.2151123046875
0.3430000000000035,0.8930297851562501,6.21591796875,7.454525756835938
0.3530000000000086,-0.450103759765625,6.285601806640625,1.2252990722656252
0.3629999999999995,-0.2582489013671875,8.849697875976563,5.8311614990234375
0.3730000000000046,0.4867401123046875,8.874520874023439,10.642486572265623
0.3830000000000098,-0.4366455078125,7.844515991210938,5.363262939453126
0.3930000000000007,-0.774298095703125,7.553967285156251,2.9276184082031254
0.4030000000000058,0.01973876953125,8.0330810546875,8.687899780273439
0.4130000000000109,0.203070068359375,7.309774780273438,8.602664184570314
0.4230000000000018,-0.590667724609375,7.029544067382813,2.4624114990234376
0.4340000000000117,-0.7702606201171875,7.812814331054688,3.190353393554688
0.4440000000000026,-0.361578369140625,8.533279418945312,7.875021362304688
0.4540000000000077,-0.1060211181640625,8.026800537109375,6.330462646484375
0.4639999999999986,-0.0575714111328125,7.736700439453125,3.657952880859375
0.4740000000000037,0.347821044921875,7.922872924804688,6.647927856445313
0.4840000000000088,0.6422576904296875,7.01085205078125,8.3632568359375
0.4939999999999998,0.494964599609375,4.683172607421875,4.57640380859375
0.5040000000000049,0.6488372802734376,5.3151123046875,3.11812744140625
0.51400000000001,0.430963134765625,10.7175537109375,7.673596191406251
0.5240000000000009,0.0354400634765625,11.477645874023438,6.642395019531251
0.534000000000006,0.0267669677734375,9.456365966796875,2.1914520263671875
0.5450000000000017,-0.2887542724609375,7.04375,8.212973022460938
0.554000000000002,-0.3641204833984375,7.361813354492188,12.043341064453124
0.5640000000000072,-0.3772796630859375,6.03348388671875,4.343576049804688
0.5739999999999981,-0.21234130859375,6.519027709960938,-0.1981353759765625
0.585000000000008,-0.460870361328125,8.7030029296875,7.52047119140625
0.5949999999999989,-0.6984832763671875,9.2054443359375,8.773434448242188
0.605000000000004,-0.9634613037109376,8.290283203125,3.2758880615234376
0.6150000000000091,-0.60113525390625,8.446249389648438,4.6882568359375005
0.625,1.0651458740234376,8.838632202148439,9.758428955078124
0.6350000000000051,0.0131591796875,7.814608764648438,6.851745605468751
0.6450000000000102,-0.8320190429687501,6.528747558593751,1.7237030029296876
0.6550000000000011,-0.4951141357421875,7.696624755859376,4.667321777343751
0.6650000000000063,0.6041259765625,8.227926635742188,7.289437866210938
0.6750000000000114,0.3853546142578125,7.262521362304688,4.3223419189453125
0.6850000000000023,-0.013458251953125,7.479049682617188,4.374978637695313
0.6950000000000074,0.31881103515625,8.516531372070313,8.087512207031251
0.7049999999999983,0.7751953125000001,8.263516235351563,7.258782958984375
0.7150000000000034,0.322698974609375,7.221697998046875,4.632778930664063
0.7250000000000085,-0.3958221435546875,7.346112060546876,6.0711669921875
0.7360000000000042,-0.4714874267578125,7.662081909179688,7.022665405273438
0.7460000000000093,-0.2205657958984375,7.479199218750001,5.117276000976563
0.7560000000000002,-0.30206298828125,7.4157958984375005,5.0700225830078125
0.7660000000000053,-0.4846466064453125,8.171401977539062,6.621609497070313
0.7760000000000105,-0.2878570556640625,8.448342895507814,5.908621215820313
0.7860000000000014,-0.3028106689453125,8.22987060546875,5.121163940429688
0.7960000000000065,-0.1126007080078125,7.73221435546875,5.9443603515625005
0.8060000000000116,0.1320404052734375,7.381103515625001,6.088214111328125
0.8160000000000025,-0.33555908203125,5.802899169921876,5.530145263671876
0.8260000000000076,-0.362176513671875,4.7062011718750005,5.159445190429688
0.8359999999999985,0.0299072265625,7.018927001953125,4.115682983398438
0.8460000000000036,0.09989013671875,11.734848022460938,5.7708984375000005
0.8560000000000088,0.6012847900390625,11.096478271484376,5.835797119140626
0.8680000000000092,0.45279541015625,9.057403564453123,6.109149169921875
0.8770000000000095,1.0996887207031252,6.775631713867188,10.02191162109375
0.8870000000000005,0.7662231445312501,6.862362670898438,10.10071716308594
0.8970000000000056,-0.5804992675781251,5.777029418945313,3.7952270507812496
0.9070000000000108,-0.8184112548828125,6.7294250488281255,0.566143798828125
0.9170000000000016,-1.534539794921875,9.604107666015626,5.904583740234376
0.9270000000000068,0.1936492919921875,9.633865356445312,7.043301391601563
0.9370000000000118,-0.23507080078125,7.969976806640625,3.681878662109375
0.9470000000000028,-0.2878570556640625,8.16885986328125,6.666320800781251
0.9570000000000078,0.7837188720703125,9.0738525390625,10.781854248046876
0.9680000000000036,0.227294921875,7.662081909179688,6.707144165039063
0.977000000000004,-0.4689453125,6.85892333984375,0.664837646484375
0.987000000000009,0.3880462646484375,7.927807617187501,4.029849243164063
0.997,1.31292724609375,7.866647338867188,7.805636596679688
1.0080000000000098,0.15791015625,6.41629638671875,4.511056518554688
1.018000000000001,-0.8115325927734376,7.304989624023438,3.4708831787109378
1.0280000000000058,-0.313427734375,9.532330322265626,7.2985595703125
1.038000000000011,-0.14295654296875,8.927008056640625,7.574154663085938
1.0480000000000018,-1.0483978271484375,7.09219970703125,5.0638916015625
1.058000000000007,-1.09580078125,7.000833129882813,6.207693481445313
1.0679999999999978,0.076263427734375,7.561294555664063,7.556658935546875
1.078000000000003,-0.08792724609375,6.986477661132813,5.480349731445313
1.088000000000008,-0.492572021484375,7.235903930664063,4.021475219726563
1.097999999999999,0.150433349609375,8.259329223632813,5.652615356445313
1.108000000000004,0.755157470703125,8.855081176757814,6.596038818359376
1.1180000000000092,0.262286376953125,8.350845336914062,5.560052490234376
1.128,0.2023223876953125,8.238693237304688,5.149575805664063
1.1380000000000052,0.4765716552734375,7.848403930664063,6.2876953125
1.1480000000000103,0.5854339599609375,6.721798706054688,6.538168334960938
1.1580000000000013,0.58857421875,5.011105346679688,5.095593261718751
1.1690000000000111,0.6084625244140626,4.262228393554688,4.1264495849609375
1.179000000000002,0.289801025390625,7.097433471679688,3.6918975830078127
1.1890000000000072,-1.1041748046875002,14.63599853515625,5.015292358398438
1.198999999999998,-0.9172546386718752,12.75662841796875,6.69742431640625
1.2090000000000032,-0.995611572265625,9.514984130859377,6.413604736328126
1.2190000000000083,-0.69324951171875,5.731719970703125,11.2558837890625
1.2289999999999992,-0.2609405517578125,4.973272705078125,12.0095458984375
1.2390000000000043,-0.5706298828125,3.4361907958984377,7.338336181640625
1.2490000000000094,-0.50184326171875,6.836642456054688,0.9230865478515624
1.2590000000000003,-0.551788330078125,10.7414794921875,-1.0907165527343752
1.2690000000000057,0.24942626953125,10.84974365234375,-0.8465240478515625
1.2790000000000106,-0.3883453369140625,7.463497924804688,4.7559967041015625
1.2890000000000017,-1.885052490234375,7.797561645507813,16.790515136718753
1.2990000000000066,2.650228881835938,9.880450439453126,7.409066772460938
1.3100000000000025,1.8902862548828123,8.302395629882813,8.512493896484376
1.3200000000000074,0.232080078125,6.32657470703125,0.8302246093750001
1.3299999999999983,-0.511114501953125,7.310073852539063,-0.6093597412109375
1.3400000000000034,-0.6166870117187501,7.674343872070313,7.837188720703126
1.3500000000000083,-0.0883758544921875,6.379061889648438,6.886886596679688
1.3599999999999994,-0.2989227294921875,7.369290161132813,2.889486694335938
1.3700000000000043,-0.3778778076171875,10.467230224609375,6.409268188476563
1.3800000000000097,0.88944091796875,10.307077026367187,8.632272338867189
1.3900000000000006,0.8484680175781251,7.416693115234375,5.2576904296875
1.4000000000000057,-0.8261871337890626,6.244180297851563,4.6573028564453125
1.4100000000000108,-0.5580688476562501,6.805987548828125,7.653408813476563
1.4200000000000017,-0.1293487548828125,6.717312622070313,6.795370483398438
1.4300000000000068,-0.2543609619140625,7.066479492187501,3.0592102050781254
1.440000000000012,-0.1347320556640625,8.525054931640625,4.031195068359375
1.4500000000000028,-0.127703857421875,9.499282836914062,7.481591796875
1.4609999999999983,-0.2690155029296875,8.544195556640625,7.165472412109375
1.4710000000000036,-0.1185821533203125,8.130429077148438,4.96220703125
1.4810000000000088,0.4092803955078125,7.996743774414063,5.557809448242188
1.4909999999999997,0.2693145751953125,7.611389160156251,6.537121582031251
1.5010000000000048,-0.4741790771484375,6.0962890625,5.001385498046876
1.51100000000001,-0.6527252197265625,3.9067810058593753,3.584979248046875
1.5210000000000008,-0.26737060546875,4.8905792236328125,3.464303588867188
1.531000000000006,0.446514892578125,11.111282348632812,5.098434448242188
1.541000000000011,-0.3132781982421875,13.995684814453126,6.5963378906250005
1.551000000000002,-0.0919647216796875,12.101062011718753,5.012152099609375
1.561000000000007,1.125857543945313,8.417388916015625,9.5798828125
1.570999999999998,1.9989990234375,5.065686035156251,13.8566162109375
1.581000000000003,-0.3931304931640625,4.182974243164063,7.960107421875
1.5919999999999987,-0.575714111328125,4.695883178710938,-0.387896728515625
1.602000000000004,-1.19329833984375,8.950036621093751,-0.3778778076171875
1.612000000000009,-2.1042724609375,10.613775634765624,1.071575927734375
1.622,0.4110748291015625,8.878109741210938,10.26834716796875
1.632000000000005,0.165386962890625,7.577893066406251,5.852395629882813
1.64200000000001,0.6901092529296875,8.906671142578126,11.462542724609376
1.652000000000001,0.6926513671875001,9.435430908203124,10.422219848632814
1.662000000000006,-0.083740234375,7.665670776367188,2.056121826171875
1.6720000000000113,-0.2456878662109375,6.833053588867188,-0.8088409423828126
1.6820000000000022,0.5366851806640626,7.628735351562501,3.209793090820313
1.6920000000000073,1.095950317382813,6.450091552734375,9.845458984375
1.7019999999999982,-0.115142822265625,5.960360717773438,2.7970733642578125
1.7120000000000033,-1.3645172119140625,9.231613159179688,4.171160888671875
1.722999999999999,-1.0234252929687502,11.297454833984377,8.574102783203125
1.733000000000004,-0.3600830078125,9.209182739257812,6.773089599609375
1.7430000000000092,-1.0105651855468751,6.851745605468751,4.351950073242188
1.753,-0.2597442626953125,6.470578002929688,7.206893920898438
1.7630000000000052,0.3768310546875,6.565533447265626,7.935284423828126
1.7730000000000103,-0.1036285400390625,6.517083740234376,3.675299072265626
1.7830000000000013,-0.28292236328125,7.909414672851563,1.70411376953125
1.7930000000000064,0.626556396484375,8.972915649414062,5.662484741210938
1.803000000000012,1.21363525390625,8.756686401367189,8.764462280273438
1.8130000000000024,0.20396728515625,8.066278076171876,7.294671630859375
1.8230000000000075,0.129498291015625,8.211776733398438,5.375973510742188
1.8329999999999984,0.5181427001953125,8.498886108398438,5.930902099609376
1.8430000000000035,0.23865966796875,6.930551147460938,5.59564208984375
1.8530000000000089,0.0258697509765625,4.784707641601563,3.6575042724609377
1.8640000000000043,0.45399169921875,4.102972412109375,3.3416839599609376
1.8740000000000088,-0.040374755859375,7.7642150878906255,4.831661987304688
1.885000000000005,-1.1530731201171875,13.912542724609375,5.350253295898438
1.8940000000000048,-0.6821838378906251,13.036709594726563,5.049984741210938
1.9040000000000104,-0.8167663574218751,9.364401245117188,7.273437500000001
1.9140000000000013,-0.210546875,5.362664794921876,13.408905029296877
1.9240000000000064,0.139068603515625,4.722799682617188,11.877505493164064
1.934000000000012,-0.34512939453125,5.019778442382813,1.934249877929688
1.9440000000000024,-0.43126220703125,7.533032226562501,-0.6374725341796875
1.954000000000008,-0.4198974609375,10.622149658203126,-0.45518798828125
1.9639999999999984,0.4753753662109375,9.785494995117189,8.821734619140626
1.974000000000004,-0.7230072021484375,7.153359985351563,7.574902343750001
1.985,-1.7996673583984375,7.920330810546876,7.636959838867188
1.994,1.5850830078125002,9.826019287109377,9.954919433593751
2.0050000000000097,0.5800506591796876,8.649768066406251,5.81396484375
2.015000000000001,-0.7867095947265625,6.755743408203125,0.081646728515625
2.0250000000000057,-1.2344207763671875,7.176388549804688,2.1965362548828127
2.035000000000011,0.160003662109375,7.251754760742188,8.262918090820314
2.0450000000000017,0.5371337890625001,6.456222534179688,5.461956787109376
2.055000000000007,-0.00418701171875,7.749411010742188,2.936590576171876
2.065000000000012,0.3958221435546875,10.45975341796875,6.810324096679688
2.075000000000003,1.1264556884765626,9.936526489257814,8.327667236328125
2.085000000000008,0.7493255615234375,7.36375732421875,5.10277099609375
2.094999999999999,-0.0644500732421875,6.341079711914063,5.3342529296875005
2.105000000000004,0.147442626953125,6.770846557617188,8.103811645507813
2.115000000000009,-0.1574615478515625,6.941018676757813,5.8621154785156255
2.125,-0.558966064453125,7.42117919921875,2.1512268066406253
2.135000000000005,-0.5860321044921876,8.589953613281251,4.379913330078125
2.1450000000000102,-0.4844970703125,9.0738525390625,8.195028686523438
2.155000000000001,-0.7988220214843751,8.339929199218751,7.131527709960938
2.166000000000011,-0.4463653564453125,7.841674804687501,4.795623779296875
2.176000000000002,0.23507080078125,8.12100830078125,5.9467529296875
2.186000000000007,-0.1137969970703125,6.7865478515625,6.531439208984375
2.195999999999998,-0.4834503173828125,4.515093994140625,4.0975891113281255
2.206000000000003,-0.4822540283203125,4.923178100585938,2.955133056640625
2.216000000000008,0.3814666748046875,9.647772216796875,4.6954345703125
2.225999999999999,0.8394958496093751,13.053158569335938,5.8177032470703125
2.236000000000004,0.92054443359375,11.076290893554688,4.697378540039063
2.2460000000000093,1.2269439697265625,8.795416259765625,8.555560302734376
2.256,1.323394775390625,6.30504150390625,13.031924438476564
2.2660000000000053,-0.0088226318359375,5.654708862304688,9.371578979492188
2.2760000000000105,-0.5873779296875,5.194137573242188,0.9151611328125
2.287000000000006,-0.9962097167968752,8.233010864257814,-0.4239349365234375
2.297000000000012,-2.4577758789062503,10.177728271484376,6.111541748046875
2.307000000000002,-0.2875579833984375,8.854034423828125,5.35040283203125
2.317000000000008,-0.5897705078125001,7.274932861328126,5.400796508789063
2.326999999999998,0.0626556396484375,8.487969970703126,9.641192626953126
2.337000000000004,0.6485382080078126,9.336288452148438,10.197317504882813
2.3470000000000084,-0.1478912353515625,8.064483642578125,3.6540649414062494
2.357,-0.6883148193359375,7.170108032226563,0.0861328125
2.3670000000000044,0.11663818359375,7.942761230468751,5.527304077148438
2.377000000000009,1.18372802734375,7.153060913085938,7.414898681640626
2.3870000000000005,1.356143188476563,6.055914306640625,3.7041595458984378
2.3970000000000056,-0.2980255126953125,8.137158203125,4.289743041992188
2.4070000000000107,-0.18961181640625,10.41653747558594,7.457217407226563
2.4170000000000016,-0.2711090087890625,9.094937133789063,6.445904541015626
2.4270000000000067,-0.9606201171875,7.159042358398438,5.088864135742188
2.437000000000012,-1.02222900390625,6.917840576171876,7.254296875
2.4480000000000075,-0.1356292724609375,6.991262817382813,7.432394409179688
2.4579999999999984,-0.394476318359375,6.86131591796875,4.368698120117188
2.4680000000000035,-0.4248321533203125,7.7806640625,3.0182373046875
2.4780000000000086,0.3087921142578125,8.715863037109376,5.457470703125001
2.4879999999999995,0.4795623779296875,8.588159179687501,7.237997436523438
2.4980000000000047,0.3025115966796875,8.157196044921875,6.34093017578125
2.5080000000000098,0.5555267333984375,8.303591918945314,5.559304809570313
2.5180000000000007,0.75904541015625,8.184262084960938,6.162982177734375
2.528000000000006,0.38101806640625,6.846661376953126,5.859124755859376
2.538000000000011,0.36068115234375,5.360272216796876,4.763623046875001
2.548000000000002,0.8267852783203126,4.898205566406251,4.433895874023438
2.558000000000007,0.1146942138671875,6.760678100585938,4.281219482421875
2.5690000000000026,-0.9334045410156252,12.224429321289064,4.040615844726563
2.578000000000003,-1.117333984375,13.501766967773438,5.290737915039063
2.588999999999998,-1.394873046875,10.29107666015625,6.680526733398438
2.599000000000004,-0.5417694091796875,6.495700073242188,11.074197387695314
2.609000000000009,0.292193603515625,4.538870239257813,13.042242431640624
2.619,-0.253912353515625,4.990170288085938,5.192791748046876
2.629000000000005,-0.222210693359375,6.411511230468751,-0.6362762451171875
2.63900000000001,-0.1616485595703125,10.02908935546875,-0.35111083984375
2.649000000000001,0.5262176513671876,10.520016479492188,4.866354370117188
2.659000000000006,-0.45159912109375,7.8868347167968755,8.4948486328125
2.669000000000011,-1.4833984375,7.452432250976563,7.306335449218751
2.679000000000002,1.4659027099609376,9.092245483398438,10.18326110839844
2.689000000000007,0.6452484130859375,9.01104736328125,7.50850830078125
2.698999999999998,-0.6431549072265625,7.275830078125001,1.2448883056640625
2.709000000000003,-1.09879150390625,7.221249389648438,0.998602294921875
2.7190000000000083,-0.3581390380859375,7.377664184570313,7.341775512695313
2.730000000000004,0.9256286621093752,6.714321899414063,6.275283813476563
2.740000000000009,-0.4342529296875,7.043002319335938,2.98055419921875
2.75,-0.0514404296875,9.745269775390623,5.702261352539063
2.760000000000005,1.0753143310546875,10.337432861328123,8.063287353515626
2.7700000000000102,0.9467132568359377,8.102017211914063,5.614633178710938
2.780000000000001,-0.1649383544921875,6.543701171875001,5.099331665039063
2.7900000000000063,-0.0387298583984375,6.667965698242188,7.968930053710938
2.8030000000000115,-0.1146942138671875,6.82901611328125,6.90318603515625
2.8100000000000023,-0.4414306640625,7.030441284179688,3.162838745117188
2.8200000000000074,-0.307147216796875,8.242282104492189,3.7065521240234376
2.8299999999999983,-0.3058013916015625,9.122750854492187,6.9582153320312505
2.8400000000000034,-0.608612060546875,8.71197509765625,7.003524780273438
2.8500000000000085,-0.5803497314453125,7.94395751953125,5.3294677734375
2.861000000000004,-0.0817962646484375,8.142990112304688,5.681475830078125
2.8710000000000093,-0.1568634033203125,6.936233520507813,6.361865234375
2.881,-0.5027404785156251,4.684368896484376,4.80369873046875
2.8910000000000053,-0.9039459228515626,4.519281005859376,3.4850891113281253
2.9010000000000105,-0.07476806640625,9.3501953125,3.801806640625
2.9110000000000014,0.83082275390625,12.800592041015626,5.6991210937500005
2.9210000000000065,0.983648681640625,11.299548339843753,5.157949829101563
2.931000000000012,0.81885986328125,8.960354614257813,8.224038696289064
2.9410000000000025,1.93619384765625,6.684115600585938,12.595877075195313
2.951000000000008,0.3748870849609375,5.7673095703125,10.143783569335938
2.9609999999999985,-0.8359069824218751,4.945309448242188,1.4213409423828125
2.971000000000004,-1.021630859375,7.840927124023438,-0.547003173828125
2.9810000000000088,-1.0636505126953126,10.177578735351563,5.654110717773438
2.991,0.0201873779296875,8.8369873046875,5.464199829101563
3.0010000000000048,-0.4837493896484375,7.446600341796875,4.533486938476563
3.01100000000001,0.09151611328125,8.553915405273438,9.424664306640626
3.021000000000001,0.6211730957031251,9.476403808593751,10.895501708984376
3.0320000000000107,-0.5145538330078125,8.162579345703126,4.0960937500000005
3.0420000000000016,-0.7227081298828125,7.261175537109375,-0.314923095703125
3.0520000000000067,0.529058837890625,7.914199829101563,5.766262817382813
3.062000000000012,1.1749053955078126,6.726434326171876,8.111737060546876
3.0720000000000027,-0.0916656494140625,5.940921020507813,3.578997802734375
3.082000000000008,-0.7771392822265626,8.118466186523438,3.375479125976563
3.0919999999999987,0.3177642822265625,10.4220703125,7.405178833007813
3.102000000000004,-0.1514801025390625,9.344363403320314,6.7745849609375
3.112000000000009,-1.07845458984375,7.218408203125,4.820745849609375
3.122,-0.506329345703125,6.922924804687501,7.414599609375
3.132000000000005,0.1200775146484375,6.981692504882813,8.247366333007813
3.14200000000001,-0.2995208740234375,6.914999389648438,4.40892333984375
3.153000000000006,-0.4475616455078125,7.686306762695313,2.223751831054688
3.163000000000011,0.2621368408203125,8.527597045898439,5.549136352539063
3.173000000000002,0.3527557373046875,8.5355224609375,7.612435913085938
3.183000000000007,0.137872314453125,7.997491455078125,5.9612579345703125
3.192999999999998,0.3443817138671875,8.273684692382814,5.194586181640625
3.203000000000003,0.6652862548828126,8.074203491210938,6.50003662109375
3.213000000000008,0.6380706787109376,6.350051879882813,5.528799438476563
3.222999999999999,0.5746673583984375,4.377072143554688,3.6833740234375
3.233000000000004,0.4361968994140625,5.5639404296875,3.8082366943359376
3.243000000000009,-0.6856231689453125,12.00894775390625,5.423825073242188
3.253,-0.4900299072265625,12.812854003906253,5.411862182617188
3.263000000000005,-1.417901611328125,10.221841430664064,4.85992431640625
3.2730000000000103,-0.889141845703125,7.048086547851563,11.33304443359375
3.2830000000000013,0.198583984375,5.517285156250001,14.242269897460938
3.294000000000011,-0.3744384765625,5.230624389648438,4.7528564453125
3.304000000000002,-0.267071533203125,6.202908325195313,-0.928021240234375
3.314000000000007,-0.17406005859375,9.6863525390625,-0.349615478515625
3.323999999999998,0.263482666015625,10.074099731445314,9.049627685546875
3.334000000000003,-0.7630828857421875,7.802944946289063,4.3640625
3.3440000000000083,-1.3678070068359376,7.599276733398438,7.248464965820313
3.353999999999999,1.429864501953125,9.35198974609375,10.985821533203126
3.3640000000000043,0.563153076171875,8.836239624023438,7.547387695312499
3.374000000000009,-0.7745971679687501,7.428955078125001,0.8827117919921875
3.38600000000001,-1.0503417968750002,7.41759033203125,2.346670532226563
3.394000000000005,0.5897705078125001,7.670904541015625,7.070516967773438
3.4040000000000106,1.0202850341796876,6.523812866210938,5.3163085937500005
3.414000000000001,-0.263482666015625,6.610693359375,3.5202301025390628
3.4240000000000066,-0.1601531982421875,9.26824951171875,6.592300415039063
3.434000000000012,1.0175933837890625,10.162774658203126,7.291381835937501
3.4450000000000074,0.8013641357421876,8.399444580078125,4.947702026367188
3.4549999999999983,-0.5567230224609375,6.983486938476563,5.983688354492188
3.4650000000000034,-0.144451904296875,6.9301025390625,7.984481811523438
3.4750000000000085,-0.0859832763671875,6.868344116210938,6.158645629882813
3.486000000000004,-0.529058837890625,7.199716186523438,3.567034912109375
3.4950000000000045,-0.5046844482421875,8.084222412109376,4.011904907226563
3.5050000000000097,-0.2250518798828125,8.919232177734376,6.184664916992188
3.515000000000001,-0.4487579345703125,8.435183715820314,6.675442504882813
3.5250000000000057,-0.4490570068359375,8.058053588867189,5.926565551757813
3.535000000000011,0.145947265625,8.1048583984375,5.682073974609375
3.5450000000000017,0.1383209228515625,6.915896606445313,5.952584838867188
3.555000000000007,-0.5135070800781251,4.894616699218751,5.223147583007813
3.565000000000012,-0.3916351318359375,5.0758544921875,3.972726440429688
3.575000000000003,0.1399658203125,9.501974487304688,4.307687377929688
3.5859999999999985,0.7923919677734376,12.51004333496094,5.260232543945313
3.596000000000004,0.8810668945312501,11.1530029296875,5.133874511718751
3.6060000000000088,0.7630828857421875,8.599224853515626,8.552420043945313
3.616,1.1680267333984375,6.2404418945312505,11.778662109375
3.6260000000000048,-0.3808685302734375,5.634371948242188,8.402435302734375
3.63600000000001,-0.8650665283203126,5.490518188476563,1.3097869873046877
3.646000000000001,-1.534539794921875,8.290133666992189,1.28900146484375
3.656000000000006,-0.910076904296875,9.943704223632814,5.63153076171875
3.666000000000011,0.296380615234375,8.844464111328126,5.242587280273438
3.676000000000002,-0.377728271484375,7.652362060546875,5.753103637695313
3.686000000000007,0.5037872314453126,8.520419311523439,9.909759521484377
3.695999999999998,0.533843994140625,8.777023315429688,9.249407958984376
3.706000000000003,-0.5034881591796876,7.9466491699218755,2.7779327392578126
3.716000000000008,-0.2950347900390625,7.562191772460938,1.1879150390625002
3.725999999999999,0.9168060302734377,7.811917114257813,6.325677490234376
3.737000000000009,1.0427154541015626,7.109396362304688,6.194085693359376
3.747,-0.168377685546875,6.543701171875001,3.2687103271484377
3.757000000000005,-0.4347015380859375,8.473614501953126,5.874676513671876
3.76700000000001,-0.2202667236328125,9.849795532226564,7.62694091796875
3.777000000000001,-0.329278564453125,8.746817016601563,5.114285278320313
3.787000000000006,-0.7588958740234375,7.417739868164063,5.382403564453125
3.7970000000000113,-0.616986083984375,6.875073242187501,8.043099975585939
3.807000000000002,-0.3907379150390625,6.863259887695313,6.354388427734375
3.8170000000000073,-0.2014251708984375,7.02939453125,3.610250854492188
3.826999999999998,-0.2247528076171875,8.078540039062501,4.404736328125001
3.8370000000000033,0.03828125,8.515484619140626,5.948846435546876
3.847000000000008,0.5480499267578125,8.481390380859375,6.00596923828125
3.8569999999999993,0.389990234375,8.232711791992188,6.702957153320313
3.867000000000005,0.3768310546875,8.27174072265625,6.528747558593751
3.878,0.708203125,7.506713867187501,5.0700225830078125
3.888000000000005,0.9523956298828126,5.94854736328125,5.0311431884765625
3.8980000000000095,0.7985229492187501,4.326080322265625,5.307785034179688
3.908000000000001,0.12022705078125,5.70330810546875,3.470285034179688
3.9180000000000064,-0.8746368408203126,12.997531127929689,3.852499389648438
3.928000000000012,-0.54371337890625,13.432830810546877,5.983837890625001
3.9380000000000015,-1.1385681152343752,10.081277465820314,5.2624755859375005
3.948000000000008,-0.828131103515625,5.876321411132813,11.044290161132814
3.9579999999999984,0.0686370849609375,4.958020019531251,14.8471435546875
3.968000000000004,-0.56763916015625,5.261129760742188,5.465097045898438
3.9780000000000086,-0.456683349609375,6.435586547851563,-0.8646179199218751
3.988,-0.5812469482421876,10.206439208984376,-0.405242919921875
3.9980000000000047,-0.1454986572265625,10.701403808593753,1.229486083984375
4.009,-0.8747863769531251,7.194781494140625,15.135000610351565
4.0190000000000055,-0.43245849609375,7.551425170898438,0.9335540771484376
4.029000000000011,0.5881256103515625,9.32312927246094,12.474453735351563
4.0390000000000015,1.2940856933593752,9.264511108398438,7.822833251953125
4.049000000000007,-0.7277923583984376,6.987075805664063,0.7766906738281251
4.059000000000012,-0.8608795166015626,7.270745849609375,-0.63343505859375
4.069000000000003,0.4918243408203125,7.691241455078125,9.237445068359376
4.079000000000008,0.7632324218750001,6.329116821289063,7.223641967773438
4.088999999999999,-0.30445556640625,6.720901489257813,2.1202728271484377
4.099000000000004,-0.0109161376953125,9.889422607421876,6.268255615234375
4.109000000000009,1.1931488037109377,10.53631591796875,8.479595947265626
4.119,0.5650970458984376,8.071511840820314,4.6786865234375
4.129000000000005,-0.2911468505859375,6.403286743164063,4.670910644531251
4.13900000000001,-0.30625,6.717013549804688,8.823080444335938
4.149000000000001,-0.1232177734375,6.790435791015626,6.991412353515625
4.160000000000011,-0.22310791015625,7.122854614257813,2.5030853271484377
4.170000000000002,-0.653472900390625,8.395556640625001,3.897509765625
4.180000000000007,-0.5316009521484375,9.17374267578125,7.29796142578125
4.190000000000012,-0.229986572265625,8.71317138671875,6.478054809570313
4.200000000000003,-0.309539794921875,7.88115234375,5.3294677734375
4.210000000000008,-0.0234771728515625,8.045941162109376,6.356182861328126
4.219999999999999,0.30206298828125,7.712026977539063,6.111093139648438
4.230000000000004,-0.1993316650390625,5.909817504882813,4.9203369140625
4.240000000000009,-0.5307037353515626,4.529449462890625,4.74747314453125
4.25,0.0758148193359375,5.901742553710938,4.163235473632813
4.260000000000005,0.4314117431640625,10.241580200195314,3.675747680664063
4.27000000000001,0.390887451171875,13.156188964843752,5.508312988281251
4.280000000000001,0.6640899658203125,11.091693115234376,6.065335083007813
4.290000000000006,1.0588653564453123,8.590402221679689,8.667562866210938
4.300000000000011,1.3932281494140626,5.628390502929688,12.14053955078125
4.311000000000007,-0.4151123046875,5.137762451171875,9.33045654296875
4.320999999999998,-0.9455169677734376,5.648129272460938,1.2538604736328125
4.331000000000003,-1.053631591796875,8.596084594726562,-0.6290985107421876
4.341000000000008,-1.882061767578125,10.312310791015626,4.529449462890625
4.350999999999999,-0.8952728271484376,8.483782958984376,7.437030029296875
4.361000000000004,-0.5019927978515626,7.2830078125,5.145687866210938
4.371000000000009,0.4284210205078125,8.636758422851564,9.634912109375
4.381,0.7790832519531251,9.249557495117188,10.107147216796877
4.391000000000005,-0.2468841552734375,8.081829833984376,2.463009643554688
4.4010000000000105,-0.8043548583984376,7.317700195312501,-0.56524658203125
4.411000000000001,0.6129486083984376,7.599575805664063,6.984384155273438
4.421000000000007,1.6493835449218752,6.9061767578125,7.965191650390626
4.431000000000012,1.0768096923828123,6.22728271484375,2.754904174804688
4.4410000000000025,-0.4981048583984375,8.77418212890625,4.605563354492188
4.451999999999998,-0.6700714111328125,10.305581665039064,8.347256469726563
4.462000000000003,-0.3796722412109375,8.849398803710939,5.762973022460938
4.472000000000008,-0.7979248046875,7.196127319335938,4.605114746093751
4.481999999999999,-0.9876861572265626,6.705050659179688,8.202056884765625
4.492000000000004,-0.372943115234375,6.900344848632813,7.30394287109375
4.503,-0.1081146240234375,6.990963745117188,3.142501831054688
4.5120000000000005,-0.2178741455078125,8.063287353515626,3.2882995605468754
4.522000000000006,0.174658203125,8.624047851562501,6.402838134765625
4.532000000000011,0.7363159179687501,8.422024536132813,6.746322631835938
4.542000000000002,0.441131591796875,8.144784545898439,6.202908325195313
4.552000000000007,0.55328369140625,8.482437133789062,6.405978393554688
4.562000000000012,0.7245025634765625,8.063436889648438,5.792431640625001
4.572000000000003,0.3733917236328125,7.179080200195313,5.0441528320312505
4.582999999999998,0.5725738525390626,5.007965087890625,5.1178741455078125
4.593000000000004,0.96719970703125,3.9592681884765626,4.252658081054688
4.603000000000009,-0.0227294921875,7.320690917968751,3.320599365234376
4.613,-1.2046630859375,13.938711547851565,5.516836547851563
4.623000000000005,-0.7671203613281251,12.611428833007814,4.886990356445313
4.63300000000001,-1.3378997802734376,9.911105346679689,5.9395751953125
4.643000000000001,-0.5636016845703126,5.643045043945313,14.587399291992188
4.653000000000006,-0.0118133544921875,5.070321655273438,13.635601806640626
4.663000000000011,-0.4873382568359375,4.576254272460938,1.666729736328125
4.673000000000002,-0.471337890625,7.528695678710938,-0.7476806640625
4.683000000000007,-0.2528656005859375,10.885931396484375,-0.432159423828125
4.692999999999998,0.0620574951171875,9.761868286132811,4.5810394287109375
4.703000000000003,-0.8260375976562501,7.00487060546875,9.481039428710938
4.713000000000008,-0.7011749267578126,8.013940429687501,7.665969848632813
4.724000000000004,1.34522705078125,9.511395263671876,12.4808837890625
4.734000000000009,0.3898406982421875,8.68505859375,4.889981079101563
4.744,-0.7636810302734376,7.184164428710938,-0.407037353515625
4.754000000000005,-0.8680572509765626,7.679129028320313,1.9001556396484376
4.76400000000001,0.205462646484375,7.035525512695313,8.975308227539063
4.774000000000001,0.5357879638671875,5.786450195312501,4.207199096679688
4.784000000000006,0.356793212890625,7.394561767578126,3.7811706542968753
4.794000000000011,0.337652587890625,10.281805419921875,7.473217773437501
4.804000000000002,1.1669799804687502,10.102362060546875,6.726284790039063
4.814000000000007,0.9787139892578126,7.735653686523438,4.715173339843751
4.823999999999998,-0.45279541015625,6.71776123046875,7.258483886718751
4.834000000000003,-0.5058807373046875,6.657498168945313,8.450585937500001
4.844000000000008,-0.281427001953125,6.658694458007813,5.344570922851563
4.853999999999999,-0.46715087890625,7.337887573242188,3.0581634521484378
4.864000000000004,-0.7415496826171876,8.729470825195314,4.427166748046876
4.875,-0.4879364013671875,9.22578125,5.8426757812500005
4.885000000000005,-0.6424072265625,8.404379272460938,6.325378417968751
4.89500000000001,-0.4813568115234375,7.923770141601563,6.473269653320313
4.905000000000001,0.414215087890625,7.909115600585938,6.057708740234375
4.915000000000006,0.3529052734375,7.203155517578126,5.855535888671875
4.925000000000011,-0.5310028076171875,4.581338500976563,5.390328979492188
4.935000000000002,-0.2815765380859375,4.437335205078125,3.284561157226563
4.945000000000007,0.4122711181640625,9.281109619140626,3.4297607421875003
4.954999999999998,0.8465240478515625,12.62907409667969,6.033932495117188
4.965000000000003,0.256903076171875,11.443402099609376,4.607507324218751
4.9750000000000085,0.7077545166015625,9.012542724609377,8.253048706054688
4.984999999999999,2.00677490234375,7.109396362304688,14.027685546875
4.9950000000000045,-0.3264373779296875,6.0894104003906255,10.124343872070312
5.00500000000001,-0.6554168701171875,4.918841552734375,0.2531646728515625
5.016000000000005,-0.8414398193359376,7.650717163085938,-0.6009857177734376
5.0260000000000105,-2.679388427734376,9.840075683593753,7.360617065429688
5.036000000000001,-0.6270050048828125,8.43084716796875,3.6123443603515626
5.046000000000007,0.0904693603515625,7.6072021484375005,3.1625396728515627
5.057000000000002,0.798223876953125,8.970971679687501,11.045187377929688
5.0660000000000025,0.9126190185546876,9.303091430664065,11.753390502929689
5.076000000000008,-0.4756744384765625,8.060894775390626,3.1239593505859378
5.085999999999999,-0.7856628417968751,7.481292724609376,-0.48150634765625
5.096000000000004,1.02103271484375,7.969378662109375,7.022665405273438
5.106000000000009,1.6296447753906251,6.71776123046875,7.40921630859375
5.116,-0.11663818359375,5.68297119140625,2.430560302734375
5.126000000000005,-0.717474365234375,8.261123657226562,4.268060302734376
5.13600000000001,-0.254510498046875,10.202252197265626,7.802197265625001
5.146000000000001,-0.6871185302734375,9.042449951171877,5.765814208984375
5.157000000000011,-1.18731689453125,7.517630004882813,5.182025146484375
5.166000000000011,-0.662445068359375,7.040310668945313,8.582925415039064
5.177000000000007,-0.0346923828125,6.941467285156251,7.914947509765626
5.187000000000012,0.0040374755859375,6.982290649414063,3.6362701416015626
5.197000000000003,-0.150732421875,7.799655151367188,3.0068725585937504
5.207000000000008,0.091815185546875,8.49185791015625,5.675045776367188
5.216999999999999,0.73511962890625,8.490512084960939,5.990866088867188
5.227000000000004,0.6823333740234375,8.170654296875,5.852096557617188
5.237000000000009,0.343035888671875,8.249160766601562,6.581683349609375
5.247,0.7562042236328126,7.789785766601563,6.198571777343751
5.257000000000005,0.996807861328125,5.91864013671875,5.073013305664063
5.26700000000001,1.0084716796875002,4.0890655517578125,4.362716674804688
5.277000000000001,0.0004486083984375,7.347906494140625,3.9538848876953128
5.287000000000006,-0.9666015625,12.876705932617188,5.146136474609375
5.297000000000011,-0.327484130859375,11.601162719726563,4.015194702148438
5.308000000000007,-1.6946929931640626,9.261968994140624,6.389529418945313
5.317999999999998,-1.8279296875,5.872134399414063,14.358758544921876
5.328000000000003,-0.5492462158203125,6.301751708984376,12.556997680664065
5.338000000000008,-0.515301513671875,5.6696624755859375,1.3992095947265626
5.347999999999999,-0.1075164794921875,7.520620727539063,-0.7895507812500001
5.358000000000004,0.469244384765625,10.28509521484375,0.658856201171875
5.368000000000009,0.0327484130859375,8.97037353515625,11.289230346679688
5.378,-0.5148529052734375,7.039712524414063,0.8094390869140625
5.388000000000005,-0.8770294189453126,8.141345214843751,9.2556884765625
5.39800000000001,2.3116790771484377,9.581378173828126,10.968325805664064
5.408000000000001,0.0611602783203125,8.67010498046875,5.251858520507813
5.422000000000011,-0.8569915771484375,7.037469482421876,0.171966552734375
5.428000000000012,-0.951947021484375,7.775280761718751,5.140005493164063
5.438000000000002,1.1840270996093751,7.3846923828125,7.929452514648438
5.448999999999998,0.2627349853515625,5.879312133789063,3.9710815429687503
5.459000000000003,-0.9725830078125,7.4540771484375,3.3691986083984378
5.469000000000008,0.230584716796875,10.012640380859375,7.078890991210938
5.478999999999999,1.1994293212890623,9.61636962890625,6.511102294921876
5.489000000000004,-0.0351409912109375,7.571014404296876,4.591656494140626
5.499000000000009,-0.2500244140625,7.005618286132813,7.3344482421875
5.509,0.060711669921875,7.068124389648438,8.791827392578126
5.5190000000000055,-0.181536865234375,6.928009033203126,5.2792236328125
5.529000000000011,-0.2612396240234375,7.413403320312501,2.6956878662109376
5.5390000000000015,-0.2669219970703125,8.543447875976563,5.028302001953126
5.549000000000007,-0.3010162353515625,8.78375244140625,6.641796875000001
5.559000000000012,-0.3889434814453125,8.220449829101563,5.550482177734375
5.569000000000003,-0.1350311279296875,8.022164916992189,5.4737701416015625
5.579000000000008,0.06160888671875,8.165719604492189,6.459362792968751
5.590000000000003,-0.2839691162109375,6.28709716796875,5.870489501953125
5.6000000000000085,-0.5464050292968751,4.181179809570313,4.485485839843751
5.609999999999999,-0.290997314453125,6.148477172851563,3.7040100097656254
5.6200000000000045,0.2172760009765625,11.480187988281251,5.4767608642578125
5.63000000000001,0.63223876953125,11.683258056640623,4.521673583984375
5.640000000000001,0.9550872802734376,10.343563842773438,5.382852172851563
5.650000000000006,1.574465942382813,7.397402954101563,11.49573974609375
5.660000000000011,1.2122894287109376,6.722396850585938,12.571353149414064
5.670000000000002,-0.7826721191406251,5.511453247070313,4.390380859375
5.680000000000007,-0.8243927001953125,6.251058959960938,-0.5299560546875001
5.690000000000012,-2.266220092773437,9.230715942382814,4.837045288085938
5.700000000000003,-0.7514190673828125,9.425711059570313,5.752206420898438
5.710999999999999,-0.2217620849609375,7.888778686523438,2.890084838867188
5.721000000000004,-0.27454833984375,8.018426513671876,7.306335449218751
5.731000000000009,0.427374267578125,9.084768676757813,11.51712341308594
5.741,-0.012860107421875,8.734255981445314,6.842773437500001
5.751000000000005,-0.8125793457031251,7.481143188476563,0.6495849609375001
5.76100000000001,0.0312530517578125,7.790383911132813,3.843228149414063
5.771000000000001,0.76502685546875,7.5384155273437505,7.717111206054688
5.781000000000006,0.8915344238281251,6.101522827148438,4.6777893066406255
5.791000000000011,0.6672302246093751,6.989169311523438,3.389236450195313
5.801000000000002,-0.2483795166015625,9.299053955078126,6.5544677734375005
5.811000000000007,0.1538726806640625,9.86160888671875,6.688003540039063
5.820999999999998,-0.6751556396484375,8.13416748046875,4.998095703125
5.831000000000003,-0.817364501953125,7.198370361328125,6.807931518554688
5.841000000000008,-0.2319305419921875,7.1600891113281255,7.995697021484376
5.850999999999999,-0.109759521484375,6.969580078125,5.4782562255859375
5.861000000000004,-0.6329864501953125,7.339682006835938,3.3968627929687503
5.872,-0.31103515625,8.265310668945313,4.320397949218751
5.881,0.2797821044921875,8.34830322265625,6.140701293945313
5.89200000000001,0.04306640625,8.037567138671875,6.760977172851563
5.902000000000001,0.3398956298828125,8.113531494140625,6.308779907226563
5.912000000000006,0.6981842041015626,8.589953613281251,5.6781860351562505
5.922000000000011,0.7840179443359375,7.641146850585938,5.663381958007813
5.932000000000002,0.835308837890625,5.076153564453126,5.328421020507813
5.942000000000007,0.8806182861328126,4.096392822265625,3.9278656005859376
5.951999999999998,-0.1664337158203125,8.3082275390625,4.117327880859375
5.962000000000003,-0.3578399658203125,13.204937744140626,5.91026611328125
5.972000000000008,-0.6090606689453125,11.45087890625,3.3700958251953126
5.981999999999999,-1.7057586669921876,8.895306396484376,6.840081787109376
5.992000000000004,-0.8541503906250001,5.71885986328125,15.434521484375
6.004000000000005,-0.2453887939453125,6.116326904296876,11.408859252929688
6.013000000000005,-0.3925323486328125,5.426068115234376,0.0569732666015625
6.02300000000001,-0.1033294677734375,8.176785278320313,-0.6386688232421875
6.033000000000001,0.2247528076171875,10.456015014648438,1.453790283203125
6.043000000000006,-0.6732116699218751,8.632421875,11.645425415039064
6.053000000000012,-0.4990020751953125,7.216763305664063,-0.34512939453125
6.063000000000002,-0.6270050048828125,8.37821044921875,10.990008544921876
6.073000000000008,1.9436706542968751,9.425112915039064,10.9663818359375
6.082999999999998,-0.4496551513671875,8.279367065429689,3.696383666992188
6.093000000000004,-0.8836090087890626,7.219754028320313,-0.375634765625
6.103999999999999,-0.3213531494140625,7.88175048828125,6.198721313476563
6.113,1.0413696289062502,7.267605590820313,7.436282348632813
6.123000000000005,0.1481903076171875,5.822637939453125,3.366656494140625
6.13300000000001,-0.6225189208984375,7.7555419921875,4.63262939453125
6.143000000000001,0.401654052734375,10.022509765625,7.601519775390625
6.154000000000011,1.0896697998046876,9.446197509765623,5.541958618164063
6.1640000000000015,0.35828857421875,7.543499755859376,4.8188018798828125
6.174000000000007,-0.5108154296875,6.958514404296875,8.120559692382812
6.184000000000012,0.2097991943359375,6.95103759765625,7.84586181640625
6.194000000000003,-0.0327484130859375,6.987225341796876,4.496701049804688
6.204000000000008,-0.6945953369140625,7.626492309570313,3.4680419921875
6.213999999999999,-0.6410614013671876,8.620458984375,5.2075958251953125
6.224000000000004,-0.2749969482421875,8.714068603515626,6.031988525390625
6.234000000000009,-0.3991119384765625,8.139550781250001,6.013446044921875
6.244,-0.2594451904296875,8.057604980468751,6.123504638671875
6.254000000000005,0.1691253662109375,7.67239990234375,5.975015258789063
6.265000000000001,-0.2893524169921875,5.48917236328125,5.424273681640625
6.274000000000001,-0.3434844970703125,4.480551147460938,4.235910034179688
6.284000000000006,0.0961517333984375,7.841674804687501,3.6766448974609376
6.294000000000011,0.3189605712890625,12.213363647460938,5.7978149414062505
6.305000000000007,0.98275146484375,11.65469665527344,4.461859130859375
6.315000000000012,1.1671295166015625,9.384140014648438,7.086517333984376
6.325000000000003,1.70052490234375,6.827819824218751,12.471313476562502
6.335000000000008,0.2791839599609375,6.006268310546876,11.0429443359375
6.344999999999999,-0.8208038330078126,5.102621459960938,1.948306274414063
6.355000000000004,-0.9431243896484376,7.271044921875,-0.5357879638671875
6.365000000000009,-2.524468994140625,9.865197753906251,6.156402587890626
6.375,-0.7591949462890626,9.237295532226565,5.469284057617188
6.385000000000005,-0.515899658203125,7.704101562500001,3.3401885986328126
6.39500000000001,0.1766021728515625,8.44520263671875,9.243576049804688
6.405000000000001,0.7153808593750001,9.136956787109376,11.804830932617188
6.415000000000006,-0.4335052490234375,8.134466552734375,4.43643798828125
6.425000000000011,-0.883160400390625,7.465740966796876,-0.56943359375
6.435000000000002,0.2189208984375,7.730120849609375,5.247222900390625
6.445000000000007,0.8946746826171875,7.126593017578125,8.317648315429688
6.456000000000003,0.5867797851562501,6.097933959960938,3.1043701171875004
6.466000000000008,0.8952728271484376,7.83150634765625,3.5076690673828126
6.475999999999999,0.0865814208984375,10.1864013671875,8.085418701171875
6.486000000000004,-0.3031097412109375,9.2509033203125,6.539962768554688
6.496000000000009,-0.6141448974609376,7.594491577148438,4.26297607421875
6.506,-0.7292877197265626,6.914700317382813,7.598080444335938
6.516000000000005,-0.3291290283203125,6.965093994140625,8.435632324218751
6.5260000000000105,-0.369952392578125,6.857876586914063,4.1044677734375
6.536000000000001,-0.404345703125,7.646829223632813,2.757296752929688
6.546000000000007,-0.2214630126953125,8.494549560546876,5.839834594726563
6.556000000000012,0.180938720703125,8.65455322265625,6.642395019531251
6.5660000000000025,0.200079345703125,8.290881347656251,5.529696655273438
6.576000000000008,0.2966796875,8.253497314453126,6.347210693359376
6.585999999999999,0.8318695068359375,8.099475097656251,6.4133056640625
6.597000000000008,1.1720642089843751,6.494204711914063,4.831961059570313
6.606999999999999,1.10537109375,4.62425537109375,4.574160766601563
6.617000000000004,0.8276824951171876,4.667919921875001,4.558908081054688
6.6270000000000095,-0.640911865234375,11.201751708984377,4.201068115234375
6.6370000000000005,-0.6581085205078125,13.614517211914064,5.477508544921875
6.647000000000006,-0.616986083984375,11.061038208007814,4.591207885742188
6.657000000000011,-1.5462036132812502,6.604263305664063,9.619061279296876
6.667000000000002,-0.5310028076171875,4.861419677734375,14.80931091308594
6.677000000000007,-0.6993804931640626,5.644989013671875,7.575350952148438
6.687000000000012,-0.3135772705078125,6.068475341796876,-0.7233062744140626
6.697000000000003,-0.407037353515625,9.039758300781251,-0.4442718505859375
6.707000000000008,-0.2763427734375,11.007653808593751,1.440032958984375
6.716999999999999,-1.0777069091796876,7.859619140625001,14.734393310546876
6.728000000000009,-0.4055419921875,7.293026733398438,0.7979248046875
6.738,0.647491455078125,9.004916381835939,11.09976806640625
6.748000000000005,2.0854309082031253,9.677978515625,9.416738891601565
6.75800000000001,-0.2782867431640625,7.354037475585938,1.7721527099609375
6.768000000000001,-0.8100372314453126,6.970477294921875,-0.7548583984375
6.778000000000006,-0.16748046875,7.7029052734375005,6.444558715820313
6.788000000000011,0.6287994384765625,6.788043212890625,8.999682617187501
6.798000000000002,-0.5094696044921876,6.432296752929688,2.5313476562500004
6.808000000000007,-0.7660736083984375,8.989813232421875,4.9683380126953125
6.817999999999998,0.83082275390625,10.818191528320312,8.756686401367189
6.828000000000003,0.7659240722656251,8.609841918945314,5.804693603515625
6.838000000000008,-0.4723846435546875,6.647927856445313,3.773843383789063
6.847999999999999,-0.387298583984375,6.513195800781251,7.732513427734376
6.858000000000004,0.444720458984375,7.086068725585938,7.807879638671875
6.868000000000009,0.29129638671875,7.039263916015625,2.8990570068359376
6.879000000000005,-0.21533203125,8.093942260742189,2.656808471679688
6.88900000000001,-0.453094482421875,8.854333496093751,7.085919189453126
6.899000000000001,-0.15252685546875,8.58756103515625,8.225234985351562
6.909000000000006,-0.128900146484375,8.065829467773439,5.759982299804688
6.919000000000011,-0.0118133544921875,8.083175659179688,5.209539794921875
6.929000000000002,0.0148040771484375,7.990911865234375,6.184066772460938
6.939000000000007,-0.479412841796875,5.982791137695313,5.146585083007813
6.948999999999998,-0.5609100341796875,4.066934204101563,3.7663665771484376
6.959000000000003,-0.0384307861328125,5.871087646484376,3.5404174804687503
6.969000000000008,0.1792938232421875,11.706137084960938,5.95811767578125
6.978999999999999,0.4505523681640625,12.498828125,5.559155273437501
6.989000000000004,0.7843170166015626,10.6338134765625,5.07525634765625
6.999000000000009,1.0561737060546876,7.560546875000001,10.726675415039065
7.009,0.9374420166015626,6.242236328125,12.632662963867189
7.02000000000001,-0.8453277587890625,5.024114990234375,5.111444091796876
7.030000000000001,-0.7239044189453125,5.7649169921875005,-0.6195281982421875
7.040000000000006,-1.777386474609375,9.1958740234375,2.671014404296875
7.050000000000011,-1.030303955078125,9.9064697265625,6.410015869140626
7.060000000000002,-0.0160003662109375,8.19697265625,4.171459960937501
7.070000000000007,-0.5088714599609375,7.814758300781251,7.398150634765625
7.079999999999998,0.6225189208984375,9.068020629882811,11.51846923828125
7.090000000000003,0.4415802001953125,8.896502685546876,7.720401000976563
7.1000000000000085,-0.5625549316406251,7.467834472656251,0.6374725341796875
7.109999999999999,-0.3883453369140625,7.550527954101563,1.7563018798828127
7.121000000000009,0.7364654541015625,7.548284912109375,7.814010620117188
7.13000000000001,1.0986419677734376,6.441418457031251,5.14404296875
7.140000000000001,0.34034423828125,6.622955322265626,2.769708251953125
7.150000000000006,-0.5247222900390626,9.334793090820312,6.612637329101563
7.161000000000001,-0.15252685546875,10.194625854492188,7.869488525390626
7.171000000000007,-0.5321990966796876,8.246768188476564,5.025909423828125
7.181000000000012,-0.7681671142578126,7.174295043945313,5.761029052734376
7.1910000000000025,-0.2763427734375,6.947897338867188,8.349349975585938
7.201000000000008,-0.184228515625,6.879110717773438,6.198721313476563
7.2109999999999985,-0.4628143310546875,7.007562255859376,2.887692260742188
7.222000000000008,0.0408233642578125,8.219851684570314,3.9686889648437504
7.231000000000009,0.4813568115234375,8.624346923828126,6.558206176757813
7.241,0.31761474609375,8.313760375976564,6.811968994140625
7.251000000000005,0.2133880615234375,8.119662475585939,5.916995239257813
7.26100000000001,0.6114532470703126,8.432940673828126,6.014193725585938
7.271000000000001,1.2013732910156252,6.856979370117188,5.7230468750000005
7.281000000000006,1.0573699951171875,4.2767333984375,4.4205871582031255
7.291000000000011,0.7985229492187501,4.790539550781251,3.324636840820313
7.301000000000002,-0.8420379638671875,11.859561157226564,4.752557373046876
7.312000000000012,-0.6210235595703125,13.073794555664064,5.5151916503906255
7.322000000000003,-0.3593353271484375,10.678973388671876,3.979754638671875
7.332000000000008,-1.5948028564453127,6.506167602539063,11.469570922851563
7.341999999999999,-0.8725433349609376,5.373431396484375,15.76394958496094
7.352000000000004,-0.64599609375,5.455078125,5.820993041992188
7.362000000000009,-0.2404541015625,6.187057495117188,-1.008770751953125
7.372,-0.240753173828125,9.373074340820311,-0.334661865234375
7.382000000000005,-0.2845672607421875,10.65115966796875,1.9200439453125
7.39200000000001,-1.7560028076171876,7.413253784179688,12.565969848632813
7.402000000000001,-0.20157470703125,7.508657836914063,1.347320556640625
7.412000000000006,0.7421478271484375,9.171350097656251,12.707879638671876
7.422000000000011,1.8005645751953123,9.492404174804689,8.473016357421876
7.432000000000002,-0.3763824462890625,7.398449707031251,1.2860107421875
7.442999999999998,-0.895123291015625,7.227529907226563,0.175555419921875
7.453000000000003,0.054730224609375,7.691091918945313,7.990313720703125
7.463000000000008,1.104473876953125,6.571664428710938,6.358126831054688
7.472999999999999,0.1173858642578125,6.409567260742188,2.7961761474609377
7.483000000000004,-0.910076904296875,9.013290405273438,5.7469726562500005
7.493000000000009,1.0140045166015623,10.45257568359375,8.09588623046875
7.503,0.950750732421875,8.495297241210938,5.266064453125001
7.513000000000005,-0.7529144287109375,6.873577880859376,4.899850463867188
7.52300000000001,-0.5262176513671876,6.837838745117188,8.321237182617189
7.533000000000001,0.2657257080078125,6.934439086914063,7.534228515625
7.543000000000006,-0.173760986328125,7.128536987304688,3.14085693359375
7.5530000000000115,-0.3982147216796875,8.078091430664063,2.667425537109376
7.563000000000002,-0.3632232666015625,8.978598022460938,6.645086669921875
7.573000000000007,-0.46595458984375,8.527297973632812,7.392019653320313
7.582999999999998,-0.1879669189453125,7.938125610351563,5.223297119140625
7.594000000000008,0.2456878662109375,7.719802856445313,5.282064819335938
7.603999999999999,0.0121124267578125,6.408969116210938,6.891671752929688
7.614000000000004,-0.7633819580078125,4.880709838867188,5.117276000976563
7.624000000000009,-0.4966094970703125,6.43663330078125,2.5811431884765628
7.634,0.270361328125,11.472412109375,4.533337402343751
7.644000000000005,1.048098754882813,11.558544921875,5.917144775390625
7.654000000000011,0.973779296875,9.582125854492189,5.664279174804688
7.6640000000000015,0.8691040039062501,7.003375244140625,10.463790893554688
7.674000000000007,0.7496246337890625,6.590805053710938,12.66810302734375
7.684000000000012,-0.73272705078125,6.008660888671876,5.231072998046876
7.694000000000003,-0.7176239013671876,6.69144287109375,-0.7955322265625001
7.704000000000008,-1.6984313964843751,9.29322204589844,3.476715087890625
7.713999999999999,-0.670819091796875,9.416140747070314,7.469927978515625
7.725000000000008,-0.125909423828125,7.539761352539063,3.200372314453125
7.734999999999999,0.1724151611328125,7.938424682617188,6.105709838867188
7.745000000000003,0.83680419921875,9.217257690429689,11.383288574218753
7.75500000000001,-0.237762451171875,8.659936523437501,7.185659790039063
7.765000000000001,-0.9634613037109376,7.524359130859375,0.2068084716796875
7.775000000000006,0.3258392333984375,7.730868530273438,3.475668334960938
7.785000000000011,1.702618408203125,7.408169555664063,9.060543823242188
7.795000000000002,0.2572021484375,6.251657104492188,4.89940185546875
7.805000000000007,-0.66693115234375,7.02042236328125,2.328277587890625
7.815000000000012,-0.13458251953125,9.653903198242189,6.778173828125
7.825000000000003,-0.083740234375,9.7557373046875,7.249960327148438
7.835000000000008,-0.6054718017578126,7.854086303710938,4.2101898193359375
7.844999999999999,-0.7925415039062501,6.993356323242188,6.711331176757813
7.855000000000004,-0.28770751953125,7.083526611328126,8.971270751953126
7.865000000000009,0.0067291259765625,7.072012329101563,5.112191772460938
7.876000000000005,-0.232379150390625,7.550976562500001,2.33037109375
7.88600000000001,-0.377130126953125,8.456716918945313,5.165576171875
7.896000000000001,0.2800811767578125,8.361312866210938,6.810324096679688
7.906000000000006,0.6581085205078125,7.93199462890625,5.864956665039063
7.916000000000011,0.313726806640625,8.043698120117188,6.173300170898438
7.926000000000002,0.5453582763671876,7.788290405273438,6.270797729492188
7.936000000000007,0.9733306884765626,5.7768798828125005,4.581338500976563
7.945999999999998,0.9565826416015626,4.604815673828125,3.933547973632813
7.956000000000003,-0.3488677978515625,9.156396484375,4.8820556640625
7.966000000000008,-0.6437530517578125,12.23564453125,6.095989990234376
7.975999999999999,-0.35589599609375,10.824771118164064,3.41121826171875
7.986000000000004,-1.5394744873046875,7.880105590820313,7.992706298828126
7.996000000000009,-0.50543212890625,5.905780029296875,14.394796752929688
8.006,-0.544012451171875,6.513345336914063,8.8824462890625
8.01700000000001,-0.3117828369140625,6.1078033447265625,-0.3940277099609375
8.027000000000001,0.0237762451171875,8.417987060546876,-0.5725738525390626
8.037000000000006,0.216229248046875,10.10071716308594,8.947195434570313
8.047000000000011,-0.8130279541015626,8.237796020507814,5.974118041992188
8.057000000000002,-1.039276123046875,7.328018188476563,3.5211273193359376
8.067000000000007,0.6585571289062501,8.644534301757814,9.398196411132814
8.076999999999998,1.51749267578125,9.388327026367188,9.892263793945313
8.087000000000003,-0.6089111328125001,7.88414306640625,2.7058563232421875
8.097000000000008,-0.9842468261718752,7.310073852539063,0.9018524169921877
8.107,-0.13338623046875,8.019622802734375,6.610693359375
8.117000000000004,1.19569091796875,7.271942138671876,6.8505493164062505
8.12700000000001,-0.1260589599609375,6.210385131835938,3.505575561523438
8.137,-0.7762420654296875,7.925415039062501,5.226736450195313
8.14800000000001,0.5591156005859376,9.76650390625,7.531985473632813
8.15700000000001,1.109857177734375,8.773434448242188,5.59564208984375
8.168000000000006,-0.4227386474609375,7.300503540039063,4.92392578125
8.178000000000011,-0.33914794921875,7.110443115234376,7.518078613281251
8.188000000000002,0.385504150390625,7.337738037109376,7.470227050781251
8.198000000000008,-0.253314208984375,7.284802246093751,4.329071044921875
8.207999999999998,-0.4653564453125,7.796514892578125,3.213531494140625
8.218000000000004,-0.18243408203125,8.590402221679689,5.657849121093751
8.228000000000009,-0.33555908203125,8.520718383789063,6.965542602539063
8.238,-0.4224395751953125,7.775430297851563,5.771047973632813
8.248000000000005,-0.071478271484375,8.119512939453125,5.260830688476563
8.25800000000001,-0.0179443359375,7.298110961914063,6.223245239257813
8.268,-0.4765716552734375,5.079742431640625,5.603268432617188
8.278000000000006,-0.668426513671875,4.881008911132813,3.67978515625
8.288000000000011,-0.091815185546875,9.64508056640625,4.132879638671875
8.299000000000007,0.53055419921875,12.39893798828125,5.692391967773438
8.309000000000012,0.9621154785156252,10.826715087890626,4.47711181640625
8.319000000000003,0.8703002929687501,8.277423095703126,8.190841674804688
8.329000000000008,1.797723388671875,6.295919799804688,12.839920043945314
8.338999999999999,-0.0737213134765625,5.927163696289063,9.374868774414065
8.349000000000004,-0.8164672851562501,5.800357055664063,0.6700714111328125
8.359000000000009,-1.283917236328125,8.343069458007813,0.243743896484375
8.369,-1.2921417236328123,10.072454833984375,7.125994873046875
8.379000000000005,-0.23028564453125,8.593093872070312,4.957272338867188
8.38900000000001,-0.1813873291015625,7.407720947265625,4.3308654785156255
8.399000000000001,0.5211334228515625,8.525802612304688,10.19537353515625
8.409000000000006,0.3237457275390625,8.913848876953125,9.9818359375
8.419000000000011,-0.8843566894531251,8.015435791015626,2.3873443603515625
8.429000000000002,-0.4894317626953125,7.574453735351563,0.5803497314453125
8.440000000000012,0.8798706054687501,7.988967895507813,7.270596313476563
8.450000000000003,1.1472412109375,6.994552612304688,6.587814331054688
8.460000000000008,0.1399658203125,6.322537231445313,2.864364624023437
8.469999999999999,-0.5238250732421875,8.252001953125001,5.568426513671875
8.480000000000004,-0.1045257568359375,9.821832275390626,7.837338256835938
8.490000000000009,-0.07835693359375,8.827117919921875,4.9204864501953125
8.5,-0.9060394287109376,7.3607666015625,5.048489379882813
8.510000000000005,-0.6380706787109376,7.084722900390625,8.352789306640625
8.52000000000001,-0.092413330078125,6.970776367187501,6.944009399414063
8.530000000000001,-0.271856689453125,7.132424926757813,3.5855773925781254
8.540000000000006,-0.3952239990234375,7.973266601562501,3.930108642578125
8.550000000000011,0.1182830810546875,8.6982177734375,5.7997589111328125
8.560000000000002,0.3566436767578125,8.257983398437501,6.176141357421876
8.570000000000007,0.1664337158203125,8.064035034179689,6.314910888671876
8.579999999999998,0.39716796875,8.246768188476564,6.3199951171875
8.591000000000008,0.8531036376953126,7.745523071289063,5.4528350830078125
8.600999999999999,0.8424865722656251,5.924472045898438,5.219259643554688
8.611000000000004,0.7301849365234375,4.395465087890625,4.830166625976563
8.62100000000001,0.19559326171875,6.287994384765626,3.4933135986328128
8.631,-0.7388580322265625,12.807321166992187,4.821792602539063
8.641000000000005,-0.302960205078125,12.602008056640626,5.658148193359375
8.65100000000001,-1.5243713378906252,10.123895263671876,5.080789184570313
8.661000000000001,-1.1186798095703123,5.890676879882813,11.46044921875
8.671000000000006,-0.02332763671875,5.137014770507813,14.478985595703126
8.681000000000012,-0.7422973632812501,5.39287109375,4.326828002929688
8.691000000000003,-0.342138671875,6.768453979492188,-0.93250732421875
8.701000000000008,-0.0207855224609375,10.04822998046875,-0.4397857666015625
8.710999999999999,0.2397064208984375,10.211672973632814,5.567080688476563
8.722999999999999,-0.7630828857421875,7.26925048828125,11.001223754882814
8.732,0.05323486328125,7.90328369140625,1.8847534179687504
8.742000000000004,0.91575927734375,9.312213134765626,13.102505493164063
8.75200000000001,0.819158935546875,8.985775756835938,7.028198242187501
8.762,-0.7701110839843751,7.117471313476563,0.5042358398437501
8.772000000000006,-0.758148193359375,7.42716064453125,-0.3943267822265625
8.78200000000001,0.1048248291015625,7.558303833007813,10.5141845703125
8.792000000000002,0.3219512939453125,6.444110107421875,5.950192260742188
8.802000000000007,-0.5959014892578125,7.038815307617188,2.2204620361328127
8.812000000000012,-0.144451904296875,9.724185180664064,7.003823852539063
8.823000000000008,0.98514404296875,10.167410278320313,8.032183837890626
8.832000000000008,0.7262969970703126,7.9227233886718755,4.159497070312501
8.841999999999999,-0.34512939453125,6.6980224609375005,5.28759765625
8.852000000000004,-0.1000396728515625,6.822735595703126,8.585317993164063
8.862000000000009,0.3291290283203125,6.955673217773438,5.992959594726563
8.872,0.0016448974609375,7.318746948242188,2.388540649414063
8.882000000000005,-0.5446105957031251,8.349798583984375,4.852896118164063
8.893,-0.4314117431640625,8.742330932617188,7.53482666015625
8.903000000000006,-0.3683074951171875,8.364004516601563,6.538467407226563
8.913000000000011,-0.3617279052734375,8.113082885742188,5.4897705078125005
8.923000000000002,-0.0450103759765625,8.160037231445314,6.015988159179688
8.933000000000007,-0.2687164306640625,7.147677612304688,5.617922973632813
8.942999999999998,-0.620574951171875,4.8068389892578125,4.601824951171875
8.953000000000003,-0.6880157470703125,5.127294921875,3.934146118164063
8.963000000000008,-0.0542816162109375,9.130825805664063,4.506719970703125
8.972999999999999,0.6156402587890626,11.728717041015626,5.3773193359375
8.983000000000004,0.9704895019531252,10.870080566406251,4.7649688720703125
8.994,1.320254516601563,9.043496704101564,8.412753295898439
9.003,2.056570434570313,7.053768920898438,11.920870971679689
9.013000000000003,0.34273681640625,6.318051147460938,8.928802490234375
9.024,-0.9682464599609376,5.479751586914063,1.6531219482421875
9.034000000000006,-1.502688598632813,7.602267456054688,1.8322662353515624
9.044000000000011,-1.8093872070312504,9.573751831054688,6.169711303710938
9.054000000000002,-0.289501953125,8.722891235351563,4.481597900390625
9.064000000000007,-0.7421478271484375,7.801449584960938,4.087271118164063
9.073999999999998,0.21353759765625,8.643338012695313,9.791177368164064
9.084000000000003,0.3270355224609375,8.9566162109375,10.357022094726563
9.094000000000008,-0.7430450439453126,8.063436889648438,3.2592895507812503
9.104,-0.5653961181640625,7.532733154296875,0.3545501708984375
9.114000000000004,0.482403564453125,7.928854370117188,6.580636596679688
9.12400000000001,1.227093505859375,6.900494384765626,7.107452392578126
9.134,1.0190887451171875,6.200515747070313,2.956777954101563
9.14500000000001,0.4613189697265625,8.233609008789063,4.545748901367188
9.15400000000001,0.07237548828125,9.797607421875,8.074053955078126
9.165000000000006,-0.39716796875,8.928353881835939,6.138607788085938
9.175000000000011,-0.83680419921875,7.521069335937501,4.611096191406251
9.185000000000002,-0.39656982421875,7.273437500000001,7.706344604492188
9.195000000000007,-0.5434143066406251,7.100723266601563,7.538714599609375
9.204999999999998,-0.5987426757812501,6.906924438476563,3.632980346679688
9.215000000000003,-0.7237548828125,7.780813598632813,3.145492553710938
9.225000000000009,-0.2643798828125,8.474511718750001,5.884246826171875
9.235,0.2319305419921875,8.184112548828125,6.575851440429688
9.245000000000005,0.249127197265625,7.990911865234375,6.286349487304688
9.25500000000001,0.5416198730468751,8.37342529296875,6.597235107421875
9.265,0.9012542724609376,7.876965332031251,5.739495849609376
9.275000000000006,1.2092987060546876,5.855685424804688,4.5870208740234375
9.28500000000001,1.1868682861328126,4.047494506835938,4.413858032226563
9.295000000000002,0.1320404052734375,6.972869873046876,4.129739379882813
9.306000000000012,-0.6551177978515625,13.064074707031253,5.151370239257813
9.316000000000004,-0.21114501953125,12.407162475585938,4.4298583984375
9.326000000000008,-1.5071746826171877,9.715960693359376,6.257937622070313
9.336,-1.22320556640625,5.876919555664063,13.49219665527344
9.346000000000004,-0.35948486328125,5.37432861328125,12.606494140625
9.356000000000009,-0.400457763671875,5.141949462890626,1.8796691894531248
9.366,0.0028411865234375,7.299307250976563,-0.769512939453125
9.376000000000005,0.0562255859375,10.214215087890626,0.085833740234375
9.38600000000001,-0.8725433349609376,9.476403808593751,10.762863159179688
9.396,-1.230532836914063,7.501480102539063,3.941024780273438
9.406000000000006,-0.0303558349609375,8.024407958984376,8.112484741210938
9.416000000000013,2.1618438720703126,9.428701782226565,11.03860778808594
9.426000000000002,0.26856689453125,8.567224121093751,6.195132446289063
9.436000000000009,-0.8333648681640625,6.973318481445313,0.05443115234375
9.447000000000005,-0.983648681640625,7.69991455078125,3.3286743164062504
9.457000000000008,0.86072998046875,7.507760620117188,7.65445556640625
9.467,0.8843566894531251,6.319546508789063,4.932000732421876
9.477000000000004,-1.062603759765625,7.190594482421876,3.368301391601563
9.487000000000007,-0.0849365234375,9.916787719726564,6.768304443359376
9.497,1.47083740234375,9.849346923828126,7.435235595703125
9.507000000000003,0.1018341064453125,7.68974609375,5.098135375976563
9.51700000000001,-0.7572509765625001,6.708639526367188,5.941967773437501
9.527,0.0695343017578125,6.989468383789063,8.143438720703125
9.537000000000006,0.1801910400390625,6.974066162109375,5.968435668945313
9.547000000000011,-0.2926422119140625,7.329214477539063,2.8151672363281253
9.557000000000002,-0.45159912109375,8.426660156250001,4.1847686767578125
9.567000000000007,-0.443524169921875,8.931942749023438,7.164874267578125
9.576999999999998,-0.381317138671875,8.410360717773438,6.7279296875000005
9.588000000000008,-0.0160003662109375,7.908218383789063,4.990319824218751
9.598,0.1052734375,7.856179809570313,5.774786376953125
9.608000000000004,-0.288006591796875,6.0405120849609375,6.473568725585938
9.61800000000001,-0.5833404541015625,4.419989013671875,4.563543701171875
9.628,-0.1730133056640625,6.380706787109376,2.895916748046876
9.638000000000003,0.3384002685546875,11.969470214843753,5.086770629882813
9.64800000000001,0.96361083984375,12.171792602539064,5.643792724609376
9.658,0.6246124267578126,10.13660583496094,5.8311614990234375
9.668000000000006,1.003387451171875,6.891522216796876,10.7474609375
9.678000000000011,0.8469726562500001,5.969033813476563,12.066519165039065
9.688000000000002,-0.7248016357421876,5.4443115234375,4.830465698242188
9.698000000000008,-0.8773284912109376,6.403585815429688,-0.5164978027343751
9.707999999999998,-1.8578369140625,9.395205688476564,3.6751495361328126
9.718000000000004,-0.4245330810546875,9.817346191406251,6.586019897460938
9.729,-0.04306640625,8.026800537109375,4.360623168945313
9.740000000000007,-0.2513702392578125,7.851095581054688,7.356878662109375
9.74900000000001,0.425579833984375,8.945550537109376,10.90357666015625
9.759,0.16448974609375,8.824874877929688,6.374575805664063
9.769000000000004,-0.7505218505859376,7.487872314453125,0.2827728271484375
9.77900000000001,0.100189208984375,7.487124633789063,3.668569946289063
9.789,1.23516845703125,7.409814453125,7.880404663085938
9.799000000000008,0.988134765625,6.522616577148438,4.873532104492188
9.809000000000012,-0.2615386962890625,7.2169128417968755,3.397760009765625
9.819000000000004,-0.4173553466796875,9.499282836914062,6.808828735351563
9.829000000000008,0.0468048095703125,9.850244140625,6.975860595703126
9.840000000000003,-0.5944061279296875,7.952182006835938,5.064938354492188
9.849000000000004,-0.8851043701171876,6.932345581054688,6.660189819335938
9.86,-0.2966796875,6.899298095703125,7.606753540039063
9.869,-0.171966552734375,7.014590454101563,5.055517578125
9.88000000000001,-0.6089111328125001,7.346261596679688,3.4853881835937504
9.89,-0.3171661376953125,8.368490600585938,4.662088012695313
9.900000000000006,0.4646087646484375,8.618365478515626,5.9881744384765625
9.91000000000001,0.5019927978515626,8.185159301757814,6.771444702148438
9.920000000000002,0.3518585205078125,7.902685546875,6.828567504882813
9.930000000000009,0.8767303466796875,7.166519165039063,5.151071166992188
9.940000000000012,1.141259765625,5.549435424804688,4.514645385742188
9.950000000000005,1.5140533447265625,5.118472290039063,4.5638427734375
9.960000000000008,0.0611602783203125,10.740582275390626,4.230526733398438
9.97,-1.244439697265625,12.385479736328126,5.486480712890625
9.980000000000004,-0.3632232666015625,10.263861083984375,5.010507202148438
9.990000000000007,-1.6277008056640627,7.039263916015625,9.615921020507812
10.0,-1.0195373535156251,5.422628784179688,13.841064453125002
10.010000000000003,-0.9535919189453126,6.150720214843751,7.271194458007813
10.021,-0.275445556640625,6.524261474609376,-0.5528350830078126
10.031000000000006,-0.2842681884765625,8.659039306640626,-0.4466644287109375
10.041000000000013,-0.0237762451171875,10.306179809570311,5.414254760742188
10.051000000000002,-0.7853637695312501,7.856179809570313,9.294119262695313
10.061000000000009,-1.5382781982421876,7.332205200195313,3.9431182861328127
10.070999999999998,1.36915283203125,9.182116699218753,9.18092041015625
10.081000000000005,2.566488647460938,9.441412353515624,10.031781005859376
10.091000000000008,-0.12620849609375,7.485629272460938,2.5476470947265626
10.101,-0.8409912109375001,7.141397094726563,-0.2370147705078125
10.111000000000004,-0.426776123046875,7.809075927734375,7.519573974609376
10.12100000000001,1.1113525390625,7.172201538085938,7.8479553222656255
10.131,-0.6353790283203126,6.474465942382813,2.7910919189453125
10.14200000000001,-1.0896697998046876,8.566326904296876,4.473822021484375
10.15100000000001,0.5351898193359376,10.10206298828125,8.585018920898438
10.162000000000006,0.8662628173828125,8.477951049804688,6.267956542968751
10.172000000000011,-0.5268157958984375,6.900045776367188,3.665579223632813
10.182000000000002,-0.3895416259765625,7.107302856445313,7.368841552734375
10.192000000000007,0.3811676025390625,7.331008911132813,8.217608642578126
10.201999999999998,0.2866607666015625,7.227978515625001,3.5721191406250004
10.212000000000003,-0.0264678955078125,7.990313720703125,2.145993041992188
10.222000000000008,-0.2178741455078125,8.680871582031251,6.659890747070313
10.232,-0.264678955078125,8.247964477539064,8.369836425781251
10.242000000000004,-0.2498748779296875,7.798458862304688,5.745327758789063
10.25200000000001,0.121722412109375,8.096484375000001,4.625900268554688
10.262,0.118133544921875,7.782608032226563,6.002978515625
10.272000000000006,-0.5295074462890625,5.0356292724609375,5.239895629882813
10.28200000000001,-0.572125244140625,4.694836425781251,2.9950592041015627
10.292000000000002,-0.3384002685546875,9.182864379882814,4.441671752929688
10.302000000000008,0.2301361083984375,12.512136840820313,7.105059814453125
10.313000000000002,0.9124694824218752,11.202200317382813,4.3372955322265625
10.323000000000008,1.026715087890625,8.257086181640625,7.948742675781251
10.332999999999998,1.027313232421875,6.4037353515625,13.01502685546875
10.343000000000004,-0.248529052734375,5.923873901367188,8.571112060546875
10.353000000000009,-0.7141845703125,5.332608032226563,0.218621826171875
10.363,-1.1609985351562502,8.052819824218751,0.214434814453125
10.373000000000005,-1.678692626953125,10.196868896484377,7.838085937500001
10.38300000000001,-0.316717529296875,8.971420288085938,4.908822631835938
10.393,-0.2139862060546875,7.756439208984376,4.473074340820313
10.403000000000006,0.48389892578125,8.516531372070313,10.4160888671875
10.413000000000013,0.6406127929687501,8.927905273437501,9.981686401367188
10.423000000000002,-0.7834197998046876,7.645333862304688,2.5343383789062504
10.433000000000009,-0.5698822021484375,7.223641967773438,0.3452789306640625
10.442999999999998,0.7376617431640625,8.017379760742188,6.785052490234375
10.454000000000008,1.2104949951171875,7.257885742187501,6.475213623046876
10.464,0.5085723876953125,6.438577270507813,3.296524047851563
10.474000000000004,-0.6712677001953126,8.392266845703126,5.540911865234375
10.484000000000009,0.291595458984375,10.079931640625,7.793524169921875
10.494,0.066094970703125,8.81007080078125,5.5107055664062505
10.504000000000003,-1.0159484863281252,7.013693237304688,5.084976196289063
10.51400000000001,-0.656463623046875,7.020571899414063,7.557705688476563
10.524,0.133087158203125,7.047039794921876,6.807333374023438
10.534000000000006,-0.3576904296875,7.083526611328126,3.822592163085938
10.544000000000011,-0.5842376708984376,7.840927124023438,3.5930541992187504
10.554000000000002,0.0716278076171875,8.864501953125,5.740093994140626
10.564000000000007,0.2971282958984375,8.422622680664062,6.914251708984375
10.573999999999998,0.2615386962890625,7.9915100097656255,6.564636230468751
10.584000000000003,0.4684967041015625,8.24183349609375,5.729327392578125
10.595,0.9860412597656252,7.64010009765625,5.6168762207031255
10.605000000000004,1.0319488525390623,5.729177856445313,5.492462158203125
10.615000000000007,0.90439453125,4.235610961914063,4.489373779296876
10.625,0.6027801513671875,6.768005371093751,3.379367065429688
10.635000000000003,-0.7026702880859376,12.959249877929688,5.042807006835938
10.64500000000001,-0.4299163818359375,12.45875244140625,5.38629150390625
10.655,-1.3537506103515626,10.013836669921876,5.483639526367188
10.665000000000006,-1.51510009765625,5.934939575195313,12.06741638183594
10.675000000000011,-0.478814697265625,5.044750976562501,13.357464599609376
10.685000000000002,-0.70999755859375,5.312570190429688,3.4780609130859377
10.695000000000007,-0.2654266357421875,7.148724365234376,-0.7879058837890626
10.704999999999998,-0.3590362548828125,10.040753173828126,-0.4355987548828125
10.715000000000003,-0.95762939453125,9.831253051757812,10.817144775390624
10.726,-1.0534820556640625,7.518078613281251,4.802502441406251
10.736000000000004,-0.1888641357421875,7.769149780273438,7.255941772460938
10.74600000000001,2.0990386962890626,9.219949340820314,10.685403442382814
10.756,0.739605712890625,8.949139404296876,6.193637084960938
10.766000000000004,-0.5175445556640625,7.248464965820313,-0.0083740234375
10.77600000000001,-0.5438629150390626,7.366748046875,2.8009613037109378
10.786,0.7131378173828126,7.36734619140625,8.011248779296876
10.796000000000006,0.5555267333984375,6.465045166015625,5.073312377929688
10.806000000000012,-0.7091003417968751,7.268203735351563,3.5079681396484377
10.816000000000004,-0.20994873046875,9.81973876953125,6.979000854492188
10.826000000000008,0.8122802734375001,9.8610107421875,7.113882446289063
10.836,0.3790740966796875,8.0390625,4.85753173828125
10.846000000000004,-0.713287353515625,6.6456848144531255,6.307733154296876
10.856000000000009,-0.1063201904296875,6.755444335937501,7.889526367187501
10.866,0.2139862060546875,6.802249145507813,5.552276611328125
10.87700000000001,-0.246136474609375,7.444805908203126,3.3430297851562503
10.887,-0.35350341796875,8.424566650390625,4.577151489257813
10.897000000000006,0.0363372802734375,8.984579467773438,6.537121582031251
10.90700000000001,-0.2791839599609375,8.479446411132812,6.606655883789063
10.917000000000002,-0.32000732421875,8.08033447265625,5.785552978515625
10.927000000000008,0.1837799072265625,7.423721313476563,5.57291259765625
10.937000000000012,-0.1090118408203125,5.583380126953125,5.787347412109376
10.947000000000005,-0.45279541015625,4.677041625976563,4.509561157226563
10.957000000000008,-0.45040283203125,7.974612426757813,3.487033081054688
10.967,-0.00299072265625,12.040948486328126,5.426516723632813
10.977000000000004,0.9571807861328124,11.300595092773438,4.850802612304688
10.987000000000007,1.2012237548828126,9.141592407226565,7.311718750000001
10.997,1.10955810546875,6.531887817382813,11.7152587890625
11.007000000000003,-0.0423187255859375,6.3869873046875005,10.209130859375
11.01700000000001,-0.8146728515625,5.595193481445313,2.266668701171876
11.028000000000006,-1.2110931396484377,7.615725708007813,0.2597442626953125
11.038000000000013,-1.3953216552734375,9.49195556640625,5.948696899414063
11.048000000000002,0.1601531982421875,8.953924560546875,5.895162963867188
11.058000000000009,-0.63702392578125,7.514190673828126,4.089215087890626
11.067999999999998,0.303558349609375,8.453726196289063,8.482287597656251
11.078000000000005,0.7953826904296876,9.135461425781251,10.495193481445312
11.088000000000008,-0.7361663818359375,8.33155517578125,4.342379760742188
11.098,-0.7751953125000001,7.672100830078126,0.030804443359375
11.108000000000004,0.605322265625,7.9227233886718755,5.767459106445313
11.11800000000001,1.3419372558593752,7.195230102539063,7.699765014648438
11.128,0.29368896484375,6.186608886718751,3.6204193115234378
11.138000000000003,-0.3481201171875,7.759280395507813,4.02252197265625
11.14800000000001,-0.1012359619140625,9.658837890625,7.77109375
11.159000000000006,-0.0270660400390625,8.917437744140626,6.433493041992188
11.169000000000011,-0.5176940917968751,7.6326232910156255,4.667620849609375
11.179000000000002,-0.4789642333984375,7.223641967773438,7.45347900390625
11.189000000000007,-0.3446807861328125,7.150668334960938,7.850347900390625
11.198999999999998,-0.356793212890625,7.165023803710938,4.125552368164063
11.209000000000003,-0.332269287109375,7.793075561523438,2.8525512695312503
11.219000000000008,-0.14654541015625,8.498138427734375,5.647830200195313
11.229,0.21234130859375,8.109194946289064,6.657498168945313
11.239000000000004,0.291595458984375,7.925415039062501,5.993109130859375
11.24900000000001,0.7168762207031251,7.4292541503906255,5.818600463867188
11.259,1.15142822265625,6.365304565429688,5.687307739257813
11.269000000000004,1.203765869140625,5.650970458984375,4.561749267578126
11.27900000000001,0.4308135986328125,8.497689819335939,3.971530151367188
11.289,-0.8961700439453125,12.092239379882812,5.268157958984375
11.299000000000008,-0.1957427978515625,10.570260620117187,5.038171386718751
11.310000000000002,-1.2966278076171875,8.222842407226564,7.115975952148438
11.320000000000007,-1.287506103515625,5.607754516601563,12.771881103515629
11.329999999999998,-1.0180419921875,6.203207397460938,10.708432006835938
11.341000000000008,-0.344232177734375,6.626394653320313,1.365264892578125
11.350000000000009,0.165386962890625,8.245123291015625,-0.7050628662109375
11.36,0.1870697021484375,9.888824462890623,3.871939086914063
11.370000000000005,-1.0289581298828123,8.632421875,8.815753173828126
11.38000000000001,-1.129296875,7.081881713867188,3.7844604492187504
11.39,0.8121307373046875,8.301498413085938,7.38170166015625
11.400000000000006,2.044158935546875,9.360513305664064,9.856973266601564
11.41000000000001,-0.086431884765625,8.181719970703126,5.0082641601562505
11.421000000000006,-0.8854034423828125,7.026852416992188,1.364666748046875
11.430000000000009,-0.170172119140625,7.8374877929687505,5.744729614257813
11.441000000000004,1.41640625,7.745373535156251,7.353588867187501
11.450000000000005,-0.1709197998046875,6.761874389648438,3.9710815429687503
11.461,-1.3166656494140625,7.6718017578125,4.009512329101563
11.471000000000004,-0.131591796875,9.47999267578125,7.084274291992188
11.481000000000009,1.126007080078125,9.042898559570313,6.130532836914063
11.491,-0.124713134765625,7.267605590820313,4.605413818359375
11.501000000000005,-0.8405426025390625,6.993206787109376,6.840679931640626
11.51100000000001,0.1200775146484375,7.333401489257813,7.792776489257813
11.521,0.44501953125,7.405477905273438,5.143893432617188
11.531000000000006,-0.053533935546875,7.802944946289063,3.351852416992188
11.541000000000013,-0.073272705078125,8.452679443359376,5.265316772460938
11.551000000000002,-0.1155914306640625,8.431893920898439,7.348953247070313
11.561000000000009,-0.3312225341796875,7.883993530273438,6.356033325195313
11.570999999999998,0.0133087158203125,7.927658081054688,4.551431274414063
11.581000000000005,0.1662841796875,7.629931640625,5.1278930664062505
11.592,-0.5151519775390625,5.367300415039063,6.079092407226563
11.602000000000004,-0.8525054931640625,4.9997406005859375,4.6595458984375
11.612000000000007,-0.42049560546875,8.998037719726563,4.268060302734376
11.622,0.2956329345703125,12.374713134765626,6.094046020507813
11.632000000000003,0.9673492431640626,10.782901000976564,4.55606689453125
11.64200000000001,0.37862548828125,8.14014892578125,7.001431274414063
11.652,1.2327758789062502,6.26915283203125,11.1338623046875
11.662000000000006,0.1936492919921875,6.549084472656251,8.49185791015625
11.672000000000011,-0.8937774658203126,6.017034912109375,1.5737182617187502
11.682000000000002,-1.4186492919921876,7.485031127929688,2.149432373046875
11.694000000000004,-0.2839691162109375,9.809121704101564,7.723092651367188
11.701999999999998,-0.12261962890625,8.963793945312501,6.522616577148438
11.712000000000003,-0.2035186767578125,7.6478759765625,3.8874908447265626
11.723,0.630743408203125,8.541653442382813,8.319143676757813
11.733000000000004,0.1658355712890625,9.026449584960938,9.612631225585938
11.74300000000001,-0.9042449951171876,7.8001037597656255,2.928366088867188
11.753,-0.46834716796875,7.422525024414063,-0.0228790283203125
11.763000000000003,0.8647674560546875,8.154354858398438,6.600225830078125
11.77300000000001,0.9787139892578126,7.480844116210938,7.200762939453125
11.783,-0.374139404296875,6.413455200195313,3.5559692382812504
11.793000000000006,-0.09271240234375,8.06239013671875,5.5226684570312505
11.803000000000011,0.38101806640625,9.518423461914065,8.480194091796875
11.813000000000002,-0.0315521240234375,8.629730224609375,5.7858520507812505
11.823000000000008,-0.9096282958984376,7.27164306640625,4.132879638671875
11.832999999999998,-0.5523864746093751,7.281661987304688,7.285549926757813
11.843000000000004,-0.0222808837890625,7.320989990234375,7.072161865234375
11.853000000000009,-0.3337646484375,7.089956665039063,3.4948089599609378
11.864000000000004,-0.554779052734375,7.77647705078125,3.750665283203125
11.873000000000005,-0.2083038330078125,8.636907958984375,6.477008056640625
11.884,0.2899505615234375,8.372976684570313,6.650469970703125
11.894000000000004,0.400457763671875,7.931546020507813,5.892770385742188
11.90400000000001,0.3530548095703125,8.171551513671876,6.283059692382813
11.914,0.7053619384765626,7.247866821289063,5.711682128906251
11.924000000000008,0.8510101318359375,5.633474731445313,4.712780761718751
11.934000000000012,0.9335540771484376,4.683023071289063,4.296771240234375
11.944000000000004,0.3781768798828125,8.500979614257814,3.765020751953125
11.954000000000008,-0.729736328125,13.31753845214844,5.253802490234375
11.964,-0.2332763671875,11.584713745117188,5.703158569335938
11.974000000000004,-1.5357360839843752,8.5977294921875,7.365252685546875
11.984000000000009,-0.8566925048828126,5.295672607421875,12.4796875
11.994,-0.28531494140625,5.439526367187501,10.827761840820314
12.004000000000003,-0.5976959228515626,5.780468750000001,1.5468017578125002
12.01400000000001,-0.30684814453125,7.806234741210938,-0.6226684570312501
12.025000000000006,-0.28770751953125,10.354031372070311,0.1410125732421875
12.03500000000001,-0.6782958984375,9.229818725585938,11.912197875976563
12.045000000000002,-1.504632568359375,7.1496215820312505,5.455975341796876
12.055000000000009,0.621771240234375,8.2436279296875,7.571163940429688
12.065000000000012,1.9608673095703129,9.52051696777344,10.308572387695314
12.075000000000005,0.2092010498046875,8.377462768554688,5.423675537109375
12.085000000000008,-0.719268798828125,7.012048339843751,-0.2572021484375
12.095,-0.460272216796875,7.5892578125,4.0008392333984375
12.105000000000004,1.09879150390625,7.572958374023438,8.069866943359376
12.115000000000007,0.02392578125,6.442465209960938,4.647134399414063
12.125,-1.0190887451171875,7.600323486328126,3.3078887939453128
12.135000000000003,0.17705078125,10.002920532226565,7.414450073242188
12.14500000000001,0.9682464599609376,9.425711059570313,7.606005859375
12.155,-0.2929412841796875,7.346859741210938,4.669863891601563
12.166000000000013,-0.5504425048828125,6.672302246093751,6.001632690429688
12.176000000000002,0.2193695068359375,7.140200805664063,8.075997924804689
12.186000000000009,0.0829925537109375,7.156051635742188,5.187109375
12.195999999999998,-0.1975372314453125,7.575650024414063,2.373736572265625
12.206000000000005,-0.056524658203125,8.632421875,5.037872314453125
12.216000000000008,-0.017047119140625,8.701806640625001,7.8987976074218755
12.226,-0.2902496337890625,8.033828735351562,6.534429931640625
12.236000000000004,-0.165985107421875,7.997192382812501,4.865307617187501
12.24600000000001,0.185723876953125,7.814160156250001,5.980548095703125
12.256,-0.4281219482421875,6.020474243164063,6.07535400390625
12.266000000000004,-0.7189697265625,4.403390502929688,4.216320800781251
12.27600000000001,-0.6063690185546875,6.562094116210938,3.497799682617188
12.286,0.01854248046875,12.055303955078124,5.447750854492188
12.296000000000006,0.524273681640625,12.006106567382814,5.147482299804688
12.306000000000012,0.7572509765625001,9.863702392578126,5.408871459960938
12.317000000000007,1.08443603515625,7.04674072265625,11.02081298828125
12.326999999999998,1.154718017578125,6.18900146484375,11.927001953125
12.337000000000003,-0.6667816162109376,5.753701782226563,4.598236083984375
12.347000000000008,-0.9990509033203124,6.4438110351562505,-0.3488677978515625
12.359000000000009,-1.175653076171875,9.314605712890623,4.402493286132813
12.367000000000004,0.2165283203125,9.706390380859377,6.500485229492188
12.37700000000001,-0.12022705078125,7.775579833984375,4.054074096679688
12.387,-0.1694244384765625,7.955172729492188,7.048086547851563
12.397000000000006,0.5468536376953126,9.017926025390626,10.535418701171876
12.40700000000001,-0.1431060791015625,8.646478271484376,6.48209228515625
12.417000000000002,-0.70880126953125,7.5043212890625,1.0658935546875
12.427000000000008,0.1628448486328125,7.65086669921875,3.960763549804688
12.437000000000012,0.7047637939453125,7.613781738281251,7.326373291015625
12.447000000000005,0.3620269775390625,6.532785034179688,4.719061279296875
12.457999999999998,-0.484796142578125,7.062741088867188,3.719113159179688
12.468000000000004,-0.461468505859375,9.26331481933594,6.707144165039063
12.478000000000009,0.2935394287109375,9.538760375976564,6.533383178710938
12.488,-0.2691650390625,7.983285522460938,5.27264404296875
12.498000000000005,-0.677398681640625,7.096685791015625,6.993356323242188
12.50800000000001,-0.1293487548828125,7.084124755859375,7.473367309570313
12.518,-0.07117919921875,7.096984863281251,5.1836700439453125
12.528000000000006,-0.363671875,7.46005859375,3.821096801757813
12.538000000000013,-0.18482666015625,8.387930297851563,4.572067260742188
12.548000000000002,0.1870697021484375,8.518923950195314,5.7160186767578125
12.558000000000009,0.009271240234375,8.115325927734375,6.450390625000001
12.567999999999998,0.2065093994140625,8.082577514648438,6.538467407226563
12.578000000000005,0.7357177734375,7.434936523437501,5.515042114257813
12.590000000000003,0.7487274169921876,5.9687347412109375,5.284158325195313
12.599000000000004,0.8027099609375,5.0306945800781255,5.227633666992188
12.609000000000009,-0.0994415283203125,7.887283325195313,4.015045166015625
12.619,-0.4068878173828125,12.358712768554687,4.654611206054688
12.629000000000003,0.0019439697265625,11.112179565429688,4.88145751953125
12.63900000000001,-1.5032867431640626,8.740835571289063,6.575103759765626
12.649,-0.7421478271484375,5.969631958007813,12.2787109375
12.659000000000006,-0.157012939453125,6.138757324218751,11.315399169921877
12.669000000000011,-0.5280120849609375,6.155654907226563,1.87398681640625
12.679000000000002,-0.073272705078125,7.813861083984375,-0.7548583984375
12.689000000000007,0.4670013427734375,10.0332763671875,4.428811645507813
12.698999999999998,-0.78895263671875,8.994747924804688,9.19228515625
12.710000000000008,-1.2840667724609376,6.988571166992188,3.400900268554688
12.72,0.2477813720703125,8.376116943359376,6.95701904296875
12.730000000000004,1.629345703125,9.383242797851564,10.70977783203125
12.740000000000007,-0.6418090820312501,8.317648315429688,5.139407348632813
12.75,-0.90618896484375,7.182818603515625,-0.2358184814453125
12.760000000000003,-0.336456298828125,7.810720825195313,4.989422607421876
12.77000000000001,0.96121826171875,7.4803955078125,8.707788085937501
12.78,-0.078656005859375,6.139056396484375,4.164581298828125
12.790000000000006,-0.3895416259765625,7.560696411132813,3.51290283203125
12.800000000000011,0.480609130859375,9.95791015625,7.763766479492188
12.810000000000002,0.9651062011718752,9.225482177734376,6.404782104492188
12.820000000000007,0.5387786865234375,7.519573974609376,3.8628173828125
12.829999999999998,-0.4592254638671875,6.932196044921875,7.191940307617188
12.840000000000003,0.1155914306640625,7.177584838867188,8.346807861328125
12.850000000000009,0.19678955078125,7.144238281250001,4.293182373046875
12.86,-0.325689697265625,7.6694091796875,2.806195068359376
12.870000000000005,-0.8264862060546876,8.529092407226564,6.185711669921876
12.881,-0.50782470703125,8.393313598632814,7.183117675781251
12.891000000000004,-0.357989501953125,8.070166015625,5.570669555664063
12.90100000000001,-0.1924530029296875,8.150466918945312,5.536126708984376
12.911,-0.127703857421875,7.666268920898438,6.070120239257813
12.921000000000006,-0.4870391845703125,5.721401977539063,5.116827392578125
12.931000000000012,-0.460272216796875,4.671060180664063,4.317108154296875
12.941000000000004,0.0252716064453125,7.666268920898438,4.197927856445313
12.951000000000008,0.3497650146484375,12.245663452148438,5.317953491210938
12.961,1.030154418945313,11.48856201171875,4.706350708007813
12.971000000000004,1.0442108154296876,9.386532592773438,6.754547119140626
12.981000000000009,1.4606689453125,6.594094848632813,11.768643188476563
12.991,0.8217010498046876,5.968884277343751,11.115170288085938
13.001000000000005,-0.8040557861328126,5.429656982421875,3.267813110351563
13.01100000000001,-1.0252197265625,7.122854614257813,-0.2619873046875
13.022000000000006,-2.1425537109375004,9.942807006835938,4.763473510742188
13.03200000000001,-0.2420989990234375,9.516329956054689,5.976809692382813
13.042000000000002,-0.4646087646484375,7.528546142578126,4.429409790039063
13.052000000000008,-0.1724151611328125,8.015286254882813,8.30523681640625
13.062000000000012,0.6029296875000001,9.051571655273438,10.75404052734375
13.072000000000005,-0.2214630126953125,8.4876708984375,5.289691162109375
13.082000000000008,-0.834112548828125,7.564883422851563,0.0847869873046875
13.092,0.1088623046875,7.774383544921876,4.4434661865234375
13.102000000000004,1.0413696289062502,7.523162841796876,7.808178710937501
13.112000000000007,1.1511291503906251,6.225637817382813,4.519131469726563
13.122,0.1221710205078125,7.429852294921876,3.733618164062501
13.132000000000003,-0.244940185546875,9.71326904296875,7.012945556640625
13.14200000000001,0.034991455078125,9.317446899414064,6.779370117187501
13.152,-0.8504119873046876,7.605258178710938,5.2409423828125
13.163000000000013,-0.745587158203125,7.058255004882813,6.850848388671875
13.173000000000002,-0.1718170166015625,7.210333251953125,7.278970336914063
13.183000000000009,-0.415411376953125,7.111938476562501,4.835848999023438
13.192999999999998,-0.7209136962890625,7.555612182617188,3.5214263916015627
13.203000000000005,-0.09510498046875,8.474960327148438,4.944113159179688
13.213000000000008,0.469244384765625,8.385238647460938,6.315060424804688
13.223,0.1954437255859375,7.9349853515625,6.640899658203126
13.233000000000004,0.42169189453125,8.090802001953126,6.348257446289063
13.24300000000001,1.0166961669921877,7.375421142578125,5.480947875976563
13.253,1.2925903320312502,5.939724731445313,4.97716064453125
13.263000000000003,0.9942657470703126,4.771249389648438,4.510906982421876
13.27300000000001,-0.371746826171875,8.903530883789063,3.956427001953125
13.283,-0.7301849365234375,12.763058471679688,5.3930206298828125
13.293000000000006,-0.1830322265625,10.838977050781253,4.703808593750001
13.303000000000011,-1.343133544921875,8.25439453125,7.288092041015625
13.314000000000007,-0.7101470947265626,5.5545196533203125,13.460195922851565
13.323999999999998,-0.8097381591796876,5.998342895507813,10.375564575195312
13.334000000000003,-0.462066650390625,6.0704193115234375,0.6256591796875001
13.344000000000008,-0.200079345703125,8.380303955078126,-0.6383697509765626
13.354,0.0823944091796875,10.407565307617189,3.404489135742188
13.364000000000004,-0.8448791503906251,8.490811157226563,10.165765380859376
13.37400000000001,-1.478314208984375,7.039114379882813,3.867752075195313
13.384,0.7813262939453126,8.561990356445314,8.199215698242188
13.394000000000004,1.933203125,9.391915893554687,10.330255126953126
13.40400000000001,-0.370849609375,8.070764160156251,3.6428497314453128
13.414,-0.9174041748046876,7.144985961914063,-0.244342041015625
13.424000000000008,-0.09749755859375,7.817599487304688,6.245974731445313
13.434000000000012,1.290347290039063,7.36973876953125,7.849600219726563
13.444000000000004,0.03050537109375,6.3295654296875,3.480902099609376
13.454999999999998,-0.7243530273437501,7.9469482421875,4.452737426757813
13.465000000000003,0.1619476318359375,9.936975097656251,7.979397583007813
13.475000000000009,0.9770690917968752,9.103311157226564,5.897106933593751
13.485,0.107366943359375,7.37392578125,4.230825805664063
13.495000000000005,-0.7064086914062501,6.760528564453126,7.518228149414063
13.50500000000001,-0.1303955078125,7.02281494140625,7.972518920898438
13.515,0.1218719482421875,7.150369262695313,4.302902221679688
13.525000000000006,-0.352008056640625,7.845263671875,3.105865478515625
13.53500000000001,-0.3512603759765625,8.719601440429688,5.699420166015625
13.545000000000002,-0.1278533935546875,8.719750976562501,6.833950805664063
13.555000000000009,-0.4326080322265625,8.1407470703125,6.025708007812501
13.565000000000012,0.04844970703125,7.934237670898438,5.636315917968751
13.575000000000005,0.3982147216796875,7.982687377929688,5.8677978515625
13.586,-0.4041961669921875,6.190347290039063,5.7218505859375
13.596000000000004,-0.673809814453125,4.301705932617188,4.996899414062501
13.606000000000009,-0.30445556640625,5.603567504882813,3.870443725585938
13.616,0.264080810546875,11.228817749023438,4.427316284179688
13.626000000000005,0.560162353515625,12.616363525390629,5.183221435546876
13.63600000000001,0.1269561767578125,10.637103271484376,4.932748413085938
13.646,0.8586364746093751,7.578491210937501,9.98841552734375
13.656000000000006,1.5903167724609375,6.007614135742188,13.132562255859376
13.666000000000013,-0.60711669921875,5.685214233398438,7.108349609375001
13.676000000000002,-0.8554962158203125,5.992959594726563,-0.3084930419921875
13.686000000000009,-1.3340118408203123,9.038113403320311,0.8299255371093751
13.695999999999998,-0.5671905517578125,9.815402221679689,7.768551635742188
13.706000000000005,0.0801513671875,7.964593505859375,4.234414672851563
13.716000000000008,-0.1912567138671875,7.7435791015625,5.35159912109375
13.726,0.5710784912109376,8.995196533203126,10.995242309570314
13.737000000000007,0.4601226806640625,9.091049194335938,8.875268554687501
13.747,-0.8918334960937501,7.750009155273438,1.0340423583984375
13.757000000000003,-0.159405517578125,7.560546875000001,1.1061187744140626
13.76700000000001,1.3848541259765623,7.677484130859375,8.710778808593751
13.777,0.2546600341796875,6.306835937500001,6.162234497070313
13.787000000000006,-0.41212158203125,6.601870727539063,2.3068939208984376
13.797000000000011,-0.5055816650390625,9.171798706054688,5.6476806640625
13.807000000000002,-0.059515380859375,10.025201416015626,7.737747192382813
13.817000000000007,-0.46116943359375,8.345611572265625,5.0710693359375005
13.826999999999998,-0.8127288818359376,7.139154052734376,5.704803466796875
13.837000000000003,-0.2597442626953125,7.120761108398438,8.285797119140625
13.847000000000008,0.0749176025390625,7.077395629882813,6.21890869140625
13.857,-0.227593994140625,7.099676513671875,3.225942993164063
13.86800000000001,-0.3500640869140625,8.163775634765626,4.183123779296875
13.878,0.3979156494140625,8.4398193359375,6.040213012695313
13.888000000000003,0.6159393310546876,8.09708251953125,6.497943115234375
13.89800000000001,0.22908935546875,8.067623901367188,6.5664306640625005
13.908,0.4212432861328125,8.0390625,6.0569610595703125
13.918000000000006,0.8454772949218751,6.933242797851563,4.936935424804688
13.928000000000011,0.9172546386718752,5.113836669921875,4.686761474609376
13.938000000000002,0.4224395751953125,5.905331420898438,4.2109375
13.948000000000008,-1.0400238037109375,11.225677490234377,4.4579711914062505
13.959000000000003,-0.288604736328125,12.045584106445313,5.553622436523438
13.968000000000004,-1.04794921875,10.026547241210938,5.547491455078125
13.978000000000009,-1.627850341796875,6.7997070312500005,10.246365356445311
13.988,-0.1984344482421875,5.63870849609375,13.027139282226564
13.998000000000005,-0.5680877685546876,5.859274291992188,5.605810546875
14.00800000000001,-0.2391082763671875,6.525009155273438,-0.6510803222656251
14.019000000000004,0.08433837890625,9.34720458984375,-0.3792236328125
14.02900000000001,0.68009033203125,10.043295288085938,9.802841186523438
14.039,-1.033294677734375,7.756439208984376,6.338687133789063
14.049000000000008,-0.5583679199218751,7.643838500976563,5.422479248046876
14.059000000000012,1.6746551513671877,9.188845825195314,9.912600708007814
14.069000000000004,0.8270843505859375,9.024954223632813,8.669207763671876
14.079000000000008,-0.7699615478515626,7.407272338867188,1.2712066650390623
14.089,-1.104922485351563,7.365252685546875,0.7865600585937501
14.099000000000004,-0.0701324462890625,7.770046997070313,7.669259643554688
14.113,0.56763916015625,6.798809814453126,6.653759765625001
14.119,-0.93609619140625,6.710433959960938,2.85673828125
14.13000000000001,-0.2086029052734375,9.059048461914063,5.747869873046875
14.13900000000001,0.8964691162109376,10.122698974609376,8.341424560546876
14.149,0.777288818359375,8.130728149414063,5.3689453125
14.16000000000001,-0.2830718994140625,6.819894409179688,4.425372314453125
14.170000000000002,-0.0357391357421875,7.16337890625,7.829263305664063
14.180000000000009,0.5220306396484375,7.154855346679688,6.9492431640625005
14.190000000000012,-0.0390289306640625,7.274783325195313,3.046649169921875
14.200000000000005,-0.3345123291015625,8.115625000000001,3.462210083007813
14.210000000000008,-0.183929443359375,8.787789916992189,7.105358886718751
14.22,-0.389691162109375,8.204000854492188,7.642193603515626
14.230000000000004,-0.48629150390625,7.8748718261718755,5.5570617675781255
14.240000000000007,-0.1463958740234375,8.212673950195313,5.158547973632813
14.25,-0.1942474365234375,7.201660156250001,6.102569580078125
14.260000000000003,-0.6765014648437501,5.015292358398438,5.080639648437501
14.27000000000001,-0.7675689697265625,5.164529418945313,3.5860260009765628
14.28,-0.0701324462890625,9.107049560546876,4.165328979492188
14.290000000000006,0.5269653320312501,12.488958740234375,5.617623901367188
14.301000000000002,0.8574401855468751,10.912698364257814,4.906280517578125
14.311000000000009,1.5319976806640627,8.568869018554688,7.867095947265626
14.320999999999998,1.55697021484375,6.366949462890625,12.238037109375
14.331000000000005,0.1299468994140625,6.15550537109375,9.442459106445312
14.341000000000008,-0.7677185058593751,5.765963745117188,1.7817230224609375
14.351,-1.3552459716796876,7.883993530273438,0.5037872314453126
14.361000000000004,-1.5352874755859376,9.850393676757813,5.991464233398438
14.37100000000001,0.0835906982421875,8.874221801757812,5.5391174316406255
14.381,-0.9114227294921876,7.408917236328126,4.709042358398438
14.391000000000004,0.04007568359375,8.391668701171875,8.901736450195314
14.40100000000001,0.467449951171875,9.121853637695311,9.620407104492188
14.411,-0.5304046630859376,8.167364501953125,3.7665161132812495
14.421000000000006,-0.4771697998046875,7.3470092773437505,1.215579223632813
14.431000000000012,0.4774688720703125,7.81236572265625,6.073709106445313
14.441000000000004,1.04495849609375,7.222146606445313,6.948944091796876
14.451000000000008,0.8984130859375,6.507513427734375,3.731076049804688
14.462000000000003,-0.2262481689453125,7.963995361328125,4.703659057617188
14.472000000000008,0.023028564453125,9.82452392578125,7.07724609375
14.482,0.1251617431640625,8.96917724609375,5.968136596679688
14.492000000000004,-0.8076446533203125,7.337887573242188,5.463452148437501
14.50200000000001,-0.7947845458984376,7.019525146484376,7.518228149414063
14.512,-0.162396240234375,7.212875366210938,6.893615722656251
14.522000000000006,-0.5073760986328125,7.162930297851563,4.397409057617188
14.53200000000001,-0.6805389404296875,7.80997314453125,3.668719482421875
14.542000000000002,-0.143853759765625,8.647973632812501,4.948300170898438
14.552000000000008,0.2624359130859375,8.420828247070313,6.372332763671875
14.562000000000012,0.27095947265625,7.866946411132813,6.842175292968751
14.572000000000005,0.4749267578125,8.218804931640626,6.0883636474609375
14.582999999999998,1.0458557128906252,7.521966552734375,5.352047729492188
14.592,1.2148315429687502,5.81815185546875,5.673699951171876
14.602000000000004,0.9046936035156252,4.762875366210938,5.071817016601563
14.613,-0.02392578125,7.465591430664063,3.3531982421875
14.623000000000005,-0.3512603759765625,13.021157836914064,4.63262939453125
14.63300000000001,-0.386102294921875,11.553909301757812,5.33963623046875
14.643,-1.63472900390625,9.057553100585938,6.157598876953125
14.653000000000006,-1.305300903320313,5.849255371093751,12.370227050781253
14.663000000000013,-0.3025115966796875,6.011502075195313,12.33658142089844
14.673000000000002,-0.643902587890625,5.733663940429688,2.393624877929688
14.683000000000009,-0.211444091796875,7.26925048828125,-0.7944854736328125
14.692999999999998,0.03828125,9.868338012695313,0.7692138671875001
14.703000000000005,-0.6892120361328126,9.13770446777344,11.012887573242187
14.713000000000008,-1.059912109375,7.219155883789063,3.765768432617188
14.723,0.73272705078125,8.378509521484375,7.001281738281251
14.733000000000004,1.9417266845703127,9.484329223632812,11.025448608398438
14.744,-0.0779083251953125,8.639450073242188,5.99041748046875
14.754000000000003,-0.727642822265625,7.063937377929688,-0.0210845947265625
14.76400000000001,-0.4122711181640625,7.563537597656251,4.599133300781251
14.774,1.104922485351563,7.46903076171875,8.208636474609376
14.784000000000006,-0.0985443115234375,6.373080444335938,4.354342651367188
14.794000000000011,-0.93609619140625,7.492807006835938,3.301458740234376
14.804000000000002,-0.052337646484375,9.878805541992188,7.335494995117188
14.814000000000007,0.8282806396484376,9.604855346679688,6.616226196289063
14.823999999999998,0.113946533203125,7.631726074218751,4.540814208984376
14.834000000000003,-0.8122802734375001,6.905728149414063,6.952233886718751
14.844000000000008,-0.042169189453125,7.065582275390626,7.846609497070313
14.855000000000004,0.57242431640625,7.0778442382812505,4.673153686523438
14.864000000000004,-0.0052337646484375,7.523611450195313,3.0955474853515628
14.87400000000001,-0.43245849609375,8.500531005859376,5.39825439453125
14.885000000000003,-0.0168975830078125,8.337387084960938,6.769351196289063
14.89500000000001,-0.138470458984375,8.084072875976563,6.728527832031251
14.905,-0.223406982421875,8.205795288085938,6.036923217773438
14.915000000000006,-0.123516845703125,7.577294921875,5.136117553710938
14.925000000000011,-0.5625549316406251,5.5077148437500005,5.02142333984375
14.935000000000002,-0.6603515625,5.0161895751953125,4.808782958984375
14.945000000000007,-0.5184417724609376,9.09583435058594,4.288397216796875
14.954999999999998,0.078955078125,11.847747802734377,5.167669677734375
14.965000000000003,0.8761322021484376,10.64697265625,4.928411865234375
14.977000000000004,0.6108551025390625,8.322283935546876,8.516531372070313
14.985,1.5520355224609377,6.639105224609375,11.311212158203126
14.995000000000005,0.1526763916015625,6.307583618164063,7.790383911132813
15.00500000000001,-1.0165466308593751,5.856732177734376,1.7168243408203123
15.015,-1.0174438476562502,7.827618408203126,2.0637481689453128
15.02600000000001,0.3754852294921875,9.763363647460938,6.09569091796875
15.036,-0.0324493408203125,8.624945068359375,5.569622802734376
15.046000000000006,-0.539825439453125,7.649072265625,5.099630737304688
15.056000000000012,0.4532440185546875,8.827267456054688,9.057403564453123
15.066000000000004,0.3587371826171875,8.949288940429689,9.410458374023438
15.076999999999998,-0.735418701171875,7.882049560546876,3.4375366210937504
15.086,-0.715679931640625,7.529443359375,0.9316101074218752
15.096000000000004,0.7434936523437501,7.971771240234376,6.217562866210938
15.106000000000009,0.5613586425781251,7.093994140625001,6.873727416992188
15.116,-0.5326477050781251,6.309677124023438,3.2927856445312504
15.126000000000005,0.072674560546875,8.266955566406251,5.077947998046875
15.13600000000001,0.2691650390625,9.834542846679687,8.181869506835938
15.146,-0.2755950927734375,8.809024047851564,5.864059448242188
15.156000000000006,-0.5562744140625,7.558602905273438,4.092355346679688
15.166000000000013,-0.089422607421875,7.385739135742188,7.323980712890625
15.177000000000008,-0.012261962890625,7.037619018554688,7.64847412109375
15.187000000000012,-0.5172454833984376,6.747219848632813,3.8388916015625
15.197000000000005,-0.444720458984375,7.761373901367188,3.02421875
15.207000000000008,-0.0659454345703125,8.830407714843751,6.099130249023438
15.217,0.1945465087890625,8.23345947265625,6.89720458984375
15.227000000000004,0.026617431640625,7.754644775390625,6.120364379882813
15.237000000000007,0.2555572509765625,8.20953369140625,6.590655517578125
15.247,0.8554962158203125,7.494451904296875,6.046942138671875
15.257000000000003,0.8193084716796876,5.432946777343751,4.3939697265625
15.26700000000001,0.8916839599609375,4.650274658203125,3.754702758789063
15.277,0.0022430419921875,9.596481323242188,4.9638519287109375
15.287000000000006,-0.328680419921875,12.799844360351564,5.612838745117188
15.298000000000002,-0.09271240234375,10.737741088867187,3.3461700439453126
15.307000000000002,-1.8334625244140623,7.992706298828126,8.171252441406251
15.317999999999998,-0.93729248046875,5.708093261718751,14.249597167968751
15.328000000000005,-0.7925415039062501,6.205749511718751,8.877810668945314
15.338000000000008,-0.3144744873046875,5.94017333984375,-0.2379119873046875
15.348,0.1766021728515625,8.300900268554688,-0.523077392578125
15.358000000000004,0.098095703125,10.068716430664065,8.7568359375
15.36800000000001,-1.15023193359375,8.403182983398438,6.519476318359375
15.378,-1.0573699951171875,7.159191894531251,3.870294189453125
15.388000000000003,0.8167663574218751,8.813809204101563,8.810220336914064
15.39800000000001,1.866061401367188,9.379354858398438,9.460403442382812
15.408,-0.3434844970703125,7.965640258789063,3.1725585937500003
15.418000000000006,-1.0187896728515626,7.127490234375,1.01505126953125
15.428000000000011,-0.0474029541015625,7.909863281250001,6.240142822265626
15.438000000000002,1.4410797119140626,7.434936523437501,6.886737060546875
15.448000000000008,0.034991455078125,6.3361450195312505,4.002035522460938
15.459000000000003,-1.2012237548828126,8.173495483398439,5.264419555664063
15.469000000000008,0.43724365234375,9.889572143554688,7.182070922851563
15.479,1.07008056640625,8.835342407226562,5.676242065429688
15.489000000000004,-0.629547119140625,7.12210693359375,5.2672607421875
15.49900000000001,-0.701025390625,6.897354125976563,7.436282348632813
15.509,0.2708099365234375,7.188201904296876,7.050778198242188
15.519000000000004,0.2636322021484375,7.328765869140626,4.2169189453125
15.52900000000001,-0.1435546875,8.007659912109375,3.297720336914063
15.539,-0.2450897216796875,8.746817016601563,5.524911499023438
15.549000000000008,-0.2917449951171875,8.333050537109376,7.188351440429688
15.559000000000012,-0.268865966796875,8.007061767578126,6.406277465820313
15.569000000000004,0.2687164306640625,7.882946777343751,5.104864501953125
15.579000000000008,0.2124908447265625,6.851147460937501,5.4972473144531255
15.589,-0.613995361328125,4.8258300781250005,5.540164184570313
15.600000000000009,-0.46236572265625,5.7960205078125,4.018634033203125
15.61,-0.2202667236328125,10.822378540039065,4.92572021484375
15.620000000000005,0.6123504638671875,11.804083251953124,5.120565795898438
15.63000000000001,1.091912841796875,9.958059692382813,5.045797729492188
15.64,0.9948638916015624,7.464544677734375,10.246963500976562
15.650000000000006,0.92174072265625,6.880157470703126,11.526544189453126
15.66000000000001,-0.5327972412109375,6.321490478515625,4.728182983398438
15.670000000000002,-0.9311614990234376,6.068624877929688,0.6403137207031251
15.680000000000009,-1.946212768554688,8.570214843750001,5.352047729492188
15.690000000000012,-0.7274932861328125,9.451580810546876,6.603665161132813
15.700000000000005,-0.4918243408203125,8.066278076171876,3.1740539550781253
15.710000000000008,0.1487884521484375,8.183514404296876,6.184664916992188
15.72,0.6108551025390625,9.084469604492188,10.796957397460938
15.730000000000004,-0.343035888671875,8.407968139648439,6.948944091796876
15.741,-0.8115325927734376,7.454824829101563,1.073968505859375
15.751000000000005,0.3409423828125,7.942611694335938,3.929061889648438
15.76100000000001,1.2087005615234376,7.866946411132813,7.430899047851563
15.771,0.8493652343750001,6.472970581054688,4.342678833007813
15.781000000000006,-0.1626953125,6.840829467773438,3.574362182617188
15.791000000000013,0.2450897216796875,8.856277465820312,7.389627075195313
15.801000000000002,0.1502838134765625,9.464739990234376,7.090853881835938
15.811000000000009,-0.6884643554687501,8.133868408203126,4.189105224609375
15.820999999999998,-0.7597930908203125,7.452581787109375,6.3361450195312505
15.831000000000005,-0.3611297607421875,7.271792602539063,8.434136962890626
15.841000000000008,-0.4062896728515625,7.043600463867188,5.268008422851563
15.851,-0.397467041015625,7.251455688476563,2.8678039550781254
15.861000000000004,-0.42169189453125,8.275479125976563,5.338140869140625
15.872,-0.065496826171875,8.358770751953125,6.616375732421876
15.882000000000003,0.3194091796875,8.135662841796876,5.50950927734375
15.89200000000001,0.3446807861328125,8.257235717773439,6.046194458007813
15.902,0.5117126464843751,8.442959594726563,6.674694824218751
15.912000000000006,0.6902587890625,7.352841186523438,5.3689453125
15.922000000000011,1.16937255859375,5.543902587890625,4.92691650390625
15.932000000000002,1.1452972412109377,4.398007202148438,5.223147583007813
15.942000000000007,0.5277130126953126,6.761425781250001,3.8533966064453127
15.951999999999998,-0.6545196533203126,12.893453979492188,4.0153442382812505
15.962000000000003,-0.829327392578125,12.99095153808594,5.064938354492188
15.972000000000008,-1.4890808105468751,10.185354614257813,6.157748413085938
15.982,-1.24892578125,6.342126464843751,12.405517578125002
15.992000000000004,-0.5438629150390626,4.847811889648438,13.748501586914063
16.003,-0.7001281738281251,4.757641601562501,4.007717895507813
16.012,-0.3674102783203125,6.780267333984376,-0.7270446777343751
16.02300000000001,-0.3838592529296875,10.305133056640626,-0.3754852294921875
16.033,-0.082843017578125,10.157092285156253,3.7277862548828127
16.043000000000006,-0.8124298095703125,7.173846435546875,9.584817504882814
16.05300000000001,-0.75904541015625,7.6000244140625,6.702508544921876
16.063000000000002,1.8608276367187504,9.223538208007811,11.795260620117189
16.073000000000008,1.5686340332031252,9.123498535156251,7.524060058593751
16.083,-0.4296173095703125,7.37691650390625,0.09749755859375
16.093000000000004,-0.8169158935546875,7.748364257812501,0.37742919921875
16.10300000000001,0.4918243408203125,7.231268310546875,8.930447387695313
16.113,0.4693939208984375,6.019577026367188,6.006268310546876
16.123000000000005,-0.9244323730468752,6.801800537109376,2.655612182617188
16.13300000000001,-0.2181732177734375,9.860711669921876,6.29068603515625
16.143,0.7968780517578126,10.320684814453124,8.103662109375001
16.153000000000006,0.28411865234375,8.239889526367188,4.978656005859375
16.16300000000001,-0.5206848144531251,6.81944580078125,5.49515380859375
16.174000000000007,-0.3886444091796875,6.793426513671876,8.65814208984375
16.18400000000001,0.130096435546875,6.743930053710938,6.445455932617188
16.194000000000003,0.136077880859375,7.289886474609376,2.38719482421875
16.204000000000008,-0.2702117919921875,8.453875732421876,3.521725463867188
16.215000000000003,-0.2404541015625,8.724835205078126,6.8669982910156255
16.224000000000004,-0.150732421875,8.329013061523439,7.079489135742188
16.23400000000001,-0.1280029296875,7.916891479492188,5.868695068359376
16.244,0.0907684326171875,7.4531799316406255,5.945407104492188
16.254000000000005,0.0853851318359375,6.096139526367188,5.8980041503906255
16.26400000000001,-0.3527557373046875,5.288943481445313,4.527804565429688
16.274,-0.594854736328125,8.036819458007812,3.592156982421875
16.284000000000006,0.0488983154296875,11.59024658203125,4.8509521484375
16.29400000000001,0.9112731933593752,11.017074584960938,4.785903930664063
16.305000000000007,1.3657135009765626,8.635861206054688,6.696527099609376
16.315000000000012,0.411822509765625,6.29906005859375,11.424261474609375
16.325000000000003,-0.64599609375,6.576150512695313,10.687646484375
16.335000000000008,-0.6910064697265625,6.419586181640626,2.9017486572265625
16.345,-0.8537017822265626,7.638455200195313,-0.350213623046875
16.355000000000004,-1.0697814941406252,9.420327758789064,6.264816284179688
16.36500000000001,-0.2773895263671875,8.714816284179689,7.075152587890625
16.375,-0.623565673828125,7.302297973632813,4.04345703125
16.385000000000005,0.387896728515625,8.183514404296876,6.977505493164063
16.39500000000001,1.006228637695313,9.401187133789064,9.919329833984376
16.405,-0.3108856201171875,8.526849365234376,5.244232177734375
16.415000000000006,-0.605621337890625,7.396206665039063,0.898114013671875
16.42500000000001,0.6736602783203125,7.841973876953125,5.238250732421875
16.435000000000002,1.404443359375,7.618716430664063,7.891021728515626
16.445000000000007,0.6950439453125,6.277078247070313,4.311276245117188
16.456000000000003,-1.0060791015625,7.411010742187501,3.7038604736328127
16.466000000000008,-0.2705108642578125,9.570910644531253,7.120462036132813
16.477000000000004,0.353204345703125,9.274679565429688,6.66751708984375
16.486000000000004,-0.8843566894531251,7.482638549804688,4.6060119628906255
16.49600000000001,-1.0187896728515626,7.071563720703126,6.529495239257813
16.506,-0.36905517578125,7.422973632812501,7.9690795898437505
16.516000000000005,-0.308941650390625,7.129135131835938,4.994955444335938
16.52600000000001,-0.313726806640625,7.587463378906251,2.8532989501953128
16.536,0.13218994140625,8.574700927734376,5.207894897460938
16.546000000000006,0.2238555908203125,8.342770385742188,7.147528076171875
16.55600000000001,0.3129791259765625,7.715914916992188,6.35887451171875
16.566000000000003,0.7001281738281251,8.04803466796875,5.589062500000001
16.576999999999998,1.1580078125000002,7.549032592773438,5.866452026367188
16.586,1.0276123046875,6.030941772460938,5.429058837890626
16.59700000000001,0.6240142822265625,5.05133056640625,4.6408538818359375
16.607,-0.2947357177734375,7.99180908203125,4.1384124755859375
16.617000000000004,-0.3228485107421875,12.512734985351564,4.799661254882813
16.62700000000001,-0.4699920654296875,11.288034057617187,4.651022338867188
16.637,-1.8150695800781247,8.72333984375,6.499588012695313
16.647000000000006,-1.10238037109375,5.953631591796875,12.446041870117188
16.65700000000001,-0.064898681640625,6.055316162109375,11.133264160156251
16.667,-0.3545501708984375,6.014791870117188,1.79383544921875
16.677000000000007,-0.145947265625,7.850646972656251,-0.7704101562500001
16.687000000000012,0.04725341796875,9.74676513671875,5.677737426757813
16.697000000000003,-1.1847747802734376,8.721395874023438,8.029940795898439
16.707000000000008,-0.81168212890625,7.240090942382813,3.963006591796875
16.717,1.04017333984375,8.438623046875001,7.743130493164063
16.72800000000001,1.356143188476563,9.262417602539063,10.147222900390624
16.738,-0.483599853515625,8.532232666015625,4.5735626220703125
16.748000000000005,-0.676800537109375,7.397103881835938,0.43365478515625
16.75800000000001,-0.045458984375,7.879058837890626,5.266213989257813
16.768,0.7140350341796875,7.143341064453126,7.388131713867188
16.778000000000006,-0.1679290771484375,6.282312011718751,4.269705200195313
16.78800000000001,-0.6715667724609375,7.609295654296876,4.808782958984375
16.798000000000002,0.251220703125,9.682913208007813,7.078292846679688
16.808000000000007,1.0041351318359375,9.381149291992188,5.536276245117188
16.817999999999998,0.3016143798828125,7.803842163085938,5.06329345703125
16.828000000000003,-0.609808349609375,6.926513671875001,7.534228515625
16.838000000000008,0.1499847412109375,6.994702148437501,7.111340332031251
16.848,0.4855438232421875,7.086068725585938,4.517486572265625
16.858000000000004,-0.2100982666015625,7.727130126953125,4.137664794921875
16.86800000000001,-0.512310791015625,8.307928466796875,5.2938781738281255
16.879000000000005,-0.2328277587890625,8.483334350585938,6.039764404296875
16.88900000000001,-0.3078948974609375,8.295367431640626,6.644937133789063
16.899,-0.2492767333984375,8.14014892578125,6.159991455078125
