time,ax,ay,az
0.0,7.74058837890625,0.0662445068359375,5.698223876953126
0.0089999999999896,10.724880981445311,0.2522674560546875,7.468283081054688
0.0189999999999805,6.932046508789063,-0.1287506103515625,6.487774658203126
0.0289999999999999,4.394866943359375,0.5636016845703126,7.6595397949218755
0.0389999999999908,5.0221710205078125,-0.9304138183593752,10.048828125
0.0489999999999852,8.590402221679689,-0.4505523681640625,7.634417724609375
0.059000000000001,9.761868286132811,2.401849365234375,1.4386871337890623
0.0699999999999967,8.880502319335939,1.6949920654296875,1.5870269775390626
0.0789999999999828,8.512194824218751,-0.810186767578125,9.692034912109376
0.0889999999999986,5.868844604492188,-0.444122314453125,9.898843383789064
0.0999999999999978,6.287545776367188,0.6021820068359376,4.609002685546876
0.1099999999999887,8.675338745117188,-1.28780517578125,3.830816650390626
0.1199999999999796,9.467581176757813,-2.5954986572265626,7.767953491210938
0.129999999999999,8.1407470703125,-0.83560791015625,6.256143188476563
0.1399999999999899,7.079489135742188,-0.19918212890625,2.1920501708984377
0.1499999999999843,7.093545532226563,0.10587158203125,5.544650268554688
0.1599999999999966,6.229077148437501,2.643499755859376,10.530633544921876
0.169999999999991,7.233212280273438,4.295724487304688,7.800851440429688
0.1799999999999855,9.7365966796875,2.4806549072265627,2.7246978759765628
0.1900000000000012,10.214065551757812,-0.1902099609375,5.17694091796875
0.1999999999999921,7.619314575195313,0.1206756591796875,9.451580810546876
0.2099999999999831,4.0446533203125,-1.633831787109375,7.252651977539063
0.2209999999999787,3.318505859375,-3.4019470214843754,3.246878051757813
0.2309999999999981,9.7724853515625,-3.0349853515625003,6.078942871093751
0.240999999999989,9.654949951171876,-3.407180786132813,6.827670288085938
0.2509999999999799,5.712728881835938,-1.7685638427734376,4.463803100585938
0.2609999999999992,4.710238647460938,0.7882049560546875,8.917437744140626
0.2709999999999866,8.762069702148438,-0.5202362060546876,13.664013671875
0.2809999999999846,10.920474243164064,0.3701019287109375,6.714172363281251
0.2909999999999968,10.132119750976564,0.9500030517578124,-0.7944854736328125
0.3009999999999913,8.761172485351564,0.8540008544921875,1.382611083984375
0.3109999999999857,6.36246337890625,2.403643798828125,9.434832763671876
0.3210000000000015,4.467990112304688,2.836102294921876,11.085113525390623
0.3309999999999924,5.1492767333984375,1.6148406982421877,-1.3788726806640623
0.3409999999999833,9.851739501953126,3.761282348632813,6.468484497070313
0.3509999999999991,9.735400390625,2.4788604736328126,11.31629638671875
0.3629999999999995,8.77298583984375,-0.0629547119140625,5.690597534179688
0.3719999999999892,8.516680908203126,-0.7212127685546875,0.9897796630859376
0.3819999999999801,7.01085205078125,-3.463107299804688,7.773486328125
0.3919999999999994,5.3047943115234375,-2.1779937744140625,10.913595581054688
0.4019999999999868,5.910565185546876,-1.8535003662109373,4.397708129882813
0.4119999999999848,8.29267578125,-2.6714630126953125,0.9196472167968752
0.421999999999997,8.657693481445314,-2.7590911865234378,7.5043212890625
0.4319999999999915,7.90806884765625,-1.1345306396484376,10.321432495117188
0.4419999999999859,7.530490112304688,1.4784637451171876,6.247320556640625
0.4520000000000017,8.026052856445313,2.99730224609375,5.634970092773438
0.4629999999999974,8.251702880859376,3.294729614257813,8.518176269531251
0.4719999999999835,8.242431640625,2.995956420898437,6.309078979492188
0.4819999999999993,7.099676513671875,2.7163238525390625,2.5343383789062504
0.4919999999999973,6.7832580566406255,2.08154296875,4.859176635742188
0.5019999999999882,6.339883422851563,0.8480194091796875,7.945602416992188
0.512000000000004,6.088214111328125,-0.4807586669921875,6.885690307617188
0.5229999999999997,5.723645019531251,-1.0969970703125,5.524163818359376
0.532999999999987,6.921578979492188,-2.513104248046876,6.6516662597656255
0.542999999999985,8.244076538085938,-2.56005859375,6.860418701171875
0.5530000000000008,8.892315673828126,-2.11204833984375,5.119967651367188
0.5639999999999965,8.624346923828126,-1.915707397460937,4.6363677978515625
0.5729999999999826,9.364849853515626,-0.93968505859375,8.024707031250001
0.583000000000002,8.004669189453125,-0.545806884765625,9.563882446289064
0.5929999999999929,6.06578369140625,0.454290771484375,7.704550170898438
0.6029999999999873,6.713574218750001,1.7975738525390623,6.228778076171875
0.6129999999999995,8.5594482421875,1.023126220703125,5.713925170898438
0.6229999999999976,8.753546142578125,1.447808837890625,4.61767578125
0.6329999999999885,8.414846801757813,2.41112060546875,4.237405395507813
0.6430000000000042,7.931845092773438,1.2990203857421876,5.386590576171876
0.6529999999999951,7.928256225585938,0.8746368408203126,6.985729980468751
0.6629999999999896,7.634716796875001,0.28172607421875,6.880456542968751
0.6739999999999853,7.133023071289063,-0.545208740234375,5.4304046630859375
0.684000000000001,7.483236694335938,-0.2633331298828125,4.885195922851563
0.693999999999992,7.51748046875,-1.56534423828125,5.481546020507813
0.7039999999999829,7.307681274414063,-1.0443603515625002,6.165225219726563
0.7139999999999986,6.2972656250000005,-0.6540710449218751,6.540411376953125
0.7239999999999931,6.324032592773438,-1.2442901611328123,7.917340087890626
0.7339999999999876,6.964495849609375,-0.9799102783203124,9.290380859375
0.7439999999999998,7.277325439453126,-0.5748168945312501,8.015884399414062
0.7539999999999978,8.448641967773439,0.6570617675781251,5.2672607421875
0.7639999999999887,9.495245361328124,0.9281707763671876,4.244732666015626
0.7740000000000045,8.847903442382814,1.0334442138671875,4.99271240234375
0.7839999999999954,7.211679077148438,1.5040344238281251,5.2050537109375
0.7939999999999898,6.669311523437501,1.3474700927734375,5.400198364257813
0.8049999999999855,6.263919067382813,0.430963134765625,6.0807373046875
0.8150000000000013,6.866400146484375,0.5208343505859375,6.092550659179688
0.8249999999999922,8.824426269531251,1.048098754882813,6.487625122070313
0.8349999999999831,7.846160888671876,-0.0478515625,7.260876464843751
0.8449999999999989,4.7564453125,-0.4667022705078125,7.352691650390626
0.8549999999999933,6.04783935546875,0.4858428955078125,8.947793579101564
0.8649999999999878,8.954074096679689,-0.7801300048828126,8.322882080078125
0.875,9.338381958007814,-1.1802886962890626,4.136618041992188
0.8849999999999945,9.561639404296876,-0.7203155517578126,3.075360107421876
0.8949999999999889,8.16766357421875,-1.37752685546875,7.328466796875
0.9050000000000048,6.920980834960938,-0.4749267578125,10.191336059570313
0.9149999999999956,5.325280761718751,1.5258666992187502,6.663031005859375
0.9249999999999864,7.305288696289063,0.004486083984375,3.711187744140626
0.9349999999999774,10.078585815429689,-0.25062255859375,5.8356475830078125
0.9460000000000016,9.441262817382814,1.3298248291015626,6.260479736328126
0.9559999999999924,7.479049682617188,2.5774047851562503,3.26646728515625
0.9659999999999832,7.506414794921875,1.1340820312500002,4.502532958984375
0.9759999999999992,7.6119873046875,-0.338250732421875,8.197421264648439
0.9859999999999935,5.984884643554688,0.3768310546875,7.071115112304688
0.995999999999988,6.363510131835938,0.6198272705078125,4.4624572753906255
1.0060000000000038,8.679226684570313,-1.0196868896484377,5.6801300048828125
1.015999999999995,9.27527770996094,-2.25560302734375,7.517630004882813
1.0259999999999891,6.907821655273438,-1.1031280517578126,6.0599517822265625
1.036000000000005,5.873181152343751,-0.3596343994140625,6.564486694335938
1.0459999999999958,6.225338745117188,-0.9036468505859376,9.518423461914065
1.0559999999999867,5.903536987304688,-0.1936492919921875,8.266207885742189
1.066999999999986,5.207894897460938,1.1789428710937502,2.542413330078125
1.075999999999997,8.834295654296875,1.0609588623046875,1.0486968994140626
1.0869999999999926,10.52734375,0.7239044189453125,6.643292236328126
1.0969999999999835,7.0270019531250005,0.5932098388671876,6.673797607421876
1.106999999999999,8.008407592773438,1.74478759765625,6.1118408203125005
1.116999999999997,10.795462036132813,0.28531494140625,10.2294677734375
1.1269999999999882,8.343368530273438,-0.2835205078125,10.412649536132813
1.137000000000004,6.111990356445313,2.688958740234375,5.7519073486328125
1.146999999999995,5.607455444335938,0.28770751953125,5.19847412109375
1.1569999999999894,6.908569335937501,-2.304351806640625,9.091647338867189
1.1670000000000051,6.450689697265625,-0.5680877685546876,6.89122314453125
1.176999999999996,7.184164428710938,-0.68487548828125,1.49476318359375
1.186999999999987,10.366293334960938,-2.4338500976562503,4.5162902832031255
1.196999999999978,9.367541503906253,-1.7256469726562502,10.106399536132812
1.2069999999999972,7.116275024414063,0.4777679443359375,7.224987792968751
1.216999999999988,7.899844360351563,0.4197479248046875,2.7622314453125
1.226999999999979,9.36993408203125,-1.3923309326171875,5.7399444580078125
1.2369999999999983,7.676138305664063,0.930712890625,7.4361328125
1.2479999999999976,6.956271362304688,2.2533599853515627,3.3406372070312504
1.2579999999999885,6.751406860351563,0.8936279296875,2.382110595703125
1.2680000000000042,7.038217163085938,1.14664306640625,8.212374877929689
1.2779999999999951,5.624053955078125,1.9107727050781247,8.645730590820314
1.2879999999999896,7.284802246093751,1.51151123046875,5.415151977539063
1.2980000000000054,8.810818481445313,0.6706695556640625,6.806436157226563
1.3079999999999965,7.978350830078125,-0.5803497314453125,9.683212280273438
1.3179999999999872,6.594543457031251,-1.064996337890625,7.760626220703125
1.327999999999978,6.72972412109375,-1.4102752685546875,5.18411865234375
1.3379999999999974,7.475909423828125,-0.9897796630859376,6.104962158203126
1.3479999999999883,7.727429199218751,-0.7657745361328125,5.577249145507813
1.3579999999999792,8.088259887695314,-0.8668609619140626,3.2283355712890627
1.3689999999999998,6.7159667968750005,-1.5786529541015626,3.6543640136718754
1.3789999999999978,6.05740966796875,-1.1859710693359375,5.609698486328125
1.388999999999989,6.549682617187501,-0.545208740234375,5.731869506835938
1.3990000000000045,7.080984497070313,0.0064300537109375,5.40423583984375
1.4089999999999954,8.946148681640626,0.5564239501953125,6.665573120117188
1.4189999999999898,13.280453491210938,2.3344085693359378,9.703698730468751
1.4289999999999772,10.468426513671876,1.9563812255859376,9.796710205078126
1.4389999999999965,5.379412841796875,1.2945343017578126,9.541152954101562
1.4489999999999874,3.749169921875,2.3059967041015628,9.62115478515625
1.4589999999999783,5.1193695068359375,-0.17645263671875,6.481643676757813
1.4689999999999976,6.743630981445313,0.222808837890625,2.2920898437500004
1.4789999999999883,8.325872802734375,2.27474365234375,1.6923004150390626
1.4889999999999797,10.22169189453125,0.3198577880859375,4.3365478515625
1.4989999999999988,9.610687255859377,-0.178546142578125,7.2976623535156255
1.5099999999999945,7.411309814453125,0.0411224365234375,9.636856079101562
1.519999999999989,6.964346313476563,-0.5461059570312501,8.821136474609375
1.5300000000000047,9.328811645507812,-0.7093994140625001,6.0988311767578125
1.5399999999999956,9.177481079101565,-1.0454071044921875,3.573016357421875
1.5499999999999865,6.41031494140625,-0.3569427490234375,2.903094482421875
1.5599999999999774,5.9014434814453125,0.0729736328125,4.2904907226562505
1.5699999999999967,5.433245849609375,-1.0340423583984375,5.744729614257813
1.5799999999999876,6.412109375000001,-0.7270446777343751,7.312017822265625
1.5899999999999783,7.843170166015626,-0.139068603515625,7.226333618164063
1.599999999999998,9.954919433593751,-0.8324676513671876,6.929055786132813
1.6099999999999888,9.338531494140623,-0.1924530029296875,8.221795654296876
1.6199999999999797,7.143939208984375,0.9350494384765624,8.740087890625
1.629999999999999,5.615679931640625,1.1118011474609375,6.768603515625
1.63999999999999,6.197525024414063,0.7734008789062501,5.180828857421876
1.6499999999999844,7.071563720703126,0.6249114990234376,4.843624877929688
1.6599999999999966,7.987472534179688,1.1101562500000002,3.7804229736328128
1.6709999999999958,7.533181762695313,0.8768798828125001,3.2480743408203128
1.6809999999999867,7.486825561523438,-0.049945068359375,5.3940673828125005
1.6909999999999776,8.145382690429688,0.137274169921875,7.468881225585938
1.700999999999997,7.943359375000001,-0.0770111083984375,7.383346557617188
1.710999999999988,5.243634033203126,-1.2996185302734375,6.341827392578126
1.7209999999999788,7.626641845703125,-1.3972656250000002,7.899993896484376
1.730999999999998,10.728170776367188,-0.4732818603515625,8.274880981445314
1.740999999999989,9.362307739257814,-0.288006591796875,4.89700927734375
1.75099999999998,6.764266967773438,0.8556457519531251,5.030245971679688
1.762000000000004,6.231768798828125,0.5184417724609376,10.185653686523438
1.7709999999999866,5.978005981445313,-0.7662231445312501,10.749703979492187
1.7809999999999846,6.554617309570313,1.167279052734375,5.728729248046875
1.7909999999999968,8.600122070312501,1.5490447998046877,2.178292846679688
1.801999999999996,10.932586669921877,-0.5027404785156251,5.1249023437500005
1.8109999999999853,8.631524658203126,0.1577606201171875,7.754644775390625
1.8219999999999776,5.604315185546875,1.3217498779296877,6.349005126953125
1.8319999999999967,6.463699340820313,0.2237060546875,5.450143432617188
1.841999999999988,8.861212158203125,-1.9536895751953127,6.8140625
1.851999999999979,8.779864501953126,-1.003387451171875,5.817404174804688
1.8619999999999983,8.260226440429689,0.346026611328125,2.63841552734375
1.8719999999999888,8.497689819335939,-0.2848663330078125,3.2293823242187503
1.88199999999998,7.4935546875,-1.1774475097656252,7.352392578125
1.892,5.118023681640626,0.2775390625,8.173345947265625
1.9019999999999868,5.667120361328125,1.3130767822265623,6.281564331054688
1.9119999999999848,8.196823120117188,0.6313415527343751,6.399847412109375
1.921999999999997,8.984579467773438,0.493170166015625,7.805038452148438
1.9319999999999915,7.296466064453125,0.7669708251953126,6.887933349609376
1.941999999999986,6.529794311523438,0.8336639404296876,6.194085693359376
1.9520000000000013,6.679779052734376,0.288006591796875,7.9529296875
1.9629999999999967,6.926214599609375,0.0952545166015625,7.436431884765626
1.9729999999999883,7.244277954101563,0.1449005126953125,3.784759521484376
1.9829999999999792,7.303494262695313,-0.9338531494140626,1.478762817382813
1.9929999999999983,8.977102661132813,-1.1713165283203126,4.414157104492188
2.002999999999989,8.211776733398438,0.1227691650390625,7.256988525390626
2.0129999999999804,4.491467285156251,-1.1369232177734376,6.284405517578126
2.023,6.5036254882812505,-0.6122009277343751,7.114630126953125
2.032999999999987,12.584661865234375,1.36915283203125,11.107244873046875
2.042999999999985,11.337081909179688,-0.1818359375,8.537167358398438
2.053000000000001,7.161285400390626,0.1936492919921875,3.86580810546875
2.062999999999992,5.320346069335938,0.353204345703125,6.5748046875
2.072999999999982,4.51060791015625,-1.0642486572265626,10.206140136718751
2.0839999999999783,4.817306518554688,1.0400238037109375,6.717013549804688
2.092999999999993,6.794921875000001,2.9077301025390625,1.1985321044921875
2.1039999999999885,11.9042724609375,0.3052032470703125,2.3664093017578125
2.1139999999999795,11.548675537109377,-0.3063995361328125,8.558551025390626
2.1239999999999988,7.161285400390626,1.7440399169921876,8.972317504882813
2.1339999999999897,5.4987426757812505,1.6549163818359376,7.134368896484376
2.1439999999999806,7.362411499023438,-1.2776367187500002,7.672698974609376
2.154,7.730270385742188,-1.265972900390625,7.184912109375
2.163999999999991,7.377215576171875,0.8317199707031251,2.966049194335937
2.1739999999999853,8.254244995117189,0.2595947265625,1.140362548828125
2.184000000000001,9.03736572265625,-1.7243011474609375,6.036474609375
2.193999999999992,6.215768432617188,-1.0588653564453123,8.166317749023438
2.203999999999983,5.78824462890625,-0.281427001953125,6.1970764160156255
2.2149999999999785,8.407519531250001,-0.7500732421875,6.48807373046875
2.223999999999993,8.947494506835938,-0.7183715820312501,8.33155517578125
2.233999999999988,7.755392456054688,0.45638427734375,6.584674072265625
2.24499999999998,6.52994384765625,0.188116455078125,4.380212402343751
2.254999999999999,6.619815063476563,0.2382110595703125,7.268203735351563
2.26499999999999,6.106158447265625,1.7371612548828126,8.442660522460939
2.2749999999999844,7.132125854492188,1.4980529785156251,5.0112548828125005
2.2849999999999966,8.611935424804688,0.47672119140625,3.3931243896484378
2.294999999999991,8.081829833984376,0.7520172119140626,5.7608795166015625
2.304999999999985,6.883596801757813,0.6450988769531251,6.335098266601563
2.3150000000000013,6.318499755859375,0.7378112792968751,5.709439086914063
2.324999999999992,5.924920654296876,-0.72913818359375,6.737948608398438
2.334999999999983,7.3111206054687505,-1.621270751953125,7.167864990234375
2.344999999999999,11.417532348632813,-0.5716766357421875,7.032534790039063
2.3549999999999933,10.854678344726564,-1.1388671875,5.9877258300781255
2.364999999999988,8.205047607421875,-0.307147216796875,6.743032836914063
2.375,5.796469116210938,-0.21533203125,8.99549560546875
2.3859999999999992,5.24931640625,-0.017047119140625,8.699114990234376
2.394999999999989,5.90189208984375,1.0498931884765623,5.713177490234376
2.4059999999999846,7.703204345703125,1.062005615234375,3.510061645507813
2.415999999999997,9.868487548828126,0.447711181640625,4.007269287109375
2.425999999999992,9.5356201171875,-0.1867706298828125,6.2314697265625005
2.4359999999999857,6.972720336914063,0.5109649658203126,7.560098266601563
2.446000000000001,6.611141967773438,0.681585693359375,8.167364501953125
2.4559999999999924,7.899246215820313,-0.8121307373046875,7.717111206054688
2.465999999999984,8.37342529296875,-0.8321685791015626,5.63272705078125
2.475999999999999,8.70001220703125,0.51260986328125,3.121267700195313
2.485999999999993,8.325125122070313,-0.4565338134765625,3.1912506103515628
2.495999999999988,7.290783691406251,-0.8840576171875001,6.1372619628906255
2.506000000000004,5.380160522460938,0.5887237548828126,6.9671875000000005
2.5159999999999947,5.8845458984375005,0.2974273681640625,6.1791320800781255
2.525999999999989,8.19996337890625,0.1553680419921875,7.074105834960938
2.536999999999985,9.316998291015626,0.7612884521484375,7.627389526367188
2.546999999999997,7.996594238281251,1.04376220703125,5.875872802734375
2.5569999999999915,7.008010864257813,0.4490570068359375,6.490765380859376
2.566999999999986,6.160440063476563,-0.0705810546875,8.595635986328126
2.5770000000000017,5.921481323242188,0.436944580078125,7.437329101562501
2.5869999999999926,7.109396362304688,0.371148681640625,4.1787872314453125
2.5969999999999835,8.899044799804688,-0.6153411865234375,3.6462890625
2.607,7.558901977539063,-1.4678466796875,4.3221923828125
2.6169999999999973,5.998941040039063,-1.0428649902343752,4.592852783203125
2.626999999999988,6.349005126953125,-0.1924530029296875,7.139453125
2.637000000000004,7.626193237304688,-1.06768798828125,8.608346557617189
2.646999999999995,11.041448974609375,0.401953125,7.626641845703125
2.6569999999999894,11.464187622070312,1.5598114013671875,7.240240478515625
2.667000000000005,8.022164916992189,-0.3671112060546875,8.258132934570312
2.678999999999977,5.879312133789063,0.5686859130859375,7.413104248046875
2.687999999999992,4.396063232421875,0.2639312744140625,4.795474243164063
2.697999999999982,5.275485229492188,-0.0025421142578125,5.2170166015625
2.708000000000002,7.260577392578125,2.11802978515625,6.016436767578125
2.717999999999993,9.429898071289063,2.2025177001953127,4.41490478515625
2.727999999999988,9.921572875976564,0.9894805908203126,5.5107055664062505
2.7379999999999995,9.285894775390624,0.165087890625,9.720446777343753
2.7479999999999976,7.062142944335938,0.5147033691406251,9.452926635742188
2.7579999999999885,6.873428344726563,0.0049346923828125,6.3226867675781255
2.768000000000004,7.031488037109376,-0.6760528564453125,4.736407470703125
2.779,7.882946777343751,-0.489581298828125,4.5949462890625
2.7879999999999896,7.849301147460938,-0.7108947753906251,3.0147979736328128
2.7980000000000054,7.766159057617188,-0.5606109619140626,3.287252807617188
2.8079999999999963,7.4322448730468755,-0.7816253662109376,6.613385009765626
2.817999999999987,7.4442077636718755,-1.496707153320313,8.33035888671875
2.828999999999983,7.883096313476563,-0.6286499023437501,7.215267944335938
2.838999999999998,8.204449462890626,0.113946533203125,6.606655883789063
2.848999999999993,7.963247680664063,0.1117034912109375,7.233062744140626
2.858999999999988,6.810772705078126,0.384307861328125,6.573159790039063
2.869,5.925967407226563,0.8393463134765625,5.6046142578125
2.878999999999998,6.108551025390625,1.014752197265625,6.160440063476563
2.8889999999999887,7.115377807617188,1.0292572021484376,6.798809814453126
2.8990000000000045,8.281011962890625,0.9766204833984377,5.862265014648438
2.908999999999996,9.017626953125,0.7300354003906251,5.338888549804688
2.91899999999999,7.623202514648438,0.0028411865234375,5.730075073242188
2.928999999999977,5.555865478515625,-0.6332855224609375,5.824432373046875
2.9389999999999965,4.044354248046876,-1.0472015380859376,5.463751220703125
2.949999999999992,7.645632934570313,-0.6113037109375,6.916644287109375
2.9589999999999783,11.167807006835938,-1.8467712402343752,6.2314697265625005
2.969999999999999,12.197512817382814,-1.56055908203125,5.0949951171875005
2.9799999999999933,9.214865112304688,-0.82783203125,7.966687011718751
2.989999999999988,6.2099365234375,-0.426776123046875,10.944549560546877
3.0,5.0939483642578125,2.58697509765625,8.230319213867189
3.0099999999999945,4.9713287353515625,2.8598785400390625,3.915603637695313
3.019999999999989,7.16397705078125,1.5566711425781252,4.761978149414063
3.0300000000000047,9.008355712890626,2.34652099609375,5.7040557861328125
3.039999999999996,8.568869018554688,1.7845642089843752,3.9411743164062494
3.0499999999999865,8.183663940429689,0.05084228515625,6.555364990234375
3.0599999999999774,7.826571655273438,-0.8976654052734375,10.583718872070314
3.0699999999999967,7.469479370117188,-0.9002075195312501,8.775827026367189
3.079999999999988,8.259478759765626,-0.7200164794921875,4.220059204101563
3.0899999999999785,8.476306152343751,-1.21064453125,3.813919067382813
3.100999999999999,8.309124755859376,-1.544110107421875,5.547491455078125
3.1099999999999888,6.717312622070313,-1.2197662353515626,3.7340667724609378
3.120999999999988,6.869241333007813,-0.8432342529296876,3.8338073730468754
3.131000000000004,7.278073120117188,-0.448309326171875,7.421926879882813
3.1409999999999947,7.087265014648438,0.448907470703125,8.232562255859376
3.150999999999989,7.597781372070313,1.6588043212890626,6.126644897460938
3.161000000000005,8.441763305664063,1.1086608886718752,6.639254760742188
3.170999999999996,7.976556396484375,1.0539306640625,8.53372802734375
3.1809999999999867,6.164028930664063,1.373638916015625,6.964794921875001
3.1909999999999776,6.182870483398438,0.6998291015625,5.383001708984375
3.200999999999997,7.021917724609375,0.1227691650390625,6.430950927734376
3.210999999999988,7.780963134765625,0.0937591552734375,6.11363525390625
3.2209999999999788,8.326919555664062,0.065496826171875,3.978857421875
3.230999999999998,7.922274780273438,-1.5965972900390626,4.32518310546875
3.240999999999989,4.706500244140625,-2.9967041015625,5.30972900390625
3.25099999999998,4.953683471679688,-2.0727203369140628,6.008212280273438
3.262000000000004,9.606051635742189,-0.0599639892578125,7.762570190429688
3.271999999999995,12.966278076171877,-0.4116729736328125,6.797463989257813
3.2819999999999894,11.662472534179688,0.337353515625,6.133074951171875
3.292000000000005,6.46055908203125,0.295184326171875,10.06482849121094
3.301999999999996,4.382754516601563,1.3229461669921876,11.619705200195312
3.311999999999987,3.8409851074218753,1.84647216796875,5.3533935546875
3.321999999999978,5.745327758789063,1.0252197265625,1.2846649169921875
3.331999999999997,8.712872314453126,2.2035644531250003,4.06798095703125
3.341999999999988,10.244720458984377,2.876925659179688,6.06937255859375
3.351999999999979,8.613879394531251,2.68148193359375,6.3585754394531255
3.3619999999999983,7.255792236328125,0.5136566162109375,9.015234375
3.371999999999989,7.510003662109375,-1.5651947021484376,10.649066162109376
3.3829999999999885,8.264114379882812,-1.1357269287109375,7.1855102539062505
3.3919999999999995,8.322433471679688,-0.2489776611328125,2.82982177734375
3.402999999999995,7.645333862304688,-0.95523681640625,3.1259033203125
3.4129999999999896,7.349102783203126,-1.854098510742188,5.081536865234376
3.4230000000000054,6.749313354492188,-1.8561920166015624,4.751959228515625
3.4329999999999963,6.529345703125,-0.6727630615234376,5.515640258789063
3.442999999999987,8.193084716796875,-0.301165771484375,7.833749389648438
3.452999999999978,9.238641357421876,-0.5399749755859375,7.535723876953125
3.4629999999999974,8.637057495117189,0.104974365234375,5.768505859375001
3.4729999999999883,7.503872680664063,1.328179931640625,6.415548706054688
3.4829999999999792,6.216067504882813,1.44930419921875,7.458114624023438
3.4929999999999986,5.8087310791015625,0.9180023193359376,6.692190551757813
3.502999999999989,6.111392211914063,1.1246612548828123,5.401693725585938
3.5129999999999804,7.628735351562501,0.8466735839843751,5.372384643554688
3.523,8.528494262695313,0.3349609375,6.103167724609375
3.532999999999987,8.49903564453125,0.2878570556640625,6.797015380859375
3.542999999999985,7.887881469726563,-0.174359130859375,6.702209472656251
3.553999999999977,5.958865356445313,-1.1968872070312502,5.564389038085938
3.5639999999999965,3.8396392822265626,-1.8238922119140624,4.430307006835938
3.5739999999999874,5.193240356445313,-1.248028564453125,5.170062255859375
3.5839999999999783,10.681365966796877,-0.5142547607421876,6.764117431640625
3.5939999999999976,13.159478759765626,-1.09639892578125,5.070919799804688
3.603999999999989,11.64407958984375,-0.3069976806640625,6.408221435546875
3.61399999999998,7.129434204101563,-0.02332763671875,11.79959716796875
3.623999999999999,4.573114013671876,1.791741943359375,12.039303588867188
3.6339999999999897,4.552029418945313,3.6241577148437503,5.581137084960938
3.6439999999999806,5.913107299804688,1.633233642578125,1.6928985595703123
3.654,8.740536499023438,1.39188232421875,4.364959716796875
3.663999999999991,8.61328125,1.6344299316406252,4.790689086914063
3.673999999999985,7.873526000976563,0.2265472412109375,5.272045898437501
3.684000000000001,7.533181762695313,-0.722259521484375,9.35303649902344
3.6949999999999967,8.111886596679689,-2.129693603515625,11.1338623046875
3.704999999999988,8.648870849609375,-1.7301330566406252,6.92412109375
3.7149999999999785,9.153256225585938,-0.7218109130859376,3.055172729492188
3.724999999999998,8.194879150390626,-1.0612579345703126,4.060952758789063
3.7349999999999888,7.287792968750001,-1.3096374511718751,5.044003295898438
3.74499999999998,5.9371826171875,-0.7273437500000001,3.696234130859376
3.754999999999999,6.258834838867188,0.2415008544921875,5.0550689697265625
3.76499999999999,6.372482299804688,0.948956298828125,7.534677124023438
3.774999999999984,8.323629760742188,1.4711364746093751,7.608099365234375
3.7849999999999966,9.100320434570314,1.773797607421875,6.208291625976563
3.794999999999991,8.791378784179688,1.6478881835937502,7.287942504882813
3.8049999999999855,6.5006347656250005,1.1910552978515625,8.531784057617188
3.815000000000001,5.9911651611328125,0.3058013916015625,7.767803955078126
3.825999999999997,5.939276123046875,0.1404144287109375,5.795422363281251
3.835999999999988,7.247418212890626,-0.2567535400390625,4.766912841796875
3.8459999999999774,8.559896850585938,-0.6476409912109375,4.3189025878906255
3.855999999999998,9.171051025390623,-0.820355224609375,4.559356689453125
3.865999999999989,8.118466186523438,-1.1330352783203126,6.125448608398438
3.87599999999998,5.653363037109376,-2.0544769287109377,6.7243408203125
3.8859999999999992,4.2086944580078125,-2.065542602539063,5.342776489257813
3.8959999999999866,5.9467529296875,-0.570928955078125,4.981048583984375
3.9059999999999846,10.393359375,0.7745971679687501,6.844866943359375
3.915999999999997,13.115963745117188,1.3851531982421876,5.769552612304688
3.9259999999999913,11.096627807617187,2.4070831298828126,6.207992553710938
3.9359999999999857,5.511453247070313,1.2945343017578126,11.729913330078126
3.9460000000000015,3.685018920898438,1.310235595703125,13.811007690429689
3.955999999999992,4.746127319335938,1.1725128173828123,5.98443603515625
3.9659999999999833,7.21182861328125,-0.8574401855468751,-0.07955322265625
3.975999999999999,9.632818603515624,-0.0964508056640625,2.1077117919921875
3.9869999999999983,9.503619384765626,1.1429046630859376,6.857577514648438
3.996999999999989,7.300354003906251,0.2732025146484375,5.9926605224609375
4.00699999999998,6.575103759765626,-0.7651763916015626,8.277871704101564
4.017,7.936480712890625,-1.634280395507813,10.905221557617187
4.026999999999987,9.320587158203123,-0.5897705078125001,7.369589233398438
4.036999999999985,9.339727783203124,0.1155914306640625,2.0368316650390628
4.046999999999997,7.963995361328125,0.069683837890625,3.2026153564453126
4.057999999999996,6.730023193359376,-0.0605621337890625,6.2927795410156255
4.066999999999986,5.695831298828125,0.2612396240234375,5.415451049804688
4.077999999999978,5.58487548828125,1.1804382324218752,4.674050903320313
4.086999999999993,7.720999145507813,0.758148193359375,7.25908203125
4.096999999999984,9.021514892578123,-0.555975341796875,7.532882690429688
4.107000000000003,9.294119262695313,-0.235968017578125,6.0950927734375
4.117999999999999,7.746719360351563,0.3578399658203125,6.672601318359376
4.1279999999999895,6.429006958007813,0.0850860595703125,8.594589233398438
4.13799999999998,5.912957763671876,-0.0910675048828125,7.638006591796875
4.148,6.422726440429688,0.071478271484375,4.961459350585938
4.157999999999991,7.621408081054688,-0.0180938720703125,4.196133422851563
4.1679999999999815,8.548532104492189,-0.329278564453125,5.246774291992188
4.178999999999977,8.4948486328125,-0.024822998046875,5.829067993164063
4.187999999999992,7.179229736328126,0.0973480224609375,5.674746704101563
4.197999999999983,5.509060668945313,-0.4151123046875,5.834451293945313
4.208000000000002,4.7844085693359375,-0.5737701416015626,6.15311279296875
4.217999999999993,7.733709716796875,0.225799560546875,7.139004516601563
4.227999999999991,11.212966918945312,-0.241650390625,6.426614379882813
4.238000000000003,11.509945678710938,-0.5404235839843751,5.382702636718751
4.247999999999994,8.51458740234375,-0.2966796875,8.222842407226564
4.257999999999985,5.7314208984375,0.002392578125,10.6649169921875
4.268999999999981,4.9825439453125,1.7972747802734377,7.538714599609375
4.277999999999995,5.9448089599609375,2.5787506103515625,3.5284545898437503
4.288999999999991,7.684063720703126,0.74468994140625,4.3787170410156255
4.298999999999982,9.565676879882814,1.0313507080078126,6.103616333007813
4.309000000000001,8.53671875,1.1810363769531251,5.050732421875001
4.318999999999992,7.55277099609375,-0.4436737060546875,7.200912475585938
4.328999999999983,7.373477172851563,-0.9377410888671877,10.367788696289065
4.339000000000002,7.694381713867188,-1.0892211914062502,8.432192993164064
4.348999999999993,8.260226440429689,-0.5061798095703125,3.670065307617188
4.358999999999991,8.496493530273439,-0.335260009765625,3.242990112304688
4.369000000000003,8.214318847656251,-0.8380004882812501,5.737701416015625
4.378999999999994,7.135116577148438,-0.7038665771484376,4.763174438476563
4.388999999999985,6.334051513671875,0.0746185302734375,3.808535766601562
4.399999999999981,7.648773193359376,-0.01854248046875,7.06827392578125
4.408999999999995,7.192388916015625,0.2380615234375,8.305386352539063
4.419999999999991,8.191738891601563,1.508819580078125,6.581085205078126
4.430999999999987,7.867544555664063,1.44451904296875,4.9100189208984375
4.440000000000001,8.41708984375,0.133685302734375,7.286297607421876
4.449999999999992,6.13157958984375,0.18602294921875,8.114727783203126
4.459999999999983,5.797366333007813,0.3288299560546875,6.628189086914063
4.470000000000002,6.921878051757813,0.257501220703125,4.216769409179688
4.479999999999993,7.576995849609376,-1.9381378173828123,7.742233276367188
4.489999999999991,8.003622436523438,0.2005279541015625,6.6621337890625005
4.500000000000004,8.446847534179689,0.2971282958984375,4.2889953613281255
4.5099999999999945,8.485577392578126,-0.8964691162109376,5.563641357421876
4.519999999999985,6.669012451171875,-1.09998779296875,6.932196044921875
4.530000000000005,1.8535003662109373,-1.0735198974609377,3.906930541992188
4.539999999999996,5.016937255859375,0.213238525390625,3.9339965820312495
4.5499999999999865,12.333889770507811,1.364666748046875,8.28968505859375
4.559999999999977,14.656036376953129,0.6491363525390625,6.862661743164063
4.5710000000000015,10.687347412109377,1.1242126464843751,5.569772338867188
4.580999999999992,6.104214477539063,-0.005682373046875,12.12738037109375
4.590999999999983,3.991867065429688,0.079254150390625,13.536309814453126
4.601000000000003,3.1131927490234377,0.5265167236328125,3.89571533203125
4.6109999999999935,6.292929077148438,-0.5307037353515626,-0.4511505126953125
4.620999999999992,9.558050537109375,0.343634033203125,1.4982025146484377
4.63199999999998,9.780859375,2.1486846923828127,8.919232177734376
4.640999999999995,7.407122802734375,1.8292755126953129,7.184912109375
4.650999999999986,7.1167236328125005,0.112152099609375,9.536666870117188
4.661000000000005,8.6862548828125,-1.122866821289063,11.818887329101564
4.670999999999996,9.038861083984376,-0.1727142333984375,6.659292602539063
4.680999999999987,8.802294921875001,0.768017578125,0.8807678222656251
4.690999999999978,8.080184936523438,-0.00777587890625,1.4642578125
4.702000000000002,6.456970214843751,-0.59814453125,5.243035888671876
4.711999999999993,5.346813964843751,-0.7535125732421876,4.599880981445313
4.721999999999984,6.058755493164063,-0.3381011962890625,5.61478271484375
4.732000000000003,8.469427490234375,-0.4649078369140625,8.505316162109375
4.741999999999994,9.496142578125,-1.1342315673828125,7.884890747070313
4.751999999999985,9.46548767089844,-0.862225341796875,6.381903076171875
4.762000000000004,7.676138305664063,0.1078155517578125,7.524060058593751
4.771999999999995,5.556463623046875,0.7225585937500001,8.128933715820313
4.781999999999986,4.990618896484375,0.7364654541015625,6.541009521484376
4.792000000000005,5.901144409179688,0.4813568115234375,5.05252685546875
4.801999999999996,7.657147216796876,0.969891357421875,4.641302490234375
4.811999999999987,9.275875854492188,0.95404052734375,4.613339233398438
4.821999999999978,9.55640563964844,0.46116943359375,5.757440185546876
4.831999999999997,8.00257568359375,0.6440521240234376,7.152462768554688
4.841999999999988,4.847811889648438,0.221612548828125,6.396707153320313
4.852999999999991,2.8975616455078126,-0.3241943359375,4.9035888671875005
4.863000000000003,6.111392211914063,-1.0762115478515626,5.550482177734375
4.872999999999994,13.135253906250002,-0.138470458984375,6.274087524414063
4.882999999999985,13.904766845703126,-0.33077392578125,4.206451416015625
4.893000000000004,9.98662109375,-1.5064270019531252,7.169808959960938
4.902999999999995,5.071368408203125,-0.7280914306640626,13.945440673828124
4.912999999999986,3.124557495117188,0.8945251464843751,12.707879638671876
4.923000000000005,3.771002197265626,2.1691711425781253,4.066784667968751
4.932999999999996,7.87576904296875,0.9082824707031252,0.5286102294921875
4.942999999999987,10.701553344726562,-0.125311279296875,3.869845581054688
4.952999999999978,9.558947753906253,0.5324981689453125,5.33006591796875
4.962999999999997,6.772790527343751,0.410028076171875,6.661087036132813
4.972999999999988,6.157748413085938,-0.4699920654296875,10.370480346679688
4.982999999999979,8.057904052734376,-1.1541198730468751,10.893109130859376
4.99499999999998,9.89136657714844,-0.21353759765625,5.1014251708984375
5.003999999999994,9.666165161132811,0.003887939453125,0.5752655029296876
5.013999999999985,8.122055053710938,-0.2178741455078125,3.3357025146484376
5.0240000000000045,6.551776123046875,-0.5782562255859376,6.898849487304688
5.033999999999995,4.552926635742188,-0.6320892333984376,5.757290649414063
5.043999999999986,6.1381591796875,0.7557556152343751,5.7577392578125
5.053999999999977,8.066427612304688,0.358587646484375,7.107452392578126
5.0639999999999965,9.86878662109375,0.271856689453125,7.067376708984376
5.073999999999987,8.899343872070313,1.200177001953125,5.954678344726563
5.083999999999978,7.26925048828125,0.849066162109375,6.924270629882813
5.095000000000002,5.47122802734375,0.725250244140625,8.419033813476563
5.1039999999999885,5.430105590820313,0.1694244384765625,7.930050659179688
5.11399999999998,6.478054809570313,0.14415283203125,5.487527465820313
5.123999999999999,8.41290283203125,0.14534912109375,3.890631103515626
5.13399999999999,9.615921020507812,-0.4031494140625,4.548141479492188
5.144999999999985,9.165518188476565,-0.39776611328125,6.085971069335938
5.155000000000005,7.296316528320313,-0.4227386474609375,6.733761596679688
5.164999999999996,5.1978759765625,-1.04017333984375,6.142047119140625
5.1749999999999865,3.553726196289063,-2.063897705078125,4.8083343505859375
5.184999999999977,6.34093017578125,-0.9787139892578126,4.894915771484375
5.194999999999997,11.285491943359377,1.485791015625,6.391622924804688
5.204999999999988,12.478192138671876,0.2489776611328125,4.928561401367188
5.2149999999999785,10.096530151367189,0.934002685546875,7.327120971679688
5.224999999999998,6.390875244140625,1.106866455078125,14.032919311523438
5.234999999999989,3.715673828125,0.6407623291015625,12.711318969726564
5.24499999999998,5.1627349853515625,1.256103515625,3.930258178710938
5.254999999999999,7.258184814453125,-0.4747772216796875,-0.0801513671875
5.26499999999999,9.430047607421876,-0.2585479736328125,4.01953125
5.274999999999981,8.798556518554689,2.5283569335937504,6.450839233398438
5.286000000000005,7.01683349609375,1.17655029296875,5.588763427734375
5.295999999999996,7.025656127929688,-0.32060546875,9.063833618164065
5.305999999999987,8.775228881835938,-0.8284301757812501,11.425308227539062
5.315999999999978,9.4351318359375,-0.1188812255859375,6.3534912109375
5.325999999999997,9.309371948242188,0.5423675537109376,1.4168548583984375
5.335999999999988,7.733111572265625,-0.2501739501953125,4.135720825195313
5.345999999999979,6.158197021484376,-0.6670806884765625,6.856680297851563
5.355999999999998,5.09918212890625,-0.5160491943359375,4.840634155273438
5.365999999999989,6.23326416015625,0.3001190185546875,4.398455810546875
5.37599999999998,8.4398193359375,-0.3108856201171875,7.338784790039063
5.385999999999999,9.153555297851565,-1.3938262939453123,7.4427124023437505
5.39599999999999,8.783602905273439,-0.477020263671875,5.761328125
5.405999999999981,7.798907470703125,0.0617584228515625,6.829464721679688
5.416,6.266461181640626,0.172564697265625,8.715264892578126
5.426999999999996,5.797964477539063,0.4502532958984375,7.601519775390625
5.436999999999987,6.409118652343751,0.9622650146484376,4.797567749023438
5.446999999999978,7.805187988281251,0.7651763916015626,4.252209472656251
5.456999999999997,8.657693481445314,0.6018829345703125,5.752056884765626
5.466999999999988,8.601467895507813,0.6596038818359375,6.222048950195313
5.476999999999979,8.045193481445313,0.672314453125,6.032586669921876
5.486999999999998,7.49654541015625,0.0348419189453125,7.060797119140625
5.496999999999989,6.09329833984375,-0.6317901611328125,7.0748535156250005
5.50699999999998,5.14703369140625,-0.4397857666015625,5.086920166015625
5.517,5.225689697265626,-0.5262176513671876,3.910968017578125
5.52699999999999,7.9529296875,-0.8851043701171876,5.84686279296875
5.536999999999981,10.26700134277344,-1.4769683837890626,6.557458496093751
5.547000000000001,11.33603515625,-0.8362060546875001,6.320144653320313
5.556999999999992,9.052020263671876,-0.5956024169921875,8.819342041015625
5.566999999999982,6.72733154296875,-0.6675292968750001,11.085412597656251
5.577999999999978,6.237600708007813,2.2406494140625,8.231814575195314
5.587999999999997,5.739495849609376,2.4890289306640625,3.655859375
5.597999999999988,6.738995361328126,1.6758514404296876,4.550982666015625
5.607999999999979,8.6037109375,2.538226318359375,6.094046020507813
5.617999999999999,8.076745605468751,1.2688140869140625,3.701168823242188
5.6279999999999895,7.964743041992188,0.1614990234375,5.657400512695313
5.63799999999998,8.30523681640625,-0.7907470703125,10.34132080078125
5.648,8.118316650390625,-0.906787109375,9.013888549804689
5.657999999999991,8.44580078125,-0.74169921875,4.24742431640625
5.6679999999999815,8.419631958007812,-1.4651550292968751,3.977661132812501
5.678000000000001,8.115774536132813,-1.5752136230468752,6.139205932617188
5.687999999999992,6.8798583984375,-0.88046875,4.235012817382813
5.698999999999987,6.533383178710938,-0.374737548828125,3.1012298583984377
5.708999999999978,6.952832031250001,-0.2863616943359375,6.453381347656251
5.718999999999998,6.996646118164063,0.5154510498046876,8.166616821289063
5.7289999999999885,7.645782470703126,1.71488037109375,6.665872192382813
5.73899999999998,8.502774047851563,1.664187622070313,6.4647460937500005
5.748999999999999,8.2268798828125,0.9855926513671877,8.187252807617188
5.75899999999999,6.702508544921876,0.4390380859375,7.821038818359375
5.768999999999981,6.018679809570313,0.5944061279296875,6.270199584960938
5.779,6.479849243164063,0.238360595703125,6.121411132812501
5.788999999999991,7.381103515625001,-0.231182861328125,5.843572998046875
5.798999999999982,8.482437133789062,-0.2839691162109375,4.52017822265625
5.809000000000001,8.861212158203125,-0.7046142578125001,4.5399169921875
5.818999999999992,8.085717773437501,-1.1575592041015623,6.299508666992188
5.829999999999988,6.088961791992188,-1.836602783203125,6.221600341796876
5.839000000000002,5.096041870117188,-1.6416076660156251,4.453335571289063
5.849999999999998,6.797912597656251,-0.3357086181640625,5.764468383789063
5.859999999999989,7.997192382812501,-0.039178466796875,7.226632690429688
5.86999999999998,10.83060302734375,1.690655517578125,6.1058593750000005
5.879999999999999,10.775274658203124,2.3794189453125,7.817150878906251
5.88999999999999,6.988122558593751,0.5505920410156251,11.510842895507814
5.899999999999981,5.106060791015626,1.0815948486328126,9.909909057617188
5.91,6.263021850585938,0.4212432861328125,3.8605743408203126
5.919999999999991,7.028198242187501,-0.9474609375,3.081192016601563
5.929999999999982,8.142691040039063,1.176251220703125,6.462652587890625
5.940000000000001,7.720700073242188,2.105169677734376,4.848110961914063
5.949999999999992,8.206692504882813,-0.2115936279296875,4.728781127929688
5.959999999999983,8.27772216796875,-0.5802001953125,9.770989990234376
5.970000000000002,7.940069580078125,-0.1754058837890625,10.331002807617187
5.979999999999993,8.442361450195314,0.1519287109375,4.7193603515625
5.989999999999991,9.240585327148438,-0.7820739746093751,2.77718505859375
6.00099999999998,8.000332641601563,-0.8593841552734376,5.871685791015626
6.010999999999999,6.4064270019531255,0.3959716796875,5.173052978515625
6.02099999999999,6.754696655273438,0.385205078125,2.840289306640625
6.030999999999981,7.4780029296875,-0.70281982421875,5.664129638671875
6.041,6.877615356445313,-0.6302947998046875,8.644534301757814
6.050999999999991,6.95701904296875,-0.3219512939453125,6.837838745117188
6.060999999999982,8.776275634765625,-0.1906585693359375,5.839984130859375
6.0710000000000015,8.690740966796875,0.0797027587890625,7.990463256835938
6.080999999999992,6.984384155273438,0.7774383544921876,8.120858764648439
6.090999999999983,6.012399291992188,1.05692138671875,5.8151611328125
6.101000000000003,6.443212890625,0.2978759765625,5.741589355468751
6.1109999999999935,6.8385864257812505,0.4987030029296875,6.809875488281251
6.120999999999992,7.802047729492188,0.4873382568359375,5.332308959960938
6.131000000000004,8.905175781250001,0.1191802978515625,4.143646240234375
6.140999999999995,9.086563110351562,-0.01375732421875,6.021969604492188
6.15199999999999,7.498788452148438,-0.0767120361328125,7.216464233398438
6.161999999999981,5.3571319580078125,-0.0279632568359375,5.916845703125
6.172000000000001,3.217868041992188,-0.5401245117187501,4.4733734130859375
6.181999999999992,5.258587646484376,-1.0917633056640623,5.682373046875
6.191999999999982,11.729763793945311,-0.26378173828125,7.072311401367188
6.202000000000002,13.39185791015625,0.27454833984375,4.969683837890625
6.211999999999993,10.574298095703126,-0.223406982421875,6.749911499023438
6.221999999999984,6.504223632812501,-0.2860626220703125,12.879248046875
6.232000000000003,4.04345703125,0.9906768798828126,11.274276733398438
6.241999999999994,4.779623413085938,1.8428833007812504,3.9274169921875
6.251999999999985,6.134271240234376,1.2323272705078123,1.5856811523437502
6.262000000000004,9.706988525390626,0.7364654541015625,5.000039672851563
6.271999999999995,9.124395751953124,0.30565185546875,4.8965606689453125
6.282999999999991,7.568920898437501,-0.0698333740234375,6.051727294921875
6.294999999999991,7.32188720703125,-0.4472625732421875,10.713217163085938
6.303000000000001,7.934835815429688,-1.5891204833984376,11.003317260742188
6.312999999999992,9.0307861328125,-0.7195678710937501,5.530743408203126
6.322999999999983,9.145928955078126,-0.153125,1.603326416015625
6.333000000000002,8.251254272460939,-0.6204254150390626,3.599783325195313
6.342999999999993,6.972720336914063,-0.307745361328125,5.140454101562501
6.352999999999991,5.571566772460938,-0.1867706298828125,4.593450927734375
6.363000000000003,5.590109252929688,0.5785552978515626,5.795422363281251
6.372999999999994,7.957864379882813,0.8148223876953126,7.821487426757813
6.382999999999985,8.995046997070313,0.482403564453125,7.049880981445313
6.393999999999981,9.218304443359376,1.3841064453125,6.35947265625
6.402999999999995,8.017678833007814,1.5909149169921877,7.071414184570313
6.413999999999991,6.297415161132813,0.1176849365234375,7.712026977539063
6.423000000000005,5.22838134765625,-0.18363037109375,7.527349853515625
6.432999999999996,5.567080688476563,0.21712646484375,6.251058959960938
6.443999999999992,7.353140258789063,-0.311334228515625,4.862615966796875
6.453999999999983,9.169406127929689,-0.8526550292968751,4.730276489257813
6.464000000000002,9.543994140625,-0.5929107666015625,5.6716064453125
6.473999999999993,8.391818237304689,-0.247332763671875,6.223245239257813
6.483999999999991,7.408020019531251,-0.6993804931640626,7.01085205078125
6.494000000000003,6.902737426757813,-0.8451782226562501,7.465292358398438
6.503999999999994,5.277279663085938,-0.505133056640625,5.381954956054688
6.513999999999985,3.435592651367188,-0.920843505859375,2.46495361328125
6.5240000000000045,6.506466674804688,-0.0067291259765625,4.341183471679688
6.533999999999995,11.299697875976562,1.295880126953125,7.770794677734376
6.543999999999986,12.98392333984375,0.9036468505859376,6.356182861328126
6.553999999999977,10.606149291992187,1.00428466796875,7.440768432617188
6.5639999999999965,6.638656616210938,0.301763916015625,13.353277587890624
6.573999999999987,4.2504150390625,1.0056304931640625,11.763858032226564
6.583999999999978,3.899603271484376,1.2972259521484375,2.7647735595703127
6.595000000000002,6.690994262695313,-0.677398681640625,0.35589599609375
6.604999999999993,8.694628906250001,0.4218414306640625,5.359375
6.614999999999991,9.167462158203126,1.7494232177734377,6.141448974609376
6.625000000000004,7.562191772460938,0.538330078125,6.038119506835938
6.6349999999999945,7.881900024414063,-0.3641204833984375,10.455416870117189
6.644999999999985,8.786892700195313,-0.7309326171875,11.288034057617187
6.655000000000005,9.107199096679688,-0.0861328125,5.175146484375
6.664999999999996,8.947943115234375,0.4756744384765625,1.3634704589843751
6.6749999999999865,7.298709106445313,0.095404052734375,3.9791564941406254
6.684999999999977,6.549234008789063,-0.1404144287109375,5.150473022460938
6.694999999999997,5.606707763671875,-0.5944061279296875,3.64150390625
6.704999999999988,6.797015380859375,0.0127105712890625,5.718710327148438
6.715999999999983,8.151513671875001,-0.06519775390625,8.156149291992188
6.726000000000003,9.111834716796876,-0.8813659667968751,7.361215209960938
6.7359999999999935,8.765658569335939,-0.67530517578125,6.745574951171876
6.745999999999992,7.380505371093751,-0.0623565673828125,8.082876586914063
6.756000000000004,5.93179931640625,0.103778076171875,7.749411010742188
6.765999999999995,5.720205688476563,-0.097796630859375,6.227731323242188
6.775999999999986,6.364407348632813,0.5979949951171876,5.282064819335938
6.786000000000005,7.562191772460938,0.9941162109375,4.768258666992188
6.795999999999996,8.817098999023438,0.4581787109375,4.859176635742188
6.805999999999987,9.106301879882814,0.5758636474609375,6.050381469726563
6.815999999999978,8.067324829101564,0.71119384765625,6.662432861328125
6.825999999999997,6.146084594726563,0.1972381591796875,6.138308715820313
6.835999999999988,3.739450073242188,-0.1419097900390625,5.287149047851563
6.845999999999979,4.769754028320313,-0.3147735595703125,5.093499755859376
6.855999999999998,10.304684448242188,-0.2190704345703125,6.198870849609375
6.865999999999989,12.824069213867189,-0.36905517578125,5.644390869140626
6.876999999999985,11.108142089843753,-0.8680572509765626,6.425866699218751
6.887000000000004,7.561593627929688,-0.9091796875,11.9593017578125
6.896999999999995,3.8342559814453128,0.1209747314453125,12.347497558593751
6.906999999999986,4.632031250000001,1.8832580566406247,5.793478393554688
6.917000000000005,6.43065185546875,0.92772216796875,1.2735992431640626
6.926999999999996,9.300250244140626,0.0346923828125,4.048989868164063
6.936999999999987,9.54638671875,1.0334442138671875,5.253054809570313
6.946999999999978,7.619165039062499,0.0219818115234375,4.857083129882813
6.956999999999997,7.187603759765626,-0.6676788330078125,9.004318237304688
6.966999999999988,7.74417724609375,-0.7636810302734376,11.508001708984375
6.976999999999979,8.496493530273439,-0.509320068359375,7.071862792968751
6.986999999999998,9.356774902343751,0.2639312744140625,2.1588531494140626
6.996999999999989,8.428005981445313,-0.3611297607421875,3.463705444335938
7.00699999999998,6.850250244140626,-0.5420684814453125,6.314462280273438
7.018000000000004,5.8550872802734375,-0.0189910888671875,5.349954223632813
7.027999999999995,5.774337768554688,0.3988128662109375,4.525411987304688
7.037999999999986,8.101568603515625,0.3911865234375,6.995001220703125
7.048000000000005,8.614627075195314,0.33795166015625,7.348654174804688
7.057999999999996,8.657693481445314,0.843084716796875,6.345416259765625
7.067999999999987,7.566528320312501,1.197784423828125,6.73570556640625
7.077999999999978,6.820343017578126,0.2761932373046875,8.0881103515625
7.087999999999997,5.987875366210938,-0.182733154296875,7.415496826171876
7.097999999999988,6.512747192382813,0.239556884765625,5.534033203125
7.107999999999979,7.574453735351563,0.1284515380859375,4.567132568359376
7.117999999999999,8.45596923828125,-0.4921234130859375,5.410665893554688
7.1279999999999895,8.471820068359376,-0.5495452880859375,6.206646728515626
7.13799999999998,8.075250244140626,0.036785888671875,6.080438232421876
7.148,7.367495727539063,-0.8091400146484375,6.160888671875001
7.158999999999995,6.085372924804688,-1.2978240966796877,6.182122802734376
7.168999999999986,4.174450683593751,-1.06708984375,4.696929931640625
7.178999999999977,5.898153686523438,-0.359185791015625,4.814016723632813
7.1889999999999965,10.382293701171877,0.8955718994140626,7.014291381835938
7.198999999999987,12.34974060058594,0.253912353515625,6.721200561523438
7.208999999999978,10.042547607421875,0.7968780517578126,7.179827880859375
7.218999999999998,6.758435058593751,1.3020111083984376,10.946643066406253
7.228999999999987,5.426666259765625,0.8417388916015626,10.381246948242188
7.2389999999999795,4.675845336914063,0.7736999511718751,4.099234008789063
7.248999999999999,6.987973022460938,0.30924072265625,2.3843536376953125
7.25899999999999,8.392715454101562,0.7256988525390625,4.83001708984375
7.269999999999985,9.170452880859376,1.22799072265625,6.033184814453126
7.279,7.402935791015626,0.9793121337890626,6.819744873046876
7.289999999999996,7.564584350585938,-0.0829925537109375,9.62115478515625
7.298999999999982,8.372827148437501,-0.784765625,9.803140258789064
7.310999999999982,8.554962158203125,-0.362774658203125,5.700167846679688
7.319999999999997,8.456716918945313,0.190509033203125,3.0858276367187503
7.331999999999997,7.500732421875001,-0.066693115234375,3.997848510742188
7.339999999999978,7.400244140625,-0.7677185058593751,4.8023529052734375
7.349999999999998,6.417492675781251,-0.3482696533203125,4.309182739257813
7.359999999999989,6.7721923828125,0.167181396484375,5.87677001953125
7.36999999999998,7.822235107421876,-0.32120361328125,7.284503173828125
7.379999999999999,8.604010009765625,-0.8686553955078126,7.107901000976563
7.38999999999999,8.373574829101564,-0.2594451904296875,6.9181396484375
7.399999999999981,7.381253051757813,0.3313720703125,7.288839721679688
7.411000000000005,6.734957885742188,0.03409423828125,7.083526611328126
7.419999999999991,6.2195068359375005,0.3768310546875,6.447848510742188
7.429999999999982,6.407473754882813,0.8134765625000001,5.83011474609375
7.440000000000001,7.087414550781251,0.524871826171875,5.425320434570313
7.449999999999992,8.327966308593751,0.325091552734375,5.749066162109376
7.460999999999988,8.82562255859375,0.435748291015625,6.109149169921875
7.470999999999979,8.46912841796875,0.126507568359375,6.176589965820313
7.480999999999998,7.430450439453126,-0.014654541015625,6.341677856445313
7.490999999999989,5.565585327148438,-0.09031982421875,5.763571166992188
7.50099999999998,3.103173828125,-0.30625,3.9757171630859376
7.510999999999999,4.619171142578125,-0.8064483642578125,4.088616943359376
7.52099999999999,11.981881713867187,-0.151629638671875,7.080535888671876
7.530999999999981,14.735440063476563,0.332269287109375,7.203753662109375
7.541,11.043243408203123,-0.8572906494140625,6.952383422851563
7.550999999999991,6.388034057617188,-0.6311920166015625,12.1650634765625
7.560999999999982,3.3826568603515628,0.34991455078125,12.347198486328129
7.5710000000000015,4.166226196289063,1.40504150390625,4.334454345703126
7.580999999999992,6.357678222656251,1.61678466796875,-0.0336456298828125
7.590999999999983,9.178826904296876,0.7831207275390626,2.276239013671875
7.601999999999979,10.044491577148438,0.9888824462890624,7.346859741210938
7.611999999999998,7.3846923828125,0.4696929931640625,6.9133544921875005
7.621999999999989,6.934887695312501,-0.81885986328125,10.044192504882814
7.63199999999998,8.046987915039063,-1.2806274414062502,11.593685913085938
7.641999999999999,9.333447265625,-0.6706695556640625,6.778173828125
7.65199999999999,9.055758666992189,0.10946044921875,1.0684356689453125
7.661999999999981,7.776925659179688,-0.178546142578125,1.9779144287109376
7.672000000000001,6.474465942382813,-0.6458465576171876,6.071316528320313
7.681999999999991,5.470181274414063,-0.3312225341796875,5.409170532226563
7.691999999999982,6.141448974609376,0.0835906982421875,5.191744995117188
7.702000000000002,8.487521362304689,0.246435546875,7.61497802734375
7.711999999999993,10.044940185546876,0.5474517822265625,7.660885620117188
7.721999999999983,8.812762451171876,0.7227081298828125,5.923873901367188
7.732999999999979,7.451983642578125,1.290347290039063,7.091452026367188
7.7429999999999986,5.836544799804688,1.0292572021484376,7.874572753906251
7.752999999999989,5.319897460937501,-0.1303955078125,6.429754638671875
7.76299999999998,6.0654846191406255,0.0462066650390625,5.204904174804688
7.773,7.8488525390625,0.0207855224609375,5.165426635742188
7.782999999999991,8.901287841796876,-0.3892425537109375,5.197277832031251
7.792999999999981,9.185107421875,-0.4397857666015625,6.423623657226563
7.803000000000001,8.16885986328125,-0.4050933837890625,7.444656372070313
7.812999999999992,7.58865966796875,-0.3049041748046875,6.97855224609375
7.822999999999983,6.723144531250001,-1.1129974365234376,5.973818969726563
7.833000000000002,4.8700927734375,-1.2163269042968752,4.969982910156251
7.842999999999993,3.608905029296875,-0.8930297851562501,3.494061279296876
7.852999999999991,6.950588989257813,0.1108062744140625,4.5989837646484375
7.8639999999999795,11.959152221679688,1.0294067382812502,7.280316162109376
7.872999999999994,12.697412109375,0.6253601074218751,6.923223876953125
7.88399999999999,9.792224121093753,1.325787353515625,8.310171508789063
7.893999999999981,6.4438110351562505,0.8614776611328125,12.146221923828126
7.904,4.805642700195313,0.646893310546875,10.103408813476562
7.913999999999991,4.2121337890625,0.7237548828125,2.8419342041015625
7.923999999999982,6.858175659179688,-0.035589599609375,1.6855712890625
7.934000000000001,8.630926513671875,0.549993896484375,4.969982910156251
7.943999999999992,9.210678100585938,1.5636993408203126,5.921481323242188
7.953999999999983,7.715466308593751,0.8728424072265626,6.694284057617188
7.964000000000002,8.00137939453125,-0.5926116943359375,9.995593261718753
7.973999999999993,8.808126831054688,-0.807196044921875,10.263711547851564
7.983999999999991,8.821136474609375,-0.10587158203125,5.579342651367188
7.994000000000003,7.538265991210938,0.5603118896484376,2.155413818359375
8.003999999999994,7.867843627929688,-0.1619476318359375,4.5417114257812505
8.01499999999999,6.222497558593751,-1.1189788818359376,5.167669677734375
8.024000000000004,6.029446411132813,0.2213134765625,3.976016235351562
8.035,6.832455444335938,0.246734619140625,5.360122680664063
8.044999999999991,9.080880737304687,-1.12630615234375,8.245721435546876
8.054999999999982,9.034225463867188,0.0079254150390625,7.582379150390626
8.065000000000001,7.94993896484375,-0.0011962890625,6.152365112304688
8.074999999999992,7.2985595703125,-0.169573974609375,7.691390991210938
8.084999999999983,6.415100097656251,0.1640411376953125,8.109344482421875
8.095000000000002,5.80260009765625,0.3668121337890625,5.5485382080078125
8.104999999999993,6.590206909179688,0.5520874023437501,4.220059204101563
8.114999999999991,7.959359741210938,0.197088623046875,5.549285888671875
8.125000000000004,8.30523681640625,0.5247222900390626,6.1596923828125005
8.134999999999994,8.428604125976562,0.560162353515625,6.015689086914063
8.144999999999985,7.933789062500001,-0.0447113037109375,6.598281860351563
8.155999999999981,6.435885620117188,-0.1227691650390625,6.409567260742188
8.164999999999996,3.603521728515626,-0.474029541015625,4.601226806640625
8.175999999999991,4.391427612304688,-0.477020263671875,4.795025634765626
8.18599999999999,11.019616699218751,0.0599639892578125,7.210632324218751
8.196000000000002,13.676126098632814,-0.2917449951171875,5.824880981445313
8.205999999999985,11.566619873046877,-0.1353302001953125,5.7828613281250005
8.21599999999999,6.909317016601563,-0.4915252685546875,11.402130126953123
8.226000000000003,4.218264770507813,0.487786865234375,12.597073364257811
8.235999999999994,4.166525268554688,1.9678955078125,5.323187255859375
8.245999999999992,6.042156982421876,0.5565734863281251,0.6824829101562501
8.256000000000004,8.996392822265626,0.5634521484375,4.039868164062501
8.265999999999995,9.467132568359377,0.9272735595703124,5.643194580078125
8.275999999999986,7.824777221679688,0.078955078125,5.499490356445313
8.286000000000005,7.263119506835938,-0.5595642089843751,9.282904052734375
8.295999999999996,7.956369018554688,-1.4001068115234376,11.625387573242188
8.305999999999987,8.510250854492188,-0.727642822265625,7.404132080078125
8.31699999999999,8.779714965820313,0.1562652587890625,2.5685821533203126
8.327000000000002,8.046389770507814,-0.22550048828125,3.287103271484375
8.336999999999986,7.155154418945313,-0.49945068359375,5.575604248046876
8.34699999999999,5.803796386718751,-0.08553466796875,4.593899536132813
8.357000000000003,6.351397705078125,0.4844970703125,4.988674926757813
8.366999999999994,7.915994262695313,0.382513427734375,7.489666748046876
8.376999999999985,8.925961303710938,0.7639801025390626,7.219454956054688
8.387000000000004,8.739190673828126,0.8767303466796875,6.019427490234375
8.398,7.839581298828126,0.6473419189453126,7.462750244140626
8.406999999999986,6.588262939453125,0.8466735839843751,8.000033569335939
8.417000000000005,5.5986328125,0.2172760009765625,5.883648681640626
8.426999999999996,6.550131225585938,-0.5707794189453126,5.453582763671875
8.436999999999987,7.5114990234375005,-0.2020233154296875,5.995202636718751
8.446999999999978,8.114129638671876,-0.04486083984375,5.193240356445313
8.456999999999997,8.596832275390625,-0.6766510009765625,5.364459228515625
8.467999999999993,8.544793701171876,-0.658856201171875,7.24412841796875
8.47799999999999,7.409365844726563,-0.7044647216796875,6.828268432617188
8.488000000000003,5.271746826171875,-0.8477203369140626,4.706948852539063
8.497999999999994,4.03568115234375,-1.341339111328125,4.698873901367188
8.507999999999985,6.515887451171875,0.043365478515625,6.542056274414063
8.518000000000004,11.004513549804688,1.2103454589843752,6.491213989257813
8.527999999999995,12.550717163085938,0.4012054443359375,4.858279418945313
8.537999999999986,9.754391479492188,0.7651763916015626,8.073605346679688
8.548000000000005,6.378912353515625,1.2767395019531251,12.190335083007811
8.557999999999996,4.788296508789063,0.8076446533203125,9.200360107421876
8.567999999999987,4.792782592773438,0.8952728271484376,3.1463897705078128
8.577999999999978,7.445553588867188,0.134283447265625,3.4195922851562504
8.587999999999997,9.030487060546877,0.5208343505859375,5.129986572265626
8.598999999999993,8.788238525390625,1.26627197265625,4.9825439453125
8.610999999999994,7.535275268554688,0.4664031982421875,7.318597412109375
8.619000000000003,7.110592651367188,-0.2687164306640625,10.112979125976564
8.628999999999994,8.4350341796875,-0.8868988037109375,9.193930053710938
8.638999999999985,8.428005981445313,-0.1173858642578125,4.841680908203125
8.649000000000004,8.765957641601563,0.379522705078125,3.6528686523437504
8.658999999999995,7.583425903320313,-0.2875579833984375,4.710687255859376
8.668999999999986,6.947598266601563,-0.3321197509765625,4.481149291992188
8.678999999999977,6.450540161132813,-0.3886444091796875,4.817456054687501
8.688999999999997,6.705050659179688,-0.0282623291015625,6.846212768554688
8.698999999999987,8.044595336914064,0.2438934326171875,6.984085083007813
8.70999999999999,8.909811401367188,-0.6111541748046876,5.945108032226563
8.718999999999998,8.383145141601563,-0.5788543701171875,6.9791503906250005
8.729999999999993,7.2871948242187505,0.67291259765625,7.920330810546876
8.73899999999998,6.283956909179688,0.302960205078125,6.486877441406251
8.748999999999999,6.421231079101563,-0.16568603515625,6.008212280273438
8.75899999999999,6.786398315429688,0.5417694091796875,6.289938354492188
8.769999999999985,7.304241943359376,0.6419586181640625,5.2639709472656255
8.780000000000005,8.225982666015625,0.1230682373046875,5.396011352539063
8.789999999999996,8.616421508789063,0.1685272216796875,6.83140869140625
8.799999999999986,8.014089965820313,0.1662841796875,6.483886718750001
8.809999999999977,6.180926513671875,-0.0004486083984375,4.9474029541015625
8.819999999999997,3.952987670898438,-0.22191162109375,4.95084228515625
8.829999999999988,4.216021728515625,-0.2684173583984375,5.591156005859375
8.839999999999979,10.519717407226564,-0.375933837890625,6.179879760742188
8.849999999999998,14.428591918945314,0.3189605712890625,5.894564819335938
8.859999999999989,11.64393005371094,-0.0653472900390625,6.824230957031251
8.86999999999998,6.839035034179688,-0.6916046142578125,11.13685302734375
8.879999999999999,3.9351928710937503,0.337054443359375,12.141436767578126
8.890999999999995,4.188806152343751,1.1089599609375,6.314462280273438
8.900999999999986,5.684466552734375,1.3408905029296876,1.0089202880859376
8.911000000000005,9.134564208984376,0.599639892578125,2.8555419921875003
8.920999999999996,9.572705078125,0.10587158203125,5.414105224609376
8.930999999999987,7.806085205078125,0.02332763671875,6.528897094726563
8.940999999999978,6.731518554687501,-0.444720458984375,9.138601684570313
8.950999999999997,7.9565185546875,-1.48638916015625,10.839126586914062
8.960999999999988,9.051571655273438,-1.0060791015625,7.775579833984375
8.970999999999979,9.021813964843751,0.3171661376953125,2.995806884765625
8.980999999999998,7.974313354492188,-0.0587677001953125,2.3652130126953126
8.990999999999989,7.0868164062500005,-0.35469970703125,5.1657257080078125
9.00099999999998,5.848358154296875,-0.1375732421875,5.985333251953126
9.012000000000004,5.2505126953125005,0.6889129638671876,5.342327880859376
9.02099999999999,8.27174072265625,0.8205047607421876,6.809426879882813
9.031999999999986,9.835739135742188,0.2370147705078125,7.285549926757813
9.042000000000003,9.319989013671876,0.9884338378906252,6.499737548828126
9.051999999999996,7.259381103515626,1.533642578125,6.442913818359376
9.061999999999989,6.439923095703126,0.4900299072265625,7.611090087890625
9.071999999999978,5.814862060546876,-0.127105712890625,7.015936279296875
9.081999999999995,5.949893188476563,-0.000299072265625,5.14464111328125
9.091999999999988,7.486526489257813,-0.241949462890625,4.504476928710938
9.10199999999998,8.75504150390625,-0.9251800537109376,5.63751220703125
9.111999999999998,8.50860595703125,-0.8930297851562501,6.94864501953125
9.12199999999999,7.895956420898438,-0.1772003173828125,7.24412841796875
9.13199999999998,7.672698974609376,-0.8046539306640625,6.775332641601563
9.142,6.725537109375001,-0.6634918212890626,5.933743286132813
9.15199999999999,4.048989868164063,-0.09271240234375,4.266265869140625
9.16199999999998,3.282467651367188,-0.2044158935546875,3.588717651367188
9.173000000000004,9.372177124023438,1.1985321044921875,6.280966186523438
9.181999999999992,13.977291870117188,1.174755859375,6.761276245117188
9.192999999999987,12.51258544921875,1.2641784667968752,6.1925903320312505
9.202999999999978,8.779415893554688,0.8010650634765626,10.706488037109375
9.212999999999996,4.875775146484376,-0.2552581787109375,13.11058044433594
9.222999999999988,3.631784057617188,0.176153564453125,7.278671264648438
9.23299999999998,4.550384521484375,-0.5692840576171876,0.9500030517578124
9.243,7.766757202148438,-0.9651062011718752,2.25081787109375
9.25299999999999,9.241781616210938,0.58319091796875,5.0311431884765625
9.26299999999998,8.367144775390626,0.74110107421875,5.61956787109375
9.273,7.799804687500001,0.1882659912109375,8.689843750000001
9.28299999999999,8.419631958007812,-0.5229278564453126,11.807971191406253
9.29299999999998,8.85552978515625,-0.0907684326171875,9.141442871093751
9.303,8.781509399414062,0.74110107421875,3.667672729492188
9.313999999999997,8.085867309570313,0.6685760498046875,2.505477905273437
9.32299999999999,6.903335571289063,0.284716796875,4.249966430664063
9.333999999999978,6.008212280273438,0.084637451171875,4.1937408447265625
9.343999999999998,5.460760498046875,0.1327880859375,4.617227172851563
9.353999999999989,7.6565490722656255,0.2806793212890625,7.156350708007813
9.36399999999998,9.37696228027344,-0.55567626953125,7.652661132812501
9.374,9.529489135742187,-1.081146240234375,6.791632080078125
9.38399999999999,8.200860595703126,-0.1628448486328125,7.488619995117188
9.39399999999998,6.586917114257813,-0.3533538818359375,8.276824951171875
9.404,5.572015380859376,-0.1446014404296875,6.932345581054688
9.41399999999999,5.735757446289063,0.2029205322265625,5.2460266113281255
9.423999999999982,6.900643920898438,0.1786956787109375,4.60870361328125
9.434,8.278619384765626,0.6642395019531251,4.851998901367188
9.443999999999985,8.970672607421875,0.52576904296875,5.758636474609375
9.45399999999999,8.544046020507814,0.6596038818359375,6.812417602539063
9.464000000000002,7.780364990234376,0.6096588134765626,7.228576660156251
9.474999999999998,5.83848876953125,0.3629241943359375,6.469082641601563
9.484999999999989,3.4305084228515628,0.234771728515625,5.260531616210938
9.49499999999998,4.070822143554688,-0.063702392578125,4.606460571289063
9.505,11.2295654296875,-0.19200439453125,5.420236206054688
9.51499999999999,14.512631225585938,-0.070880126953125,5.055667114257813
9.52499999999998,11.196368408203126,-0.2929412841796875,6.132476806640626
9.535,6.9970947265625005,-0.6343322753906251,11.88453369140625
9.544999999999993,3.975567626953125,-0.9869384765625,13.041195678710938
9.554999999999987,4.0661865234375005,0.8604309082031251,6.453979492187501
9.565,6.089260864257813,0.9381896972656252,1.093408203125
9.574999999999983,9.19153747558594,0.0059814453125,2.9469085693359376
9.58499999999999,9.554312133789065,0.6341827392578125,5.4852844238281255
9.595000000000002,7.4531799316406255,0.3581390380859375,5.935238647460938
9.604999999999992,6.736004638671876,-0.5097686767578126,8.703750610351562
9.614999999999991,8.157196044921875,-0.962713623046875,11.329455566406253
9.626999999999985,8.989663696289064,-0.242547607421875,7.846759033203125
9.636,9.129180908203123,0.4936187744140625,2.421438598632813
9.64599999999999,8.570364379882813,0.191107177734375,2.4734771728515628
9.65599999999998,7.214669799804688,-0.33077392578125,5.573809814453125
9.666,5.348159790039063,-0.310736083984375,5.5029296875
9.675999999999991,5.409320068359375,0.7541107177734375,4.82403564453125
9.68599999999999,7.980145263671876,0.106170654296875,6.842175292968751
9.696000000000002,9.408065795898438,0.029608154296875,7.756439208984376
9.705999999999984,8.745321655273438,0.8548980712890626,6.5634399414062505
9.71599999999999,7.749261474609375,0.93489990234375,6.767706298828125
9.72699999999998,6.763668823242188,0.3264373779296875,8.126541137695312
9.735999999999994,5.825778198242188,-0.2308837890625,7.454226684570313
9.745999999999992,5.987576293945313,0.134881591796875,5.043853759765625
9.756000000000004,7.688549804687501,-0.0471038818359375,4.331613159179688
9.765999999999996,8.482138061523438,-0.5136566162109375,5.379412841796875
9.77699999999999,8.593692016601564,-0.0369354248046875,6.273937988281251
9.78699999999998,7.880255126953125,-0.0803009033203125,6.172103881835938
9.797,7.36973876953125,-0.653472900390625,6.392520141601563
9.806999999999992,4.9877777099609375,-1.2589447021484377,5.792282104492188
9.81699999999999,3.816162109375,-0.9105255126953126,4.894915771484375
9.827000000000002,7.866049194335938,0.66932373046875,6.263470458984376
9.836999999999986,12.345852661132811,0.3473724365234375,6.557757568359375
9.84699999999999,12.250598144531253,0.3578399658203125,5.682522583007813
9.857000000000005,8.545092773437501,0.7463348388671875,8.993850708007812
9.866999999999994,5.816656494140625,0.7283905029296875,11.884085083007813
9.876999999999985,4.4599151611328125,0.6063690185546875,7.661334228515625
9.887000000000004,5.325430297851563,0.5580688476562501,2.493963623046876
9.896999999999997,7.533032226562501,-0.0040374755859375,3.254803466796876
9.90799999999999,9.356774902343751,0.8946746826171875,5.423077392578126
9.91799999999998,8.439520263671875,1.7836669921875,5.552426147460938
9.928,7.541555786132813,0.4140655517578125,8.084371948242188
9.937999999999992,7.565032958984376,-0.375933837890625,10.4125
9.94799999999999,8.508755493164063,-0.5061798095703125,8.400491333007814
9.958000000000002,8.442062377929688,0.0354400634765625,4.060504150390625
9.967999999999993,7.931246948242188,0.181536865234375,3.438134765625
9.97799999999999,7.709783935546875,-0.6084625244140626,5.227334594726563
9.988000000000005,6.267208862304688,-0.6102569580078125,4.399951171875
9.997999999999994,6.708639526367188,-0.2011260986328125,4.853643798828125
10.007999999999983,7.286746215820313,-0.2118927001953125,7.2243896484375005
10.018000000000004,8.853884887695314,-0.4119720458984375,8.004071044921876
10.027999999999995,8.286544799804688,0.011065673828125,5.7499633789062505
10.037999999999986,8.308825683593751,-0.10587158203125,6.257638549804688
10.048999999999982,7.088162231445313,0.0859832763671875,8.046987915039063
10.059,6.2673583984375005,0.68128662109375,7.015936279296875
10.068999999999985,6.10167236328125,0.6467437744140625,4.602423095703125
10.07899999999999,7.266558837890625,0.0593658447265625,5.185464477539063
10.089000000000002,7.998388671875,0.2352203369140625,6.660488891601563
10.098999999999991,7.850646972656251,0.702520751953125,6.019427490234375
10.108999999999993,8.280413818359376,0.3063995361328125,6.169262695312501
10.119000000000003,8.039212036132813,-0.287109375,7.176089477539063
10.128999999999994,5.692990112304688,-0.084039306640625,5.878265380859375
10.138999999999983,3.085379028320313,0.56524658203125,3.6936920166015614
10.149000000000004,5.3586273193359375,-0.414215087890625,5.094247436523438
10.158999999999995,12.217401123046876,-0.5280120849609375,7.292279052734376
10.169999999999993,13.351632690429687,0.413916015625,5.317205810546875
10.178999999999975,10.7055908203125,-0.177349853515625,6.586618041992188
10.19,6.957318115234376,-0.7436431884765625,12.762908935546877
10.199999999999983,4.207199096679688,-0.33795166015625,11.952423095703123
10.20999999999999,3.7696563720703127,1.7757415771484375,3.886892700195313
10.220000000000002,6.422427368164063,0.5668914794921875,0.7056610107421876
10.229999999999992,9.117218017578123,-0.1978363037109375,4.513299560546876
10.239999999999991,9.07265625,0.796728515625,5.35159912109375
10.250000000000004,7.670605468750001,-0.2260986328125,5.452536010742188
10.259999999999994,7.754943847656251,-0.9317596435546877,9.819140625
10.269999999999984,8.372827148437501,-1.158755493164063,12.005059814453126
10.280000000000005,8.480343627929688,-0.1495361328125,6.971075439453125
10.289999999999996,8.736499023437501,0.5027404785156251,1.9375396728515624
10.299999999999986,8.078540039062501,-0.12919921875,3.3235900878906253
10.309999999999976,6.791482543945313,-0.3096893310546875,5.637063598632813
10.319999999999997,5.217166137695313,0.2974273681640625,4.336697387695313
10.329999999999988,6.428558349609376,0.8892913818359376,4.847811889648438
10.33999999999998,8.430398559570314,-0.0632537841796875,7.732513427734376
10.351000000000004,9.17359313964844,0.4601226806640625,7.833749389648438
10.360999999999994,8.69044189453125,1.2439910888671877,6.157748413085938
10.370999999999992,7.968930053710938,0.5281616210937501,7.194033813476563
10.381000000000004,6.589459228515626,0.3375030517578125,8.272039794921875
10.390999999999996,5.4289093017578125,0.10048828125,6.353939819335938
10.400999999999986,6.153411865234376,-0.2669219970703125,4.602572631835938
10.411000000000003,7.461703491210938,-0.273651123046875,5.213128662109376
10.420999999999996,8.22747802734375,-0.40853271484375,5.887536621093751
10.430999999999989,8.663525390625,-0.2800811767578125,5.912509155273438
10.440999999999978,8.449389648437501,-0.567938232421875,6.563290405273438
10.450999999999995,7.438525390625,-0.3539520263671875,6.767407226562501
10.460999999999988,4.434942626953125,-0.4299163818359375,4.937982177734376
10.47099999999998,3.4290130615234378,-0.490777587890625,4.413858032226563
10.482000000000005,8.210131835937501,0.7340728759765626,6.846511840820313
10.490999999999987,13.141983032226564,0.9344512939453126,6.432745361328125
10.501999999999985,12.293215942382814,1.2140838623046877,4.955477905273438
10.512000000000004,8.854333496093751,0.1798919677734375,10.042996215820311
10.521999999999997,4.737753295898438,-0.2633331298828125,13.081719970703126
10.531999999999986,4.367501831054688,0.7886535644531251,7.3583740234375
10.542000000000003,5.004525756835938,-0.6540710449218751,1.039126586914063
10.551999999999996,8.180673217773439,-1.06768798828125,3.54161376953125
10.561999999999989,8.915493774414063,1.2033172607421876,5.658447265625
10.571999999999978,8.218804931640626,0.9266754150390626,4.84317626953125
10.581999999999995,7.751055908203125,0.2232574462890625,8.043099975585939
10.591999999999988,8.240338134765626,0.020037841796875,11.672491455078124
10.60199999999998,8.391519165039064,0.00478515625,8.611636352539064
10.611999999999998,8.833847045898438,0.44681396484375,3.3476654052734376
10.62199999999999,8.281610107421876,0.418701171875,3.194989013671876
10.632999999999983,7.26865234375,-0.15611572265625,5.07047119140625
10.643000000000004,5.902639770507813,-0.1583587646484375,4.144543457031251
10.652999999999995,6.158346557617188,-0.075665283203125,4.896710205078126
10.662999999999986,7.194931030273438,0.0378326416015625,7.302297973632813
10.673000000000004,9.158639526367187,-0.5803497314453125,7.543350219726563
10.682999999999996,8.857174682617188,-1.0382293701171876,6.251507568359376
10.692999999999987,8.390472412109375,-0.1948455810546875,7.432843017578126
10.702999999999978,6.696228027343751,0.1052734375,7.961453247070313
10.712999999999996,5.995800781250001,0.0584686279296875,6.597235107421875
10.722999999999988,5.929257202148438,0.4318603515625,5.4707794189453125
10.73299999999998,6.904830932617188,0.5665924072265626,5.179782104492188
10.743,8.152410888671875,0.77579345703125,5.009909057617188
10.75299999999999,8.762667846679689,0.4128692626953125,5.750262451171875
10.76299999999998,8.618963623046875,0.653472900390625,6.865951538085938
10.773,7.56533203125,0.6178833007812501,6.516036987304688
10.783999999999995,4.957571411132813,0.0387298583984375,5.566632080078126
10.793999999999986,2.8782714843750004,0.0055328369140625,5.1746978759765625
10.803999999999975,6.363360595703125,-0.3345123291015625,5.664877319335938
10.813999999999997,13.273724365234376,-0.38819580078125,5.905780029296875
10.823999999999987,13.726071166992188,-0.2367156982421875,4.917196655273438
10.833999999999978,9.433786010742187,-0.7908966064453126,8.357125854492189
10.843999999999998,5.14404296875,-1.4001068115234376,13.39365234375
10.853999999999989,3.82274169921875,-0.001495361328125,10.991354370117188
10.86399999999998,4.6834716796875,1.8099853515625,3.1324829101562504
10.874,7.704849243164063,0.6166870117187501,0.7539611816406251
10.88399999999999,9.997238159179688,0.516796875,4.5776000976562505
10.89399999999998,9.01209411621094,1.13468017578125,5.414254760742188
10.904,6.803146362304688,0.3177642822265625,6.3152099609375005
10.91399999999999,6.999636840820313,-0.302960205078125,10.29346923828125
10.925999999999991,8.312115478515626,-0.8208038330078126,10.7343017578125
10.934999999999976,9.352438354492188,0.0438140869140625,5.4132080078125
10.944999999999997,8.669058227539063,0.1610504150390625,1.4946136474609375
10.954999999999988,7.6000244140625,-0.4068878173828125,4.519281005859376
10.96499999999998,6.379959106445313,-0.6610992431640625,6.7458740234375005
10.974999999999998,5.424124145507813,-0.5462554931640625,5.149725341796875
10.984999999999989,6.6860595703125005,0.5932098388671876,5.0818359375
10.99499999999998,9.197219848632812,-0.1042266845703125,7.311270141601563
11.005,9.425411987304688,0.1096099853515625,6.951486206054688
11.01499999999999,8.141644287109376,1.486688232421875,5.7967681884765625
11.025999999999986,6.898251342773438,0.9506011962890626,7.071563720703126
11.035,6.208291625976563,0.4580291748046875,8.161233520507814
11.044999999999993,5.916098022460938,-0.008074951171875,6.633273315429688
11.054999999999987,6.691293334960938,0.2501739501953125,4.6094512939453125
11.065999999999978,8.370285034179688,0.1016845703125,5.167370605468751
11.075999999999995,8.380902099609376,-0.6914550781250001,6.456671142578125
11.085999999999988,8.181719970703126,-0.00299072265625,6.693087768554688
11.09599999999998,7.605706787109375,-0.2516693115234375,6.069671630859375
11.105999999999998,6.735107421875001,-1.111053466796875,6.02451171875
11.115999999999987,4.451989746093751,-1.119427490234375,5.399749755859375
11.12599999999998,4.989422607421876,-0.389691162109375,5.218362426757813
11.136,9.726577758789062,0.5417694091796875,6.431100463867188
11.14599999999999,12.027340698242188,0.240753173828125,5.91026611328125
11.15599999999998,10.45960388183594,0.514404296875,6.124700927734375
11.166,7.820440673828125,0.6910064697265625,9.92740478515625
11.175999999999991,5.8969573974609375,0.4924224853515625,10.413397216796875
11.18599999999999,4.742987060546875,0.521282958984375,5.633624267578125
11.196999999999978,6.09329833984375,0.3375030517578125,3.5123046875000004
11.206999999999995,8.0713623046875,0.33555908203125,4.9817962646484375
11.216999999999988,9.046188354492188,1.167578125,5.594894409179688
11.22699999999998,7.872628784179688,1.308291625976563,6.197225952148438
11.236999999999998,7.846908569335938,0.209051513671875,8.662777709960938
11.24699999999999,8.407070922851563,-0.302960205078125,9.300997924804689
11.25699999999998,8.09110107421875,-0.4610198974609375,6.491513061523438
11.267,7.94395751953125,0.3050537109375,3.9432678222656254
11.27699999999999,8.403631591796875,0.00657958984375,3.954782104492188
11.28699999999998,7.24771728515625,-1.1384185791015626,4.049288940429688
11.297,7.004272460937501,-0.236865234375,4.467691040039063
11.306999999999992,6.45517578125,-0.2492767333984375,6.06937255859375
11.31699999999999,7.975808715820313,-0.5194885253906251,7.713671875
11.327000000000002,7.677932739257813,-0.4086822509765625,6.951785278320313
11.336999999999986,8.541354370117189,-0.5944061279296875,6.774884033203126
11.347999999999988,7.551574707031251,0.107965087890625,7.451235961914063
11.35799999999998,7.0234130859375,0.3692047119140625,7.66641845703125
11.368,5.795870971679688,0.8984130859375,6.175692749023438
11.37799999999999,6.510205078125001,0.5520874023437501,5.6333251953125005
11.38799999999998,7.47501220703125,0.487786865234375,5.745626831054688
11.398,8.48707275390625,0.789251708984375,5.318850708007813
11.40799999999999,8.600421142578126,0.6627441406250001,5.064639282226563
11.41799999999998,8.1885986328125,0.161798095703125,6.004922485351563
11.428,5.754299926757813,-0.442626953125,6.133673095703125
11.437999999999992,2.8314666748046875,-0.3793731689453125,5.178286743164063
11.44799999999999,5.343374633789063,-0.7236053466796876,6.0352783203125
11.458000000000002,12.721636962890626,-0.389990234375,7.409664916992188
11.467999999999993,13.7537353515625,-0.5887237548828126,5.368795776367188
11.47799999999999,9.918731689453123,-0.653472900390625,6.327322387695313
11.488000000000005,6.127392578125001,-0.3123809814453125,12.1172119140625
11.497999999999994,3.947006225585938,0.6625946044921875,11.2678466796875
11.50899999999999,3.924276733398438,2.28551025390625,3.771749877929688
11.51899999999998,6.732116699218751,1.2131866455078126,0.96002197265625
11.529,10.278665161132814,0.4376922607421875,4.844372558593751
11.53899999999999,9.916488647460938,0.951947021484375,5.946304321289063
11.548999999999982,7.274484252929688,0.2696136474609375,6.38280029296875
11.559,6.932644653320313,-0.7378112792968751,10.242178344726565
11.568999999999985,7.888928222656251,-1.4593231201171877,11.219696044921877
11.57899999999999,8.46195068359375,-0.4789642333984375,5.780767822265625
11.589000000000002,8.620309448242189,0.270660400390625,1.209149169921875
11.598999999999991,8.279815673828125,-0.6673797607421875,3.4107696533203127
11.608999999999993,7.297512817382813,-0.8976654052734375,5.836544799804688
11.619000000000003,5.5735107421875005,-0.2761932373046875,4.9586181640625
11.63,6.347509765625,0.4206451416015625,5.916546630859376
11.638999999999983,8.488269042968751,0.6500335693359376,7.942761230468751
11.64999999999998,9.28140869140625,0.46236572265625,7.040609741210938
11.66,8.334695434570314,1.2374114990234375,5.553921508789063
11.669999999999993,7.454824829101563,1.311431884765625,6.961056518554688
11.679999999999987,6.1716552734375005,0.4670013427734375,7.792178344726563
11.69,5.459564208984375,-0.0572723388671875,6.671853637695313
11.699999999999983,6.304144287109375,0.090020751953125,5.6405029296875
11.70999999999999,7.964294433593751,-0.13936767578125,5.419638061523438
11.720000000000002,8.982635498046875,-0.5849853515625001,5.752505493164063
11.729999999999992,8.72034912109375,-0.3596343994140625,6.187805175781251
11.739999999999991,8.108596801757812,-0.370550537109375,6.5903564453125005
11.750000000000004,7.225436401367188,-1.0986419677734376,6.408819580078125
11.759999999999994,5.541360473632813,-1.191204833984375,5.586071777343751
11.769999999999984,3.7198608398437503,-0.9341522216796876,4.094149780273438
11.78099999999998,6.595590209960938,0.0671417236328125,4.9444122314453125
11.791,11.054010009765626,0.7035675048828125,6.808978271484375
11.800999999999991,12.069210815429688,0.605621337890625,5.714523315429688
11.81099999999999,9.77054138183594,1.5444091796875,7.898049926757813
11.821000000000002,6.424221801757813,0.890936279296875,12.65957946777344
11.830999999999984,5.244082641601563,0.6231170654296876,10.638897705078126
11.842999999999993,4.695285034179688,0.8025604248046876,2.882159423828125
11.851000000000004,7.244876098632813,-0.192303466796875,1.9376892089843751
11.860999999999994,8.561242675781251,0.466851806640625,5.279971313476563
11.870999999999992,8.747564697265625,1.59345703125,5.846414184570313
11.881000000000004,7.254745483398438,0.8181121826171875,6.411959838867188
11.890999999999996,7.773486328125,-0.5935089111328126,10.034622192382812
11.900999999999986,8.758181762695314,-0.6119018554687501,10.327413940429688
11.911000000000003,8.816949462890626,-0.0157012939453125,5.176043701171875
11.920999999999996,8.728872680664063,0.3769805908203125,2.1706665039062503
11.931999999999992,8.051025390625,-0.4774688720703125,4.399502563476563
11.94199999999999,6.632675170898438,-0.5627044677734375,4.77379150390625
11.952000000000002,6.089260864257813,0.0291595458984375,3.691748046875
11.961999999999986,6.660339355468751,-0.2567535400390625,6.10167236328125
11.97199999999999,7.831356811523438,-0.5082733154296876,8.396453857421875
11.982000000000005,8.558700561523438,-0.5193389892578125,7.018179321289063
11.991999999999994,8.633319091796876,-0.7716064453125001,6.1477294921875005
12.001999999999985,7.935284423828126,0.1179840087890625,8.028146362304689
12.012000000000004,6.353341674804688,0.7153808593750001,7.758682250976563
12.021999999999997,5.770599365234375,0.4610198974609375,5.8337036132812505
12.031999999999986,6.264965820312501,0.6868194580078125,5.533285522460938
12.04299999999998,7.263867187500001,0.6616973876953125,5.85284423828125
12.051999999999996,8.304489135742188,0.6510803222656251,5.179782104492188
12.062999999999992,9.093142700195314,0.3433349609375,5.661886596679688
12.071999999999978,8.548083496093751,0.171368408203125,6.827670288085938
12.083000000000002,7.592098999023438,0.08792724609375,6.798361206054688
12.092999999999993,5.87138671875,-0.52158203125,5.851797485351563
12.10299999999999,3.3820587158203126,-0.502142333984375,4.589263916015625
12.113000000000005,3.4840423583984377,-0.87568359375,4.0128021240234375
12.122999999999994,10.773629760742187,-0.7004272460937501,6.052624511718751
12.132999999999983,15.00430603027344,0.0758148193359375,6.538766479492188
12.143000000000004,11.712118530273438,-0.13099365234375,6.336294555664063
12.152999999999995,7.1227050781250005,-0.3336151123046875,11.851934814453124
12.162999999999986,3.9274169921875,0.2367156982421875,13.683303833007814
12.173000000000004,3.8596771240234378,1.4563323974609377,6.106607055664063
12.182999999999996,5.586819458007813,1.71846923828125,0.1206756591796875
12.192999999999987,9.104507446289062,0.9221893310546876,1.4940155029296875
12.202999999999978,10.073202514648438,0.8864501953125,6.552523803710938
12.212999999999996,7.847656250000001,0.9002075195312501,6.192739868164063
12.223999999999991,6.754696655273438,-0.358587646484375,9.068618774414062
12.233999999999993,7.705447387695313,-1.486688232421875,11.976348876953123
12.244000000000003,9.290380859375,-0.9854431152343752,8.413201904296876
12.253999999999994,9.590948486328124,-0.2540618896484375,1.7675170898437502
12.263999999999983,8.209384155273439,-0.3763824462890625,0.7731018066406251
12.274000000000004,6.977056884765625,-0.7801300048828126,5.937481689453126
12.283999999999995,5.447003173828126,-0.36187744140625,5.840731811523438
12.293999999999986,5.404833984375,0.3066986083984375,4.343426513671876
12.303999999999975,7.375869750976563,0.2971282958984375,6.876119995117188
12.313999999999997,9.101217651367188,0.6003875732421875,8.124447631835938
12.323999999999987,9.929946899414062,1.0247711181640626,6.174795532226563
12.333999999999978,8.504269409179688,1.4920715332031251,5.780767822265625
12.345000000000002,6.444708251953125,0.8495147705078125,8.431893920898439
12.353999999999989,4.815512084960938,-0.1873687744140625,8.605056762695312
12.364999999999991,5.289392089843751,-0.1626953125,6.215618896484376
12.375000000000004,6.931747436523438,0.012860107421875,4.66373291015625
12.384999999999994,8.999533081054688,-0.44561767578125,4.837643432617188
12.394999999999984,9.858020019531253,-0.457879638671875,5.27025146484375
12.405000000000005,8.710629272460938,-0.42528076171875,5.8326568603515625
12.414999999999996,7.256838989257813,-0.4701416015625,7.159042358398438
12.424999999999986,6.752603149414063,-0.9147125244140626,7.521368408203125
12.434999999999976,5.209988403320313,-1.3147216796875,5.2808685302734375
12.444999999999997,3.893173217773438,-0.9506011962890626,2.862420654296875
12.454999999999988,6.8969055175781255,0.2304351806640625,4.690350341796876
12.46499999999998,11.645126342773438,0.95882568359375,7.404281616210938
12.474999999999998,12.728964233398438,1.185821533203125,6.498391723632813
12.484999999999989,9.360513305664064,1.3613769531250002,8.348602294921875
12.49499999999998,6.252554321289063,0.5450592041015625,13.05435485839844
12.506000000000004,4.354193115234375,1.024172973632813,9.944302368164063
12.515999999999996,4.67569580078125,1.05093994140625,1.9112213134765623
12.525999999999986,6.980496215820313,-0.389691162109375,0.8943756103515625
12.536000000000003,8.8585205078125,0.435748291015625,6.013595581054688
12.545999999999996,8.610888671875001,1.5728210449218751,6.641198730468751
12.555999999999989,7.694082641601563,0.203369140625,7.158743286132813
12.565999999999978,8.269796752929688,-0.9464141845703126,10.6194580078125
12.575999999999995,9.053067016601563,-1.000247192382813,10.310964965820313
12.585999999999988,8.845361328125001,-0.2373138427734375,4.453335571289063
12.59699999999999,8.318096923828126,0.374737548828125,1.5258666992187502
12.605999999999998,7.4361328125,-0.000897216796875,4.329071044921875
12.615999999999987,6.235955810546876,0.0396270751953125,4.706500244140625
12.626999999999985,6.123953247070313,0.003887939453125,3.715225219726563
12.637000000000004,7.559051513671876,0.408233642578125,6.091503906250001
12.646999999999997,8.547335815429689,-0.1783966064453125,8.180972290039064
12.656999999999986,8.443557739257812,-0.554779052734375,7.159042358398438
12.667000000000003,8.17962646484375,-0.349615478515625,6.992160034179688
12.676999999999996,7.434786987304688,-0.0468048095703125,8.07913818359375
12.686999999999989,5.979501342773438,0.2100982666015625,6.985430908203125
12.696999999999978,5.755944824218751,-0.1003387451171875,5.800057983398438
12.706999999999995,6.449044799804688,0.2627349853515625,5.941967773437501
12.716999999999988,7.547088623046876,0.449505615234375,5.585174560546875
12.72699999999998,8.568569946289063,0.37802734375,5.143743896484375
12.736999999999998,9.180471801757813,0.3049041748046875,6.257339477539063
12.74699999999999,8.36505126953125,0.273052978515625,6.919635009765625
12.75699999999998,7.442861938476563,0.282025146484375,6.557757568359375
12.767,6.370239257812501,-0.27813720703125,6.152215576171876
12.77699999999999,4.251910400390625,-0.142657470703125,4.4693359375
12.787999999999986,2.845822143554688,-0.2271453857421875,2.9225341796875
12.797,8.350994873046876,-1.07008056640625,5.516986083984375
12.807999999999996,14.510537719726564,0.49107666015625,8.134915161132813
12.817999999999987,13.359707641601563,0.22191162109375,6.920083618164063
12.827999999999978,8.535671997070313,-0.7228576660156251,9.498385620117189
12.837999999999996,4.576254272460938,0.33914794921875,13.218994140625002
12.847999999999988,3.755450439453125,1.0638000488281252,8.08212890625
12.85799999999998,4.403240966796876,1.53902587890625,0.554779052734375
12.868,7.710083007812501,0.6524261474609375,0.6002380371093751
12.88,9.666464233398438,0.1471435546875,6.073858642578125
12.88799999999998,9.166714477539063,0.1131988525390625,6.946850585937501
12.898,7.101321411132813,-0.1410125732421875,8.63421630859375
12.90799999999999,7.552023315429688,-0.941778564453125,12.184503173828126
12.91799999999998,8.8585205078125,-1.1191284179687502,10.19178466796875
12.928999999999975,9.322531127929688,-0.06639404296875,3.465499877929688
12.937999999999992,8.017678833007814,0.49346923828125,0.433355712890625
12.948999999999987,7.062442016601563,-0.20755615234375,4.415951538085938
12.958999999999978,5.99400634765625,-0.1463958740234375,5.5784454345703125
12.968999999999998,5.7230468750000005,0.295782470703125,4.26895751953125
12.978999999999989,7.554266357421875,0.465057373046875,6.267657470703125
12.98899999999998,9.806280517578124,0.107965087890625,8.459558105468751
12.999,9.177182006835938,0.5927612304687501,6.727780151367188
13.00899999999999,8.199813842773438,1.0729217529296875,5.9682861328125005
13.01899999999998,6.814212036132813,0.5324981689453125,7.610043334960938
13.029,5.752655029296875,0.0728240966796875,7.389477539062501
13.03899999999999,5.306588745117188,-0.1003387451171875,5.072415161132813
13.048999999999982,6.817800903320313,-0.296978759765625,4.978356933593751
13.059,7.937228393554688,-0.7061096191406251,6.351995849609375
13.069999999999997,8.392117309570313,-0.30325927734375,6.604562377929688
13.07899999999999,8.731564331054688,-0.024224853515625,6.659442138671875
13.08999999999998,8.347555541992188,-0.469244384765625,7.267456054687501
13.099999999999998,7.905825805664063,-0.165087890625,6.984085083007813
13.109999999999989,6.999786376953126,-0.032598876953125,5.223297119140625
13.11999999999998,4.822540283203125,-0.37264404296875,3.6156341552734377
13.13,3.1490814208984377,-0.6231170654296876,3.2703552246093754
13.13999999999999,6.020773315429688,0.3004180908203125,5.320346069335938
13.14999999999998,12.056051635742188,1.1644378662109376,7.741635131835938
13.16,14.317486572265626,0.6878662109375,7.097732543945313
13.169999999999993,11.208779907226564,0.56763916015625,8.660983276367189
13.179999999999987,6.116326904296876,0.08314208984375,12.415835571289064
13.19,3.711785888671875,0.4533935546875,10.0380615234375
13.199999999999983,3.33226318359375,0.55328369140625,2.4432708740234377
13.20999999999999,6.449343872070313,-0.613995361328125,0.795233154296875
13.220000000000002,8.46793212890625,0.5292083740234376,4.108355712890625
13.230999999999998,9.45546875,1.1399139404296876,5.57171630859375
13.241999999999994,8.3106201171875,0.3997100830078125,7.817449951171875
13.25099999999998,8.211477661132813,-0.0716278076171875,11.718249511718753
13.26299999999998,8.620458984375,-0.608612060546875,11.306726074218751
13.27099999999999,8.7568359375,-0.1840789794921875,5.623306274414063
13.28099999999998,8.383294677734376,0.7542602539062501,1.972232055664063
13.291,7.182818603515625,0.41810302734375,3.1188751220703126
13.300999999999991,6.333303833007813,-0.29129638671875,3.992315673828125
13.31099999999999,5.501434326171875,-0.0586181640625,3.626998901367188
13.321000000000002,7.070068359375001,0.3695037841796875,5.841180419921876
13.330999999999984,8.923419189453126,-0.5839385986328125,8.077194213867188
13.341999999999988,9.587957763671875,-0.8205047607421876,7.702606201171876
13.351000000000004,8.844015502929688,-0.2929412841796875,6.803295898437501
13.360999999999994,7.684213256835938,-0.4640106201171875,7.611538696289063
13.370999999999992,5.857479858398438,-0.1721160888671875,7.715914916992188
13.381000000000004,4.92572021484375,0.18123779296875,6.14713134765625
13.392,5.762973022460938,0.6471923828125,4.891177368164063
13.40199999999999,7.496246337890626,0.43006591796875,5.241091918945313
13.41199999999998,8.719601440429688,0.354400634765625,5.876321411132813
13.422,9.253594970703126,1.060211181640625,6.104214477539063
13.431999999999992,8.723190307617188,0.43126220703125,6.672601318359376
13.44199999999999,7.617221069335938,0.027215576171875,7.3488037109375
13.452000000000002,5.568875122070313,0.0898712158203125,5.8740783691406255
13.461999999999986,3.0847808837890627,-0.1272552490234375,2.779876708984375
13.47199999999999,3.730029296875,-0.85474853515625,2.4052886962890625
13.482000000000005,11.815148925781251,-0.9674987792968752,6.856231689453126
13.491999999999994,15.686788940429688,0.548199462890625,8.050875854492189
13.501999999999985,11.842813110351564,-0.30684814453125,7.086068725585938
13.512000000000004,5.921481323242188,-1.1506805419921875,12.597521972656253
13.523,2.6043212890625003,0.6317901611328125,14.4619384765625
13.53299999999999,3.819451904296875,1.2287384033203126,5.319747924804688
13.54299999999998,6.4363342285156255,1.0428649902343752,-0.8788238525390626
13.553,9.17254638671875,0.8928802490234375,0.8332153320312501
13.562999999999992,10.250103759765626,0.9772186279296876,2.823690795898438
13.57299999999999,7.706195068359375,0.7953826904296876,12.399835205078126
13.583000000000002,6.400595092773438,-0.153125,8.086166381835938
13.592999999999993,7.923919677734376,-1.1506805419921875,12.76963806152344
13.60299999999999,9.735250854492188,-0.7331756591796875,7.492807006835938
13.613000000000005,9.605902099609375,-0.1149932861328125,1.3393951416015626
13.622999999999994,7.309475708007813,-0.05203857421875,0.69324951171875
13.632999999999983,5.916995239257813,-0.9203948974609376,6.8224365234375
13.643000000000004,5.596090698242188,-0.56644287109375,6.4482971191406255
13.652999999999995,6.07415771484375,-0.171966552734375,4.309182739257813
13.66399999999999,8.864053344726564,0.4116729736328125,6.911859130859376
13.673999999999982,10.55665283203125,0.2914459228515625,8.125942993164063
13.684,8.700460815429688,0.73990478515625,5.819049072265625
13.693999999999985,6.826473999023438,1.5370819091796877,6.2242919921875
13.70399999999999,5.839685058593751,0.9975555419921877,8.179476928710939
13.714000000000002,5.704653930664063,0.3689056396484375,6.730322265625
13.723999999999991,6.459960937500001,0.233575439453125,4.147982788085938
13.733999999999993,8.009454345703126,-0.0354400634765625,4.675546264648438
13.744000000000003,8.76580810546875,-0.411822509765625,6.495101928710938
13.753999999999994,8.13177490234375,-0.479412841796875,7.285250854492188
13.763999999999983,7.837936401367188,-0.4098785400390625,7.683316040039063
13.774000000000004,7.684661865234376,-0.6664825439453126,7.145733642578126
13.783999999999995,7.90806884765625,-0.8380004882812501,6.127691650390625
13.795999999999996,7.285549926757813,-0.3321197509765625,5.472125244140625
13.804999999999987,6.582580566406251,0.27275390625,5.255596923828126
13.815,5.658596801757813,-0.0243743896484375,4.656704711914063
13.824999999999983,4.408474731445313,-0.6192291259765625,4.0008392333984375
13.83499999999999,5.289990234375001,-0.3398956298828125,4.842279052734376
13.845000000000002,9.996041870117187,1.6387664794921877,7.174295043945313
13.854999999999992,14.161221313476563,0.8202056884765626,7.771841430664063
13.864999999999991,12.760366821289065,-0.14295654296875,7.378262329101563
13.875000000000004,7.447946166992188,0.2687164306640625,10.305581665039064
13.884999999999994,4.0247650146484375,0.4556365966796875,11.532824707031253
13.894999999999984,3.295477294921876,0.53533935546875,5.850601196289063
13.905000000000005,5.269055175781251,0.1951446533203125,0.4864410400390625
13.914999999999996,8.022164916992189,-0.2627349853515625,1.35360107421875
13.924999999999986,9.92620849609375,0.73511962890625,5.962603759765625
13.934999999999976,8.829360961914062,1.371246337890625,7.496096801757813
13.946000000000002,7.744924926757813,0.2932403564453125,10.464688110351563
13.955999999999984,7.575650024414063,-0.6862213134765626,12.052313232421875
13.96599999999999,8.917886352539064,-0.1628448486328125,8.675936889648439
13.976000000000004,8.599224853515626,0.738409423828125,2.6864166259765625
13.985999999999994,7.831057739257813,0.8697021484375,1.40384521484375
13.995999999999992,6.531738281250001,0.0859832763671875,4.090859985351563
14.006000000000004,5.792880249023438,-0.2501739501953125,4.303500366210938
14.015999999999996,6.190347290039063,-0.0997406005859375,4.8546905517578125
14.025999999999986,8.462997436523438,-0.0803009033203125,7.490713500976563
14.036000000000003,10.06961364746094,-0.6211730957031251,7.923171997070313
14.045999999999996,9.657940673828126,-1.1325866699218752,6.299359130859376
14.055999999999989,8.055810546875001,-0.50782470703125,6.667666625976563
14.065999999999978,6.139654541015625,-0.3500640869140625,7.726980590820313
14.077000000000002,4.902841186523438,-0.34034423828125,6.736004638671876
14.085999999999988,5.217315673828125,-0.029608154296875,5.281317138671875
14.09699999999999,6.906475830078126,0.5875274658203126,5.20206298828125
14.107000000000005,8.415594482421875,0.804205322265625,5.854489135742188
14.116999999999994,8.94764404296875,0.6042755126953125,6.819744873046876
14.126999999999985,8.737695312500001,1.01505126953125,7.571911621093751
14.137000000000004,8.021865844726562,0.7852142333984375,7.32547607421875
14.146999999999997,7.486825561523438,0.0509918212890625,6.640151977539063
14.158999999999995,6.574655151367188,0.2400054931640625,5.331710815429688
14.167000000000003,4.570272827148438,0.1212738037109375,3.030050659179688
14.176999999999996,2.7836151123046875,-0.612799072265625,1.9580261230468752
14.186999999999989,6.665124511718751,-1.3685546875,4.916149902343751
14.196999999999978,13.614367675781253,-0.1087127685546875,8.245123291015625
14.206999999999995,15.286480712890626,-0.2346221923828125,8.020968627929689
14.216999999999988,10.48951110839844,-1.421490478515625,9.248211669921876
14.22699999999998,5.207296752929688,-0.315521240234375,13.662368774414064
14.236999999999998,2.668771362304688,0.38221435546875,10.92496032714844
14.247999999999994,3.455032348632813,1.9032958984375,2.1273010253906253
14.25899999999999,6.690695190429688,1.921240234375,-0.31522216796875
14.268000000000004,9.535021972656253,0.8679077148437501,1.056622314453125
14.277999999999995,9.97525634765625,1.2242523193359376,5.409320068359375
14.287999999999986,7.598977661132813,0.7288391113281251,9.35318603515625
14.298000000000004,7.33983154296875,-0.4870391845703125,11.558694458007814
14.307999999999996,8.539859008789064,-1.3660125732421875,12.282449340820314
14.317999999999987,9.499581909179687,-0.850262451171875,6.388183593750001
14.327999999999978,8.479595947265626,-0.2056121826171875,0.8519073486328126
14.337999999999996,6.870736694335938,-0.463861083984375,2.381063842773438
14.347999999999988,5.930154418945313,-0.9093292236328124,5.629437255859376
14.358999999999993,5.4000488281250005,-0.8167663574218751,4.662686157226563
14.368,6.644039916992188,0.033795166015625,4.807736206054688
14.378999999999994,9.756335449218753,0.4317108154296875,7.559500122070313
14.38799999999998,10.638449096679688,0.18243408203125,7.8973022460937505
14.399000000000004,8.403033447265626,1.2900482177734376,6.251956176757813
14.408999999999995,6.995300292968751,1.6905059814453127,7.227230834960938
14.418999999999986,5.858078002929688,0.8374023437500001,7.906423950195313
14.428999999999975,5.463452148437501,0.5639007568359375,6.182421875
14.438999999999997,5.950939941406251,0.6041259765625,4.1683197021484375
14.448999999999987,7.772140502929688,-0.0746185302734375,4.678536987304688
14.458999999999978,8.572457885742189,-0.817364501953125,6.610992431640626
14.468999999999998,8.288189697265626,-0.366363525390625,7.706045532226563
14.478999999999989,7.986126708984376,-0.4725341796875,7.453030395507813
14.48899999999998,8.298208618164063,-1.0048828125,7.031488037109376
14.499,8.074203491210938,-1.105072021484375,6.473867797851563
14.50899999999999,6.256442260742188,-0.5087219238281251,4.598834228515625
14.51899999999998,3.9024444580078126,-0.1782470703125,2.5280578613281253
14.529,4.094448852539063,-0.8679077148437501,3.605764770507813
14.539999999999996,8.531634521484376,0.6622955322265626,7.171902465820313
14.549999999999986,12.821527099609376,1.5276611328125,7.509106445312501
14.559999999999976,12.720889282226564,1.1037261962890623,6.454727172851563
14.569999999999997,9.235949707031253,0.5884246826171875,10.760769653320311
14.579999999999988,5.314065551757813,0.398663330078125,13.14945983886719
14.58999999999998,3.2048583984375,0.7343719482421875,6.52037353515625
14.599999999999998,4.891177368164063,0.1371246337890625,0.7600921630859375
14.609999999999989,7.232913208007813,-0.2380615234375,2.4477569580078127
14.61999999999998,9.419580078125,0.7309326171875,5.59923095703125
14.63,8.858071899414064,1.108062744140625,5.340982055664063
14.63999999999999,8.169757080078126,-0.1652374267578125,8.62763671875
14.64999999999998,8.199365234375001,-0.8800201416015626,12.423162841796875
14.66,8.641842651367188,-0.624761962890625,9.64627685546875
14.669999999999993,8.736199951171876,0.3922332763671875,3.332113647460938
14.680999999999989,8.062240600585938,0.5921630859375,1.8866973876953128
14.692999999999987,6.960009765625,-0.0817962646484375,4.5092620849609375
14.700999999999995,5.8610687255859375,0.2226593017578125,4.159347534179688
14.710999999999988,5.947949218750001,0.44681396484375,3.949697875976563
14.72099999999998,7.818197631835938,-0.218621826171875,7.006365966796875
14.730999999999998,9.516928100585938,-0.2660247802734375,8.296862792968751
14.740999999999987,9.094189453125,-0.5223297119140625,6.558505249023438
14.75099999999998,8.455520629882812,-0.4403839111328125,6.7817626953125005
14.761,6.985281372070313,-0.118731689453125,8.021566772460938
14.77099999999999,5.6261474609375,-0.299371337890625,6.816156005859376
14.78099999999998,5.193838500976563,0.0512908935546875,5.21641845703125
14.791,6.501382446289063,0.2452392578125,5.599530029296876
14.800999999999991,7.648773193359376,0.453692626953125,5.928958129882813
14.81099999999999,8.746817016601563,0.5613586425781251,6.066531372070313
14.821999999999978,9.035272216796876,0.5105163574218751,6.791781616210938
14.831999999999995,8.514288330078125,0.5259185791015626,7.12449951171875
14.841999999999988,7.580584716796875,0.3108856201171875,6.53831787109375
14.85199999999998,5.803945922851563,0.2639312744140625,5.246176147460938
14.861999999999998,3.490621948242188,0.4305145263671875,3.3524505615234377
14.87199999999999,2.635125732421875,0.1016845703125,2.212835693359376
14.88199999999998,11.167807006835938,-1.1135955810546876,5.9946044921875
14.892,15.418820190429688,0.5836395263671875,8.585317993164063
14.90199999999999,12.781002807617188,-0.150732421875,7.974163818359376
14.91199999999998,7.253997802734376,-1.247430419921875,11.525048828125
14.922,3.0977905273437503,-0.7992706298828126,13.84046630859375
14.931999999999992,3.197531127929688,0.5085723876953125,6.769500732421876
14.94199999999999,5.008563232421875,1.3154693603515626,-0.4379913330078125
14.952000000000002,8.581130981445312,-0.050543212890625,0.210546875
14.962999999999996,10.206140136718751,0.59814453125,2.0577667236328128
14.972999999999988,8.592196655273439,0.698333740234375,10.734002685546876
14.98299999999998,6.765164184570313,0.0275146484375,8.148373413085938
14.993,8.115176391601564,-0.6762023925781251,12.956857299804687
15.00299999999999,9.514834594726564,-0.8731414794921876,10.04404296875
15.01299999999998,9.25733337402344,0.3431854248046875,2.715875244140625
15.023,7.39127197265625,0.7400543212890626,0.2684173583984375
15.03299999999999,6.196179199218751,-0.3363067626953125,4.234265136718751
15.04299999999998,5.479153442382813,-0.2208648681640625,6.864755249023438
15.053,5.837292480468751,0.22490234375,4.464700317382813
15.062999999999992,8.149270629882814,0.4916748046875,5.51788330078125
15.07299999999999,11.058197021484377,-0.1490875244140625,8.129531860351562
15.083000000000002,9.609640502929688,-0.096600341796875,7.137509155273438
15.092999999999993,7.529443359375,1.07486572265625,6.200515747070313
15.10299999999999,5.929705810546875,0.7239044189453125,7.3096252441406255
15.11399999999998,5.565585327148438,-0.3994110107421875,7.291531372070313
15.124,5.690896606445313,0.064300537109375,5.230026245117188
15.13399999999999,7.073956298828126,0.1878173828125,4.189105224609375
15.14399999999998,8.369686889648438,-0.0847869873046875,5.60162353515625
15.154,8.438473510742188,-0.380120849609375,7.592996215820313
15.16399999999999,8.047586059570314,0.09390869140625,8.184112548828125
15.173999999999982,7.8871337890625,0.1843780517578125,7.1660705566406255
15.184,7.927658081054688,-0.5591156005859376,6.311920166015626
15.193999999999985,7.461703491210938,-0.092413330078125,5.505471801757813
15.20399999999999,5.320196533203125,-0.0390289306640625,3.408676147460938
15.214000000000002,3.0158447265625004,-0.5326477050781251,1.735964965820313
15.223999999999991,6.156402587890626,0.1182830810546875,5.15301513671875
15.233999999999993,11.282052612304687,0.5872283935546876,8.676385498046876
15.244000000000003,13.634255981445314,0.8888427734375001,7.57310791015625
15.255,11.399588012695313,0.980657958984375,8.413800048828126
15.26499999999999,7.020571899414063,-0.53533935546875,12.860855102539064
15.27499999999998,3.557763671875,0.23985595703125,10.488015747070314
15.285,3.94775390625,0.2582489013671875,2.466299438476563
15.294999999999993,6.052774047851563,-0.8957214355468751,-0.029608154296875
15.304999999999987,8.792874145507813,0.1987335205078125,4.545748901367188
15.315,8.910858154296875,1.1695220947265623,5.882452392578125
15.324999999999983,8.133270263671875,0.4840484619140625,7.229922485351563
15.33499999999999,8.421725463867189,0.0808990478515625,11.630172729492188
15.345000000000002,8.621356201171876,-0.3859527587890625,11.715109252929688
15.354999999999992,8.82083740234375,0.36785888671875,5.655157470703125
15.364999999999991,8.484979248046876,0.6171356201171876,1.5453063964843752
15.37599999999998,7.285848999023438,0.2735015869140625,3.242391967773438
15.386,6.162982177734375,0.4134674072265625,4.072018432617188
15.39599999999999,5.774337768554688,-0.2071075439453125,3.408377075195313
15.40599999999998,6.639105224609375,0.161199951171875,5.649176025390625
15.416,8.483782958984376,-0.3090911865234375,8.296713256835938
15.425999999999991,9.072207641601564,-1.5130065917968751,7.677035522460938
15.43599999999999,9.406121826171876,-0.7394561767578125,7.3344482421875
15.446000000000002,7.919134521484375,-0.116339111328125,7.787692260742188
15.455999999999984,6.008660888671876,-0.30804443359375,7.30693359375
15.46599999999999,5.1776885986328125,0.2582489013671875,6.256741333007813
15.476000000000004,5.743533325195313,0.8402435302734376,5.359075927734375
15.485999999999994,6.951486206054688,0.7023712158203126,4.6762939453125005
15.495999999999992,8.733508300781251,0.5199371337890626,5.115182495117188
15.506000000000004,9.548330688476565,0.77998046875,6.2135253906250005
15.515999999999996,8.901437377929689,0.8898895263671875,6.911260986328125
15.525999999999986,7.674194335937501,0.227593994140625,7.338934326171875
15.536000000000003,6.551626586914063,0.124713134765625,7.008160400390626
15.547,4.129739379882813,-0.049945068359375,4.334902954101563
15.557999999999996,1.881613159179688,-0.59036865234375,1.9376892089843751
15.56699999999999,7.915545654296875,-1.1898590087890626,4.155459594726563
15.577000000000002,14.799890136718751,-0.2800811767578125,7.269848632812501
15.586999999999986,14.861349487304688,-0.0106170654296875,7.322036743164063
15.59699999999999,8.525204467773438,-1.119876098632813,9.903927612304688
15.607000000000005,4.136767578125,-0.7122406005859375,14.920864868164063
15.616999999999994,2.613592529296876,0.6467437744140625,10.729217529296877
15.626999999999985,4.892971801757813,1.3537506103515626,1.3099365234375
15.637000000000004,7.609744262695313,1.227392578125,-0.4388885498046875
15.646999999999997,10.214065551757812,1.2677673339843751,1.6556640625
15.65799999999999,9.206491088867187,0.9654052734375,8.179476928710939
15.667000000000003,6.558355712890625,0.7316802978515625,9.129779052734376
15.676999999999996,6.879708862304688,-0.0515899658203125,11.255435180664064
15.686999999999989,9.134115600585938,-1.376031494140625,10.432388305664062
15.69799999999999,10.357769775390626,-0.4993011474609375,4.513897705078126
15.708000000000002,8.601766967773438,0.248529052734375,0.372344970703125
15.717999999999993,6.584823608398438,-0.5010955810546875,2.9250762939453128
15.72799999999999,5.707794189453125,-1.065594482421875,6.664376831054688
15.738000000000005,5.18292236328125,-0.741400146484375,5.294924926757813
15.747999999999994,7.003524780273438,0.01256103515625,5.654559326171875
15.757999999999983,9.584967041015624,0.414215087890625,7.4920593261718755
15.768000000000004,10.40113525390625,0.2337249755859375,6.9635986328125
15.777999999999995,8.346658325195314,0.97916259765625,6.229226684570313
15.787999999999986,6.516934204101563,1.5373809814453123,7.619165039062499
15.798000000000004,5.342327880859376,1.06290283203125,7.413403320312501
15.807999999999996,5.5510803222656255,-0.2023223876953125,5.884097290039063
15.817999999999987,6.815856933593751,0.0698333740234375,5.173651123046875
15.827999999999978,8.170953369140626,0.482403564453125,4.930804443359375
15.839000000000002,8.855828857421876,-0.4819549560546875,5.6901489257812505
15.848999999999991,8.750106811523438,-0.292791748046875,7.538864135742188
15.858999999999993,7.779617309570313,-0.29189453125,7.820889282226563
15.869000000000003,7.3709350585937505,-0.714483642578125,6.420932006835938
15.878999999999994,7.4890686035156255,-0.8444305419921876,5.884396362304688
15.888999999999983,6.077297973632813,-0.740203857421875,5.2505126953125005
15.899000000000004,3.7654693603515614,-0.3171661376953125,3.019583129882813
15.908999999999995,3.997100830078125,-0.8297760009765626,2.603872680664063
15.918999999999986,9.466085815429688,0.7424468994140625,6.96898193359375
15.928999999999975,14.106042480468751,1.197186279296875,8.445651245117189
15.938999999999997,13.454364013671876,1.0409210205078123,6.985729980468751
15.948999999999987,8.733956909179689,0.451898193359375,10.569512939453126
15.95999999999999,4.105364990234375,0.1878173828125,13.68180847167969
15.968999999999998,2.582489013671875,1.2747955322265625,7.458413696289063
15.979999999999992,4.541412353515625,0.3096893310546875,0.1900604248046875
15.989999999999991,7.739541625976563,-0.2860626220703125,0.21832275390625
16.000000000000004,10.160382080078126,0.892132568359375,3.9027435302734377
16.009999999999994,8.943756103515625,1.0585662841796877,7.888031005859376
16.019999999999985,7.556060791015626,0.1915557861328125,9.34107360839844
16.030000000000005,7.8599182128906255,-0.69324951171875,12.66212158203125
16.039999999999996,8.972915649414062,-0.936993408203125,9.86145935058594
16.049999999999986,9.122451782226562,0.096002197265625,3.014349365234376
16.059999999999977,8.185458374023439,0.7795318603515625,0.49705810546875
16.069999999999997,6.687255859375001,-0.00538330078125,3.7469268798828126
16.079999999999988,5.799310302734376,-0.4725341796875,4.587619018554688
16.08999999999998,5.083929443359375,0.32000732421875,4.348660278320313
16.099999999999998,7.520919799804688,0.1598541259765625,7.135266113281251
16.10999999999999,9.718801879882813,-0.358587646484375,8.456567382812501
16.12099999999999,10.367190551757814,-0.7019226074218751,7.146331787109376
16.131000000000004,8.59952392578125,-0.3698028564453125,6.55985107421875
16.140999999999995,6.648825073242188,-0.0494964599609375,7.956967163085938
16.150999999999986,5.070321655273438,-0.026318359375,7.419085693359375
16.161000000000005,4.972076416015625,0.1431060791015625,5.349057006835938
16.170999999999996,6.483737182617188,0.58558349609375,4.410568237304688
16.180999999999987,8.118316650390625,0.5987426757812501,4.846615600585938
16.190999999999978,9.213967895507814,0.316119384765625,6.184515380859375
16.200999999999997,8.877511596679689,0.47313232421875,7.32607421875
16.210999999999988,8.154803466796876,0.4948150634765625,7.789935302734375
16.22099999999998,7.712026977539063,0.03768310546875,7.483087158203125
16.230999999999998,7.280316162109376,-0.128900146484375,6.376968383789063
16.24099999999999,5.667868041992188,0.21533203125,4.318154907226563
16.25099999999998,3.21981201171875,-0.2002288818359375,2.2877532958984377
16.262000000000004,2.9691894531250003,-1.065594482421875,3.0342376708984378
16.271999999999995,10.134512329101565,-0.7672698974609375,7.175491333007813
16.281999999999986,14.939407348632814,0.3760833740234375,8.157495117187501
16.292000000000005,13.927496337890624,0.3084930419921875,7.228128051757813
16.301999999999996,8.763864135742189,-0.6512298583984375,11.310614013671875
16.311999999999987,4.09190673828125,0.374139404296875,13.443746948242188
16.321999999999978,2.6091064453125004,1.4141632080078126,6.286199951171875
16.331999999999997,3.829171752929688,1.4884826660156252,-0.1795928955078125
16.341999999999988,7.660885620117188,0.7974761962890625,0.572125244140625
16.35199999999998,10.174288940429689,0.1197784423828125,4.580889892578125
16.362,9.145480346679689,0.7150817871093751,6.960906982421876
16.37199999999999,7.912854003906251,-0.5259185791015626,9.52724609375
16.38199999999998,7.838684082031251,-1.559512329101563,13.745510864257811
16.392,8.992953491210939,-1.1629425048828126,10.493399047851565
16.402999999999995,9.113330078125,-0.06280517578125,2.39317626953125
16.412999999999986,7.831655883789063,0.09510498046875,-0.00059814453125
16.423000000000005,6.63760986328125,-0.4245330810546875,3.746328735351563
16.432999999999996,5.469882202148438,-0.065496826171875,5.185464477539063
16.442999999999987,5.613735961914063,0.4533935546875,3.5455017089843754
16.452999999999978,7.876217651367188,0.4846466064453125,6.904830932617188
16.462999999999997,10.275076293945313,0.96719970703125,8.968429565429688
16.473999999999993,9.980789184570312,0.7838684082031251,6.960308837890626
16.48299999999998,8.402584838867188,0.9633117675781252,6.673947143554688
16.493,6.192889404296875,1.1082122802734375,8.217608642578126
16.503999999999994,5.061199951171876,-0.087030029296875,7.095639038085938
16.51299999999998,4.96759033203125,-0.615789794921875,4.806988525390626
16.523,6.564337158203125,-0.3219512939453125,4.927664184570313
16.53299999999999,7.976705932617188,-0.311932373046875,5.386141967773438
16.54299999999998,9.231314086914065,-0.8961700439453125,6.0771484375
16.553999999999977,8.950335693359376,-0.6724639892578126,7.530041503906251
16.563999999999997,8.088259887695314,-0.0560760498046875,8.041455078125
16.574999999999985,7.69273681640625,-0.4978057861328125,6.890325927734375
16.58399999999998,7.356579589843751,-0.3958221435546875,5.724093627929688
16.593999999999998,5.4251708984375,0.063104248046875,3.997698974609375
16.60399999999999,3.586624145507813,-0.0662445068359375,2.1859191894531254
16.61399999999998,5.091256713867188,-0.2184722900390625,3.5988861083984376
16.624,10.282852172851562,1.1231658935546875,7.655352783203125
16.63399999999999,13.646218872070314,1.1352783203125,8.189346313476562
16.64399999999998,11.839074707031251,0.6032287597656251,7.934387207031251
16.654,7.874124145507813,0.079254150390625,12.25523376464844
16.66399999999999,3.891378784179688,0.4945159912109375,12.135455322265626
16.67399999999998,3.685018920898438,0.7587463378906251,4.754202270507813
16.684,5.825030517578125,-0.3656158447265625,0.1123016357421875
16.694999999999997,8.496044921875,-0.204266357421875,2.9273193359375003
16.704999999999988,9.54459228515625,1.1270538330078126,5.183221435546876
16.71499999999998,8.077194213867188,0.7215118408203125,6.061746215820313
16.724999999999998,7.767056274414063,-0.3216522216796875,10.232608032226564
16.73499999999999,8.560943603515625,-0.4236358642578125,11.970666503906251
16.74499999999998,9.20948181152344,-0.194097900390625,7.012048339843751
