time,ax,ay,az
0.0,7.826721191406251,1.3275817871093751,6.508709716796876
0.0100000000000477,7.675839233398438,0.7253997802734375,6.3944641113281255
0.0200000000000386,7.614828491210938,0.2968292236328125,6.5963378906250005
0.0300000000000295,7.425515747070313,0.1933502197265625,6.587216186523438
0.040000000000024,7.407720947265625,0.0420196533203125,6.468484497070313
0.0510000000000481,7.668960571289063,-0.1327880859375,6.090905761718751
0.0600000000000022,7.613482666015625,-0.1574615478515625,5.726336669921875
0.0710000000000263,7.085769653320313,-0.1846771240234375,5.866751098632813
0.0810000000000172,6.91873779296875,-0.6159393310546876,6.296817016601563
0.0910000000000081,7.305288696289063,-1.640261840820313,6.274237060546875
0.100999999999999,7.705148315429688,-1.9264739990234376,5.577099609375001
0.1110000000000468,8.113531494140625,-1.3435821533203125,5.731719970703125
0.1210000000000377,8.009753417968751,-0.309539794921875,6.758135986328125
0.1310000000000286,7.180276489257813,1.1771484375,7.15440673828125
0.1410000000000195,5.398703002929688,2.6026763916015625,6.282012939453126
0.1510000000000069,7.637707519531251,2.112347412109376,5.770150756835938
0.1610000000000013,10.05899658203125,1.299169921875,6.258087158203126
0.1710000000000491,7.295120239257813,0.213836669921875,5.53702392578125
0.18100000000004,4.4026428222656255,0.416607666015625,6.841726684570313
0.1910000000000309,5.644989013671875,-0.578704833984375,9.092095947265626
0.2019999999999981,8.892016601562501,-1.1973358154296876,8.38538818359375
0.2120000000000459,8.884390258789063,0.139666748046875,3.7295806884765614
0.2220000000000404,9.114825439453126,0.813177490234375,3.276934814453125
0.2320000000000277,9.25613708496094,-0.5701812744140625,7.568173217773438
0.2420000000000186,7.318148803710938,-0.8231964111328126,9.403729248046876
0.2520000000000095,5.66143798828125,0.320904541015625,6.387286376953125
0.2619999999999969,7.124349975585938,-0.2062103271484375,4.096841430664063
0.2720000000000482,9.453375244140624,-1.34283447265625,7.232015991210938
0.2820000000000391,8.326022338867189,-0.31163330078125,7.1645751953125005
0.29200000000003,7.1071533203125,0.7850646972656251,3.625204467773438
0.3020000000000209,8.2364501953125,-0.045159912109375,3.7696563720703127
0.3140000000000214,8.687899780273439,-0.9962097167968752,8.027398681640626
0.3220000000000027,6.911709594726563,0.7334747314453125,7.734906005859376
0.3319999999999936,6.498690795898438,1.7054595947265627,4.2528076171875
0.3420000000000414,8.133569335937501,0.820654296875,4.75584716796875
0.3530000000000086,7.949041748046875,0.47373046875,7.875918579101563
0.3620000000000232,6.695629882812501,1.00308837890625,6.983486938476563
0.3730000000000473,6.554318237304688,0.5945556640625,5.115631103515625
0.3830000000000382,7.338784790039063,-0.52935791015625,7.348205566406251
0.3930000000000291,7.216613769531251,-0.6570617675781251,8.927755737304688
0.40300000000002,7.412356567382813,-0.32718505859375,6.433044433593751
0.4130000000000073,8.387930297851563,-0.3584381103515625,4.224993896484375
0.4230000000000018,8.8250244140625,-0.588873291015625,5.77568359375
0.4330000000000495,8.16766357421875,0.0922637939453125,6.399697875976563
0.4430000000000369,7.459909057617188,0.7062591552734375,4.896710205078126
0.4530000000000349,7.292428588867188,0.7376617431640625,5.622409057617188
0.4639999999999986,7.212127685546876,0.68009033203125,7.590304565429688
0.4730000000000096,7.179379272460938,0.420196533203125,7.281063842773438
0.4830000000000041,7.107302856445313,0.3219512939453125,6.023764038085938
0.4929999999999985,6.431399536132813,-0.0557769775390625,5.635867309570313
0.5040000000000191,8.228375244140626,0.27933349609375,6.667068481445313
0.51400000000001,8.538812255859376,0.2561553955078125,6.763070678710938
0.5239999999999974,6.46414794921875,0.0602630615234375,4.896710205078126
0.5340000000000487,6.441268920898438,0.28651123046875,6.336294555664063
0.5440000000000396,7.5488830566406255,0.00059814453125,7.878610229492188
0.5540000000000305,9.464590454101565,-0.5310028076171875,6.939373779296876
0.5640000000000214,8.332901000976562,-1.0714263916015625,4.1384124755859375
0.5740000000000123,8.082876586914063,-0.8916839599609375,6.185263061523438
0.5840000000000032,7.422076416015625,-0.4605712890625,9.098077392578126
0.5950000000000273,6.621310424804688,0.6778472900390625,8.21551513671875
0.6040000000000418,6.9926086425781255,1.624261474609375,5.096640014648438
0.6140000000000363,8.326022338867189,-0.0725250244140625,3.928463745117188
0.6240000000000236,8.999234008789063,-0.3614288330078125,7.335943603515625
0.6340000000000146,6.846063232421876,1.6483367919921876,7.289288330078126
0.6440000000000055,6.140252685546876,2.337997436523437,4.92093505859375
0.6550000000000296,8.375817871093751,0.131591796875,5.436236572265625
0.665000000000024,9.181219482421875,-0.8931793212890625,7.3009521484375
0.6750000000000114,7.515536499023438,0.6829315185546876,5.672802734375001
0.6850000000000023,6.988272094726563,0.7031188964843751,3.97347412109375
0.69500000000005,7.846759033203125,-1.473828125,6.488223266601563
0.7050000000000374,6.951187133789063,-1.7467315673828123,8.259030151367188
0.7150000000000354,5.975912475585938,-0.3847564697265625,6.11602783203125
0.7250000000000227,7.23216552734375,0.1514801025390625,5.422479248046876
0.7350000000000101,8.794818115234376,-0.3554473876953125,7.22977294921875
0.7450000000000081,8.133718872070313,-0.0375335693359375,6.672451782226563
0.7560000000000286,6.370986938476563,1.09281005859375,4.221554565429688
0.7650000000000432,5.768954467773438,1.5886718750000002,4.667172241210938
0.7750000000000341,6.8140625,1.788751220703125,7.100424194335938
0.7860000000000014,6.758883666992188,1.3362548828125,6.653610229492188
0.7960000000000491,6.344070434570313,0.3730926513671875,4.7017150878906255
0.80600000000004,9.506460571289065,-0.177947998046875,7.204052734375001
0.8160000000000309,11.99578857421875,-1.230532836914063,9.177032470703123
0.8260000000000218,9.761419677734375,-0.6820343017578125,7.3224853515625
0.8360000000000092,6.676339721679688,1.0469024658203123,4.8527465820312505
0.8460000000000036,5.877816772460938,-0.914862060546875,7.038516235351563
0.8559999999999981,5.790188598632813,-1.0522857666015626,9.754391479492188
0.8660000000000423,5.688204956054688,1.45050048828125,5.623007202148438
0.8780000000000427,7.3604675292968755,0.2717071533203125,0.8040557861328126
0.8860000000000241,11.060440063476562,-2.134329223632813,5.56932373046875
0.896000000000015,9.39984130859375,-1.2812255859375,10.693927001953126
0.9070000000000392,6.253900146484376,1.2227569580078126,8.277871704101564
0.9160000000000004,6.59573974609375,0.9467132568359377,5.0834808349609375
0.9270000000000208,8.423968505859376,-1.346722412109375,7.508358764648438
0.9370000000000118,8.157794189453126,-0.0016448974609375,8.107550048828125
0.9470000000000028,6.752005004882813,1.3250396728515623,2.566937255859376
0.9569999999999936,7.842721557617188,0.588873291015625,1.0594635009765625
0.9670000000000414,8.724685668945312,-0.3983642578125,7.397103881835938
0.9780000000000086,6.678433227539063,0.106768798828125,8.268151855468751
0.9870000000000232,6.345715332031251,1.3827606201171876,5.24273681640625
0.9970000000000104,8.240936279296875,0.9383392333984376,5.8749755859375
1.007000000000005,8.809622192382813,0.2645294189453125,8.174542236328126
1.0169999999999997,7.510153198242188,0.250921630859375,6.372183227539063
1.0270000000000437,6.310275268554688,0.41630859375,4.577001953125
1.037000000000038,6.587963867187501,0.31881103515625,7.2273803710937505
1.0470000000000257,6.522766113281251,-0.210546875,7.941864013671876
1.0570000000000164,7.268203735351563,-0.4140655517578125,5.7249908447265625
1.068000000000037,8.31959228515625,-0.346624755859375,5.032937622070313
1.078000000000035,8.938073730468751,-0.5193389892578125,6.636563110351563
1.0880000000000225,7.550827026367188,-0.5999389648437501,6.190347290039063
1.0980000000000096,6.098233032226563,-0.69923095703125,4.203460693359375
1.108000000000004,7.223941040039063,-0.15791015625,5.24991455078125
1.1179999999999986,8.317498779296876,0.351708984375,7.383944702148438
1.1280000000000427,5.911163330078125,-0.5178436279296875,5.3058410644531255
1.1380000000000337,5.992810058593751,1.0941558837890626,6.451138305664063
1.148000000000021,9.253594970703126,2.009017944335937,9.500927734375
1.1580000000000157,10.125241088867188,0.4059906005859375,7.665969848632813
1.1680000000000064,8.413800048828126,0.8593841552734376,4.242938232421875
1.1779999999999973,7.807131958007813,0.6950439453125,6.238198852539063
1.1890000000000214,6.689648437500001,-0.6765014648437501,9.548031616210938
1.1980000000000397,5.262774658203125,0.486590576171875,8.531634521484376
1.2080000000000268,6.403585815429688,0.9583770751953126,3.766964721679688
1.218999999999994,9.791326904296875,-1.1183807373046877,2.4637573242187503
1.2290000000000418,10.85333251953125,-1.1046234130859376,7.376467895507813
1.240000000000009,7.017730712890626,1.0144531250000002,8.059848022460939
1.2490000000000236,5.586071777343751,1.197186279296875,6.158197021484376
1.2590000000000146,7.807281494140626,-0.5873779296875,7.22080078125
1.2690000000000057,8.258132934570312,-0.5369842529296875,8.33753662109375
1.279,7.299606323242188,1.6269531250000002,5.146136474609375
1.289000000000044,7.770794677734376,1.7426940917968752,2.0478973388671875
1.2990000000000386,8.903979492187501,-0.5647979736328126,4.996002197265625
1.309000000000026,7.327719116210938,-0.512310791015625,7.817749023437501
1.3190000000000133,5.397805786132813,0.3983642578125,6.053372192382813
1.3290000000000075,6.885989379882813,0.234173583984375,5.654858398437501
1.3389999999999986,8.771640014648439,-0.7654754638671876,7.661782836914063
1.3490000000000464,8.605206298828126,-1.066192626953125,6.718209838867188
1.36000000000001,7.550976562500001,-0.686370849609375,4.669415283203126
1.370000000000008,7.044497680664063,-0.4103271484375,6.664376831054688
1.379999999999999,6.296817016601563,-0.0303558349609375,8.646926879882812
1.3900000000000432,6.2960693359375,0.3620269775390625,6.756640625
1.400000000000034,7.7058959960937505,0.5238250732421875,4.4693359375
1.4100000000000217,8.864053344726564,0.5923126220703125,5.520724487304688
1.420000000000016,8.489764404296876,1.0029388427734376,6.731817626953125
1.4300000000000068,6.891970825195313,1.1261566162109375,5.499789428710938
1.4399999999999975,5.808432006835938,0.96241455078125,4.61588134765625
1.4500000000000457,6.894064331054688,0.6006866455078126,5.0964904785156255
1.46000000000004,8.730966186523439,0.26378173828125,6.292330932617188
1.4700000000000273,6.966140747070313,-0.5588165283203126,5.743981933593751
1.480999999999998,6.756939697265626,-0.750372314453125,6.605908203125001
1.4910000000000423,9.550125122070312,-1.0413696289062502,9.665716552734375
1.5010000000000332,8.8728759765625,-2.0869262695312503,9.044692993164062
1.511000000000024,6.56822509765625,0.0740203857421875,6.183169555664063
1.521000000000015,7.494451904296875,1.2522155761718752,5.592800903320313
1.531000000000006,7.586715698242188,-1.0587158203125,6.804193115234376
1.5410000000000004,7.201062011718751,0.7920928955078126,9.272735595703123
1.551000000000048,6.244778442382813,3.233270263671875,4.7664642333984375
1.561000000000039,8.645730590820314,0.8679077148437501,2.0961975097656254
1.5710000000000264,10.330105590820311,-0.5815460205078126,8.193383789062501
1.5810000000000173,7.330859375,0.9027496337890626,9.079534912109375
1.5910000000000082,6.345416259765625,1.1121002197265626,4.538571166992188
1.600999999999999,8.431594848632812,-0.84158935546875,4.176843261718751
1.6110000000000468,8.61627197265625,-1.6574584960937502,8.398397827148438
1.6210000000000375,6.880905151367188,-0.1463958740234375,7.101022338867188
1.632000000000005,7.053469848632813,-0.0142059326171875,2.3190063476562504
1.6410000000000196,8.79810791015625,-1.3265350341796875,4.763772583007813
1.6520000000000437,7.857675170898438,-0.8883941650390625,8.726031494140626
1.662000000000038,5.9054809570312505,0.2941375732421875,6.800155639648438
1.6720000000000257,6.57779541015625,0.9302642822265624,4.666873168945313
1.6820000000000164,8.328564453125,0.7885040283203125,7.156500244140625
1.6920000000000073,7.9690795898437505,0.7962799072265626,7.452133178710938
1.7019999999999982,6.984683227539063,1.3449279785156252,4.9035888671875005
1.712000000000046,7.110443115234376,1.3618255615234376,5.604165649414063
1.7220000000000404,7.187603759765626,0.5893218994140625,8.072708129882812
1.7320000000000275,7.045095825195313,0.1410125732421875,6.944906616210938
1.7420000000000186,7.755392456054688,-0.0219818115234375,4.911663818359376
1.7520000000000095,8.47271728515625,-0.5507415771484375,5.890826416015625
1.761999999999997,8.025604248046875,-0.6371734619140625,7.079339599609376
1.773000000000021,7.254446411132813,-0.703717041015625,6.087615966796875
1.7830000000000157,6.342575073242188,-1.5427642822265626,4.795025634765626
1.7930000000000064,6.48448486328125,-1.6199249267578126,4.913906860351563
1.8029999999999973,7.446301269531251,-0.772503662109375,5.255596923828126
1.813000000000045,8.136410522460938,0.001495361328125,5.999240112304688
1.82300000000004,6.486428833007813,0.0387298583984375,5.539865112304688
1.8330000000000268,8.749807739257813,1.5364837646484375,8.433688354492189
1.8430000000000173,9.591397094726563,2.1512268066406253,10.23126220703125
1.8530000000000089,8.362808227539062,1.3932281494140626,8.302694702148438
1.8629999999999995,6.809277343750001,1.702020263671875,4.891177368164063
1.8730000000000475,7.076797485351563,-0.1831817626953125,5.382852172851563
1.8830000000000384,6.522317504882813,-0.2388092041015625,8.04324951171875
1.896000000000015,5.962005615234375,1.9394836425781248,6.125149536132813
1.90300000000002,7.395309448242188,0.6433044433593751,2.0496917724609376
1.914000000000044,10.554708862304688,-1.3567413330078126,5.675494384765625
1.9240000000000383,9.325372314453126,-0.6926513671875001,9.634463500976564
1.934000000000026,6.685760498046876,0.441131591796875,7.680624389648438
1.9440000000000133,6.790585327148438,-0.0085235595703125,5.87437744140625
1.954000000000008,7.922274780273438,-1.2765899658203126,7.89610595703125
1.9639999999999984,7.476806640625001,0.129498291015625,7.449890136718751
1.9740000000000464,6.800155639648438,1.30216064453125,3.2210083007812504
1.9840000000000373,7.711428833007813,0.8613281250000001,3.1321838378906253
1.995000000000008,8.855828857421876,0.2588470458984375,7.162930297851563
2.004000000000019,7.549032592773438,0.0814971923828125,6.471624755859375
2.01400000000001,7.348654174804688,0.6462951660156251,4.689901733398438
2.0239999999999974,8.235702514648438,0.600836181640625,6.663479614257813
2.0340000000000487,7.85423583984375,-0.285614013671875,7.562191772460938
2.045000000000016,6.8071838378906255,-0.6881652832031251,5.619717407226563
2.0540000000000305,6.769351196289063,-0.491375732421875,5.4120117187500005
2.0649999999999977,7.406674194335938,-0.8294769287109376,7.088162231445313
2.075000000000045,6.971374511718751,-0.88345947265625,6.9342895507812505
2.08500000000004,7.10057373046875,-0.1006378173828125,6.350350952148438
2.096000000000004,7.679278564453125,-0.0255706787109375,6.743780517578125
2.105000000000018,8.221795654296876,0.1015350341796875,7.176239013671876
2.115000000000009,7.69034423828125,0.9840972900390624,6.049932861328125
2.125,6.88284912109375,1.1734100341796876,4.837643432617188
2.135000000000048,6.141598510742188,0.9196472167968752,4.0362792968750005
2.1450000000000387,6.00357666015625,0.805401611328125,4.16129150390625
2.1550000000000296,7.522564697265626,0.8095886230468751,6.043652343750001
2.165000000000024,7.978649902343751,0.191107177734375,7.062591552734376
2.175000000000012,9.822579956054687,-0.312530517578125,7.856628417968751
2.1850000000000023,10.759722900390626,-1.2677673339843751,8.703152465820313
2.1960000000000264,8.428903198242189,-1.6130462646484376,8.719750976562501
2.2050000000000374,6.206497192382813,-0.088525390625,6.578094482421876
2.216000000000008,5.813665771484375,0.27095947265625,5.000936889648438
2.225999999999999,6.218460083007813,-0.2639312744140625,6.506317138671876
2.236000000000047,6.628488159179688,1.3050018310546876,7.376467895507813
2.2460000000000377,7.978649902343751,1.7204132080078127,4.557412719726563
2.2560000000000286,9.45008544921875,0.279034423828125,4.457821655273438
2.26600000000002,9.4375244140625,-0.071478271484375,9.259426879882811
2.276000000000007,7.137808227539063,0.6000885009765625,8.539111328125001
2.2860000000000014,7.043301391601563,0.442327880859375,5.107107543945313
2.296000000000049,7.921078491210938,-0.576910400390625,5.169613647460938
2.30600000000004,7.599874877929688,-0.649884033203125,6.790286254882813
2.316000000000031,7.1107421875000005,0.138470458984375,5.086770629882813
2.326000000000022,7.587164306640625,-0.2136871337890625,3.2885986328125
2.336000000000009,8.532083129882814,-0.8744873046875,6.209786987304688
2.3470000000000404,8.022613525390625,-0.5477508544921875,7.950686645507813
2.357000000000028,7.165771484375001,0.31163330078125,6.089260864257813
2.367000000000018,7.377963256835938,1.074566650390625,5.962603759765625
2.377000000000009,7.408468627929688,0.6002380371093751,7.11552734375
2.386999999999997,6.999038696289063,0.346026611328125,6.392071533203126
2.397000000000048,6.7363037109375,0.7654754638671876,5.421582031250001
2.407000000000039,6.9552246093750005,0.8436828613281251,6.073709106445313
2.41700000000003,7.426263427734375,0.3886444091796875,6.967337036132813
2.427000000000021,7.677334594726563,-0.0252716064453125,6.446502685546876
2.437000000000012,8.288339233398439,-0.0713287353515625,6.336294555664063
2.4470000000000027,8.266656494140626,-0.100189208984375,6.4527832031250005
2.4569999999999936,7.880703735351563,-0.4215423583984375,6.144290161132813
2.4670000000000414,6.766510009765626,-0.703717041015625,5.606109619140625
2.4780000000000086,5.648278808593751,-1.0009948730468752,4.505523681640625
2.487000000000023,7.221997070312501,-0.7268951416015625,4.814465332031251
2.498000000000048,8.808724975585939,0.19798583984375,6.781912231445313
2.508000000000038,6.060699462890625,-0.29010009765625,5.957369995117188
2.518000000000029,6.554916381835938,0.8590850830078126,6.862661743164063
2.52800000000002,9.321484375,1.6949920654296875,9.660183715820311
2.538000000000011,10.263861083984375,0.88465576171875,8.666665649414064
2.548000000000002,7.944406127929688,1.5816436767578126,4.4928131103515625
2.5580000000000496,7.212277221679688,-0.0203369140625,4.237704467773438
2.5680000000000405,6.936233520507813,-0.9864898681640626,9.066525268554688
2.578000000000032,5.794375610351563,0.756353759765625,9.183761596679688
2.5880000000000223,5.956622314453125,1.142755126953125,3.0482940673828125
2.598000000000013,9.721942138671876,-1.06649169921875,3.0337890625000004
2.608000000000004,10.574746704101564,-1.5248199462890626,8.99429931640625
2.619000000000028,7.477703857421876,0.6747070312500001,8.573205566406251
2.6280000000000427,5.764169311523438,1.46844482421875,5.121612548828125
2.6380000000000337,7.572659301757813,-0.8773284912109376,6.493756103515626
2.649000000000001,8.314358520507813,-0.8089904785156251,9.159237670898438
2.6590000000000487,6.9686828613281255,1.414013671875,5.267111206054688
2.66900000000004,7.244577026367188,1.8962677001953123,1.1464935302734376
2.6790000000000305,9.41300048828125,-0.1888641357421875,5.445208740234375
2.6890000000000214,8.171701049804689,-0.3835601806640625,8.195925903320314
2.6990000000000123,6.313116455078125,0.45159912109375,5.519528198242188
2.709000000000003,6.992160034179688,0.3455780029296875,4.972824096679688
2.718999999999994,8.371630859375001,-0.3485687255859375,8.084671020507812
2.729000000000042,7.87816162109375,-0.884954833984375,7.345962524414063
2.7390000000000327,6.869689941406251,-0.7017730712890625,4.3043975830078125
2.749000000000024,6.941766357421876,-0.26617431640625,6.093597412109375
2.760000000000048,6.951187133789063,-0.174658203125,8.611038208007812
2.769000000000005,6.605310058593751,-0.0267669677734375,6.803146362304688
2.7789999999999964,7.449142456054688,0.3644195556640625,5.053872680664063
2.7900000000000205,8.718554687500001,0.4930206298828125,6.170907592773438
2.800000000000012,8.605654907226564,0.5073760986328125,6.882101440429688
2.8100000000000023,7.502377319335938,1.12152099609375,5.635269165039063
2.82000000000005,6.810324096679688,1.0045837402343751,5.201763916015626
2.830000000000041,5.771197509765625,0.3162689208984375,5.475564575195313
2.840000000000032,3.817358398437501,0.69683837890625,4.531243896484376
2.8500000000000227,4.8736816406250005,0.6881652832031251,3.9936614990234376
2.8600000000000136,11.005410766601564,-0.2869598388671875,6.372631835937501
2.8700000000000045,13.91508483886719,-0.46116943359375,7.833151245117188
2.8799999999999955,12.1267822265625,-0.95643310546875,8.129382324218751
2.890000000000043,7.011001586914063,-1.3827606201171876,10.585662841796877
2.900000000000034,3.830068969726563,-0.7925415039062501,11.587704467773438
2.910000000000025,4.234414672851563,0.588873291015625,6.2374511718750005
2.920000000000016,5.738150024414063,0.7781860351562501,0.8211029052734375
2.930000000000007,8.072109985351563,0.7935882568359376,2.9071319580078128
2.941000000000031,9.382644653320312,0.8750854492187501,5.932696533203125
2.951000000000022,8.414697265625001,0.41212158203125,6.376071166992188
2.9610000000000127,7.57071533203125,0.16209716796875,8.824426269531251
2.971000000000004,7.905526733398438,-0.3696533203125,10.993597412109375
2.9810000000000016,8.832650756835939,-0.3001190185546875,7.81954345703125
2.9910000000000423,8.40093994140625,0.0617584228515625,3.548941040039063
3.001000000000033,7.176239013671876,0.079852294921875,3.321945190429688
3.011000000000024,6.824829101562501,-0.337652587890625,5.435488891601563
3.021000000000015,6.169711303710938,-0.674407958984375,5.165875244140626
3.031000000000006,6.349453735351563,0.0174957275390625,5.561398315429688
3.040999999999997,8.232113647460938,0.2441925048828125,7.342224121093751
3.051000000000045,10.059445190429688,0.0258697509765625,7.0569091796875005
3.062000000000012,9.510797119140626,0.6452484130859375,5.912359619140625
3.0720000000000027,7.127041625976563,1.0157989501953126,6.644787597656251
3.0819999999999936,5.817404174804688,0.8348602294921875,7.328765869140626
3.0920000000000414,5.61956787109375,0.3724945068359375,6.194235229492188
3.1020000000000323,6.378613281250001,0.3715972900390625,4.967291259765625
3.112000000000023,7.79202880859375,0.4773193359375,4.6647796630859375
3.122000000000014,8.795266723632814,0.0393280029296875,5.48857421875
3.132000000000005,8.359219360351563,-0.007177734375,7.003973388671875
3.141999999999996,7.571762084960938,-0.2181732177734375,8.191140747070314
3.152000000000044,7.548135375976563,-0.5079742431640626,7.747915649414063
3.1620000000000417,7.783505249023438,-0.5938079833984375,6.459960937500001
3.172000000000025,7.267007446289063,-0.2691650390625,5.70330810546875
3.1820000000000164,6.461605834960938,0.0270660400390625,5.311972045898438
3.192000000000008,5.323336791992188,-0.66214599609375,3.930258178710938
3.201999999999998,5.209539794921875,-0.9680969238281252,3.387591552734375
3.2130000000000223,7.317700195312501,0.2552581787109375,5.223297119140625
3.223000000000013,9.300698852539064,0.6745574951171875,6.606805419921876
3.233000000000004,12.111080932617188,1.275244140625,7.605706787109375
3.243000000000002,11.596527099609377,1.7271423339843752,9.4159912109375
3.2530000000000427,7.25609130859375,0.60950927734375,10.704544067382812
3.2630000000000337,4.214077758789063,1.16279296875,9.458908081054688
3.273000000000025,5.150473022460938,0.2068084716796875,4.787997436523438
3.2830000000000155,7.075152587890625,-1.681683349609375,1.921090698242188
3.2930000000000064,7.302746582031251,-0.2758941650390625,4.661639404296875
3.3029999999999973,7.856628417968751,1.0108642578125,5.656951904296875
3.313000000000045,8.81485595703125,0.014654541015625,6.02750244140625
3.323000000000036,8.564233398437501,-0.6412109375,9.5416015625
3.333000000000027,7.856927490234375,0.051739501953125,10.056454467773438
3.3430000000000177,8.389425659179688,0.5917144775390626,6.208441162109375
3.354000000000042,8.204150390625001,0.395074462890625,4.033288574218751
3.3640000000000327,6.915298461914063,0.7765411376953125,5.501284790039063
3.374000000000024,6.239544677734376,0.7690643310546875,5.25589599609375
3.3840000000000146,6.737948608398438,0.402252197265625,3.8701446533203128
3.394000000000005,7.387533569335938,0.5395263671875,6.119168090820313
3.4039999999999964,8.10186767578125,0.46475830078125,7.868591308593751
3.414000000000044,9.03003845214844,-0.3342132568359375,5.998941040039063
3.424000000000042,9.145330810546875,-0.8098876953125,5.714672851562501
3.434000000000026,7.587911987304688,-0.401953125,7.245474243164063
3.444000000000017,6.004473876953125,-0.4143646240234375,6.908120727539063
3.454000000000008,5.959912109375001,-0.7478302001953125,5.701812744140625
3.463999999999998,6.900643920898438,-0.4445709228515625,5.631231689453125
3.4740000000000464,7.629483032226563,-0.1852752685546875,5.514892578125
3.4840000000000373,8.1909912109375,0.228192138671875,5.527902221679688
3.497000000000014,8.071212768554688,0.57840576171875,7.021768188476563
3.5049999999999955,7.721447753906251,0.740203857421875,8.269796752929688
3.515000000000043,7.548733520507813,0.756353759765625,7.016983032226563
3.525000000000034,7.660137939453126,0.670819091796875,5.863311767578125
3.535000000000025,7.140350341796876,0.9419281005859376,5.5316406250000005
3.545000000000016,5.4972473144531255,0.6963897705078126,4.705902099609375
3.555000000000007,4.028802490234376,0.13099365234375,3.793731689453125
3.5649999999999977,5.652615356445313,-0.213238525390625,4.904934692382813
3.575000000000045,10.720693969726565,-0.5157501220703126,7.340728759765626
3.5850000000000364,12.637298583984377,-0.177947998046875,7.320391845703125
3.596000000000004,11.174984741210938,-1.0110137939453123,7.038067626953126
3.605000000000018,7.844366455078125,-0.902001953125,10.131222534179688
3.615000000000009,5.2864013671875005,0.22789306640625,9.821832275390626
3.625,4.1571044921875,0.9846954345703126,4.375576782226563
3.636000000000024,5.2887939453125,1.3932281494140626,1.987185668945313
3.646000000000015,7.913302612304688,0.5359375000000001,5.066134643554688
3.656000000000006,9.132321166992188,0.25062255859375,6.450689697265625
3.665999999999997,8.770742797851563,0.6404632568359375,6.7712951660156255
3.676000000000045,8.014837646484375,-0.1191802978515625,9.610537719726564
3.686000000000036,7.96309814453125,-0.6530242919921876,10.942306518554688
3.6970000000000014,8.124746704101563,-0.5643493652343751,7.0658813476562505
3.706000000000017,7.737448120117188,-0.002691650390625,2.9635070800781254
3.716000000000008,7.661184692382813,-0.14833984375,3.233419799804688
3.725999999999999,7.071414184570313,-0.8417388916015626,4.912860107421875
3.736000000000047,6.491064453125,-0.26497802734375,4.930953979492188
3.7460000000000377,7.137060546875,0.4529449462890625,5.664129638671875
3.7560000000000286,8.733807373046876,0.16209716796875,7.305886840820313
3.76600000000002,9.72388610839844,0.398065185546875,7.524508666992188
3.7760000000000105,8.415744018554689,1.1473907470703126,6.29906005859375
3.786000000000002,6.9157470703125,1.14365234375,6.331359863281251
3.7970000000000255,6.17703857421875,0.4711883544921875,6.916943359375001
3.807000000000016,5.626596069335938,0.1619476318359375,5.798263549804688
3.8170000000000073,6.369192504882813,0.6148925781250001,4.867251586914063
3.826999999999998,7.925415039062501,0.292193603515625,5.288943481445313
3.837000000000046,8.4709228515625,-0.30086669921875,6.341677856445313
3.847000000000037,8.0522216796875,-0.096002197265625,7.588211059570313
3.857000000000028,7.7172607421875,-0.46116943359375,7.93199462890625
3.867000000000018,7.847207641601563,-0.8583374023437501,7.514340209960938
3.8770000000000095,7.604360961914063,-0.457879638671875,6.23984375
3.887000000000001,7.050479125976563,-0.1375732421875,4.886541748046875
3.897000000000048,5.936135864257813,-0.4529449462890625,4.081887817382813
3.907000000000039,4.63382568359375,-0.8542999267578125,3.385198974609376
3.91700000000003,5.909069824218751,-0.088525390625,4.652517700195313
3.927999999999997,9.011346435546876,0.9425262451171876,7.1182189941406255
3.938000000000045,11.954367065429688,0.744091796875,7.441815185546876
3.948000000000036,12.1830078125,1.4451171875000002,8.599673461914064
3.958000000000027,8.00855712890625,0.8553466796875001,10.811611938476563
3.9680000000000177,4.6427978515625,0.5534332275390625,10.36883544921875
3.9780000000000086,4.3353515625000005,0.615789794921875,4.652517700195313
3.988,6.329864501953126,-0.9395355224609376,0.9694427490234376
3.9980000000000473,7.718307495117188,-0.130694580078125,4.525112915039063
4.008000000000038,8.366845703125001,1.609906005859375,5.919985961914063
4.018000000000029,8.639898681640625,0.663641357421875,5.586071777343751
4.02800000000002,8.576345825195313,-0.5025909423828125,9.651809692382812
4.038000000000011,8.067773437500001,-0.4233367919921875,11.754885864257814
4.048000000000002,8.181570434570313,0.4481597900390625,7.428207397460938
4.05800000000005,8.159289550781251,0.5857330322265626,2.630340576171875
4.0680000000000405,7.359570312500001,0.1323394775390625,4.01773681640625
4.079000000000008,6.529196166992188,0.26976318359375,5.96409912109375
4.088999999999999,6.008212280273438,0.429168701171875,3.935791015625
4.099000000000046,6.916793823242188,0.4541412353515625,4.799212646484375
4.109000000000037,8.924765014648438,-0.0743194580078125,8.049679565429688
4.119000000000028,9.773831176757811,-0.6865203857421875,7.365701293945313
4.129000000000019,8.899194335937501,-0.25301513671875,5.459414672851563
4.13900000000001,7.023114013671876,0.03289794921875,6.712078857421876
4.149000000000001,6.109597778320313,-0.411822509765625,8.016033935546876
4.159000000000049,5.6692138671875005,-0.4837493896484375,5.823983764648438
4.16900000000004,6.474914550781251,-0.09869384765625,4.220059204101563
4.179000000000031,7.750308227539063,0.183331298828125,5.382254028320313
4.189000000000021,8.465090942382814,0.184228515625,6.541159057617188
4.199000000000012,8.016931152343751,0.52337646484375,7.066629028320313
4.209000000000003,7.878759765625,0.5537322998046875,7.694979858398438
4.220000000000027,7.817001342773438,0.5079742431640626,7.544696044921875
4.230000000000018,7.602865600585938,0.5076751708984375,6.038418579101563
4.240000000000009,6.213824462890625,0.6461456298828125,4.314865112304688
4.25,4.655508422851563,0.7424468994140625,3.748870849609376
4.260000000000048,4.1578521728515625,0.4125701904296875,3.616232299804688
4.270000000000039,8.0833251953125,-0.8155700683593751,5.3246826171875
4.28000000000003,12.379049682617188,0.6192291259765625,8.953775024414064
4.2900000000000205,12.405816650390626,-0.318511962890625,8.058502197265625
4.300000000000011,9.584817504882814,-1.2405517578125,8.840127563476564
4.310000000000002,6.079840087890625,-0.0803009033203125,10.427005004882814
4.32000000000005,4.4205871582031255,-0.172564697265625,6.996945190429688
4.330000000000041,4.6188720703125,1.1595031738281252,2.050888061523437
4.340000000000032,6.47611083984375,0.36546630859375,2.871542358398438
4.350000000000023,8.764611816406251,-0.393280029296875,6.705648803710938
4.361000000000047,9.536367797851565,0.6012847900390625,7.375869750976563
4.371000000000038,8.271591186523438,-0.113946533203125,7.821038818359375
4.381000000000029,8.143588256835939,-0.2020233154296875,10.499380493164065
4.39100000000002,7.975210571289063,-0.2370147705078125,9.062637329101562
4.4010000000000105,7.668362426757813,0.0073272705078125,4.163235473632813
4.411000000000001,7.422674560546875,0.7445404052734376,2.332015991210937
4.421000000000049,6.9627014160156255,-0.409130859375,4.378567504882813
4.43100000000004,6.713125610351563,-0.3001190185546875,5.532687377929688
4.441000000000031,6.915298461914063,0.229388427734375,5.442068481445313
4.451000000000022,8.120709228515626,0.0471038818359375,6.778323364257813
4.461000000000013,9.75274658203125,0.103778076171875,7.904629516601563
4.471000000000004,9.30398864746094,0.2053131103515625,6.660189819335938
4.481000000000002,7.390225219726563,0.8653656005859376,5.703009033203125
4.491000000000042,5.95452880859375,0.6186309814453126,6.618917846679688
4.5020000000000095,5.400198364257813,0.3240447998046875,6.572262573242188
4.5120000000000005,6.126046752929688,0.5164978027343751,5.089910888671875
4.522000000000048,7.373626708984376,0.39716796875,4.670910644531251
4.532000000000039,8.744424438476564,0.30206298828125,6.0595031738281255
4.54200000000003,8.508905029296876,-0.0731231689453125,7.244876098632813
4.552000000000021,8.104559326171875,-0.2118927001953125,7.905078125
4.562000000000012,7.716513061523438,-0.221612548828125,7.528396606445313
4.572000000000003,7.491461181640625,-0.4988525390625,6.634469604492188
4.581999999999994,6.976608276367188,-0.1957427978515625,5.640353393554688
4.592000000000041,6.515438842773438,-0.0285614013671875,5.0640411376953125
4.602000000000032,6.16507568359375,-0.20576171875,4.678237915039063
4.615000000000009,5.2648681640625,-0.6830810546875,3.7696563720703127
4.622000000000014,5.281765747070313,-0.8062988281250001,3.5318939208984377
4.633000000000038,8.742031860351563,0.8773284912109376,6.459362792968751
4.641999999999996,12.6675048828125,0.9772186279296876,8.653955078125001
4.65300000000002,13.475,0.7016235351562501,8.36624755859375
4.663000000000011,8.885137939453125,0.5630035400390625,9.512142944335938
4.673000000000002,4.454830932617188,0.3168670654296875,11.541647338867188
4.68300000000005,3.0608551025390627,0.8692535400390625,7.610491943359375
4.6930000000000405,5.0854248046875,-0.3398956298828125,0.8867492675781251
4.703000000000031,7.505667114257813,-0.5959014892578125,0.6942962646484375
4.713999999999999,8.69403076171875,0.9725830078125,5.862265014648438
4.723000000000013,8.683862304687501,1.1623443603515626,6.700863647460938
4.733000000000004,8.162728881835939,0.538330078125,8.78375244140625
4.743000000000002,8.491259765625001,-0.35709228515625,11.737091064453123
4.753000000000043,8.94166259765625,-0.191705322265625,9.168658447265626
4.763000000000034,8.686105346679689,0.383709716796875,4.091458129882813
4.773000000000025,6.770697021484375,0.6826324462890625,2.810531616210937
4.783000000000016,6.251507568359376,0.489581298828125,5.2345123291015625
4.79400000000004,6.122906494140626,-0.319708251953125,4.424774169921875
4.804000000000031,6.509158325195313,-0.188714599609375,4.187161254882813
4.814000000000021,8.138055419921876,0.681884765625,7.529891967773438
4.824000000000012,10.045089721679688,-0.11663818359375,7.706344604492188
4.835000000000036,10.40113525390625,-0.8110839843750001,5.781365966796876
4.843999999999994,7.999435424804688,-0.2438934326171875,6.351696777343751
4.854000000000042,5.829367065429688,0.013458251953125,7.715017700195313
4.864000000000033,5.103817749023438,-0.2630340576171875,6.605010986328126
4.874000000000024,5.672802734375001,-0.2068084716796875,4.8342041015625
4.884000000000015,7.240240478515625,0.1272552490234375,4.594497680664063
4.8940000000000055,8.719900512695313,-0.00478515625,5.3773193359375
4.903999999999996,8.535821533203126,0.3446807861328125,6.727780151367188
4.914000000000044,7.863955688476563,0.9497039794921877,8.649917602539062
4.924000000000042,7.618716430664063,0.55447998046875,8.237945556640625
4.935000000000002,7.871282958984375,0.11783447265625,6.677386474609375
4.94500000000005,7.350747680664063,0.4553375244140625,5.5575103759765625
4.955000000000041,6.332257080078126,0.7101470947265626,4.787698364257813
4.965000000000032,5.097537231445313,0.337353515625,3.882705688476563
4.975000000000023,3.678140258789063,-0.018841552734375,3.283065795898438
4.985000000000014,5.357431030273438,-0.291595458984375,4.38739013671875
4.9950000000000045,12.277365112304688,-0.4629638671875,7.611538696289063
5.004999999999996,14.578128051757814,0.5396759033203126,8.782556152343751
5.015000000000043,12.337478637695314,-0.0644500732421875,8.519073486328125
5.025000000000034,6.55087890625,-0.655865478515625,10.498782348632814
5.035000000000025,3.596942138671875,-0.0512908935546875,10.534371948242187
5.045000000000016,3.3774230957031253,1.172662353515625,4.004129028320313
5.055000000000007,5.397805786132813,0.7943359375000001,-0.24224853515625
5.066000000000031,8.367593383789064,-0.1435546875,1.35360107421875
5.076000000000022,9.553713989257814,-0.1469940185546875,8.650665283203125
5.086000000000013,8.490362548828125,0.5508911132812501,8.506362915039062
5.096000000000004,7.820590209960938,-0.2872589111328125,10.095184326171877
5.106000000000002,8.378808593750001,-1.304254150390625,11.766400146484376
5.116000000000042,8.905026245117188,-0.5523864746093751,7.826422119140625
5.126000000000033,7.909115600585938,0.0267669677734375,1.9227355957031247
5.136000000000024,6.620114135742188,0.3001190185546875,1.4330047607421876
5.146000000000015,6.224740600585938,-0.0617584228515625,5.541210937500001
5.156000000000006,5.8091796875,-0.07596435546875,5.47601318359375
5.165999999999997,6.921429443359376,0.7962799072265626,5.14703369140625
5.176000000000045,9.472216796875,0.7678680419921876,7.581631469726563
5.186000000000036,11.022607421875,0.209051513671875,8.005117797851563
5.196000000000026,9.472067260742188,0.7766906738281251,6.339733886718751
5.206999999999994,6.475064086914063,1.03060302734375,6.144439697265626
5.217000000000041,5.329019165039063,0.48868408203125,7.146929931640625
5.227000000000032,5.104415893554688,-0.011962890625,5.9503417968750005
5.237000000000023,6.072811889648438,0.1006378173828125,4.191049194335938
5.247000000000014,7.799954223632813,0.0011962890625,4.248171997070313
5.257000000000005,9.168508911132813,-0.39537353515625,6.0807373046875
5.266999999999996,8.574551391601563,-0.3171661376953125,7.767953491210938
5.277000000000044,7.774832153320313,-0.392681884765625,8.813510131835939
5.287000000000042,7.649072265625,-0.368157958984375,8.150167846679688
5.2970000000000255,7.677783203125,-0.291595458984375,6.4109130859375005
5.307000000000016,6.797314453125001,-0.069384765625,4.859027099609375
5.317000000000007,5.835049438476563,0.1395172119140625,4.195086669921875
5.326999999999998,4.330117797851563,-0.39058837890625,3.171063232421876
5.337000000000046,4.90179443359375,-0.621771240234375,3.4659484863281254
5.347000000000037,8.811267089843751,1.2788330078125,7.1421447753906255
5.357000000000028,12.926351928710938,1.3064971923828126,8.744573974609375
5.368000000000002,13.2823974609375,0.7298858642578125,7.730270385742188
5.378000000000043,9.115423583984375,0.5336944580078126,9.53247985839844
5.388000000000034,4.584179687500001,-0.1365264892578125,10.840322875976565
5.398000000000025,3.044256591796876,-0.04964599609375,6.44560546875
5.408000000000016,5.11533203125,-0.457281494140625,0.9206939697265626
5.418000000000006,7.643539428710938,-0.5311523437500001,2.3674560546875
5.427999999999997,9.0690673828125,0.7781860351562501,6.292630004882813
5.438000000000045,8.929998779296875,1.2487762451171875,7.321139526367188
5.449000000000012,8.08212890625,0.77698974609375,9.230416870117187
5.458000000000027,8.112185668945314,-0.097796630859375,11.428298950195312
5.468000000000018,8.632421875,0.1244140625,8.632122802734376
5.478000000000009,8.406472778320314,0.92652587890625,3.085079956054688
5.488,7.023861694335938,0.8366546630859376,2.0365325927734377
5.498000000000047,6.408819580078125,0.3126800537109375,4.966842651367188
5.509000000000015,6.130233764648438,-0.069085693359375,5.082733154296875
5.5190000000000055,6.744677734375,-0.1646392822265625,4.737753295898438
5.528999999999996,8.525653076171876,-0.1849761962890625,7.574453735351563
5.539000000000044,10.168905639648438,-0.713287353515625,8.463446044921875
5.549000000000042,9.737493896484375,-0.9583770751953126,6.345565795898438
5.559000000000026,7.330261230468751,-0.51859130859375,6.1182708740234375
5.569000000000017,5.868695068359376,-0.102581787109375,7.603762817382813
5.579000000000008,5.3047943115234375,-0.128302001953125,6.103317260742188
5.588999999999999,5.882153320312501,0.07177734375,4.1698150634765625
5.599000000000046,7.501181030273438,0.5912658691406251,4.775286865234375
5.609000000000037,8.636758422851564,0.5203857421875,5.903836059570313
5.619000000000028,8.666366577148438,0.6129486083984376,6.935934448242188
5.629000000000019,7.999734497070313,0.9965087890625,8.13297119140625
5.640000000000043,7.867843627929688,0.6631927490234375,8.400790405273439
5.650000000000034,7.5737060546875,0.2045654296875,6.455325317382813
5.660000000000025,6.756192016601563,0.10108642578125,4.827474975585938
5.670000000000016,5.41619873046875,0.06220703125,3.9398284912109376
5.680000000000007,3.861920166015625,-0.139068603515625,2.8076904296875003
5.689999999999998,5.492013549804688,-1.080548095703125,3.334954833984375
5.7000000000000455,10.2510009765625,-0.4747772216796875,7.696026611328126
5.710000000000036,13.208825683593751,0.1120025634765625,10.140493774414065
5.720000000000027,12.513482666015626,-0.8973663330078125,8.358172607421876
5.730000000000018,8.220599365234376,-0.444122314453125,10.443453979492189
5.740000000000009,4.5112060546875,0.7481292724609375,10.24322509765625
5.75,3.6854675292968753,1.60841064453125,3.766964721679688
5.760000000000048,5.2280822753906255,1.11553955078125,0.294287109375
5.770000000000039,6.932196044921875,1.0823425292968751,4.603021240234376
5.78000000000003,9.131423950195312,1.4054901123046877,6.768603515625
5.790999999999997,9.4494873046875,0.464459228515625,5.955426025390626
5.801000000000045,8.769696044921876,-0.8179626464843751,9.76575622558594
5.811000000000036,7.985678100585938,-0.6346313476562501,12.812106323242189
5.821000000000026,8.08631591796875,-0.45758056640625,7.636660766601563
5.831000000000017,8.012744140625001,-0.7179229736328125,1.981204223632813
5.841000000000008,7.121658325195313,-0.7135864257812501,3.0038818359375004
5.850999999999999,6.341827392578126,-0.5090209960937501,5.494854736328126
5.861000000000047,6.130682373046875,-0.4167572021484375,4.072915649414063
5.871000000000038,6.90677490234375,0.10048828125,4.814764404296875
5.881000000000029,8.865100097656251,0.465655517578125,8.480792236328126
5.89100000000002,10.096829223632811,0.3500640869140625,8.026651000976564
5.9010000000000105,9.412701416015626,1.1233154296875,5.860769653320313
5.911000000000001,7.188351440429688,1.9369415283203129,6.576748657226563
5.9220000000000255,5.835946655273438,1.047052001953125,7.136013793945313
5.932000000000016,5.391973876953125,0.1088623046875,5.563491821289063
5.942000000000007,5.809478759765625,0.423486328125,4.5925537109375005
5.951999999999998,7.173098754882813,0.41929931640625,5.166323852539063
5.962000000000046,8.730517578125001,-0.459375,5.907125854492188
5.972000000000037,8.867044067382814,-0.9006561279296875,7.055712890625
5.982000000000028,8.368789672851562,-0.7258483886718751,8.393313598632814
5.992000000000019,7.883993530273438,-0.7615875244140625,7.6574462890625
6.0020000000000095,7.693185424804688,-0.7801300048828126,6.540560913085938
6.0120000000000005,6.902139282226563,-0.240753173828125,5.89232177734375
6.022000000000048,6.294723510742188,0.1614990234375,4.981198120117188
6.032000000000039,5.942416381835938,-0.040972900390625,4.060952758789063
6.04200000000003,5.021572875976563,-0.4418792724609375,3.304000854492188
6.052000000000021,6.09808349609375,0.0136077880859375,4.1110473632812505
6.062000000000012,8.925213623046876,1.498651123046875,7.135266113281251
6.073000000000036,11.621798706054689,1.1363250732421877,8.256039428710938
6.083000000000027,12.891510009765629,1.040771484375,8.97216796875
6.093000000000018,8.810369873046875,0.5945556640625,10.237542724609376
6.103000000000009,4.599581909179688,-0.1042266845703125,10.259075927734376
6.113,3.671560668945313,0.3090911865234375,5.360870361328125
6.123000000000047,5.836245727539063,-1.000247192382813,0.7464843750000001
6.133000000000038,7.459310913085938,-0.7762420654296875,3.652420043945313
6.143000000000029,8.167214965820314,1.4617156982421875,6.732565307617188
6.15300000000002,8.5714111328125,1.287356567382813,6.178384399414063
6.163000000000011,8.988916015625001,-0.1449005126953125,8.753695678710939
6.173000000000002,8.735601806640625,-0.4678985595703125,11.542694091796877
6.18300000000005,8.285797119140625,0.677099609375,8.257833862304688
6.1930000000000405,7.870535278320313,0.884954833984375,2.917898559570313
6.203000000000031,6.917242431640625,0.411224365234375,3.715673828125
6.215000000000032,6.329864501953126,0.6108551025390625,6.250311279296875
6.224000000000046,5.8834991455078125,0.3389984130859375,4.068280029296876
6.234000000000037,7.0658813476562505,0.26796875,4.410269165039063
6.244000000000028,9.04215087890625,-0.02332763671875,8.0402587890625
6.254000000000019,9.852188110351562,-0.7888031005859376,7.8153564453125
6.26400000000001,9.510797119140626,-0.5176940917968751,5.390927124023438
6.274000000000001,7.540957641601563,-0.231182861328125,5.976809692382813
6.284000000000049,5.9089202880859375,-0.405841064453125,7.494750976562501
6.29400000000004,5.364907836914063,-0.4975067138671875,6.055017089843751
6.304000000000031,6.0729614257812505,-0.29368896484375,4.347613525390625
6.314999999999998,7.671353149414063,0.00538330078125,5.143594360351563
6.324000000000012,8.422174072265626,0.1589569091796875,6.4826904296875005
6.335000000000036,8.15869140625,0.5803497314453125,7.447198486328125
6.343999999999994,7.866647338867188,0.7242034912109375,8.2388427734375
6.354000000000042,7.702755737304688,0.6853240966796875,8.081231689453126
6.365000000000009,7.775579833984375,0.6799407958984376,6.3415283203125
6.375,7.173098754882813,0.53653564453125,4.4928131103515625
6.385000000000048,6.25419921875,0.389093017578125,4.279125976562501
6.395000000000039,4.436737060546875,0.109161376953125,3.619970703125
6.40500000000003,3.743487548828125,-0.4015045166015625,3.085079956054688
6.4150000000000205,8.218804931640626,-0.6865203857421875,5.803048706054688
6.425000000000011,12.968222045898438,0.17705078125,9.471319580078124
6.435000000000009,14.163763427734375,-0.378924560546875,8.828164672851564
6.44500000000005,10.261318969726563,-1.030303955078125,8.537017822265625
6.455000000000041,5.4647979736328125,-0.2767913818359375,11.134759521484376
6.465000000000032,2.9931152343750003,0.4831512451171875,8.333349609375
6.475000000000023,3.806292724609375,1.440032958984375,1.09041748046875
6.485000000000014,7.07425537109375,0.4667022705078125,0.1966400146484375
6.4950000000000045,8.510699462890626,0.7128387451171876,5.467041015625
6.504999999999996,9.21680908203125,1.672711181640625,8.662628173828125
6.51600000000002,8.205496215820313,0.7663726806640626,8.333648681640625
6.5260000000000105,8.234506225585939,-0.6000885009765625,11.251846313476562
6.536000000000001,8.420379638671875,-0.6809875488281251,11.100665283203126
6.546000000000049,8.347705078125001,-0.18841552734375,4.763174438476563
6.55600000000004,7.369888305664063,-0.2023223876953125,0.4550384521484375
6.566000000000031,6.788342285156251,-0.678594970703125,4.007418823242188
6.576000000000022,5.953781127929688,-0.608013916015625,5.81815185546875
6.586000000000006,6.289788818359376,-0.3946258544921875,4.6236572265625
6.596000000000004,7.841824340820313,0.1009368896484375,6.377267456054688
6.606000000000002,10.233056640625,0.28890380859375,8.787789916992189
6.616000000000035,10.572802734375,0.1499847412109375,7.115676879882813
6.62600000000004,8.176934814453126,0.9640594482421876,5.324832153320313
6.636000000000031,5.861367797851563,1.5931579589843752,7.163079833984376
6.646000000000015,4.9230285644531255,0.796429443359375,6.848754882812501
6.657000000000039,5.524462890625,0.304156494140625,4.495654296875
6.66700000000003,6.941018676757813,0.649884033203125,4.1140380859375005
6.677000000000021,8.360116577148439,0.2429962158203125,5.394366455078125
6.687000000000012,8.972018432617189,-0.4559356689453125,6.923522949218751
6.69700000000001,8.246768188476564,-0.4589263916015625,8.297760009765625
6.707000000000001,7.820141601562501,-0.5479003906250001,8.761621093750001
6.717000000000041,7.705148315429688,-0.8347106933593751,7.338485717773438
6.727000000000039,7.468731689453126,-0.6374725341796875,5.75474853515625
6.73700000000003,6.60770263671875,0.015252685546875,4.930953979492188
6.747000000000014,6.2404418945312505,-0.0814971923828125,4.559655761718751
6.757000000000005,5.5687255859375,-0.4038970947265625,3.843975830078125
6.766999999999996,5.082882690429688,-0.3808685302734375,3.426321411132813
6.777000000000044,6.482241821289063,0.3696533203125,4.857980346679688
6.787000000000042,10.420724487304687,1.68856201171875,8.288040161132812
6.798000000000002,13.715304565429689,1.081146240234375,8.97156982421875
6.80800000000005,11.575143432617187,0.9645080566406252,8.722293090820314
6.8180000000000405,6.933392333984376,0.63223876953125,10.666860961914065
6.828000000000031,3.928314208984376,0.1137969970703125,9.962545776367188
6.838000000000022,4.000689697265625,-0.0737213134765625,3.9399780273437504
6.848000000000013,6.273788452148438,-1.0228271484375,0.14176025390625
6.858000000000004,7.785748291015626,-0.5007965087890626,3.570773315429688
6.868000000000002,8.874819946289064,0.8770294189453126,6.435885620117188
6.878000000000036,8.447296142578125,0.8568420410156251,7.289886474609376
6.888000000000041,8.29566650390625,-0.1224700927734375,9.702203369140626
6.898000000000032,8.880801391601564,-0.43126220703125,11.040103149414064
6.908000000000016,8.771490478515625,0.5118621826171875,7.341326904296875
6.918000000000006,7.371234130859375,1.1551666259765625,3.118426513671875
6.927999999999997,6.268554687500001,0.7298858642578125,4.106411743164063
6.939000000000021,6.279171752929688,0.2136871337890625,5.363861083984375
6.949000000000005,6.308779907226563,0.153424072265625,4.109402465820313
6.959000000000003,7.1526123046875005,0.438739013671875,5.163333129882813
6.969000000000001,9.05994567871094,0.2214630126953125,7.9565185546875
6.979000000000042,10.295114135742187,-0.7212127685546875,7.450338745117188
6.98900000000004,9.31610107421875,-0.715679931640625,5.859274291992188
6.999000000000031,7.0584045410156255,-0.2112945556640625,6.795819091796876
7.009000000000015,5.70689697265625,-0.3952239990234375,7.284802246093751
7.0190000000000055,5.593548583984376,-0.43963623046875,5.562744140625
7.028999999999996,6.391622924804688,-0.0937591552734375,4.385446166992188
7.039000000000044,7.595239257812499,0.026019287109375,4.95562744140625
7.049000000000042,8.503970336914064,0.386700439453125,6.379959106445313
7.059000000000026,8.146578979492189,0.6180328369140625,7.398001098632813
7.069000000000017,7.889974975585938,0.7134368896484375,8.316452026367188
7.079000000000008,7.937826538085938,0.60831298828125,7.699017333984376
7.090000000000032,7.654306030273438,0.497357177734375,6.124401855468751
7.100000000000023,6.6875549316406255,0.590667724609375,4.896261596679688
7.110000000000014,5.041461181640625,0.2715576171875,3.950445556640626
7.1200000000000045,3.718963623046875,-0.2229583740234375,3.360525512695313
7.129999999999996,5.624053955078125,-0.7108947753906251,4.525262451171876
7.140000000000043,11.130572509765626,-0.0429168701171875,7.6685119628906255
7.150000000000041,13.94678649902344,0.1834808349609375,8.192037963867188
7.160000000000032,12.201400756835938,-0.9227874755859377,7.407720947265625
7.170000000000016,7.515087890625001,-0.6557159423828125,10.814901733398438
7.180000000000007,4.17564697265625,0.2423980712890625,10.38319091796875
7.189999999999998,3.4258728027343754,1.0842864990234375,4.223947143554688
7.2000000000000455,5.578744506835938,1.0383789062500002,1.1927001953125
7.210000000000036,7.823431396484375,0.8152709960937501,4.153216552734375
7.221000000000004,9.104058837890626,1.1306427001953123,6.07774658203125
7.232000000000028,8.768649291992189,0.8095886230468751,6.770846557617188
7.241000000000035,8.013491821289064,-0.1112548828125,10.0476318359375
7.25100000000004,8.094091796875,-0.6226684570312501,11.445944213867188
7.268000000000029,8.436080932617188,-0.6664825439453126,6.783407592773438
7.271000000000015,7.944705200195313,-0.249725341796875,2.898309326171875
7.281000000000006,7.368093872070313,-0.238958740234375,3.7723480224609376
7.290999999999997,6.439324951171876,-0.7614379882812501,4.950244140625
7.301000000000045,6.266311645507813,-0.4843475341796875,4.589712524414063
7.3110000000000355,6.871783447265625,0.083740234375,5.908770751953125
7.321000000000026,8.665768432617188,0.2643798828125,8.038314819335938
7.331000000000017,9.948190307617187,0.490478515625,7.405029296875001
7.341000000000008,9.380850219726565,0.820654296875,5.771646118164063
7.350999999999999,7.364804077148438,1.179241943359375,6.476858520507813
7.361000000000047,5.762225341796875,1.0277618408203126,7.104611206054688
7.371000000000038,5.206100463867188,0.486590576171875,5.6165771484375
7.381000000000029,6.262573242187501,0.35948486328125,4.873382568359375
7.391999999999996,7.784701538085938,0.145947265625,4.894766235351563
7.402000000000044,8.756088256835938,-0.1643402099609375,5.7433837890625
7.412000000000042,8.47989501953125,-0.3267364501953125,7.163677978515626
7.4220000000000255,7.7298217773437505,-0.5945556640625,8.468081665039064
7.432000000000016,7.678530883789063,-0.756353759765625,8.188449096679689
7.442000000000007,7.529443359375,-0.7270446777343751,6.259582519531251
7.451999999999998,7.238446044921876,-0.194696044921875,5.474368286132813
7.462000000000046,6.37442626953125,-0.0560760498046875,4.828970336914063
7.472000000000037,5.211184692382813,-0.439935302734375,3.788497924804688
7.482000000000028,4.4329986572265625,-0.58558349609375,3.486135864257813
7.492000000000019,6.4874755859375,0.2576507568359375,5.421731567382813
7.5020000000000095,11.021710205078126,1.8928283691406247,8.467483520507812
7.512,14.376403808593752,0.8164672851562501,8.003173828125
7.523000000000032,11.4879638671875,-0.033795166015625,7.971322631835938
7.533000000000015,6.118121337890625,0.4801605224609375,10.732058715820314
7.543000000000006,3.259140014648438,0.47552490234375,9.254342651367187
7.552999999999997,3.9579223632812495,0.173162841796875,3.329421997070313
7.563000000000045,6.65794677734375,-0.0782073974609375,0.539825439453125
7.573000000000036,8.626739501953125,0.1745086669921875,4.015493774414063
7.583000000000027,9.39385986328125,1.03419189453125,6.639254760742188
7.593000000000018,8.1527099609375,0.9823028564453126,8.219403076171876
7.603000000000009,7.4800964355468755,0.1978363037109375,10.844061279296875
7.612999999999999,8.302844238281251,-0.5467041015625,10.188195800781251
7.623000000000047,8.841323852539062,-0.2797821044921875,5.7960205078125
7.633000000000038,7.414001464843751,1.20047607421875,3.02122802734375
7.644000000000005,6.379959106445313,0.9389373779296876,4.357034301757813
7.653999999999996,6.352145385742188,-0.33077392578125,5.10516357421875
7.664000000000044,6.690396118164063,-0.4281219482421875,4.797268676757813
7.674000000000042,7.341177368164063,0.3225494384765625,6.311920166015626
7.684000000000026,9.311016845703126,0.277838134765625,7.543499755859376
7.694000000000017,10.411154174804688,-0.664837646484375,6.597235107421875
7.704000000000008,9.081179809570314,-0.3787750244140625,6.102120971679688
7.713999999999999,6.581384277343751,0.0121124267578125,6.603665161132813
7.724000000000046,5.328121948242188,-0.1810882568359375,6.782061767578125
7.734000000000037,5.557659912109376,-0.0384307861328125,5.885293579101563
7.744000000000028,6.701760864257813,0.0180938720703125,4.871289062500001
7.7549999999999955,8.223440551757813,-0.084039306640625,4.577450561523438
7.76400000000001,8.751153564453126,0.18243408203125,6.143841552734376
7.774000000000001,7.948892211914063,0.5030395507812501,8.262319946289063
7.785000000000032,7.266708374023438,0.4879364013671875,8.645431518554688
7.795000000000016,7.734158325195313,0.1326385498046875,7.21781005859375
7.805000000000007,7.759280395507813,0.2504730224609375,5.6871582031250005
7.814999999999998,6.932196044921875,0.57960205078125,5.052676391601563
7.825000000000045,5.356533813476563,0.32718505859375,4.208395385742188
7.835000000000036,4.108804321289063,0.0103179931640625,3.5734649658203126
7.845000000000027,4.982992553710938,-0.350213623046875,4.213180541992188
7.855000000000018,10.5357177734375,0.0608612060546875,6.781314086914063
7.865000000000009,14.183352661132814,0.611602783203125,8.362658691406251
7.875,12.228466796875,-0.2833709716796875,7.630230712890626
7.885000000000048,7.643988037109375,-0.4203460693359375,10.411453247070312
7.895000000000039,4.1588989257812505,-0.5145538330078125,10.921072387695313
7.906000000000006,3.6202697753906254,0.3348114013671875,5.981146240234375
7.91500000000002,5.195932006835938,1.3808166503906252,0.8901885986328125
7.925000000000011,8.122802734375,0.23447265625,1.9608673095703129
7.9360000000000355,9.705343627929688,-0.0165985107421875,6.4049316406250005
7.946000000000026,8.514886474609376,0.81885986328125,7.93199462890625
7.956000000000017,7.2258850097656255,0.3769805908203125,9.0044677734375
7.966000000000008,8.171701049804689,-0.72315673828125,10.6960205078125
7.975999999999999,8.855679321289063,-0.919049072265625,8.264712524414064
7.986000000000047,8.1479248046875,0.155218505859375,3.682177734375
7.996000000000038,7.025207519531251,0.4774688720703125,2.165582275390625
8.006000000000029,6.653460693359375,-0.563751220703125,4.949197387695313
8.01600000000002,6.228778076171875,-0.22071533203125,6.181973266601563
8.02600000000001,6.475961303710938,0.401654052734375,5.427862548828125
8.036000000000001,8.44879150390625,0.33555908203125,6.8080810546875
8.04600000000005,10.52734375,0.3683074951171875,7.885189819335938
8.05600000000004,9.571957397460938,0.4137664794921875,6.234011840820313
8.066000000000031,7.102966308593751,0.8780761718750001,5.830563354492188
8.076000000000022,5.591604614257813,0.7768402099609376,7.129733276367188
8.087000000000046,5.3653564453125,0.26976318359375,6.5807861328125
8.097000000000037,6.26676025390625,0.4035980224609375,4.595993041992188
8.107000000000028,7.802496337890625,0.0174957275390625,4.151123046875
8.117000000000019,9.111984252929688,-0.2133880615234375,5.860769653320313
8.12700000000001,8.355032348632813,-0.259295654296875,7.287045288085938
8.137,7.349850463867188,-0.3859527587890625,8.343218994140626
8.147000000000048,7.478152465820313,-0.41690673828125,8.362658691406251
8.157000000000039,7.648773193359376,-0.616986083984375,6.685162353515626
8.16700000000003,7.256689453125,-0.098992919921875,5.258587646484376
8.177000000000021,6.694583129882813,0.399261474609375,4.778875732421875
8.187000000000012,5.750711059570313,-0.0255706787109375,4.385296630859376
8.19700000000001,5.10516357421875,-0.270062255859375,3.579147338867188
8.207,5.662783813476563,0.20875244140625,4.477560424804688
8.217000000000041,9.4710205078125,1.1979339599609375,7.210931396484375
8.228000000000009,13.073345947265626,1.3389465332031252,7.754345703125001
8.238,12.647915649414063,1.457379150390625,8.490213012695314
8.248000000000047,7.998538208007813,0.28232421875,10.354330444335938
8.258000000000038,3.818405151367188,-0.3351104736328125,10.482034301757814
8.268000000000029,3.8190032958984377,-0.0189910888671875,5.838787841796876
8.27800000000002,5.915200805664063,-1.6241119384765623,0.98873291015625
8.288000000000011,7.6236511230468755,-1.3026092529296875,3.182876586914063
8.298000000000002,8.332452392578126,0.6256591796875001,5.449993896484376
8.30800000000005,8.697918701171876,0.2800811767578125,6.052325439453125
8.31800000000004,8.650814819335938,-0.0133087158203125,9.715512084960938
8.328000000000031,8.126242065429688,0.5516387939453126,11.75892333984375
8.338000000000022,8.457315063476564,0.868505859375,7.632324218750001
8.348000000000013,8.389575195312501,0.8916839599609375,3.730178833007813
8.359000000000037,7.130630493164063,1.2030181884765625,4.575656127929688
8.369000000000028,6.0968872070312505,1.19150390625,4.66552734375
8.379000000000019,6.338836669921876,0.3170166015625,3.211737060546876
8.38900000000001,6.9851318359375005,0.031402587890625,5.4244232177734375
8.399000000000001,8.135214233398438,0.268865966796875,8.307778930664064
8.409000000000049,9.601715087890623,-0.536236572265625,6.899896240234376
8.41900000000004,10.080380249023438,-1.2359161376953125,5.530892944335938
8.42900000000003,8.163775634765626,-1.00009765625,7.289288330078126
8.439000000000021,5.822637939453125,-0.6485382080078126,7.454974365234375
8.450000000000045,5.299261474609375,-0.5462554931640625,5.636914062500001
8.459000000000003,6.012548828125,-0.3075958251953125,4.888037109375
8.469000000000001,7.449591064453125,0.1879669189453125,5.272494506835938
8.479000000000042,8.426959228515626,0.3428863525390625,5.177090454101563
8.48900000000004,8.333499145507814,0.8163177490234376,6.594094848632813
8.49900000000003,7.812664794921876,1.3165161132812502,8.759527587890625
8.510000000000048,7.5162841796875,0.9706390380859377,8.339779663085938
8.520000000000039,7.799655151367188,0.799420166015625,6.6142822265625005
8.53000000000003,7.2991577148437505,0.8895904541015626,5.514593505859375
8.54000000000002,6.804791259765626,0.5112640380859376,5.096041870117188
8.550000000000011,6.0424560546875,-0.191107177734375,4.34970703125
8.56000000000001,4.420437622070313,-0.5531341552734376,3.70430908203125
8.57000000000005,4.384548950195313,-0.5824432373046875,4.188357543945313
8.580000000000041,9.142788696289063,-1.14544677734375,6.611590576171875
8.590000000000032,13.81997985839844,-0.5372833251953125,8.373873901367189
8.600000000000023,13.230957031250002,-0.2860626220703125,7.930648803710938
8.610000000000014,9.078787231445313,-1.0274627685546875,9.635360717773438
8.620000000000005,4.895663452148438,-0.0001495361328125,11.314202880859376
8.629999999999995,3.980950927734375,1.4306121826171876,7.122555541992188
8.640000000000043,4.2924346923828125,1.7889007568359376,0.6540710449218751
8.65100000000001,7.0377685546875,1.5140533447265625,1.2499725341796877
8.661000000000001,8.963943481445312,1.07486572265625,5.826824951171876
8.67100000000005,8.774929809570313,0.9491058349609376,6.505270385742188
8.68100000000004,7.933789062500001,0.213238525390625,8.93927001953125
8.691000000000031,8.022613525390625,-1.161297607421875,12.088052368164064
8.701000000000022,8.918933105468751,-1.2058593750000002,10.216159057617189
8.711000000000006,8.605355834960939,-0.6017333984375001,4.248171997070313
8.721000000000004,7.384094238281251,-0.3289794921875,1.562353515625
8.733000000000004,6.716564941406251,-0.7070068359375,4.510757446289063
8.741000000000035,5.9395751953125,-0.5327972412109375,4.911215209960938
8.75100000000004,6.082232666015625,-0.027813720703125,4.108206176757813
8.761000000000031,7.793225097656251,0.2619873046875,6.666619873046876
8.771000000000015,10.281655883789064,0.639715576171875,8.42725830078125
8.781000000000006,10.175186157226562,0.9604705810546876,6.69742431640625
8.79200000000003,7.95352783203125,1.29737548828125,6.206497192382813
8.802000000000021,6.183468627929688,1.380517578125,7.926312255859376
8.812000000000012,5.4203857421875,0.471337890625,6.879409790039063
8.82200000000001,5.53642578125,0.2717071533203125,4.471279907226563
8.833000000000027,6.846212768554688,0.28651123046875,4.219461059570313
8.842000000000041,8.336489868164064,-0.2441925048828125,5.428460693359376
8.85200000000004,8.608944702148438,-0.5812469482421876,6.4850830078125
8.86200000000003,8.007809448242188,-0.5827423095703126,8.013641357421875
8.872000000000014,7.868142700195313,-0.5704803466796875,8.525653076171876
8.882000000000005,8.148672485351563,-0.922039794921875,7.225585937500001
8.891999999999996,7.308578491210938,-0.7403533935546875,5.441619873046875
8.902000000000044,5.904135131835938,-0.1256103515625,4.4359893798828125
8.912000000000042,4.015493774414063,-0.5498443603515626,2.934197998046875
8.922000000000025,5.044302368164063,-0.478814697265625,3.617877197265625
8.93300000000005,8.760873413085939,1.3663116455078126,7.322933959960938
8.94300000000004,12.676028442382814,1.3349090576171876,8.129830932617189
8.953000000000031,12.76246032714844,0.9543395996093752,7.416543579101563
8.963000000000022,8.985775756835938,0.7750457763671875,10.662673950195312
8.973000000000013,4.8756256103515625,0.6057708740234375,10.801593017578126
8.983000000000004,3.381460571289063,0.5010955810546875,5.1776885986328125
8.993000000000002,5.1682678222656255,-0.260791015625,1.110903930664063
9.003000000000036,7.286297607421876,-0.10108642578125,3.747824096679688
9.01300000000004,8.934933471679688,1.0143035888671876,5.592800903320313
9.023000000000032,8.866146850585938,0.9162078857421876,5.417095947265626
9.033000000000015,8.693582153320314,-0.34991455078125,9.545938110351564
9.043000000000006,8.139102172851564,-0.7108947753906251,12.176129150390626
9.05400000000003,8.339779663085938,-0.121124267578125,8.541354370117189
9.06400000000002,7.96190185546875,0.3578399658203125,3.290093994140625
9.074000000000003,7.27164306640625,0.3034088134765625,3.613241577148438
9.084000000000003,6.536822509765625,0.4689453125,5.334402465820313
9.094,6.168963623046875,0.32239990234375,3.7473754882812496
9.104000000000042,6.743032836914063,0.2794830322265625,4.6718078613281255
9.11400000000004,8.476156616210938,0.4598236083984375,8.063137817382813
9.12400000000003,9.851141357421875,-0.022430419921875,7.543499755859376
9.134000000000016,9.822579956054687,-0.25540771484375,5.672503662109375
9.144000000000004,7.7552429199218755,0.133984375,6.503176879882813
9.153999999999996,6.042007446289063,-0.0776092529296875,7.597482299804688
9.164000000000044,5.39586181640625,-0.512310791015625,5.813067626953125
9.174000000000042,5.882901000976563,-0.3680084228515625,4.6573028564453125
9.184000000000026,7.280166625976563,-0.0773101806640625,5.367449951171875
9.194000000000017,8.434585571289062,-0.1912567138671875,5.7697021484375
9.204000000000008,8.474511718750001,-0.019140625,6.833053588867188
9.214,7.795169067382813,0.5076751708984375,8.405276489257814
9.224000000000046,7.718756103515625,0.37503662109375,8.304190063476563
9.235000000000014,7.734457397460938,0.2920440673828125,6.483737182617188
9.245000000000005,7.158892822265625,0.586181640625,4.989422607421876
9.254999999999995,5.759533691406251,0.5879760742187501,4.0796447753906255
9.265000000000043,4.094149780273438,0.2579498291015625,3.1055664062500004
9.27500000000004,4.073812866210938,-0.4221405029296875,3.238055419921875
9.285000000000032,9.773980712890626,0.081048583984375,6.946102905273438
9.295000000000016,14.131164550781252,0.8146728515625,9.43692626953125
9.305000000000009,13.524047851562502,-0.7245025634765625,7.833599853515626
9.314999999999998,8.23944091796875,-0.6419586181640625,10.076641845703126
9.325000000000044,3.886444091796875,0.15850830078125,11.586209106445311
9.335000000000036,3.1075103759765628,0.3671112060546875,5.980847167968751
9.345000000000027,5.3178039550781255,0.786260986328125,0.1894622802734375
9.356000000000002,7.742382812500001,0.408233642578125,1.1101562500000002
9.366000000000035,9.509152221679688,0.337353515625,6.945953369140626
9.37600000000004,8.958560180664064,0.850262451171875,7.305886840820313
9.386000000000031,7.681072998046876,0.285614013671875,9.207388305664065
9.396000000000017,7.8987976074218755,-0.5588165283203126,11.498880004882814
9.406000000000006,8.721246337890626,-0.5630035400390625,8.783602905273439
9.415999999999997,8.306732177734375,0.0985443115234375,3.3582824707031254
9.426000000000045,6.8026977539062505,0.3098388671875,2.1271514892578125
9.436000000000035,6.411062622070313,-0.3180633544921875,5.205203247070313
9.446000000000026,6.247918701171876,-0.4448699951171875,5.545248413085938
9.456000000000016,6.6441894531250005,0.02572021484375,4.882653808593751
9.466000000000008,8.447744750976563,0.4988525390625,7.132275390625001
9.476,10.50042724609375,0.1287506103515625,7.923919677734376
9.486000000000049,10.019668579101562,0.0442626953125,6.078195190429688
9.496000000000038,7.217062377929688,0.9980041503906252,6.222796630859375
9.506000000000029,5.493658447265625,1.0041351318359375,7.363458251953125
9.516999999999996,5.3900299072265625,0.015252685546875,6.430502319335938
9.527000000000044,5.9922119140625005,0.1167877197265625,4.717715454101563
9.537000000000042,7.466488647460938,0.5685363769531251,4.478158569335938
9.547000000000024,8.867791748046876,-0.1024322509765625,5.420086669921876
9.557000000000016,8.737844848632813,-0.3868499755859375,7.044497680664063
9.567000000000007,7.775430297851563,-0.0267669677734375,8.652459716796876
9.576999999999998,7.5318359375,-0.2962310791015625,7.908517456054688
9.587000000000046,7.765859985351563,-0.63941650390625,6.541458129882813
9.597000000000037,7.155303955078126,-0.09510498046875,5.823086547851563
9.607000000000028,6.370089721679688,0.1451995849609375,5.019778442382813
9.61700000000002,5.3477111816406255,-0.4915252685546875,3.677542114257813
9.62700000000001,4.545300292968751,-0.9017028808593752,3.32030029296875
9.637,5.887835693359375,-0.3265869140625,4.624853515625
9.65000000000004,10.57340087890625,1.5825408935546876,7.801300048828126
9.658000000000015,14.409750366210938,0.624462890625,8.055960083007813
9.668000000000006,12.333740234375002,0.0001495361328125,8.238543701171876
9.677999999999995,6.681274414062501,0.5982940673828125,11.082421875
9.688000000000043,3.348562622070313,0.5405731201171875,10.677178955078126
9.698000000000036,3.4016479492187504,0.7360168457031251,4.667620849609375
9.708000000000029,6.377566528320313,-0.048150634765625,0.0324493408203125
9.718000000000018,8.348901367187501,0.1308441162109375,2.487982177734376
9.728000000000009,9.413150024414064,1.19329833984375,6.7865478515625
9.738,8.07734375,1.3842559814453126,8.079736328125001
9.75,7.463348388671876,0.5342926025390625,10.191485595703126
9.758000000000038,8.48587646484375,-0.8713470458984376,10.692431640625
9.768000000000027,9.222640991210938,-0.4493560791015625,7.082180786132813
9.778999999999996,7.988519287109375,1.01624755859375,2.821896362304688
9.789000000000044,6.454876708984376,0.5615081787109375,2.964254760742188
9.799000000000042,6.349752807617188,-0.6299957275390625,5.317654418945313
9.809000000000026,6.19139404296875,-0.5040863037109375,5.172006225585938
9.819000000000017,6.884494018554688,0.1179840087890625,5.4314514160156255
9.829000000000008,8.849398803710939,0.16688232421875,7.354336547851563
9.839,10.687197875976564,-0.4194488525390625,7.6924377441406255
9.850000000000025,9.26944580078125,-0.37384033203125,6.118569946289063
9.859000000000036,6.632824707031251,0.011663818359375,6.456222534179688
9.869000000000028,5.298513793945313,0.2818756103515625,7.580136108398438
9.87900000000002,5.587417602539063,0.0650482177734375,6.081784057617188
9.88900000000001,6.710583496093751,-0.048748779296875,4.129141235351563
9.899,8.05341796875,0.263482666015625,4.419839477539063
9.909000000000049,8.900689697265626,0.410028076171875,6.120962524414063
9.91900000000004,8.164224243164064,0.34991455078125,7.575650024414063
9.92900000000003,7.487423706054688,0.4487579345703125,8.595935058593751
9.939999999999998,7.569070434570313,0.2648284912109375,7.564584350585938
9.950000000000044,7.569369506835938,-0.121722412109375,5.7519073486328125
9.960000000000036,6.35648193359375,0.1431060791015625,4.459765625
9.971000000000004,4.267163085937501,0.34871826171875,3.6578033447265614
9.980000000000018,4.05003662109375,-0.3470733642578125,3.2773834228515626
9.990000000000007,8.536270141601562,-0.6539215087890625,6.142944335937501
10.0,12.46936950683594,0.3832611083984375,9.082376098632814
10.010000000000048,12.739581298828126,-0.26796875,7.242483520507813
10.02000000000004,9.937274169921876,-0.340643310546875,8.825473022460939
10.03000000000003,6.27872314453125,0.3219512939453125,10.858267211914065
10.04000000000002,3.957623291015625,0.65496826171875,6.873727416992188
10.050000000000011,3.805395507812501,1.6016815185546875,2.283566284179688
10.06000000000001,6.1895996093750005,0.9676483154296877,3.5214263916015627
10.071000000000026,8.8106689453125,0.265875244140625,5.692242431640626
10.081000000000016,9.419580078125,0.8321685791015626,5.320196533203125
10.091000000000008,8.675189208984376,-0.2349212646484375,7.730120849609375
10.101,8.286993408203125,-0.9174041748046876,11.759820556640626
10.111000000000049,8.029342651367188,-0.7301849365234375,9.982583618164064
10.121000000000038,7.722045898437501,-0.5301055908203125,4.343276977539063
10.131000000000029,7.558901977539063,-0.2385101318359375,2.538076782226563
10.14100000000002,7.175341796875,-0.6271545410156251,4.870690917968751
10.15100000000001,6.4049316406250005,-0.1583587646484375,4.752108764648438
10.161,6.363659667968751,0.21712646484375,4.1708618164062505
10.17100000000005,7.827468872070313,0.0964508056640625,7.183416748046875
10.18100000000004,9.518423461914065,0.6449493408203125,8.807528686523439
10.191000000000033,9.5236572265625,1.04794921875,6.461904907226563
10.201000000000022,8.314208984375,1.3509094238281252,5.6203155517578125
10.211000000000006,6.851147460937501,0.96839599609375,7.180575561523438
10.222000000000037,5.664578247070313,0.1795928955078125,6.738397216796876
10.232000000000028,5.1896514892578125,0.447711181640625,4.7495666503906255
10.24200000000002,6.640301513671876,0.169873046875,4.8031005859375
10.25200000000001,8.466885375976563,-0.3910369873046875,5.704653930664063
10.262,9.003421020507814,-0.4942169189453125,6.203506469726563
10.272000000000048,8.220748901367188,-0.506329345703125,7.229324340820313
10.28200000000004,7.928704833984375,-0.5390777587890625,8.291180419921876
10.29200000000003,7.658642578125001,-0.7744476318359376,7.680325317382813
10.30200000000002,6.969281005859376,-0.3935791015625,6.0448486328125
10.312000000000012,6.302947998046876,0.0644500732421875,4.9657958984375
10.32200000000001,5.718411254882813,-0.1281524658203125,4.035382080078126
10.332,4.9982452392578125,-0.160003662109375,3.1127441406250003
10.34200000000004,5.649026489257813,0.0841888427734375,4.233367919921875
10.353000000000009,9.7222412109375,1.8674072265625,8.101419067382814
10.363,13.754333496093752,1.184625244140625,8.620458984375
10.373000000000047,12.521109008789065,-0.43126220703125,8.050576782226564
10.383000000000038,7.323532104492188,-0.0478515625,10.4125
10.393000000000027,3.9148559570312496,-0.04964599609375,9.483880615234376
10.40300000000002,3.608905029296875,-0.2017242431640625,3.9746704101562496
10.413000000000013,5.6348205566406255,-0.2130889892578125,1.3035064697265626
10.423000000000002,7.297213745117188,0.815869140625,3.8731353759765614
10.43300000000005,9.38294372558594,1.601382446289063,5.74039306640625
10.44300000000004,9.099423217773438,0.9356475830078126,7.695877075195313
10.453000000000031,7.9804443359375,0.475823974609375,11.477197265625
10.463000000000022,8.030987548828126,-0.06998291015625,11.294314575195314
10.473000000000011,8.861660766601563,-0.3680084228515625,5.91923828125
10.483000000000004,8.082577514648438,0.4086822509765625,2.716473388671876
10.493000000000002,6.498092651367188,0.8444305419921876,4.168020629882813
10.50400000000002,6.026156616210938,0.496759033203125,4.175796508789063
10.51400000000001,6.606655883789063,-0.3911865234375,3.763525390625
10.524,7.322036743164063,-0.3518585205078125,6.54130859375
10.534000000000049,8.893063354492188,0.0686370849609375,8.411557006835938
10.54400000000004,10.338031005859376,-0.4197479248046875,6.731668090820313
10.55400000000003,9.698464965820314,-0.4510009765625,5.892620849609376
10.56400000000002,7.340728759765626,-0.0456085205078125,7.207043457031251
10.574000000000003,5.135968017578126,-0.0968994140625,6.492260742187501
10.584000000000003,5.065386962890625,-0.1819854736328125,5.403787231445313
10.594,6.034680175781251,0.0587677001953125,5.166622924804688
10.604000000000042,7.713821411132813,0.1508819580078125,4.991665649414063
10.61400000000004,8.897698974609376,0.0016448974609375,5.473919677734376
10.62400000000003,8.585018920898438,0.3249420166015625,7.874572753906251
10.634000000000016,7.790234375000001,0.9052917480468752,9.339578247070314
10.644000000000004,7.571313476562499,0.4667022705078125,7.627688598632813
10.65500000000003,7.761672973632813,0.1039276123046875,5.850750732421876
10.66500000000002,7.086965942382813,0.3874481201171875,5.403936767578125
10.675000000000011,6.0165863037109375,0.33436279296875,4.768109130859376
10.68500000000001,5.039068603515625,0.01495361328125,3.7916381835937503
10.69500000000005,4.278677368164063,-0.6210235595703125,3.6376159667968753
10.70500000000004,5.970230102539063,-0.7242034912109375,4.567730712890626
10.715000000000032,12.129473876953126,-0.0611602783203125,7.391571044921876
10.725000000000025,15.065615844726564,0.272454833984375,8.996691894531251
10.735000000000014,12.001919555664063,-0.1155914306640625,8.896203613281251
10.745000000000005,5.571566772460938,-0.37982177734375,10.29212341308594
10.754999999999995,3.258541870117188,0.554779052734375,10.586859130859375
10.765000000000043,3.849957275390625,1.4941650390625,4.350006103515625
10.77500000000004,5.844021606445313,1.4075836181640626,-0.5190399169921875
10.785000000000032,8.544046020507814,0.9674987792968752,1.003387451171875
10.79600000000005,9.50870361328125,0.31043701171875,5.642745971679688
10.80600000000004,8.055810546875001,0.43126220703125,11.804830932617188
10.816000000000033,7.07724609375,0.453094482421875,10.056454467773438
10.826000000000022,8.761172485351564,-1.7284881591796877,10.299002075195313
10.836000000000006,9.684707641601562,-1.756900024414063,7.5399108886718755
10.846000000000004,7.690493774414063,-0.16329345703125,3.0086669921875
10.857000000000028,6.078045654296876,0.08792724609375,1.7395538330078126
10.86700000000002,6.1596923828125005,-0.76083984375,4.804296875
10.87600000000004,6.196328735351563,-0.5263671875,6.1644775390625
10.887,6.92711181640625,0.7378112792968751,5.63272705078125
10.896000000000017,9.551919555664064,0.93489990234375,6.518130493164063
10.906000000000006,11.301641845703124,0.578704833984375,7.80458984375
10.915999999999997,9.553564453125,0.9830505371093752,7.014739990234376
10.926000000000045,6.164776611328126,1.2646270751953126,6.178085327148438
10.937000000000012,5.052227783203126,1.0279113769531252,6.835147094726563
10.94700000000001,5.397357177734375,0.5103668212890625,6.266610717773438
10.957,6.178833007812501,0.09989013671875,4.0950469970703125
10.96700000000004,7.85782470703125,-0.071478271484375,3.9651000976562494
10.97700000000004,9.06727294921875,-0.6002380371093751,6.049334716796875
10.98700000000003,8.592047119140625,-0.7355682373046876,8.085269165039064
10.997000000000014,7.6326232910156255,-0.6781463623046875,8.789584350585939
11.007000000000003,7.67239990234375,-0.9242828369140624,7.890573120117188
11.016999999999996,7.957565307617188,-0.6113037109375,6.26077880859375
11.027000000000044,6.892419433593751,-0.27574462890625,4.738650512695313
11.037000000000042,5.477508544921875,0.0393280029296875,4.222601318359375
11.047000000000024,3.9938110351562495,0.169873046875,3.6455413818359377
11.05800000000005,4.918392944335938,0.0022430419921875,3.907827758789063
11.06800000000004,9.469973754882814,1.648785400390625,7.239193725585938
11.078000000000031,13.695266723632814,1.7114410400390627,8.314657592773438
11.088000000000022,12.79356384277344,1.002191162109375,7.558453369140626
11.098000000000011,8.662628173828125,0.318511962890625,10.027444458007814
11.108000000000004,4.207498168945313,-0.47373046875,10.345657348632812
11.118000000000002,3.296524047851563,-0.3629241943359375,5.984286499023438
11.128000000000036,5.069723510742188,-0.4296173095703125,1.3358062744140626
11.13800000000004,7.685858154296875,-0.5419189453125001,2.4087280273437504
11.15000000000004,9.3119140625,0.334063720703125,5.273690795898438
11.158000000000015,9.13770446777344,0.5505920410156251,6.9372802734375005
11.168000000000006,8.055960083007813,0.18662109375,9.791476440429689
11.177999999999995,7.769897460937501,-0.019140625,11.69013671875
11.188000000000043,8.335742187500001,0.26856689453125,8.337835693359375
11.198000000000036,8.39735107421875,1.0099670410156252,3.6181762695312494
11.208000000000029,6.94266357421875,1.222607421875,2.891131591796875
11.218000000000018,6.387585449218751,0.8540008544921875,4.892822265625
11.229000000000042,6.18900146484375,0.4009063720703125,4.488476562500001
11.23900000000004,6.839184570312501,0.04366455078125,5.155706787109375
11.25,8.457315063476564,0.0465057373046875,7.698120117187501
11.259000000000016,10.071856689453126,-0.542816162109375,7.729672241210938
11.269000000000004,10.08232421875,-0.8085418701171876,6.027203369140626
11.278999999999996,7.902835083007813,-0.600537109375,6.315658569335938
11.289000000000044,5.912359619140625,-0.5887237548828126,7.321139526367188
11.299000000000042,5.111294555664063,-0.4892822265625,5.94974365234375
11.309000000000026,5.8595733642578125,-0.3313720703125,4.708892822265625
11.319000000000017,7.296316528320313,0.1075164794921875,4.847064208984375
11.329000000000008,8.605804443359375,0.367559814453125,5.685064697265625
11.339,8.651113891601563,0.4308135986328125,6.756640625
11.350000000000025,7.947396850585938,0.8843566894531251,8.30643310546875
11.360000000000014,7.515386962890625,1.0424163818359375,8.570663452148438
11.370000000000005,7.480844116210938,0.6735107421875001,6.540560913085938
11.379999999999995,6.697274780273438,0.48031005859375,4.562796020507813
11.390000000000043,4.692892456054688,0.5384796142578125,3.351852416992188
11.40000000000004,3.824386596679688,0.1487884521484375,3.147286987304688
11.410000000000032,6.956271362304688,-0.8369537353515626,4.864859008789063
11.420000000000016,12.12244567871094,0.46834716796875,8.6431884765625
11.430000000000009,13.28419189453125,-0.27454833984375,7.963247680664063
11.439999999999998,11.01722412109375,-1.34403076171875,8.710330200195314
11.451000000000022,6.5951416015625,-0.329278564453125,11.354577636718751
11.460000000000036,4.042559814453125,-0.2930908203125,8.358322143554688
11.470000000000027,3.87119140625,0.757550048828125,2.4746734619140627
11.481000000000002,6.21292724609375,0.4406829833984375,2.2162750244140628
11.491000000000035,7.937677001953125,0.744390869140625,5.0715179443359375
11.50100000000004,9.182415771484376,1.281375122070313,5.511752319335938
11.511000000000031,8.661431884765626,0.1769012451171875,7.162182617187501
11.521000000000017,8.331854248046875,-0.0303558349609375,11.115170288085938
11.531000000000006,8.287442016601563,-0.04844970703125,10.630822753906251
11.540999999999997,8.332901000976562,-0.100189208984375,5.303598022460938
11.551000000000045,7.621109008789063,0.235369873046875,2.902944946289063
11.561000000000035,6.840679931640626,-0.3443817138671875,4.686312866210938
11.571000000000026,6.260928344726563,-0.32479248046875,4.714425659179688
11.581000000000016,6.426016235351563,-0.298773193359375,4.2894439697265625
11.591000000000008,7.458712768554688,-0.16448974609375,6.5739074707031255
11.601,9.191238403320312,0.08792724609375,8.274581909179688
11.611000000000049,9.893310546875,0.122320556640625,6.856680297851563
11.621000000000038,8.725582885742188,0.5641998291015625,5.995651245117188
11.631000000000029,6.9447570800781255,0.95882568359375,7.296316528320313
11.64100000000002,5.512350463867188,0.5612091064453125,6.417492675781251
11.652000000000044,5.597137451171875,0.2141357421875,5.050283813476563
11.662000000000042,6.525607299804688,0.421990966796875,4.988076782226563
11.672000000000024,7.91165771484375,0.396270751953125,5.1398559570312505
11.682000000000016,8.791827392578126,0.0393280029296875,5.8175537109375
11.692000000000007,8.407519531250001,-0.1661346435546875,7.635165405273438
11.701999999999998,7.895956420898438,-0.1248626708984375,8.747415161132814
11.712000000000046,7.69632568359375,-0.5259185791015626,7.333251953125001
11.722000000000037,7.457516479492188,-0.4175048828125,5.939126586914063
11.732000000000028,6.861465454101563,0.00777587890625,5.756393432617188
11.74200000000002,6.225637817382813,-0.162396240234375,4.918392944335938
11.754999999999995,5.576501464843751,-0.5031890869140625,3.759786987304688
11.76300000000004,4.59674072265625,-0.5852844238281251,3.704608154296875
11.773000000000032,6.166271972656251,0.016748046875,5.398104858398438
11.783000000000015,11.14881591796875,1.3061981201171875,8.200262451171875
11.793000000000006,14.399133300781251,0.48509521484375,7.930050659179688
11.802999999999995,11.502169799804689,0.250323486328125,7.906423950195313
11.813000000000043,6.274536132812501,0.56524658203125,10.679421997070314
11.823000000000036,3.6062133789062494,0.2474822998046875,9.793121337890623
11.833000000000029,4.030596923828125,0.185125732421875,3.7938812255859378
11.843000000000018,6.174197387695313,-0.071478271484375,0.168975830078125
11.853000000000009,8.338134765625,0.0198883056640625,3.284112548828125
11.863,9.171051025390623,1.1654846191406252,7.162033081054688
11.873000000000047,8.11024169921875,1.4958099365234376,8.333349609375
11.883000000000038,7.627090454101563,0.4759735107421875,10.20733642578125
11.893000000000027,8.784799194335939,-0.7016235351562501,10.529437255859376
11.90300000000002,9.134564208984376,-0.1161895751953125,6.9627014160156255
11.913000000000013,7.411309814453125,1.2072052001953126,2.9455627441406254
11.923000000000002,6.494503784179688,0.5748168945312501,3.089865112304688
11.93300000000005,6.530392456054688,-0.5004974365234376,5.070172119140626
11.944000000000017,6.359024047851563,-0.4083831787109375,4.988674926757813
11.954000000000008,6.968832397460938,0.2181732177734375,5.658447265625
11.964,9.116320800781253,-0.032000732421875,7.596884155273438
11.974000000000046,10.756881713867188,-0.6548187255859376,7.450338745117188
11.984000000000036,9.419131469726564,-0.5326477050781251,5.959463500976563
11.994000000000028,6.615179443359375,-0.1137969970703125,6.329415893554688
12.00400000000002,5.351449584960938,0.161798095703125,7.380206298828125
12.01400000000001,5.516387939453125,0.0788055419921875,5.922677612304688
12.024,6.548336791992188,0.026318359375,4.020278930664063
12.034000000000049,8.076745605468751,0.2274444580078125,4.5829833984375
12.04400000000004,8.671450805664064,0.445916748046875,6.4635498046875
12.05400000000003,7.984332275390625,0.6036773681640626,7.98642578125
12.064999999999998,7.350448608398438,0.533544921875,8.74427490234375
12.075000000000044,7.745523071289063,0.1715179443359375,7.772140502929688
12.085000000000036,7.772738647460938,0.115142822265625,5.795571899414063
12.095000000000027,6.935037231445313,0.21533203125,4.2640228271484375
12.105000000000018,5.14404296875,0.13099365234375,3.5093139648437504
12.115000000000007,3.761581420898438,-0.2684173583984375,3.4586212158203127
12.125,5.734262084960938,-0.9212921142578124,4.849456787109375
12.135000000000048,11.692977905273438,0.3099884033203125,8.558700561523438
12.14500000000004,13.709921264648438,0.4246826171875,8.629730224609375
12.15500000000003,11.634359741210938,-0.8124298095703125,7.74058837890625
12.16700000000003,7.2291748046875,-0.128900146484375,10.843014526367188
12.175000000000011,4.006072998046875,0.275445556640625,9.071759033203126
12.18500000000001,3.3886383056640628,1.1122497558593751,3.110052490234376
12.19500000000005,5.726336669921875,1.1571105957031251,1.7006744384765626
12.20500000000004,8.181121826171875,0.6237152099609375,4.599282836914063
12.215000000000032,9.807028198242188,1.011163330078125,5.909817504882813
12.225000000000025,8.798855590820313,0.4726837158203125,7.147079467773438
12.236000000000049,7.946200561523438,-0.3916351318359375,10.919577026367188
12.246000000000038,7.912255859375,-0.7191192626953126,11.331549072265624
12.256000000000029,8.212075805664064,-0.6826324462890625,6.00596923828125
12.266999999999996,7.620510864257813,-0.049945068359375,2.515646362304688
12.27600000000001,7.197024536132813,-0.392681884765625,4.037924194335938
12.286,6.541458129882813,-0.441729736328125,4.878466796875
12.29600000000005,6.510205078125001,-0.135479736328125,4.2296295166015625
12.30600000000004,7.057357788085938,0.029608154296875,6.039166259765626
12.316000000000033,9.039309692382814,0.308642578125,8.616571044921876
12.326000000000022,9.797607421875,0.593359375,7.321139526367188
12.336000000000006,9.009851074218751,1.0454071044921875,5.403189086914063
12.346000000000004,7.178631591796876,1.0651458740234376,6.621310424804688
12.356000000000002,5.78226318359375,0.5187408447265626,7.171304321289063
12.369000000000028,5.22479248046875,0.453094482421875,5.400198364257813
12.37700000000001,6.255694580078125,0.362774658203125,4.584478759765625
12.387,7.992257690429688,-0.0749176025390625,5.321542358398438
12.397000000000048,8.880352783203126,-0.423785400390625,6.346313476562501
12.40700000000004,8.375070190429689,-0.350811767578125,7.05870361328125
12.41700000000003,7.861862182617188,-0.39656982421875,8.1311767578125
12.42700000000002,7.683166503906251,-0.731231689453125,8.010501098632814
12.437000000000012,7.458712768554688,-0.5480499267578125,6.338986206054688
12.44700000000001,6.90916748046875,-0.0007476806640625,5.301055908203125
12.457,6.492260742187501,0.290997314453125,5.0042266845703125
12.46700000000004,6.535626220703126,0.107366943359375,4.752108764648438
12.47700000000004,5.485882568359376,-0.11185302734375,3.9534362792968754
12.488,4.54051513671875,-0.1338348388671875,3.696383666992188
12.497000000000014,7.701858520507813,0.9565826416015626,6.372183227539063
12.508000000000038,13.183255004882811,1.3984619140625,9.230117797851562
12.518000000000027,14.464480590820314,0.4191497802734375,8.11383056640625
12.52800000000002,9.307876586914062,-0.0112152099609375,8.593692016601564
12.538000000000013,4.266864013671875,-0.1580596923828125,11.137451171875
12.548000000000002,3.279925537109375,-0.110955810546875,8.706442260742188
12.55800000000005,4.29886474609375,-0.1854248046875,1.466650390625
12.56800000000004,7.2626708984375,-0.5030395507812501,-0.0698333740234375
12.578000000000031,9.371878051757813,0.0681884765625,2.811279296875
12.588000000000022,9.536367797851565,0.9585266113281252,8.558999633789064
12.598000000000011,7.488171386718751,1.2940856933593752,9.112432861328124
12.608000000000004,7.351495361328125,0.331671142578125,11.336184692382814
12.618000000000002,9.151312255859375,-0.1960418701171875,10.206887817382814
12.628000000000036,8.86749267578125,0.6003875732421875,5.284008789062501
12.63800000000004,6.442913818359376,1.46365966796875,2.08214111328125
12.649,6.440969848632813,0.6660339355468751,4.2695556640625005
12.659000000000049,6.4841857910156255,-0.5492462158203125,5.0416107177734375
12.66900000000004,6.4731201171875,-0.3623260498046875,4.5076171875
12.67900000000003,7.4875732421875005,0.3222503662109375,6.412109375000001
12.68900000000002,10.083370971679688,-0.3548492431640625,7.893115234375
12.699000000000003,11.060589599609376,-1.073968505859375,6.797912597656251
12.709000000000003,8.437277221679688,-0.74169921875,5.7664123535156255
12.719,5.996249389648438,-0.1511810302734375,7.091003417968751
12.729000000000042,5.291934204101563,-0.2420989990234375,7.117620849609375
12.73900000000004,5.498443603515625,-0.054730224609375,5.145837402343751
12.74900000000003,6.749313354492188,0.5618072509765626,4.132131958007813
12.759000000000016,8.319891357421875,0.34871826171875,4.943066406250001
12.769000000000004,8.873922729492188,0.5647979736328126,6.990664672851563
12.778999999999996,7.748513793945313,0.9909759521484376,8.348153686523439
12.79000000000002,7.386785888671875,0.691754150390625,8.390921020507813
12.800000000000011,8.057305908203126,0.2352203369140625,7.2258850097656255
12.81000000000001,7.587463378906251,0.1798919677734375,5.459115600585938
12.82000000000005,6.025408935546875,0.4035980224609375,4.092654418945313
12.83000000000004,4.236956787109375,-0.0237762451171875,2.9470581054687504
12.840000000000032,4.398904418945313,-0.8842071533203125,3.348861694335938
12.850000000000025,8.58875732421875,-0.8604309082031251,6.145037841796875
12.860000000000014,12.520361328125,0.4897308349609375,8.961102294921876
12.870000000000005,12.827658081054688,-0.4708892822265625,7.994052124023438
12.879999999999995,9.677978515625,-0.8765808105468751,9.83050537109375
12.890000000000043,5.84207763671875,0.253314208984375,11.065374755859375
12.90000000000004,3.971380615234376,0.7659240722656251,6.394015502929688
12.910000000000032,4.3537445068359375,1.7292358398437502,1.49835205078125
12.920000000000016,6.5754028320312505,1.2637298583984375,2.930908203125
12.93100000000004,8.548681640625,0.611004638671875,5.589959716796876
12.941000000000033,9.191387939453126,0.7274932861328125,5.9099670410156255
12.951000000000022,8.429800415039063,0.2444915771484375,8.406472778320314
12.961000000000006,8.3201904296875,-0.5776580810546875,11.31375427246094
12.971000000000004,8.457464599609375,-0.98514404296875,9.452627563476565
12.981000000000002,8.097979736328126,-0.521282958984375,4.6837707519531255
12.991000000000035,7.161135864257813,-0.1353302001953125,2.6900054931640627
13.00100000000004,6.88524169921875,-0.8417388916015626,4.589862060546875
13.011000000000031,6.26376953125,-0.5921630859375,5.081536865234376
13.021000000000017,6.555364990234375,0.0934600830078125,4.697528076171875
13.031000000000006,7.830459594726563,0.200079345703125,6.668563842773438
13.040999999999997,9.7772705078125,0.3889434814453125,8.260824584960938
13.051000000000045,9.790878295898438,0.9914245605468752,6.874325561523438
13.061000000000035,8.040408325195314,1.311431884765625,5.7888427734375005
13.07200000000001,6.384893798828125,1.039276123046875,6.90318603515625
13.081000000000016,5.64349365234375,0.498553466796875,6.805538940429688
13.09200000000004,5.528948974609375,0.452496337890625,4.87308349609375
13.10200000000004,6.899597167968751,0.2761932373046875,4.395913696289063
13.11200000000003,8.516830444335938,-0.0797027587890625,5.491714477539063
13.122000000000014,8.86988525390625,-0.456982421875,6.487774658203126
13.132000000000003,8.079885864257813,-0.6515289306640626,7.6326232910156255
13.141999999999996,7.663427734375,-0.7251007080078126,8.465240478515625
13.152000000000044,7.672549438476563,-0.7905975341796876,7.607351684570313
13.162000000000042,7.290484619140625,-0.5558258056640626,5.7481689453125
13.172000000000024,6.815408325195313,0.069085693359375,5.0550689697265625
13.182000000000016,6.318798828125001,0.073870849609375,4.822540283203125
13.192000000000007,5.3432250976562505,-0.3207550048828125,3.7101409912109378
13.201999999999998,4.621713256835938,-0.5779571533203125,3.5589599609375004
13.212000000000046,7.055114746093751,0.65496826171875,6.031390380859375
13.223000000000011,11.812606811523438,1.8149200439453128,8.956317138671876
13.233000000000004,14.764151000976565,0.6279022216796876,8.33035888671875
13.243000000000002,10.418182373046877,0.169873046875,8.251254272460939
13.253000000000036,5.33006591796875,0.5570220947265625,10.664169311523438
13.26300000000004,2.9630584716796875,0.590069580078125,8.174243164062501
13.273000000000032,4.105664062500001,0.0028411865234375,2.2611358642578128
13.283000000000015,6.77518310546875,-0.0294586181640625,0.39896240234375
13.293000000000006,9.043646240234375,0.2890533447265625,4.4579711914062505
13.302999999999995,9.602761840820314,0.73990478515625,6.995449829101563
13.313000000000043,8.237496948242189,0.781475830078125,9.434832763671876
13.323000000000036,7.221847534179688,-0.0835906982421875,11.630621337890624
13.333000000000029,8.37940673828125,-0.6287994384765625,9.971966552734376
13.343000000000018,8.825323486328125,-0.25421142578125,5.077798461914063
13.353000000000009,7.133770751953126,1.1799896240234375,2.5029357910156254
13.363,6.4198852539062505,1.172662353515625,3.9890258789062494
13.37400000000003,6.295919799804688,-0.3354095458984375,4.531842041015626
13.384000000000016,6.765164184570313,-0.1374237060546875,5.064788818359375
13.394000000000004,7.606304931640626,0.6510803222656251,6.8343994140625
13.403999999999996,9.794168090820314,0.081048583984375,7.524807739257813
13.414000000000044,10.748208618164064,-0.46715087890625,6.657348632812501
13.424000000000042,8.638104248046876,-0.2528656005859375,6.213076782226563
13.434000000000026,6.165972900390625,-0.1957427978515625,6.56224365234375
13.444000000000017,5.052377319335938,-0.503936767578125,6.677236938476563
13.454000000000008,5.3689453125,-0.2428466796875,5.615679931640625
13.464,6.933990478515626,-0.107366943359375,4.472177124023438
13.474000000000046,8.580831909179688,-0.3237457275390625,4.614236450195313
13.484000000000036,8.947344970703126,0.0814971923828125,6.698770141601563
13.494000000000028,7.795468139648438,0.5791534423828125,8.709133911132813
13.50400000000002,7.237548828125001,0.600537109375,8.863305664062501
13.515000000000043,7.630679321289063,0.325390625,7.312167358398438
13.52500000000004,7.665072631835938,0.3099884033203125,5.463452148437501
13.535000000000032,6.911709594726563,0.7520172119140626,4.2924346923828125
13.545000000000016,5.339337158203126,0.3222503662109375,3.637915039062501
13.555000000000009,3.5629974365234376,-0.2412017822265625,3.249868774414063
13.567000000000007,4.788296508789063,-0.5030395507812501,4.13616943359375
13.575000000000044,11.474655151367188,-0.015850830078125,7.500433349609375
13.585000000000036,15.190328979492188,0.637921142578125,9.237893676757814
13.595000000000027,12.928445434570314,-0.6207244873046875,8.192935180664064
13.605000000000018,6.617572021484375,-1.0597625732421876,10.607046508789065
13.615000000000007,3.6682708740234378,-0.337652587890625,11.310763549804689
13.625,3.098687744140625,0.8136260986328125,4.625302124023438
13.635000000000048,5.971426391601563,1.4485565185546876,0.1066192626953125
13.64500000000004,8.031884765625001,1.278384399414063,1.2229064941406251
13.65500000000003,9.742578125,0.928021240234375,7.531985473632813
13.66700000000003,8.195327758789062,1.1698211669921876,8.130279541015625
13.676000000000045,7.108499145507813,0.4510009765625,9.950732421875
13.686000000000035,8.140298461914064,-0.6159393310546876,11.148965454101564
13.696000000000026,9.220547485351563,-0.9197967529296877,7.272689819335938
13.706000000000016,8.257235717773439,-0.5749664306640625,2.3668579101562504
13.716000000000008,6.9447570800781255,-0.18482666015625,2.774343872070313
13.726,6.306088256835938,-0.83560791015625,5.217614746093751
13.736000000000049,6.133523559570313,-1.080996704101563,5.490667724609375
13.746000000000038,6.801351928710938,-0.059515380859375,5.6876068115234375
13.756000000000029,8.873175048828125,0.304156494140625,7.479647827148438
13.766999999999996,10.530783081054688,0.2570526123046875,7.620361328125001
13.77600000000001,9.37696228027344,0.9646575927734377,6.137710571289063
13.786,6.820941162109375,1.457379150390625,6.495101928710938
13.797000000000024,5.356982421875,1.0966979980468752,7.253848266601563
13.807000000000016,5.167370605468751,0.5181427001953125,6.063241577148438
13.817000000000007,6.30264892578125,0.8314208984375001,4.499093627929688
13.826999999999998,8.228973388671875,0.2824737548828125,4.03448486328125
13.837000000000046,9.32327880859375,-0.2887542724609375,5.516387939453125
13.847000000000037,8.532830810546876,-0.213836669921875,7.398898315429688
13.857000000000028,7.413552856445313,-0.63822021484375,8.499334716796875
13.86700000000002,7.432693481445313,-0.9500030517578124,8.469876098632813
13.87700000000001,7.445553588867188,-0.96121826171875,6.793576049804688
13.887,7.165322875976563,-0.5372833251953125,5.2699523925781255
13.897000000000048,6.939373779296876,-0.0160003662109375,4.7660156250000005
13.90700000000004,6.154458618164063,-0.111553955078125,4.622161865234375
13.91700000000003,5.056863403320313,-0.2483795166015625,4.0427093505859375
13.92700000000002,4.65177001953125,-0.5151519775390625,3.9502960205078126
13.938000000000043,8.621057128906251,1.1953918457031252,7.012347412109375
13.948000000000036,13.432830810546877,1.83570556640625,8.885736083984376
13.958000000000029,13.971011352539064,0.22490234375,7.659390258789063
13.968000000000018,8.582028198242188,0.48031005859375,9.06009521484375
13.978000000000009,4.116729736328125,0.2966796875,10.967129516601563
13.988,2.7650726318359378,0.709698486328125,7.047189331054688
13.998000000000047,5.006021118164063,0.3028106689453125,0.9621154785156252
14.008000000000038,7.51688232421875,-0.345428466796875,0.10946044921875
14.018000000000027,9.605902099609375,0.1212738037109375,4.4501953125
14.02800000000002,9.214865112304688,0.7265960693359376,8.542999267578125
14.038000000000013,7.629183959960938,0.6999786376953125,10.24322509765625
14.048000000000002,7.472470092773438,-0.284716796875,11.967825317382813
14.05800000000005,8.884689331054688,-0.9114227294921876,9.488815307617188
14.06800000000004,8.663973999023439,0.2296875,4.370791625976563
14.079000000000008,6.749014282226563,1.40863037109375,1.9128662109375
14.089,6.290985107421876,0.7971771240234375,3.780123901367188
14.099000000000046,6.277975463867188,-0.4568328857421875,4.884149169921876
14.109000000000036,6.447848510742188,0.0264678955078125,5.313168334960938
14.119000000000028,8.030838012695312,1.057220458984375,6.855484008789063
14.12900000000002,10.704693603515626,-0.035888671875,7.488619995117188
14.13900000000001,11.0285888671875,-0.741400146484375,6.63760986328125
14.149,8.110690307617189,-0.057122802734375,6.388034057617188
14.159000000000049,5.53941650390625,-0.063702392578125,6.756192016601563
14.16900000000004,5.082583618164063,-0.4122711181640625,6.674246215820313
14.17900000000003,5.404833984375,-0.2044158935546875,5.278775024414063
14.18900000000002,6.968084716796875,-0.0634033203125,3.9997924804687504
14.199000000000003,8.793173217773438,-0.301165771484375,4.700070190429688
14.209000000000003,8.976654052734375,-0.101983642578125,7.2830078125
14.221000000000004,7.567874145507813,0.54371337890625,9.003869628906251
14.230000000000018,7.198669433593751,0.4725341796875,8.746218872070314
14.240000000000007,7.873675537109375,0.1460968017578125,7.112387084960938
14.25,7.730569458007813,0.43126220703125,5.7140747070312505
14.260000000000048,6.61368408203125,0.814373779296875,4.529449462890625
14.27000000000004,5.846414184570313,0.5730224609375001,3.930108642578125
14.28000000000003,4.7791748046875,0.011663818359375,3.5917083740234377
14.29000000000002,3.7110382080078126,-0.0,3.748123168945313
14.300000000000011,8.360864257812501,-0.421990966796875,6.047689819335938
14.31000000000001,14.930435180664064,0.45279541015625,8.994747924804688
14.32000000000005,14.86209716796875,0.656463623046875,9.464440917968751
14.33000000000004,8.785247802734375,-0.7499237060546875,8.781060791015626
14.340000000000032,3.524566650390625,-0.173760986328125,11.262313842773438
14.350000000000025,3.02242431640625,0.3847564697265625,8.150167846679688
14.360000000000014,4.1762451171875,0.4882354736328125,0.6416595458984375
14.371000000000038,7.680175781250001,0.1242645263671875,-0.0058319091796875
14.381000000000029,9.5691162109375,-0.2720062255859375,1.7168243408203123
14.39100000000002,9.793121337890623,0.01973876953125,10.885333251953126
14.40100000000001,7.384991455078126,0.7490264892578126,10.114175415039064
14.411,7.592697143554688,-0.5284606933593751,11.162872314453123
14.42100000000005,8.906820678710938,-0.7517181396484376,10.367938232421876
14.43100000000004,8.436380004882814,-0.16329345703125,4.7559967041015625
14.441000000000033,6.228628540039063,0.4849456787109375,1.0068267822265626
14.451000000000022,6.371286010742188,0.392681884765625,4.044952392578125
14.461000000000006,6.305340576171876,-0.2582489013671875,5.614483642578126
14.471000000000004,6.821838378906251,0.0897216796875,4.8766723632812505
14.481000000000002,8.15091552734375,0.8623748779296876,6.3720336914062505
14.493000000000002,10.77677001953125,0.395672607421875,8.161831665039063
14.50200000000001,10.6409912109375,-0.069085693359375,7.069171142578125
14.512,7.7044006347656255,0.4430755615234375,6.193786621093751
14.522000000000048,5.367898559570313,0.8347106933593751,6.857427978515625
14.53200000000004,5.430554199218751,-0.04127197265625,6.431698608398438
14.54200000000003,5.741888427734375,-0.03050537109375,4.616329956054688
14.55200000000002,6.842474365234375,0.4379913330078125,4.122561645507813
14.562000000000012,8.551821899414064,-0.0345428466796875,5.116677856445313
14.57200000000001,9.1097412109375,-0.2971282958984375,6.9659912109375
14.583000000000029,7.853637695312501,0.0136077880859375,8.697320556640626
14.59200000000004,7.411309814453125,0.0877777099609375,8.770443725585938
14.60200000000004,7.972219848632813,-0.245538330078125,7.09818115234375
14.61200000000003,7.534677124023438,-0.3922332763671875,5.4586669921875
14.622000000000014,6.465942382812501,0.304156494140625,5.025311279296876
14.632000000000003,5.517584228515625,0.118731689453125,4.381558227539063
14.641999999999996,4.792333984375,-0.6150421142578125,3.301010131835938
14.652000000000044,5.20206298828125,-0.85654296875,3.827227783203125
14.663000000000013,9.076992797851563,0.9917236328125,7.04434814453125
14.673000000000002,13.77646484375,1.1041748046875002,8.310021972656251
14.684000000000026,13.953665161132813,0.0088226318359375,8.079287719726564
14.69300000000004,8.312863159179688,0.308343505859375,9.794766235351563
14.703000000000031,4.002035522460938,-0.0518890380859375,10.790826416015626
14.713000000000022,2.903094482421875,0.4388885498046875,6.491812133789063
14.723000000000011,4.875924682617188,0.295184326171875,0.87269287109375
14.733000000000004,7.491012573242188,-0.0237762451171875,0.5745178222656251
14.745000000000005,9.196920776367188,0.6213226318359375,5.943014526367188
14.753000000000036,8.723788452148439,1.0427154541015626,8.393762207031251
14.76300000000004,7.431048583984375,1.1147918701171875,10.707534790039062
14.773000000000032,8.106353759765625,0.2226593017578125,11.383139038085938
14.784000000000049,9.740484619140624,-0.59754638671875,8.368939208984376
14.79400000000004,8.583523559570313,0.2145843505859375,3.5996337890625
14.80400000000003,6.620562744140625,0.992919921875,2.4251770019531254
14.81400000000002,6.0894104003906255,0.425579833984375,3.80001220703125
14.824000000000003,6.274536132812501,-0.9023010253906252,4.414007568359375
14.834000000000003,6.4635498046875,-0.213238525390625,5.67698974609375
14.844,8.162130737304688,0.5662933349609376,7.284503173828125
14.854000000000042,10.885931396484375,-0.4625152587890625,7.533929443359375
14.86400000000004,10.6457763671875,-0.5827423095703126,6.6860595703125005
14.87400000000003,7.6580444335937505,0.057421875,6.769650268554688
14.884000000000016,5.4150024414062505,0.013458251953125,6.936532592773438
14.894000000000004,5.110247802734375,-0.2764923095703125,6.2195068359375005
14.903999999999996,5.563192749023438,0.1849761962890625,4.9832916259765625
14.914000000000044,7.216165161132813,0.270062255859375,3.9733245849609378
14.924000000000042,8.886782836914064,-0.0895721435546875,4.708892822265625
14.93500000000001,8.933737182617188,0.33197021484375,7.421029663085938
14.94500000000005,7.547387695312499,0.6419586181640625,8.948092651367189
14.95500000000004,7.468283081054688,0.3766815185546875,8.707788085937501
14.965000000000032,7.9077697753906255,0.0587677001953125,7.037619018554688
14.975000000000025,7.431646728515625,0.160601806640625,5.499340820312501
14.985000000000014,6.453530883789063,0.41929931640625,4.50821533203125
14.995000000000005,5.232717895507813,0.0157012939453125,3.56075439453125
15.004999999999995,3.9329498291015614,-0.5356384277343751,3.1641845703125004
15.015000000000043,4.403839111328125,-0.7617370605468751,3.915603637695313
15.02500000000004,11.450430297851565,-0.4747772216796875,7.388131713867188
15.035000000000032,16.039843750000003,0.8940765380859376,9.87955322265625
15.047000000000024,13.591937255859376,0.203070068359375,8.659039306640626
15.055000000000009,6.507812500000001,-0.1158905029296875,10.119259643554688
15.066000000000033,2.7243988037109377,1.35479736328125,11.7415771484375
15.076000000000022,2.365960693359375,1.4922210693359377,4.801156616210938
15.086000000000006,5.019778442382813,1.2380096435546877,-0.7093994140625001
15.096000000000004,8.564682006835938,0.2127899169921875,0.4625152587890625
15.106000000000002,10.333245849609376,-0.478515625,2.074066162109375
15.116000000000035,8.911157226562501,0.1774993896484375,12.238037109375
15.12600000000004,7.091900634765626,-0.1662841796875,11.829653930664064
15.136000000000031,8.224786376953126,-1.4798095703125,12.63206481933594
15.146000000000017,9.498236083984375,-1.35419921875,9.130377197265624
15.156000000000006,7.641146850585938,-0.4125701904296875,2.0674865722656253
15.165999999999997,6.09210205078125,0.4203460693359375,0.6981842041015626
15.176000000000045,6.325228881835938,-0.176153564453125,4.806390380859376
15.186000000000035,5.901742553710938,-0.3255401611328125,4.943515014648438
15.196000000000026,6.663778686523438,0.9989013671875,4.921832275390625
15.206000000000016,9.157891845703126,1.3453765869140626,7.3485046386718755
15.216000000000008,11.796157836914062,0.8945251464843751,8.483483886718751
15.22700000000004,10.312759399414062,0.6637908935546876,6.646282958984376
15.23700000000003,6.549832153320313,1.112847900390625,6.398800659179688
15.247000000000014,5.164379882812501,0.7310821533203126,7.402935791015626
15.257000000000003,5.065686035156251,-0.3491668701171875,5.889630126953126
15.266999999999996,5.689999389648438,-0.0418701171875,3.8095825195312494
15.277000000000044,7.325775146484376,-0.1278533935546875,3.7950775146484377
15.287000000000042,9.10675048828125,-0.9194976806640626,5.663531494140625
15.297000000000024,8.932540893554688,-0.742596435546875,7.820739746093751
15.307000000000016,7.627239990234376,-0.5609100341796875,9.003570556640625
15.317000000000007,7.811618041992188,-0.471337890625,8.872576904296876
15.326999999999998,8.082427978515625,-0.566143798828125,6.830960083007813
15.337000000000046,7.158892822265625,0.117535400390625,5.153164672851563
15.347000000000037,6.190197753906251,0.8092895507812501,4.592105102539063
15.357000000000028,5.131182861328125,0.26019287109375,3.892874145507813
15.369000000000028,4.5795440673828125,-0.1801910400390625,3.3318145751953128
15.378000000000036,5.424124145507813,-0.3150726318359375,3.908126831054688
15.38800000000004,10.250701904296877,1.7117401123046876,7.521368408203125
15.398000000000032,14.812750244140624,1.371096801757813,9.01044921875
15.408000000000015,13.55619812011719,-0.6470428466796876,8.528793334960938
15.418000000000006,6.989617919921876,-0.0148040771484375,10.234701538085938
15.427999999999995,2.8993560791015627,0.118731689453125,10.53272705078125
15.438000000000043,2.8332611083984376,0.118133544921875,5.441619873046875
15.448000000000036,5.552575683593751,0.0861328125,0.36307373046875
15.458000000000029,8.195028686523438,0.064898681640625,0.36427001953125
15.468000000000018,9.947293090820311,0.3013153076171875,3.2144287109375003
15.478000000000009,9.151611328125,0.80570068359375,10.771087646484377
15.488,6.9866271972656255,1.42059326171875,11.64393005371094
15.498000000000047,7.7657104492187505,-0.2074066162109375,11.467028808593753
15.508000000000038,9.412252807617188,-0.947760009765625,7.979696655273438
15.519000000000004,8.352490234375,0.9214416503906252,3.832760620117188
15.528999999999996,6.247619628906251,1.684075927734375,2.2171722412109376
15.539000000000044,5.969033813476563,0.326885986328125,3.416302490234376
15.549000000000042,6.3825012207031255,-0.648388671875,5.203259277343751
15.559000000000026,6.817800903320313,0.0174957275390625,5.952734375
15.569000000000017,8.877362060546876,0.5923126220703125,6.564935302734376
15.579000000000008,11.202947998046875,-0.5299560546875001,7.144387817382813
15.589,10.654299926757814,-0.8181121826171875,7.036123657226563
15.599000000000046,7.246072387695313,-0.256304931640625,6.431698608398438
15.609000000000036,4.98314208984375,-0.3409423828125,6.444259643554688
15.619000000000028,4.771548461914063,-0.3898406982421875,6.6935363769531255
15.62900000000002,5.738897705078125,-0.09630126953125,5.145538330078125
15.63900000000001,7.531536865234376,0.1063201904296875,3.634625244140625
15.649,9.012692260742188,0.0073272705078125,5.232119750976563
15.660000000000032,8.584719848632814,0.3569427490234375,8.3273681640625
15.670000000000016,7.399496459960938,0.954937744140625,9.378158569335938
15.680000000000009,7.4325439453125,0.6041259765625,8.136709594726563
15.689999999999998,7.89610595703125,0.2059112548828125,6.410165405273438
15.700000000000044,7.480545043945313,0.4246826171875,5.0040771484375
15.710000000000036,5.863909912109375,0.51978759765625,3.2026153564453126
15.720000000000027,3.831863403320313,0.2501739501953125,2.50084228515625
15.730000000000018,3.530099487304688,-0.5927612304687501,3.6782897949218754
15.740000000000007,9.1587890625,-0.7517181396484376,6.425866699218751
15.75,14.76145935058594,0.6081634521484376,9.445150756835938
15.760000000000048,14.54493103027344,-0.20576171875,8.431893920898439
15.77000000000004,8.926110839843751,-0.7457366943359376,10.172793579101564
15.78000000000003,3.94237060546875,-0.1123016357421875,12.133511352539063
15.790999999999997,2.473626708984375,0.3357086181640625,6.883596801757813
15.801000000000045,4.375726318359376,1.242047119140625,0.37503662109375
15.811000000000035,7.676736450195313,0.9347503662109377,0.359185791015625
15.821000000000026,9.558200073242189,0.6320892333984376,4.252359008789063
15.831000000000016,9.42496337890625,0.8963195800781251,7.958163452148438
15.841000000000008,7.538565063476563,0.5359375000000001,9.149368286132812
15.851,7.889825439453125,-0.4840484619140625,12.056350708007812
15.861000000000049,8.758929443359376,-0.9927703857421876,9.595883178710938
15.871000000000038,8.38837890625,-0.73870849609375,3.7500671386718754
15.881000000000029,6.834548950195313,0.12919921875,1.806246948242188
15.89100000000002,6.594244384765625,-0.7985229492187501,4.77977294921875
15.90100000000001,5.976510620117188,-0.988134765625,5.469732666015625
15.911,6.420782470703125,0.270361328125,5.0176849365234375
15.92100000000005,8.240487670898439,0.5154510498046876,6.58916015625
15.93100000000004,10.735797119140626,0.2573516845703125,8.006314086914063
15.942000000000007,10.232907104492188,0.562255859375,6.857727050781251
15.951999999999998,7.455422973632813,1.4487060546875,6.175692749023438
15.962000000000046,5.803646850585938,1.2658233642578125,7.188800048828125
15.972000000000037,5.220755004882813,0.3404937744140625,6.638806152343751
15.984000000000036,5.7553466796875,0.5374328613281251,4.766912841796875
15.99200000000002,7.154257202148438,0.34034423828125,3.85205078125
16.00200000000001,8.898895263671875,-0.2213134765625,5.114285278320313
16.012,8.876315307617189,-0.2428466796875,6.999038696289063
16.022000000000048,7.901040649414063,-0.490179443359375,8.172897338867188
16.03200000000004,7.621408081054688,-0.7911956787109375,8.2555908203125
16.04200000000003,7.750607299804688,-0.8761322021484376,7.4062255859375
16.05200000000002,7.18192138671875,-0.478515625,5.768505859375001
16.062000000000012,6.249713134765625,-0.320306396484375,4.525112915039063
16.07200000000001,5.050732421875001,-0.4095794677734375,3.671859741210938
16.083000000000027,4.393072509765625,-0.4786651611328125,3.45009765625
16.093000000000018,6.530242919921876,0.450701904296875,5.253054809570313
16.10300000000001,11.576339721679688,1.861874389648437,8.341873168945312
16.113,14.74306640625,0.6688751220703125,8.399594116210938
16.123000000000047,11.270388793945314,0.1188812255859375,8.236599731445313
16.133000000000038,5.770449829101563,0.6899597167968751,10.176681518554688
16.14300000000003,2.7970733642578125,0.42528076171875,8.634066772460939
16.15300000000002,3.5142486572265628,0.2968292236328125,3.426022338867188
16.16300000000001,6.400595092773438,0.0868804931640625,0.3775787353515625
16.173000000000002,8.787939453125,0.0801513671875,3.6081573486328127
16.18300000000005,9.872525024414063,0.9102264404296876,7.622305297851563
16.19300000000004,8.531634521484376,0.9366943359375,9.722540283203124
16.20300000000003,7.414599609375,-0.0737213134765625,11.0022705078125
16.213000000000022,8.303741455078125,-0.8973663330078125,10.11402587890625
16.224000000000046,8.701058959960939,-0.4601226806640625,5.7900390625
16.234000000000037,7.489816284179688,0.9820037841796876,2.3774749755859377
16.244000000000028,6.440969848632813,0.90439453125,2.7299316406250003
16.25400000000002,6.32059326171875,-0.074468994140625,4.530197143554688
16.26400000000001,6.817501831054688,-0.203070068359375,5.69134521484375
16.27600000000001,7.168463134765625,0.4041961669921875,6.685311889648438
16.28400000000005,9.5140869140625,0.6587066650390625,7.848553466796876
16.29400000000004,10.939614868164064,-0.3533538818359375,6.841427612304688
16.30400000000003,9.231613159179688,-0.5562744140625,5.989370727539063
16.31400000000002,6.259732055664063,0.2364166259765625,6.573458862304688
16.324000000000005,4.712930297851563,0.0408233642578125,6.571664428710938
16.334000000000003,5.355786132812501,-0.3859527587890625,5.524462890625
16.344,6.713125610351563,-0.3093902587890625,4.653265380859375
16.354000000000042,8.311816406250001,-0.1416107177734375,4.690948486328125
16.36500000000001,9.241931152343753,-0.063104248046875,6.267059326171876
16.375,8.292825317382814,0.132489013671875,8.242581176757813
16.385000000000048,7.378561401367188,0.466552734375,9.12708740234375
16.39500000000004,7.422225952148438,0.2788848876953125,7.4786010742187505
16.40500000000003,7.495648193359376,0.2262481689453125,5.608053588867188
16.41500000000002,6.5688232421875,0.7050628662109375,4.719061279296875
16.42500000000001,5.411114501953126,0.5647979736328126,3.719561767578125
16.43500000000001,4.14813232421875,0.241650390625,2.669219970703125
16.44500000000005,4.531094360351563,-0.16807861328125,3.474322509765625
16.45500000000004,10.583868408203124,-0.14774169921875,7.206146240234376
16.465000000000032,15.152197265625,1.163690185546875,10.176232910156251
16.475000000000023,13.57608642578125,-0.459075927734375,8.77119140625
16.485000000000014,7.282260131835938,-0.8420379638671875,10.389620971679689
16.495000000000005,3.614886474609375,0.1449005126953125,11.505758666992188
16.50600000000003,2.9980499267578127,0.2065093994140625,5.229278564453125
16.51600000000002,5.0426574707031255,0.9706390380859377,-0.1036285400390625
16.52600000000001,7.661932373046875,0.6658843994140625,0.6524261474609375
16.536,9.62952880859375,-0.110357666015625,5.323187255859375
16.54600000000005,9.2580810546875,0.1093109130859375,8.975906372070312
16.55600000000004,7.422674560546875,0.3055023193359375,10.079483032226562
16.56600000000003,8.053866577148439,-0.54730224609375,11.564675903320314
16.576000000000022,9.36978454589844,-1.1399139404296876,8.261422729492189
16.586000000000006,8.185757446289063,-0.288006591796875,3.1718109130859378
16.596000000000004,6.174197387695313,0.7251007080078126,2.469290161132813
16.606,5.892620849609376,-0.2217620849609375,4.586123657226563
16.616000000000035,6.338238525390626,-0.7213623046875001,5.265914916992188
16.62600000000004,6.879708862304688,0.4816558837890625,5.334552001953125
16.63600000000003,8.686553955078125,0.9008056640625,6.922177124023438
16.646000000000015,10.87725830078125,0.210845947265625,7.774832153320313
16.65700000000004,10.050473022460938,0.38759765625,7.029843139648438
16.66700000000003,6.923672485351563,1.1281005859375002,6.653610229492188
16.67700000000002,5.2225494384765625,0.79971923828125,6.737799072265625
16.687000000000012,5.365505981445313,-0.007476806640625,6.259732055664063
16.69700000000001,5.971426391601563,0.2851654052734375,4.689453125
16.707,7.502975463867188,0.2723052978515625,3.7772827148437504
16.71700000000004,8.936129760742189,-0.3790740966796875,5.158398437500001
16.72700000000004,9.031234741210938,-0.357989501953125,7.71187744140625
16.73700000000003,7.713671875,-0.1194793701171875,8.56363525390625
