time,ax,ay,az
0.0,7.879208374023438,-0.8377014160156251,6.970776367187501
0.0109999999999743,7.2291748046875,-1.44930419921875,7.066329956054688
0.021000000000086,7.457516479492188,-1.6638885498046876,7.177285766601563
0.0310000000000698,7.252053833007813,-1.627850341796875,6.304144287109375
0.0410000000000607,7.653558349609375,-1.2154296875,6.013745117187501
0.0510000000000516,7.4397216796875005,-0.8290283203125001,5.519528198242188
0.0610000000000425,7.777224731445313,-0.2699127197265625,5.911013793945313
0.0710000000000334,8.107400512695314,0.190509033203125,6.103317260742188
0.0810000000000243,7.95950927734375,0.6148925781250001,5.951388549804688
0.0910000000000152,7.497442626953125,1.510614013671875,6.680377197265625
0.1010000000000062,6.991711425781251,1.271356201171875,6.81107177734375
0.1110000000000042,7.10057373046875,1.4413787841796877,7.091003417968751
0.1209999999999951,7.368093872070313,1.4347991943359375,6.1970764160156255
0.1309999999999789,6.62205810546875,0.337353515625,4.348211669921875
0.1420000000000598,6.841427612304688,0.34034423828125,2.923580932617188
0.1520000000000507,10.908810424804688,0.313726806640625,6.798809814453126
0.1620000000000416,7.04434814453125,-2.143450927734375,6.577496337890626
0.1720000000000325,6.205899047851563,-0.4939178466796875,9.04813232421875
0.1820000000000234,6.624301147460938,-1.0842864990234375,11.540002441406251
0.1920000000000143,8.740386962890625,-2.3688018798828128,10.340274047851564
0.2020000000000053,8.954672241210938,3.299514770507813,6.742584228515626
0.2119999999999962,6.424520874023438,1.6169342041015626,0.3204559326171875
0.2219999999999871,9.726428222656253,-0.5845367431640626,4.3592773437500005
0.231999999999978,6.944308471679688,1.801461791992188,9.01807556152344
0.2419999999999689,4.105215454101563,2.337548828125,1.5159973144531251
0.2520000000000735,8.526101684570314,0.7224090576171875,0.6945953369140625
0.2620000000000644,11.352035522460938,-1.6111022949218752,6.943859863281251
0.2720000000000553,9.381298828125,-0.447113037109375,8.566326904296876
0.2820000000000462,6.396557617187501,0.9685455322265626,4.902841186523438
0.2930000000000134,6.886138916015626,-1.956829833984375,8.424118041992188
0.3030000000000044,6.354837036132813,-1.9888305664062504,13.126281738281252
0.3129999999999953,4.878915405273438,-0.323895263671875,8.894708251953126
0.3229999999999862,5.028302001953126,-0.03349609375,1.9044921875
0.33299999999997,9.523806762695314,-0.8329162597656251,5.550482177734375
0.3430000000000817,9.51468505859375,-0.215032958984375,7.586566162109375
0.3530000000000726,7.890573120117188,1.40504150390625,3.4823974609375004
0.3630000000000635,7.425515747070313,2.0734680175781253,3.608905029296875
0.3730000000000544,8.714666748046875,0.465057373046875,8.699114990234376
0.3830000000000453,7.799206542968751,1.0654449462890625,8.342172241210939
0.3930000000000362,6.18302001953125,1.00966796875,2.6618927001953128
0.40300000000002,4.693490600585938,0.04844970703125,0.166583251953125
0.413000000000018,10.992401123046877,0.270660400390625,8.778369140625001
0.4230000000000089,8.187103271484375,-1.0220794677734375,7.894461059570313
0.4329999999999998,6.632376098632813,0.5552276611328125,6.205001831054688
0.4440000000000808,6.570318603515625,0.0856842041015625,11.027691650390626
0.4540000000000717,7.580136108398438,-2.4624114990234376,14.2083251953125
0.4640000000000626,7.413104248046875,0.8225982666015625,8.814257812500001
0.4740000000000535,7.067526245117188,0.324493408203125,-0.1574615478515625
0.4840000000000444,10.024005126953126,-2.3713439941406254,1.0798004150390623
0.4940000000000353,7.48697509765625,0.1230682373046875,8.583224487304689
0.5040000000000262,5.223446655273438,1.9937652587890624,7.549032592773438
0.5140000000000171,7.136013793945313,1.737908935546875,-0.1730133056640625
0.524000000000008,11.151956176757814,-0.341839599609375,8.162429809570312
0.534000000000006,10.053762817382813,0.429766845703125,7.8368896484375
0.5439999999999898,7.248016357421876,1.7238525390625,1.8191070556640627
0.5539999999999807,7.799655151367188,0.2836700439453125,2.3382965087890626
0.5639999999999716,7.336242675781251,-0.57840576171875,10.252496337890626
0.5750000000000526,4.72593994140625,-0.2474822998046875,8.99908447265625
0.5850000000000435,5.188305664062501,0.526068115234375,5.534780883789063
0.5950000000000344,7.322784423828126,0.0801513671875,8.236599731445313
0.6050000000000253,7.913452148437501,-0.563751220703125,10.409359741210938
0.6150000000000162,7.963995361328125,-0.6437530517578125,6.5843750000000005
0.625,8.072708129882812,-0.4376922607421875,3.773245239257813
0.6350000000000051,7.932144165039063,0.4870391845703125,6.318350219726563
0.644999999999996,7.467984008789063,-0.0288604736328125,6.0285491943359375
0.6549999999999798,7.356729125976563,0.1816864013671875,3.542062377929688
0.6649999999999707,8.350994873046876,0.4798614501953125,4.470382690429688
0.6750000000000753,8.466586303710939,0.0228790283203125,6.043054199218751
0.6850000000000662,7.582229614257813,0.4837493896484375,6.758883666992188
0.69500000000005,3.5452026367187504,1.251617431640625,5.355636596679688
0.705000000000048,1.7645263671875002,0.7798309326171876,4.35150146484375
0.715000000000046,10.640542602539064,-0.3515594482421875,7.531536865234376
0.7260000000000062,15.4333251953125,0.2651275634765625,8.271591186523438
0.7360000000000042,12.441107177734375,0.97138671875,6.752752685546875
0.7459999999999951,5.3302154541015625,-1.631289672851563,9.044244384765626
0.7559999999999789,3.7352630615234377,-2.221060180664063,15.1318603515625
0.7659999999999698,5.149874877929688,1.7645263671875002,9.969723510742188
0.7760000000000744,5.122958374023438,1.83809814453125,-0.8551971435546876
0.7860000000000653,9.237295532226565,-0.688763427734375,-0.30565185546875
0.7960000000000562,10.857369995117187,-1.525567626953125,2.756698608398437
0.8060000000000542,7.736999511718751,0.3276336669921875,3.3198516845703128
0.8160000000000451,6.8056884765625005,-0.4544403076171875,10.8850341796875
0.8260000000000289,7.969677734375001,-0.50184326171875,7.226483154296876
0.8360000000000198,8.972616577148438,0.5531341552734376,11.84266357421875
0.8460000000000107,9.101516723632812,2.0136535644531253,2.361325073242188
0.8560000000000016,8.544644165039063,1.9788116455078129,-0.6014343261718751
0.8659999999999926,7.984930419921875,-0.372943115234375,2.114739990234375
0.8770000000000735,3.716421508789063,-0.1266571044921875,7.584173583984375
0.8870000000000644,3.43514404296875,-0.8462249755859376,14.055499267578126
0.8970000000000553,5.0486389160156255,-0.4574310302734375,6.948345947265626
0.9070000000000462,10.123745727539063,0.1987335205078125,10.158737182617188
0.9170000000000372,11.1577880859375,-0.2732025146484375,6.8490539550781255
0.927000000000028,9.274978637695312,0.406439208984375,3.0177886962890628
0.9370000000000188,6.657498168945313,0.7574005126953125,5.262026977539063
0.9470000000000098,5.421881103515625,-0.6808380126953125,6.940420532226563
0.9570000000000008,5.872882080078125,-0.404644775390625,4.892224121093751
0.9669999999999916,4.430157470703126,0.3437835693359375,0.9111236572265624
0.9769999999999824,3.255999755859375,0.034393310546875,-0.3170166015625
0.9869999999999736,13.3063232421875,0.7883544921875001,3.342431640625
0.9970000000000852,18.18942565917969,1.2049621582031251,13.853475952148438
1.007000000000076,13.720538330078126,1.7441894531250002,10.894006347656251
1.0180000000000362,3.233718872070313,-0.5476013183593751,11.419625854492187
1.0320000000000462,-1.10537109375,-2.020382690429688,15.874755859375002
1.038000000000018,2.2730987548828128,1.287506103515625,12.342413330078124
1.048000000000009,6.218011474609376,0.8252899169921876,-1.3408905029296876
1.0579999999999998,10.540652465820314,-1.968942260742188,-2.65576171875
1.0679999999999907,12.009396362304688,-1.4928192138671876,2.635125732421875
1.0779999999999816,7.531985473632813,1.88056640625,3.392974853515625
1.0879999999999723,6.310574340820313,1.688113403320313,3.0877716064453127
1.0980000000000842,7.031338500976563,0.5281616210937501,12.988708496093752
1.1080000000000751,14.498873901367189,-1.92542724609375,13.3876708984375
1.118000000000059,8.664273071289063,-0.5313018798828125,1.73402099609375
1.12800000000005,6.453381347656251,1.4690429687500002,-0.144451904296875
1.1380000000000408,6.540261840820313,0.9245819091796876,-0.97078857421875
1.149000000000008,5.03936767578125,-0.5896209716796875,2.8443267822265628
1.159000000000006,3.428863525390625,-0.1978363037109375,7.4800964355468755
1.1689999999999898,4.739248657226563,-0.0829925537109375,15.101504516601564
1.1789999999999807,10.917333984375,0.7557556152343751,10.87247314453125
1.1889999999999716,10.415341186523438,-0.3835601806640625,11.859860229492188
1.1990000000000762,9.268698120117188,-0.8478698730468751,6.4243713378906255
1.2090000000000671,6.038418579101563,1.3011138916015623,4.05960693359375
1.219000000000058,4.508963012695313,1.0036865234375,5.768356323242188
1.229000000000049,5.4443115234375,0.35111083984375,3.076406860351563
1.2390000000000398,8.351144409179689,0.0945068359375,0.8659637451171875
1.2490000000000308,9.641641235351564,0.3566436767578125,1.251617431640625
1.2590000000000217,10.3455078125,0.206658935546875,6.886737060546875
1.2690000000000126,9.097628784179689,-0.380419921875,9.809420776367189
1.2790000000000037,7.222296142578125,-0.204266357421875,10.239187622070313
1.2899999999999707,4.176095581054688,-0.5323486328125,8.088858032226563
1.2989999999999853,0.9150115966796876,-0.4003082275390625,3.0521820068359378
1.3100000000000662,5.249615478515626,-0.47672119140625,1.4033966064453125
1.32000000000005,15.93935546875,-0.1327880859375,6.1327758789062505
1.330000000000048,14.60295104980469,0.3727935791015625,6.360519409179688
1.340000000000046,9.967181396484376,-0.8007659912109376,9.763513183593751
1.3519999999999823,2.0616546630859376,-0.7886535644531251,15.13126220703125
1.3600000000000207,3.2072509765625004,2.7522125244140625,18.25746459960937
1.3700000000000117,4.8820556640625,2.4480560302734378,3.825881958007813
1.3800000000000026,9.837982177734377,1.7081512451171876,-2.1513763427734376
1.3899999999999937,10.74267578125,-0.110955810546875,0.0889739990234375
1.3999999999999844,7.0329833984375005,0.0770111083984375,2.8513549804687504
1.4099999999999753,4.988076782226563,1.5287078857421876,2.4779632568359378
1.42000000000008,6.924868774414063,-0.8001678466796875,2.5084686279296875
1.4310000000000542,10.232907104492188,-2.398858642578125,16.959490966796878
1.4410000000000451,10.894305419921876,-1.370050048828125,9.774130249023438
1.4520000000000053,9.904824829101564,0.6207244873046875,-0.230584716796875
1.4610000000000198,8.202355957031251,0.0820953369140625,0.41212158203125
1.4710000000000107,5.643194580078125,-0.5959014892578125,4.301107788085938
1.4810000000000016,2.7024169921875,-1.6333831787109376,13.066168212890624
1.4909999999999926,3.744384765625,-0.361279296875,7.271044921875
1.5009999999999837,6.925167846679688,1.7307312011718752,7.532583618164063
1.5109999999999744,10.317095947265626,1.1330352783203126,9.376065063476563
1.521000000000086,11.189788818359377,0.947760009765625,6.597982788085938
1.53100000000007,8.486474609375001,1.275244140625,4.494158935546875
1.5410000000000608,5.4658447265625005,1.5049316406250002,7.145733642578126
1.552000000000028,5.542108154296876,0.401953125,7.53123779296875
1.5610000000000426,6.9899169921875,-0.3982147216796875,3.4329010009765626
1.5720000000000098,8.9685791015625,0.1317413330078125,1.1749053955078126
1.5810000000000244,9.3442138671875,-0.2669219970703125,4.220059204101563
1.5919999999999916,6.609347534179688,-1.194195556640625,6.4482971191406255
1.6019999999999823,3.5015380859375003,-1.7749938964843752,6.615478515625001
1.6119999999999737,5.539865112304688,-1.0926605224609376,7.472171020507813
1.6220000000000852,12.93427734375,-0.4355987548828125,10.103408813476562
1.632000000000076,12.976446533203124,0.493170166015625,5.730224609375
1.64200000000006,9.1575927734375,1.39068603515625,6.809875488281251
1.6520000000000508,2.5685821533203126,1.0905670166015626,10.639794921875
1.6620000000000417,3.5565673828125,1.447509765625,13.051214599609375
1.6720000000000326,6.336444091796875,1.4090789794921876,3.235064697265625
1.6820000000000237,9.108993530273438,-0.8439819335937501,-0.554779052734375
1.6920000000000144,11.020962524414063,0.3648681640625,2.614190673828125
1.7020000000000053,8.340975952148439,1.8377990722656248,10.617962646484376
1.7119999999999962,6.866848754882813,0.6476409912109375,4.703060913085938
1.721999999999987,7.071115112304688,-0.50782470703125,7.416244506835938
1.7330000000000751,9.004168701171876,-0.9529937744140624,8.978598022460938
1.743000000000059,9.142190551757814,-0.6922027587890626,3.493463134765625
1.75300000000005,8.041455078125,-0.70999755859375,-0.02572021484375
1.7630000000000408,7.516134643554688,-1.1904571533203123,3.348861694335938
1.7730000000000317,6.567477416992188,-1.0905670166015626,9.090151977539064
1.7830000000000226,5.218362426757813,-0.5030395507812501,6.6549560546875
1.7930000000000137,5.343524169921875,0.7771392822265626,8.398846435546876
1.8030000000000044,8.130279541015625,1.1022308349609375,11.324072265625
1.8129999999999955,8.601168823242189,0.3955230712890625,8.493353271484375
1.8229999999999864,8.39615478515625,1.0134063720703126,5.286251831054688
1.83299999999997,7.3583740234375,1.30574951171875,5.657101440429688
1.8430000000000817,6.939822387695313,1.271954345703125,6.0834289550781255
1.854000000000049,6.463101196289063,1.1761016845703125,3.6008300781250004
1.86400000000004,7.066629028320313,0.4526458740234375,3.161642456054688
1.8740000000000308,8.4828857421875,-0.1039276123046875,5.218362426757813
1.8840000000000217,6.42467041015625,-0.468048095703125,4.647283935546875
1.8940000000000128,3.4421722412109377,0.13697509765625,3.826779174804688
1.904000000000004,9.224884033203123,-1.3821624755859376,7.080984497070313
1.9139999999999944,16.23663330078125,-1.517193603515625,10.78873291015625
1.9239999999999853,12.041845703125,-0.0097198486328125,8.302395629882813
1.933999999999976,5.214474487304688,-1.3061981201171875,7.909564208984375
1.9440000000000808,0.4520477294921875,-1.5756622314453126,11.806924438476564
1.954000000000072,4.177890014648438,1.0606597900390626,12.149661254882814
1.9640000000000624,6.683666992187501,2.4147094726562504,0.8073455810546876
1.9740000000000533,9.8,-0.0490478515625,-1.1191284179687502
1.9840000000000444,12.420172119140624,0.9017028808593752,3.025564575195313
1.9940000000000355,8.081530761718751,1.35120849609375,5.955426025390626
2.0050000000000026,6.384893798828125,0.7117919921875,14.612371826171875
2.014999999999993,6.391473388671876,0.9610687255859376,2.6665283203125
2.0249999999999844,10.280908203125,-1.0587158203125,11.068215942382814
2.034999999999976,9.573452758789063,0.1906585693359375,2.7139312744140627
2.04500000000008,6.546392822265625,1.0681365966796876,-1.0803985595703125
2.0550000000000708,6.827819824218751,-0.6675292968750001,1.532595825195313
2.0650000000000617,6.441418457031251,-0.2657257080078125,3.028106689453125
2.0750000000000526,5.178884887695313,-0.6715667724609375,13.90626220703125
2.0850000000000435,6.368893432617188,-0.95404052734375,7.661483764648438
2.0950000000000344,9.690090942382811,-0.9520965576171876,11.773129272460938
2.1050000000000253,9.0642822265625,-0.485693359375,11.218350219726563
2.115000000000016,7.210781860351563,0.8559448242187501,4.613937377929688
2.125,6.00836181640625,1.1479888916015626,4.1822265625
2.135000000000005,6.673049926757813,0.5268157958984375,6.352743530273438
2.144999999999996,6.541009521484376,0.9064880371093752,3.940576171875
2.15600000000007,7.586117553710938,1.136474609375,1.631289672851563
2.1660000000000608,9.583172607421876,0.7117919921875,4.643545532226563
2.176000000000052,9.9136474609375,0.3886444091796875,8.117120361328126
2.1860000000000426,8.430099487304688,0.0273651123046875,7.486676025390626
2.196000000000033,6.675292968750001,0.0478515625,8.009454345703126
2.2060000000000244,4.654312133789063,-1.2976745605468751,7.858871459960938
2.216000000000016,1.630242919921875,-2.034588623046876,3.4484527587890628
2.226000000000006,7.598529052734375,-0.7379608154296875,3.174951171875
2.236000000000004,13.4092041015625,0.4643096923828125,5.39346923828125
2.245999999999995,13.036111450195314,0.9932189941406252,5.828619384765625
2.255999999999979,8.411557006835938,1.0086212158203125,10.03028564453125
2.26599999999997,3.63671875,-0.192901611328125,15.155935668945313
2.2760000000000744,4.860971069335938,2.368502807617188,15.365435791015626
2.2860000000000653,7.866497802734376,1.2412994384765623,2.8615234375000003
2.296000000000056,9.151910400390626,-1.720562744140625,-1.6976837158203126
2.3070000000000235,9.370831298828126,0.1712188720703125,1.684075927734375
2.3170000000000144,4.96160888671875,2.672360229492188,2.4344482421875
2.3270000000000053,5.268756103515625,1.038079833984375,9.0630859375
2.336999999999996,8.775827026367189,-0.4424774169921875,5.24931640625
2.346999999999987,9.648519897460938,-1.371246337890625,9.89749755859375
2.356999999999978,11.257229614257811,-1.7681152343750002,5.180081176757813
2.366999999999969,9.12454528808594,-0.5987426757812501,0.7870086669921875
2.377000000000073,8.319442749023438,-1.158905029296875,5.841778564453126
2.3870000000000644,5.03338623046875,-1.2946838378906251,8.79212646484375
2.397000000000056,3.637765502929688,-0.154022216796875,7.75015869140625
2.407000000000046,4.182525634765625,1.5194366455078123,6.990066528320313
2.417000000000037,7.1191162109375,1.630841064453125,9.487020874023438
2.4280000000000044,9.457861328125,0.4352996826171875,7.808627319335938
2.437999999999996,9.795364379882812,0.3494659423828125,4.903738403320313
2.447999999999986,8.391070556640626,1.814022827148437,6.237750244140625
2.45799999999997,6.536224365234376,1.58328857421875,7.380505371093751
2.469000000000058,6.241937255859376,0.8279815673828126,5.540911865234375
2.4780000000000726,7.833001708984375,0.171368408203125,3.3840026855468754
2.4880000000000635,8.816650390625,-0.8218505859375,3.3775726318359376
2.4980000000000544,8.053268432617188,-0.5058807373046875,4.8845977783203125
2.5080000000000453,4.812371826171876,-0.802410888671875,5.176641845703125
2.518000000000036,1.9376892089843751,-1.472930908203125,4.94127197265625
2.52800000000002,9.174041748046877,-1.3524047851562502,8.127438354492188
2.538000000000018,16.355364990234378,-0.9299652099609376,9.927703857421877
2.548000000000009,13.104150390625,-0.5630035400390625,6.170010375976563
2.558,6.148178100585938,-0.1060211181640625,8.736648559570312
2.5690000000000808,0.7609893798828126,-0.7189697265625,13.093832397460938
2.5779999999999816,3.499444580078125,1.8668090820312504,12.573147583007811
2.5890000000000626,5.979949951171875,2.4088775634765627,1.09041748046875
2.599000000000053,10.415341186523438,2.19818115234375,-1.217523193359375
2.6090000000000444,12.679318237304688,2.5277587890625,2.23885498046875
2.619000000000036,7.505816650390625,1.8602294921875,3.305047607421875
2.629000000000026,5.507415771484375,0.60950927734375,12.327310180664064
2.639000000000017,7.5279479980468755,-0.8498138427734375,8.692535400390625
2.649000000000008,9.7330078125,-1.5227264404296876,9.111236572265623
2.659000000000006,8.433837890625,-0.306549072265625,2.4428222656250003
2.66899999999999,8.935083007812501,-0.1960418701171875,-0.4296173095703125
2.6789999999999807,7.555313110351563,-1.7096466064453126,1.29498291015625
2.688999999999972,6.094793701171875,-1.4282196044921875,3.81676025390625
2.699000000000076,3.720309448242188,-1.4336029052734376,15.187039184570311
2.709000000000067,5.2689056396484375,-1.6061676025390623,7.927059936523438
2.719000000000058,9.43812255859375,-0.26737060546875,11.7655029296875
2.7300000000000253,9.875964355468753,1.253411865234375,8.543447875976563
2.740000000000016,8.337088012695313,1.81357421875,3.719113159179688
2.75,7.1932861328125,2.05941162109375,5.203558349609375
2.760000000000005,5.525210571289063,1.6259063720703126,6.780267333984376
2.769999999999996,5.502032470703125,1.6561126708984375,3.833358764648438
2.77999999999998,7.809375,1.3507598876953126,2.2635284423828126
2.7899999999999707,10.314105224609376,0.3028106689453125,4.435690307617188
2.800000000000076,9.975405883789064,0.0468048095703125,6.905279541015625
2.8100000000000662,8.004220581054689,-0.7259979248046875,7.485031127929688
2.82000000000005,5.05850830078125,-1.935894775390625,8.163925170898438
2.830000000000048,1.7219085693359375,-2.4351959228515625,6.247769165039063
2.840000000000046,3.347067260742188,-1.5840362548828126,3.450546264648438
2.85000000000003,16.013525390625002,-2.520132446289063,6.556710815429688
2.861000000000004,15.121691894531253,1.3914337158203125,4.208993530273438
2.870999999999995,10.395004272460938,1.2587951660156251,7.738345336914063
2.880999999999979,1.4256774902343752,0.6690246582031251,13.479486083984376
2.89099999999997,1.6483367919921876,2.3834564208984377,18.854263305664062
2.9010000000000744,6.1167755126953125,3.314468383789063,5.837292480468751
2.9110000000000653,10.127633666992187,-0.2881561279296875,-2.5581146240234376
2.921000000000056,11.388970947265626,-0.000897216796875,0.738409423828125
2.9310000000000542,8.136111450195314,2.275042724609375,2.5153472900390628
2.941000000000045,4.6154327392578125,1.7734985351562502,2.133880615234375
2.951000000000029,5.119519042968751,1.3015625000000002,10.1122314453125
2.96100000000002,10.483380126953126,-2.038327026367188,10.99688720703125
2.9710000000000107,10.409359741210938,-3.4134613037109376,8.589205932617189
2.9810000000000016,10.314553833007814,-2.1081604003906254,0.75306396484375
2.990999999999993,7.572958374023438,-1.15621337890625,0.2420989990234375
3.0009999999999835,7.504769897460938,-1.2864593505859376,3.1928955078125
3.0109999999999744,3.349310302734376,-2.2663696289062503,11.080029296875
3.022000000000056,4.017587280273438,-0.142657470703125,9.617715454101564
3.032000000000046,6.218759155273438,2.64559326171875,9.778915405273438
3.042000000000037,9.0738525390625,1.4464630126953126,9.0571044921875
3.052000000000028,11.005560302734375,1.239654541015625,5.263223266601563
3.062000000000019,8.692834472656251,2.1640869140625,4.464102172851563
3.07200000000001,5.797366333007813,3.045452880859376,6.957318115234376
3.0820000000000007,5.1732025146484375,2.0254669189453125,6.816903686523438
3.091999999999992,6.778921508789063,0.20994873046875,3.809133911132813
3.1019999999999825,9.437225341796877,-0.2190704345703125,2.5983398437500003
3.111999999999973,9.788186645507814,-0.9471618652343752,4.223648071289063
3.122000000000085,8.212374877929689,-1.42657470703125,6.731817626953125
3.132000000000076,4.667471313476563,-1.8161163330078127,7.737448120117188
3.14200000000006,1.18612060546875,-1.85963134765625,5.97965087890625
3.1520000000000508,7.361514282226563,-2.3894378662109377,6.077896118164063
3.163000000000018,15.941299438476564,-1.4557342529296875,7.531387329101563
3.173000000000009,13.404119873046875,0.1574615478515625,4.9681884765625
3.183,8.222094726562501,-0.223406982421875,8.214617919921876
3.1929999999999907,2.83580322265625,-0.5523864746093751,13.601956176757811
3.2029999999999816,3.510809326171876,2.744586181640625,14.961090087890629
3.2129999999999725,5.122360229492188,2.8156158447265627,3.176446533203125
3.223000000000084,8.606253051757813,2.2765380859375,-0.9111236572265624
3.233000000000075,12.095529174804687,3.950445556640626,0.8196075439453125
3.243000000000059,8.031436157226564,2.327679443359376,3.152520751953125
3.25300000000005,5.644091796875,-0.2346221923828125,10.092941284179688
3.2630000000000408,7.085021972656251,-0.8333648681640625,6.8678955078125
3.273000000000032,8.488568115234376,-1.7072540283203126,9.804934692382814
3.2830000000000226,9.707586669921875,-1.840640258789063,4.718463134765625
3.29399999999999,9.655847167968751,-1.277337646484375,-0.21593017578125
3.3039999999999807,9.108843994140626,-1.397564697265625,1.831369018554688
3.313999999999972,5.841180419921876,-1.934249877929688,9.664520263671877
3.324000000000076,3.4794067382812504,-2.3110809326171875,9.515283203125
3.334000000000067,4.2958740234375,-0.30924072265625,9.074151611328126
3.344000000000058,7.150518798828125,0.9930694580078124,9.658538818359377
3.354000000000049,9.7892333984375,1.8409393310546875,7.620211791992188
3.36400000000004,9.786691284179687,2.508319091796875,4.587319946289063
3.3740000000000308,8.3034423828125,2.8378967285156254,5.165426635742188
3.3840000000000217,6.002978515625,2.1741058349609377,5.8917236328125
3.394000000000013,5.5605010986328125,1.283319091796875,5.865255737304688
3.4040000000000035,6.932046508789063,0.6956420898437501,4.5925537109375005
3.4139999999999944,9.478347778320312,-0.2208648681640625,4.1100006103515625
3.4239999999999853,9.325521850585938,-1.045108032226563,4.114636230468751
3.433999999999976,6.0236145019531255,-1.56654052734375,5.032937622070313
3.44500000000005,1.749871826171875,-2.1573577880859376,5.062545776367188
3.455000000000048,8.468829345703126,-2.3173614501953126,8.620309448242189
3.465000000000046,14.398385620117187,-1.46724853515625,9.443505859375
3.47500000000003,13.626480102539064,0.36187744140625,6.650021362304688
3.4850000000000207,6.289938354492188,1.2208129882812502,8.526998901367188
3.495000000000012,1.4213409423828125,0.3599334716796875,14.345001220703129
3.5050000000000026,3.6482330322265626,2.715875244140625,12.487911987304688
3.514999999999993,6.694583129882813,0.83680419921875,0.1030303955078125
3.5249999999999844,9.974807739257812,-0.8734405517578125,-1.0597625732421876
3.534999999999976,10.908810424804688,2.119525146484375,2.390036010742188
3.54500000000008,6.952084350585938,3.460714721679688,2.8746826171875
3.5550000000000708,7.748962402343751,1.3987609863281252,12.663616943359376
3.5650000000000617,7.559051513671876,-0.426776123046875,5.369692993164063
3.5750000000000526,9.854730224609376,-2.1305908203125004,10.908062744140626
3.58600000000002,7.979248046875001,-1.22320556640625,2.721856689453125
3.5960000000000107,8.394808959960939,-1.4380889892578126,-0.3369049072265625
3.6060000000000016,7.75853271484375,-1.143951416015625,2.5673858642578127
3.615999999999993,6.4647460937500005,-2.172760009765625,9.361410522460938
3.625999999999984,3.668719482421875,-1.2261962890625,6.929504394531251
3.6359999999999744,5.157800292968751,0.8048034667968751,10.977597045898438
3.646000000000086,7.615576171875,1.066192626953125,11.6434814453125
3.65600000000007,9.831851196289064,0.762335205078125,7.643090820312499
3.6660000000000608,9.78265380859375,1.0382293701171876,4.190899658203126
3.676000000000052,7.78604736328125,2.306146240234375,4.90897216796875
3.6860000000000426,5.842526245117188,2.40513916015625,6.440670776367188
3.6960000000000335,4.959066772460938,1.469342041015625,3.7744415283203128
3.706000000000024,7.773486328125,0.635528564453125,3.5363800048828127
3.7160000000000153,9.440515136718751,-0.151629638671875,4.484140014648438
3.726999999999983,9.758279418945314,-0.6715667724609375,5.684616088867188
3.7369999999999735,8.093493652343751,-0.8882446289062501,7.682119750976563
3.747000000000085,4.788595581054688,-1.819705200195313,8.288937377929688
3.757000000000076,1.1536712646484375,-1.801760864257813,5.62255859375
3.76700000000006,6.208740234375001,-1.538128662109375,4.545599365234375
3.7770000000000494,16.362393188476563,-0.765325927734375,7.030142211914063
3.7870000000000417,14.15150146484375,-0.3635223388671875,4.9334960937500005
3.797000000000033,8.396005249023439,-0.5950042724609376,7.721298217773438
3.807000000000024,1.8506591796875,-0.6540710449218751,13.27207946777344
3.8170000000000144,3.0985382080078128,2.3770263671875003,16.79933776855469
3.827000000000005,5.746524047851563,3.4334991455078128,4.341183471679688
3.836999999999996,9.113330078125,2.345025634765625,-1.6813842773437502
3.846999999999987,12.628176879882814,2.40155029296875,1.1704193115234376
3.858000000000075,7.780813598632813,1.2806274414062502,2.961114501953125
3.868000000000059,4.1020751953125005,1.2768890380859377,6.130383300781251
3.87800000000005,6.505718994140626,-0.2388092041015625,9.68037109375
3.8880000000000408,10.1349609375,-2.36446533203125,9.150863647460938
3.898000000000032,9.717605590820312,-1.3298248291015626,5.596090698242188
3.908000000000023,9.435281372070314,-0.380120849609375,0.0342437744140625
3.9180000000000135,7.950985717773438,-1.4258270263671875,0.8139251708984375
3.928000000000005,7.376019287109376,-1.86202392578125,7.873526000976563
3.9379999999999953,2.836251831054688,-1.703515625,9.808224487304688
3.947999999999986,4.964001464843751,-1.6408599853515626,8.268301391601563
3.95799999999997,7.133920288085938,1.256103515625,9.741531372070312
3.9700000000000335,9.806878662109376,0.678594970703125,9.088058471679688
3.9780000000000726,9.103460693359375,2.3688018798828128,4.975665283203125
3.98900000000004,7.997341918945313,2.625704956054688,4.328024291992188
3.9980000000000544,6.267657470703125,1.8349578857421875,6.859371948242188
4.008000000000045,5.403189086914063,1.7069549560546875,6.175991821289063
4.019000000000013,7.250857543945313,0.654669189453125,4.062747192382813
4.029000000000004,9.387579345703124,0.0805999755859375,2.846868896484376
4.038999999999994,10.190289306640626,-0.0835906982421875,5.467788696289063
4.048999999999985,7.936929321289063,-0.9733306884765626,6.590805053710938
4.058999999999976,4.243386840820313,-2.248873901367188,6.955374145507813
4.07000000000005,0.4302154541015625,-1.6514770507812502,4.894317626953125
4.079000000000072,7.747915649414063,-2.9467590332031253,6.457568359375
4.089000000000063,17.2229736328125,-1.3648162841796876,7.7163635253906255
4.0990000000000535,15.362893676757814,2.0133544921875,5.1488281250000005
4.109000000000044,7.034179687500001,0.8077941894531251,8.031735229492188
4.119000000000035,0.031103515625,0.3001190185546875,16.391851806640627
4.129000000000026,1.9948120117187504,3.03917236328125,15.879391479492188
4.139000000000017,5.867498779296875,1.7821716308593751,0.8948242187500001
4.149000000000008,11.189190673828126,-0.0931610107421875,-2.25679931640625
4.159999999999975,12.17822265625,1.1566619873046875,1.6949920654296875
4.17000000000008,7.176089477539063,2.9416748046875,2.8592803955078128
4.180000000000071,5.577099609375001,2.285211181640625,2.596246337890625
4.190000000000062,5.742935180664063,-0.27574462890625,13.333987426757814
4.200000000000053,10.621551513671877,-3.225942993164063,12.122296142578126
4.210000000000044,10.1289794921875,-2.1334320068359376,6.3361450195312505
4.220000000000034,9.630874633789062,-1.9009033203125,-0.60831298828125
4.230000000000025,7.667614746093751,-1.062005615234375,0.7760925292968751
4.240000000000016,6.2030578613281255,-2.195040893554688,3.375479125976563
4.25,2.4583740234375,-1.079052734375,3.2039611816406253
4.260000000000005,5.139108276367188,0.008673095703125,18.996771240234377
4.271000000000086,7.958163452148438,1.5476989746093752,9.34705505371094
4.27999999999998,10.539157104492189,1.5070251464843751,8.73590087890625
4.291000000000061,10.309170532226563,1.2571502685546876,5.4239746093750005
4.301000000000052,6.970776367187501,2.5383758544921875,4.314715576171875
4.311000000000043,5.5211730957031255,2.92791748046875,7.234408569335938
4.3210000000000335,4.879513549804688,1.6486358642578127,5.18890380859375
4.331000000000024,7.361962890625,0.4619171142578125,2.439532470703125
4.341000000000015,9.750802612304687,-0.2400054931640625,2.8667572021484378
4.351000000000006,10.017724609375,-1.16339111328125,5.55078125
4.361000000000004,6.761425781250001,-1.385601806640625,6.972122192382813
4.370999999999995,3.0952484130859377,-1.8419860839843751,6.734060668945313
4.380999999999979,3.8729858398437504,-2.720062255859375,6.695330810546875
4.39099999999997,13.807717895507814,-2.062701416015625,9.63431396484375
4.401000000000074,13.89773864746094,-1.1213714599609377,5.887835693359375
4.411000000000065,9.372027587890626,-0.3973175048828125,5.512799072265626
4.421000000000056,3.390432739257813,-0.5692840576171876,10.622299194335938
4.431000000000054,3.429611206054688,1.7871063232421875,15.10733642578125
4.442000000000014,5.018133544921875,3.42796630859375,5.5784454345703125
4.452000000000005,7.659689331054688,2.6971832275390626,-0.7408020019531251
4.461999999999996,11.7559326171875,4.047793579101563,1.1065673828125
4.471999999999987,9.65823974609375,2.474972534179688,6.305938720703126
4.481999999999978,6.579739379882813,1.0048828125,7.358224487304688
4.491999999999969,5.894116210937501,0.7786346435546876,5.904135131835938
4.5020000000000735,8.375070190429689,-1.9740264892578123,9.261968994140624
4.512000000000064,8.976205444335939,-1.7563018798828127,6.505120849609376
4.522000000000055,8.571112060546875,-1.5394744873046875,0.5683868408203125
4.532000000000046,9.038412475585938,-1.6274017333984376,1.0128082275390626
4.542000000000037,7.508358764648438,-2.4384857177734376,8.118167114257814
4.552000000000028,4.374978637695313,-3.111398315429688,9.009851074218751
4.562000000000019,4.3488098144531255,-1.1989807128906251,9.210977172851564
4.572999999999986,6.694284057617188,-0.0079254150390625,9.860562133789063
4.58299999999997,9.130227661132814,0.8871978759765625,8.631076049804689
4.593000000000082,9.667959594726565,2.7374084472656253,5.230624389648438
4.603000000000073,8.009902954101562,3.0127044677734376,3.886294555664063
4.613000000000064,6.916943359375001,2.7910919189453125,6.100625610351563
4.623000000000054,5.542706298828126,2.0049804687500004,6.032586669921876
4.633000000000045,6.465643310546875,1.696038818359375,4.523767089843751
4.643000000000036,8.781509399414062,0.6551177978515625,3.911566162109376
4.65300000000002,8.315554809570314,-1.0319488525390623,3.878219604492188
4.663000000000018,4.403091430664063,-1.8369018554687504,3.66243896484375
4.673000000000009,4.723995971679688,-2.064495849609376,5.01005859375
4.683,14.174978637695313,-1.5302032470703126,11.9150390625
4.692999999999991,13.965478515625,-1.713983154296875,8.37222900390625
4.702999999999982,9.4949462890625,-0.6543701171875,7.6478759765625
4.7129999999999725,1.2909454345703126,-0.5993408203125,11.171694946289064
4.7240000000000535,1.9486053466796875,1.0208831787109376,16.420263671875002
4.734000000000044,5.750262451171875,2.2216583251953126,4.787698364257813
4.744000000000035,9.188546752929687,-0.698333740234375,-2.549591064453125
4.754000000000026,11.971563720703124,0.132489013671875,1.0383789062500002
4.764000000000017,9.283950805664062,3.7647216796875,3.462957763671876
4.774000000000008,5.233914184570313,2.33934326171875,2.847616577148438
4.784000000000006,6.666769409179688,2.7095947265625,16.016516113281252
4.79399999999999,10.427902221679688,-1.6241119384765623,5.575753784179688
4.803999999999981,9.7712890625,-0.6537719726562501,8.697470092773438
4.813999999999972,8.114877319335939,0.3273345947265625,-0.7110443115234375
4.824000000000076,7.240689086914063,-1.981503295898437,0.2175750732421875
4.834000000000067,7.535275268554688,-2.0809448242187503,3.320748901367188
4.844000000000058,3.7240478515625,-1.8448272705078128,5.614932250976563
4.854000000000049,4.784857177734375,-1.4820526123046875,13.85527038574219
4.865000000000016,7.599575805664063,0.6657348632812501,10.320086669921876
4.875,9.286343383789063,-0.2890533447265625,11.214163208007813
4.885000000000005,9.6217529296875,0.22191162109375,5.857330322265625
4.894999999999996,7.356130981445313,1.4563323974609377,3.877471923828125
4.90499999999998,6.178833007812501,2.5042816162109376,6.793276977539063
4.914999999999971,5.696578979492188,2.7127349853515628,5.453582763671875
4.925000000000075,6.707144165039063,1.5059783935546875,1.624859619140625
4.935000000000066,9.596929931640624,0.8925811767578126,3.086276245117188
4.94500000000005,9.764410400390624,0.2830718994140625,6.04544677734375
4.955000000000048,8.73291015625,-0.1766021728515625,7.574752807617188
4.965000000000046,7.173696899414063,-0.6883148193359375,8.17005615234375
4.97500000000003,4.282415771484375,-1.580447387695313,7.95592041015625
4.9869999999999735,1.5420166015625,-1.3539001464843752,4.7675109863281255
4.995000000000012,7.1660705566406255,-1.4630615234375002,3.7599365234375
5.005999999999979,15.025241088867189,-0.7331756591796875,6.205151367187501
5.01599999999997,13.282696533203126,-0.194696044921875,5.624652099609375
5.026000000000074,8.2208984375,-1.2453369140625,8.659936523437501
5.036000000000065,3.3436279296875004,-1.5656433105468752,14.038751220703126
5.046000000000056,4.567730712890626,2.4253265380859377,15.898831176757811
5.056000000000054,6.2841064453125,4.069775390625001,2.9400299072265628
5.066000000000045,8.790182495117188,0.7146331787109376,-1.62216796875
5.076000000000029,10.921820068359375,0.7098480224609376,1.9086791992187504
5.086999999999996,6.550729370117188,1.7353668212890627,2.4224853515625
5.096000000000011,5.15361328125,0.7624847412109376,9.797457885742189
5.106000000000002,7.664175415039063,-0.1493865966796875,5.9294067382812505
5.1159999999999926,9.141143798828123,-0.9734802246093752,10.9771484375
5.125999999999984,10.160232543945312,-0.68487548828125,4.963104248046875
5.135999999999974,10.076193237304688,0.1493865966796875,0.063104248046875
5.146000000000086,8.011099243164063,-0.5552276611328125,1.3196563720703125
5.15600000000007,6.403585815429688,-1.6010833740234376,10.60794372558594
5.167000000000037,2.719015502929688,-1.7219085693359375,7.861862182617188
5.177000000000028,4.783660888671875,-0.8798706054687501,8.3225830078125
5.187000000000019,7.242333984375,0.7885040283203125,9.433636474609376
5.19700000000001,9.992752075195312,0.055029296875,8.095437622070314
5.207000000000001,9.611883544921875,1.269412231445313,5.222250366210938
5.216999999999992,7.760177612304688,2.026214599609375,5.2759338378906255
5.226999999999983,6.089859008789063,1.245635986328125,7.17833251953125
5.2369999999999735,6.002828979492188,0.9829010009765624,5.889779663085938
5.247000000000085,7.4660400390625,0.9467132568359377,3.571371459960938
5.257000000000076,9.332550048828123,0.4789642333984375,3.012106323242188
5.26700000000006,9.300100708007813,-0.18602294921875,4.870541381835938
5.277000000000051,6.175244140625001,-1.0457061767578126,6.037521362304688
5.288000000000018,1.7238525390625,-1.8512573242187504,4.83599853515625
5.297000000000033,5.457171630859375,-1.6419067382812502,6.823931884765625
5.308,15.093728637695314,-0.7672698974609375,9.994696044921875
5.317999999999991,15.786679077148438,0.07835693359375,6.132626342773438
5.327999999999982,9.006411743164064,0.6433044433593751,7.415347290039063
5.3379999999999725,0.5788543701171875,-0.204864501953125,13.25428466796875
5.348000000000084,1.476220703125,1.99600830078125,16.378692626953125
5.358000000000075,5.3821044921875005,1.9548858642578129,3.178240966796875
5.368000000000059,9.644183349609376,-0.489581298828125,-2.5338897705078125
5.37800000000005,12.371572875976565,0.78297119140625,1.3654144287109375
5.388000000000041,8.974261474609376,3.0064239501953125,3.0218261718750004
5.398000000000032,6.0834289550781255,2.4147094726562504,2.7492218017578125
5.408000000000023,6.129934692382813,0.28052978515625,14.47330322265625
5.4180000000000135,10.157391357421876,-2.212985229492188,9.65345458984375
5.428000000000004,9.480291748046875,-1.6022796630859375,7.414001464843751
5.438999999999972,8.683712768554688,-0.919049072265625,-0.3730926513671875
5.447999999999986,7.742233276367188,-1.5596618652343752,0.5476013183593751
5.459000000000067,6.886288452148438,-1.5672882080078123,2.6476867675781253
5.469000000000058,3.4006011962890628,-1.4359954833984376,4.174899291992188
5.479000000000049,4.798764038085938,-0.6434539794921875,16.4956298828125
5.48900000000004,7.242633056640625,1.60721435546875,10.408163452148438
5.499000000000031,10.025350952148438,0.2175750732421875,9.992453002929688
5.509000000000022,10.211972045898438,0.8586364746093751,5.4259185791015625
5.519000000000013,7.680624389648438,2.301510620117188,4.26895751953125
5.529000000000004,6.222796630859375,2.372091674804688,6.427062988281251
5.538999999999994,4.894317626953125,1.7655731201171876,4.702313232421876
5.548999999999985,6.542953491210938,1.0169952392578123,3.0171905517578126
5.558999999999976,9.218304443359376,-0.0536834716796875,3.3295715332031253
5.569000000000081,9.939666748046877,-0.334661865234375,4.996151733398438
5.579000000000072,6.833203125000001,-0.4197479248046875,5.882452392578125
5.590000000000046,2.9950592041015627,-1.2562530517578123,5.783160400390625
5.60000000000003,6.594094848632813,-2.277435302734375,8.416491699218751
5.610000000000021,13.495486450195314,-1.8991088867187504,9.7796630859375
5.620000000000012,12.884481811523438,-0.9817047119140626,6.314462280273438
5.630000000000003,7.826123046875001,-0.9356475830078126,6.573608398437501
5.6399999999999935,2.8287750244140626,-1.3642181396484376,11.48377685546875
5.649999999999984,4.0187835693359375,1.3848541259765623,13.146170043945313
5.659999999999975,5.834451293945313,3.638812255859375,3.1788391113281254
5.67000000000008,8.242581176757813,2.217919921875,-0.7701110839843751
5.680000000000071,11.884234619140626,1.702618408203125,2.2430419921875
5.690000000000062,8.527447509765626,1.7871063232421875,10.707833862304687
5.700000000000053,7.091302490234376,1.024172973632813,4.5162902832031255
5.710000000000044,6.423175048828125,0.6663330078125,6.999337768554688
5.720000000000034,8.937176513671876,-1.1340820312500002,9.347653198242188
5.731000000000002,8.507858276367188,-0.4209442138671875,4.379913330078125
5.7409999999999926,8.386285400390626,-0.2124908447265625,-0.16807861328125
5.750999999999984,8.597280883789063,-1.45767822265625,1.322198486328125
5.760999999999974,6.776828002929688,-1.7566009521484376,9.791925048828126
5.771000000000086,4.152917480468751,-2.2244995117187503,8.72513427734375
5.78100000000007,5.227334594726563,-1.652224731445313,9.285296630859376
5.791000000000061,7.578790283203125,-0.1873687744140625,10.585662841796877
5.801000000000052,9.376065063476563,0.3662139892578125,8.577093505859375
5.811000000000043,8.763864135742189,1.6300933837890623,4.326678466796875
5.8210000000000335,7.804290771484376,2.2298828125,4.586273193359375
5.831000000000024,6.5209716796875,1.6510284423828123,5.979800415039063
5.841000000000015,5.921331787109375,1.6324859619140626,4.832708740234375
5.851000000000006,7.027151489257813,1.8629211425781247,3.996353149414063
5.8619999999999735,9.42197265625,0.6177337646484375,4.496551513671875
5.872000000000085,9.34107360839844,0.0722259521484375,5.574108886718751
5.882000000000076,6.427511596679688,-0.8240936279296875,5.637362670898438
5.89200000000006,2.366259765625,-1.9631103515625,4.9349914550781255
5.902000000000051,7.0808349609375005,-1.0080230712890623,7.78604736328125
5.912000000000042,13.49100036621094,-1.6961883544921876,8.9901123046875
5.922000000000033,13.449279785156252,-0.1734619140625,5.940921020507813
5.932000000000024,7.297213745117188,0.19439697265625,8.011099243164063
5.942000000000014,1.7531616210937502,-0.8218505859375,13.180114746093752
5.952000000000005,3.96749267578125,1.9118194580078127,14.203689575195314
5.961999999999996,7.001281738281251,0.9634613037109376,1.61439208984375
5.971999999999987,9.626388549804688,-1.0466033935546877,-1.48758544921875
5.981999999999978,11.451776123046876,1.25191650390625,2.3203521728515626
5.991999999999969,6.711331176757813,3.0786499023437504,3.279327392578125
6.0020000000000735,6.751406860351563,1.579400634765625,13.738931274414064
6.013000000000041,6.861465454101563,0.95224609375,3.0834350585937504
6.023000000000032,9.956564331054688,-1.5632507324218752,10.672842407226565
6.033000000000023,9.557601928710938,-0.650482177734375,3.814068603515625
6.0430000000000135,7.732363891601563,-0.131591796875,-0.2974273681640625
6.053000000000004,7.760775756835938,-1.577456665039063,1.7083007812500002
6.062999999999995,5.864059448242188,-1.5019409179687502,11.525198364257813
6.072999999999986,4.742388916015625,-1.2795806884765626,6.453381347656251
6.08299999999997,5.134622192382813,0.0829925537109375,8.717208862304688
6.093000000000082,8.099325561523438,0.7022216796875,11.005859375
6.103000000000073,9.33987731933594,-0.1801910400390625,8.550027465820314
6.113000000000064,8.975308227539063,0.2966796875,4.740594482421876
6.123000000000054,7.298410034179688,1.856491088867188,5.376272583007813
6.133000000000045,6.477157592773438,1.9964569091796875,6.306237792968751
6.143000000000036,5.980099487304688,1.222607421875,3.887789916992188
6.15300000000002,7.7914306640625,1.0316497802734377,3.6578033447265614
6.163999999999994,8.9685791015625,0.2151824951171875,4.431652832031251
6.173999999999985,9.382794189453126,0.130096435546875,6.006716918945313
6.183999999999976,6.405081176757813,-0.0237762451171875,6.283508300781251
6.194000000000081,3.115585327148438,-0.456085205078125,6.274237060546875
6.204000000000072,4.50223388671875,-1.124810791015625,6.093447875976563
6.214000000000063,13.36778259277344,-1.9409790039062504,7.904928588867188
6.2240000000000535,13.2871826171875,-0.2391082763671875,6.882550048828126
6.234000000000044,9.51588134765625,-0.5013946533203125,6.613833618164063
6.244000000000035,3.2959259033203128,-2.5540771484375,10.333245849609376
6.254000000000026,3.490771484375,-0.16688232421875,14.9009765625
6.264000000000017,5.977407836914063,2.983544921875,6.322238159179688
6.274000000000008,7.753897094726563,1.5961486816406252,-1.1805877685546875
6.284000000000006,11.557797241210938,0.9526947021484377,1.45528564453125
6.29500000000008,9.275576782226564,1.0765106201171877,3.964651489257813
6.305000000000071,6.848306274414063,0.7574005126953125,12.19556884765625
6.315000000000062,5.029348754882813,1.23157958984375,3.4927154541015626
6.325000000000053,8.779116821289064,-0.49945068359375,10.492950439453123
6.335000000000044,9.802392578125,0.1302459716796875,5.5759033203125
6.345000000000034,9.01044921875,0.71717529296875,0.3046051025390625
6.355000000000025,8.287142944335939,-0.5103668212890625,0.2821746826171875
6.365000000000016,6.943859863281251,-0.5854339599609375,4.629788208007813
6.375,4.739846801757813,-1.3365539550781251,12.2870849609375
6.385000000000005,4.304696655273438,-1.73641357421875,6.886288452148438
6.394999999999996,7.830609130859376,-0.6458465576171876,10.411453247070312
6.40499999999998,9.36036376953125,-0.127703857421875,9.602313232421876
6.414999999999971,8.986224365234376,0.0228790283203125,5.753103637695313
6.425000000000075,7.379608154296876,1.5064270019531252,5.029498291015625
6.435000000000066,6.237301635742188,1.1713165283203126,6.666021728515625
6.4460000000000335,6.256442260742188,0.8985626220703126,5.410067749023438
6.456000000000024,6.864755249023438,1.38470458984375,3.08104248046875
6.466000000000015,9.153405761718751,1.0379302978515623,3.834854125976563
6.476000000000006,9.787438964843751,0.5836395263671875,5.504275512695313
6.488000000000064,7.987771606445313,-0.229986572265625,6.224142456054688
6.495999999999995,3.2911407470703127,-0.70281982421875,5.872134399414063
6.505999999999979,2.236761474609376,-1.1879150390625002,5.35758056640625
6.51599999999997,11.358465576171875,-0.6419586181640625,8.338732910156251
6.526000000000074,15.268087768554688,-0.8225982666015625,6.586917114257813
6.536000000000065,12.43482666015625,0.9622650146484376,6.032437133789063
6.546000000000056,4.022222900390625,-0.0497955322265625,10.005462646484377
6.556000000000054,1.303955078125,-0.40614013671875,17.295648193359376
6.566000000000045,4.128244018554688,1.496856689453125,9.8107666015625
6.576000000000029,7.933041381835938,-0.8484680175781251,-1.5230255126953125
6.5879999999999725,11.940310668945314,-1.2538604736328125,-0.3721954345703125
6.596999999999987,10.380947875976563,2.1201232910156254,2.7335205078125
6.606999999999978,5.561697387695313,2.47930908203125,2.552880859375
6.616999999999969,5.1263977050781255,2.398260498046876,14.56766052246094
6.6270000000000735,9.118264770507814,-0.8599822998046875,6.090905761718751
6.637000000000064,9.911105346679689,-1.08682861328125,10.679571533203124
6.647000000000055,9.302493286132814,0.378326416015625,1.236065673828125
6.657000000000046,8.203103637695314,-0.7614379882812501,-0.5453582763671876
6.667000000000037,7.5608459472656255,-1.2884033203125,2.0751129150390626
6.677000000000028,5.3526458740234375,-1.4117706298828123,7.482040405273438
6.687999999999995,3.1429504394531254,-1.0783050537109375,10.840322875976565
6.69700000000001,6.125448608398438,1.0276123046875,9.334194946289063
6.707000000000001,9.297109985351565,-0.0992919921875,10.904772949218753
6.716999999999992,10.151708984375,-0.5797515869140626,7.439422607421876
6.728000000000073,8.462997436523438,0.97557373046875,4.403988647460938
6.738000000000064,6.768603515625,1.6917022705078126,6.017483520507813
6.748000000000054,5.563641357421876,1.8333129882812504,6.7653137207031255
6.758000000000045,6.110345458984376,1.017742919921875,3.6153350830078126
6.768000000000036,8.134317016601564,0.6554168701171875,2.392578125
6.77800000000002,10.019070434570311,0.4352996826171875,4.693939208984375
6.788000000000018,8.662030029296876,0.02930908203125,6.0894104003906255
6.798000000000009,5.293280029296875,-0.0168975830078125,6.7354064941406255
6.808,1.3812652587890626,-0.5628540039062501,5.603268432617188
6.817999999999991,8.132672119140626,-1.8958190917968751,7.47501220703125
6.827999999999982,15.869671630859376,-0.8975158691406251,8.838482666015626
6.8379999999999725,13.260415649414064,-0.1769012451171875,5.312570190429688
6.848000000000084,7.069171142578125,-1.6081115722656252,7.485330200195313
6.858000000000075,1.693646240234375,-2.4256256103515628,13.2512939453125
6.868000000000059,3.5553710937500003,1.1592041015625,14.045031738281253
6.879000000000026,5.403787231445313,3.061453247070313,1.49117431640625
6.889000000000017,9.032879638671876,2.4884307861328128,-1.1713165283203126
6.899000000000008,12.946987915039063,0.593658447265625,2.001242065429688
6.909000000000006,8.694180297851563,0.899908447265625,2.8483642578125004
6.91899999999999,5.096340942382813,1.1596527099609375,12.9235107421875
6.928999999999981,6.720452880859376,0.1093109130859375,7.33743896484375
6.938999999999972,8.54090576171875,-0.663641357421875,11.168704223632814
6.949000000000076,9.99619140625,0.3246429443359375,3.7473754882812496
6.959000000000067,8.879904174804688,0.2214630126953125,-1.036135864257813
6.969000000000058,7.977752685546876,-0.49705810546875,1.0926605224609376
6.979000000000049,6.164926147460938,-0.9509002685546876,3.142202758789063
6.990000000000016,3.8269287109375,-1.929913330078125,14.977688598632811
7.0,4.715472412109375,-0.8403930664062501,6.553121948242188
7.010000000000005,9.007308959960938,-0.5058807373046875,10.965484619140623
7.019999999999996,10.48487548828125,-0.1351806640625,9.401336669921877
7.02999999999998,8.741433715820314,1.2430938720703126,5.200717163085938
7.039999999999971,6.472671508789063,1.325189208984375,4.312322998046875
7.050000000000075,6.064288330078125,1.2057098388671876,7.069918823242188
7.060000000000066,5.5304443359375,0.8365051269531251,5.018283081054688
7.07000000000005,7.207940673828125,1.323394775390625,2.704510498046876
7.080000000000048,9.571209716796876,1.0347900390625,3.413162231445313
7.090000000000046,10.278366088867188,-0.0623565673828125,6.189151000976563
7.10000000000003,6.256591796875001,-0.6365753173828126,6.412857055664063
7.110000000000021,1.9885314941406247,-1.2248504638671875,5.67998046875
7.120000000000012,5.807833862304688,-1.0036865234375,7.746270751953125
7.130000000000003,14.521902465820313,-1.045556640625,9.82557067871094
7.1399999999999935,14.07254638671875,-0.094207763671875,4.5526275634765625
7.149999999999984,7.755691528320313,0.5393768310546876,5.844918823242188
7.161000000000065,1.7512176513671875,-0.073870849609375,12.830050659179689
7.171000000000056,3.1677734375,1.7851623535156251,15.501364135742188
7.181000000000054,6.186758422851563,0.6709686279296876,2.427569580078125
7.191000000000045,9.679324340820314,-1.14783935546875,-1.6573089599609376
7.201000000000029,12.326113891601564,0.4631134033203125,2.195489501953125
7.21100000000002,7.995846557617188,2.8585327148437503,3.044406127929688
7.221000000000011,5.707644653320313,1.9584747314453128,14.348291015625
7.231000000000002,6.272442626953126,0.9305633544921876,3.734814453125
7.240999999999992,9.547283935546876,-1.6484863281250002,10.323825073242189
7.250999999999983,9.967330932617188,-1.0238739013671876,5.046246337890626
7.260999999999974,7.471124267578125,0.146246337890625,-0.671417236328125
7.271000000000086,8.325125122070313,-1.2691131591796876,1.4763702392578126
7.282000000000046,6.755892944335938,-1.68616943359375,7.699615478515626
7.292000000000037,4.833157348632813,-1.6259063720703126,9.316400146484376
7.301000000000052,4.4205871582031255,0.4053924560546875,8.175289916992188
7.312000000000019,7.9930053710937505,0.6241638183593751,11.286688232421875
7.32200000000001,9.570162963867189,-0.1990325927734375,8.85552978515625
7.332000000000001,9.0523193359375,0.555975341796875,4.730725097656251
7.341999999999992,7.261474609375001,1.5921112060546876,4.754800415039063
7.3519999999999825,6.407772827148438,1.8723419189453123,6.833651733398438
7.361999999999973,5.809030151367188,1.52646484375,4.840933227539063
7.372000000000085,7.273886108398438,0.8215515136718751,3.070574951171875
7.382000000000076,9.389971923828126,0.5147033691406251,4.182974243164063
7.39200000000006,9.040505981445314,0.05323486328125,5.60521240234375
7.402000000000051,5.382852172851563,-0.3578399658203125,5.636166381835938
7.412000000000042,2.309884643554688,-0.329278564453125,5.492462158203125
7.422000000000033,9.550274658203126,-1.9195953369140624,8.349948120117189
7.432000000000023,14.65738220214844,-1.331170654296875,8.612832641601564
7.442999999999991,12.263906860351565,-0.2857635498046875,6.11004638671875
7.452999999999982,5.175146484375,-1.6677764892578126,7.745523071289063
7.462999999999971,2.167376708984375,-1.7836669921875,13.655789184570311
7.473000000000084,4.843026733398438,1.657757568359375,11.802288818359376
7.483000000000075,6.254348754882813,2.730828857421875,0.6512298583984375
7.493000000000059,9.858468627929687,1.4291168212890626,-0.209649658203125
7.50300000000005,11.719894409179688,1.0611083984375,2.62884521484375
7.513000000000041,7.76451416015625,1.3343109130859376,10.617813110351562
7.523000000000032,6.060400390625,0.7277923583984376,6.268704223632813
7.533000000000023,6.309677124023438,0.6622955322265626,6.744528198242188
7.543000000000013,10.111932373046876,-0.6471923828125,9.280810546875
7.553000000000004,9.003570556640625,0.518890380859375,2.116534423828125
7.562999999999995,8.182766723632813,-0.014654541015625,-0.5208343505859375
7.572999999999986,8.27772216796875,-0.8973663330078125,1.9933166503906248
7.584000000000067,5.796469116210938,-1.37154541015625,10.124044799804688
7.594000000000058,3.7784790039062495,-1.7851623535156251,8.6814697265625
7.605000000000025,5.982940673828125,-1.0705291748046877,9.855328369140626
7.61400000000004,8.777471923828125,-0.449505615234375,10.704244995117188
7.624000000000031,9.400140380859376,-0.177947998046875,7.691091918945313
7.634000000000022,8.40931396484375,1.3003662109375,4.484588623046875
7.644000000000013,6.650320434570313,1.6544677734375002,5.291036987304688
7.6540000000000035,6.333303833007813,1.1551666259765625,6.192440795898438
7.663999999999994,6.141000366210938,1.5167449951171876,4.066036987304688
7.673999999999985,7.884591674804688,1.2118408203125002,3.207101440429688
7.683999999999976,9.887628173828126,0.7825225830078125,4.975515747070313
7.694000000000081,9.605752563476564,0.13458251953125,6.190795898437501
7.705000000000048,6.065036010742188,-0.7602416992187501,6.181674194335938
7.714000000000063,2.539422607421875,-1.4884826660156252,5.996548461914063
7.72500000000003,4.66612548828125,-1.9441192626953123,6.454727172851563
7.735000000000021,13.46243896484375,-0.775494384765625,8.8525390625
7.745000000000012,14.38956298828125,-0.061907958984375,4.808035278320313
7.755000000000003,8.92969970703125,0.221612548828125,6.46654052734375
7.7649999999999935,2.8806640625,0.0426177978515625,13.345202636718753
7.774999999999984,2.8364013671875004,1.6544677734375002,15.828997802734376
7.784999999999975,5.8630126953125,1.6807861328125002,3.915304565429688
7.79500000000008,9.441860961914063,-0.445916748046875,-1.5364837646484375
7.805000000000071,11.417681884765626,0.44681396484375,1.45050048828125
7.815000000000062,8.1527099609375,3.178390502929688,2.7827178955078127
7.825000000000053,5.514593505859375,2.11025390625,11.922366333007814
7.8350000000000435,6.753500366210938,0.6492858886718751,3.9585205078125
7.845000000000034,9.324325561523438,-1.5861297607421876,10.366143798828126
7.855000000000025,9.591845703125,-1.7799285888671876,5.1268463134765625
7.865000000000016,8.989364624023438,-0.7259979248046875,0.12261962890625
7.875999999999983,8.259628295898438,-1.2214111328125,2.7149780273437503
7.885999999999974,7.027450561523438,-1.6813842773437502,8.867791748046876
7.896000000000086,3.9322021484375,-2.1169830322265626,7.178631591796876
7.90600000000007,4.179534912109375,0.20037841796875,9.443954467773438
7.916000000000061,6.60411376953125,1.212738037109375,10.677478027343753
7.926000000000052,9.393560791015624,0.036785888671875,8.337985229492189
7.936000000000043,9.8107666015625,0.9962097167968752,4.6254516601562505
7.9460000000000335,8.282058715820312,1.7636291503906252,4.8487091064453125
7.956000000000024,6.591403198242188,2.1575073242187504,6.637310791015626
7.966000000000015,5.601773071289063,2.065093994140625,5.3844970703125
7.976000000000006,6.8729797363281255,0.7974761962890625,3.798068237304688
7.986000000000004,9.358270263671876,0.35888671875,4.196133422851563
7.995999999999995,9.17972412109375,-0.5042358398437501,4.612591552734376
8.007000000000076,5.548089599609376,-0.8362060546875001,5.2759338378906255
8.01700000000006,1.9984008789062504,-1.37274169921875,5.4528350830078125
8.02700000000005,7.890573120117188,-2.119525146484375,7.804141235351563
8.037000000000042,15.218890380859376,-1.4705383300781252,9.513787841796876
8.047000000000033,13.469168090820313,-1.2054107666015623,6.0370727539062505
8.057000000000023,6.791931152343751,-1.2691131591796876,8.090353393554688
8.067000000000014,2.2832672119140627,-1.1470916748046875,13.797848510742188
8.077000000000005,3.682177734375,1.9705871582031247,12.938015747070311
8.086999999999996,5.514892578125,3.266168212890625,1.3338623046875
8.096999999999987,8.961550903320314,2.9382354736328127,-0.9393859863281252
8.106999999999978,12.28349609375,2.198779296875,2.1319366455078126
8.116999999999969,7.751504516601563,2.3125762939453125,2.9968536376953128
8.127000000000073,6.477905273437501,1.035687255859375,12.114669799804688
8.137000000000064,7.02640380859375,0.06519775390625,6.521569824218751
8.147000000000055,9.512142944335938,-1.4054901123046877,10.218701171875
8.157000000000046,8.410360717773438,-0.2277435302734375,3.449948120117188
8.168000000000013,8.982485961914064,-0.6102569580078125,-0.356494140625
8.178000000000004,8.331256103515626,-1.8729400634765627,1.2468322753906251
8.187999999999995,6.321340942382813,-2.034588623046876,5.82353515625
8.197999999999986,3.321945190429688,-2.5744140625000003,11.949282836914064
8.20799999999997,5.0640411376953125,-1.721011352539063,9.242678833007814
8.218000000000082,8.253198242187501,-0.278436279296875,11.046383666992188
8.228000000000073,9.887777709960938,0.389691162109375,8.293722534179688
8.238000000000063,9.533676147460938,1.952194213867188,4.491018676757813
8.248000000000054,7.162182617187501,2.800363159179688,4.557263183593751
8.259000000000022,6.247619628906251,2.1624420166015628,6.681423950195313
8.268000000000036,5.293728637695313,2.0854309082031253,4.2221527099609375
8.27800000000002,7.159341430664063,1.3842559814453126,3.1428009033203126
8.288000000000018,9.7964111328125,0.8791229248046876,4.562796020507813
8.298999999999985,9.8095703125,-0.0237762451171875,5.5316406250000005
8.308999999999976,6.932345581054688,-0.796728515625,6.388632202148438
8.31900000000008,2.718865966796875,-1.5110626220703125,5.767758178710938
8.329000000000072,2.824737548828125,-2.6415557861328125,5.935388183593751
8.339000000000063,13.84046630859375,-2.2506683349609378,9.667062377929687
8.349000000000053,15.40162353515625,-0.964208984375,5.5096588134765625
8.359000000000044,10.717254638671877,0.4795623779296875,6.760827636718751
8.369000000000035,2.825186157226563,-0.129498291015625,12.091641235351563
8.379000000000026,1.547549438476563,0.9322082519531252,17.29534912109375
8.389000000000017,4.888336181640625,2.5389739990234377,6.162234497070313
8.399000000000008,8.510250854492188,0.10946044921875,-2.193695068359375
8.409000000000006,11.707632446289065,0.4164581298828125,0.4388885498046875
8.41899999999999,9.676483154296877,3.4933135986328128,2.822344970703125
8.43000000000007,6.165225219726563,3.3675537109375004,2.297174072265625
8.438999999999972,6.17344970703125,1.3178619384765626,10.891912841796875
8.450000000000053,8.683114624023439,-2.0377288818359376,9.9351806640625
8.460000000000043,9.482385253906251,-2.1978820800781254,9.648370361328126
8.470000000000034,8.991458129882814,-1.368106079101563,0.4059906005859375
8.480000000000025,8.755789184570313,-1.0443603515625002,0.40614013671875
8.490000000000016,7.817898559570313,-2.1042724609375,2.5954986572265626
8.5,3.742739868164063,-2.2934356689453126,12.031228637695314
8.510000000000005,3.3005615234375,-0.5043853759765625,9.660482788085938
8.519999999999996,5.793478393554688,1.0397247314453126,10.084866333007811
8.52999999999998,9.520816040039064,0.6578094482421876,9.59722900390625
8.53999999999997,11.211322021484376,0.4942169189453125,5.039068603515625
8.550000000000075,9.283801269531253,1.7667694091796875,3.266317749023438
8.560000000000066,6.366500854492188,3.312374877929688,5.994155883789063
8.57000000000005,4.932748413085938,2.016644287109376,6.568673706054688
8.580000000000048,6.064138793945313,1.0434631347656251,4.374978637695313
8.591000000000015,8.793621826171876,0.5956024169921875,3.281121826171875
8.601000000000006,9.433935546875,-0.3889434814453125,4.009960937500001
8.611000000000004,6.3259765625,-0.2785858154296875,5.473171997070313
8.620999999999995,1.8769775390625,-1.1123992919921877,4.9723754882812505
8.630999999999979,8.256488037109376,-2.583685302734376,7.914199829101563
8.64099999999997,15.37037048339844,-1.7416473388671876,10.42969665527344
8.651000000000074,13.580871582031252,-1.1255584716796876,7.076049804687501
8.661000000000065,6.84337158203125,-1.7871063232421875,7.856628417968751
8.671000000000056,2.059561157226563,-1.60123291015625,13.172637939453129
8.681000000000054,3.643896484375,1.238458251953125,12.801638793945314
8.691000000000045,5.482293701171876,3.092257690429688,0.9374420166015626
8.701000000000029,8.120260620117188,2.8332611083984376,-0.8309722900390626
8.71100000000002,12.403125,1.8415374755859373,2.2430419921875
8.721999999999987,8.291629028320314,1.815966796875,3.403890991210938
8.731999999999978,7.2288757324218755,0.8988616943359375,12.878500366210938
8.744000000000035,6.600674438476563,0.66693115234375,3.696981811523438
8.752000000000073,9.354830932617189,-0.966900634765625,11.996536254882812
8.762000000000064,7.752700805664063,0.6978851318359376,2.99371337890625
8.772000000000055,9.364401245117188,-0.286212158203125,-0.4021026611328125
8.782000000000046,8.479595947265626,-1.3555450439453125,1.1411102294921875
8.792000000000037,6.422128295898438,-2.205807495117188,4.438681030273438
8.802000000000028,3.293234252929688,-2.18203125,14.0671630859375
8.812000000000019,4.587170410156251,-1.4593231201171877,9.39385986328125
8.82200000000001,8.273236083984376,-0.8928802490234375,10.8611083984375
8.832,10.269244384765626,0.299969482421875,8.61866455078125
8.841999999999992,9.722540283203124,1.4682952880859377,4.430606079101563
8.851999999999983,7.243978881835938,2.320501708984376,3.707598876953125
8.861999999999973,6.10765380859375,1.849462890625,6.389230346679688
8.873000000000054,5.049386596679688,1.598391723632813,4.658947753906251
8.883000000000045,7.233810424804688,1.5122589111328126,3.4239288330078126
8.893000000000036,9.688296508789064,0.9754241943359376,3.920538330078125
8.90300000000002,8.791528320312501,0.091217041015625,5.0281524658203125
8.913000000000018,5.030844116210938,-0.8342620849609376,4.779025268554688
8.923000000000009,3.794479370117188,-1.1838775634765626,5.435040283203126
8.933,11.983377075195314,-0.8936279296875,10.989111328125
8.94299999999999,13.442251586914065,-1.1808868408203126,8.308526611328126
8.952999999999982,10.951727294921875,0.0273651123046875,7.312765502929688
8.962999999999973,3.5030334472656253,-0.8716461181640626,9.78265380859375
8.973000000000084,1.6314392089843752,-0.414813232421875,14.95301513671875
8.983000000000075,5.4778076171875005,1.4798095703125,7.54439697265625
8.993000000000059,7.757037353515625,-1.01505126953125,-1.8324157714843752
9.00300000000005,11.543142700195313,-1.02821044921875,0.4257293701171875
9.014000000000015,9.470422363281251,2.968890380859375,3.067434692382813
9.024000000000008,6.7147705078125,2.8651123046875,5.578744506835938
9.034000000000006,7.598529052734375,1.332666015625,12.119305419921876
9.04399999999999,8.756686401367189,-0.1054229736328125,3.808834838867188
9.05399999999998,9.12589111328125,-0.9224884033203126,10.98492431640625
9.063999999999972,8.03128662109375,0.3165679931640625,0.1030303955078125
9.074000000000076,7.584173583984375,-0.533843994140625,0.0243743896484375
9.084000000000067,7.474713134765626,-0.944769287109375,2.8667572021484378
9.094000000000058,4.87188720703125,-1.6664306640625002,12.565969848632813
9.106000000000002,4.195684814453125,-0.5997894287109375,7.49295654296875
9.11400000000004,7.069769287109375,0.422589111328125,11.067617797851565
9.12400000000003,8.655300903320313,-0.5993408203125,10.119558715820313
9.134000000000022,10.032229614257814,-0.3835601806640625,7.072460937500001
9.144000000000013,8.385687255859375,0.8768798828125001,3.446807861328125
9.15499999999998,6.992010498046875,1.6214202880859376,5.265167236328125
9.16499999999997,5.606558227539063,1.7755920410156252,5.435189819335938
9.175000000000075,6.402539062500001,0.9645080566406252,3.6136901855468753
9.185000000000066,8.201608276367189,0.7218109130859376,3.5481933593750004
9.19500000000005,8.83280029296875,0.5049835205078126,5.1014251708984375
9.206000000000024,6.260928344726563,0.259893798828125,5.032638549804688
9.215000000000046,2.738455200195313,-0.1449005126953125,4.0606536865234375
9.22500000000003,10.105950927734376,-1.3785736083984377,8.002276611328126
9.23500000000002,14.969464111328126,-1.03658447265625,10.927352905273438
9.245000000000012,12.958203125,-1.102081298828125,8.043997192382813
9.255000000000004,5.163333129882813,-1.8348083496093752,8.078390502929688
9.264999999999992,0.6652862548828126,-2.218966674804688,12.881192016601563
9.274999999999984,3.3943206787109377,1.0522857666015626,12.4904541015625
9.284999999999975,6.579440307617188,3.114089965820313,0.6223693847656251
9.29500000000008,10.066473388671875,0.920843505859375,-1.200775146484375
9.306000000000054,12.439163208007814,1.1855224609375,2.553778076171876
9.316000000000043,7.749411010742188,2.416802978515625,3.334954833984375
9.326000000000027,6.590655517578125,1.1171844482421875,15.45426025390625
9.33600000000002,7.429403686523438,0.363372802734375,4.357931518554688
9.34600000000001,9.435281372070314,-0.43724365234375,10.201055908203124
9.356000000000002,8.819342041015625,0.7976257324218751,4.298565673828126
9.365999999999993,7.637258911132813,0.3158203125,-1.5402221679687502
9.375999999999983,7.924966430664063,-0.9796112060546877,1.2925903320312502
9.385999999999974,6.274386596679688,-1.31771240234375,3.26048583984375
9.396000000000086,3.4915191650390627,-2.0903656005859377,7.093246459960938
9.40600000000007,6.410165405273438,-2.124908447265625,16.097564697265625
9.41600000000006,8.830706787109376,-0.96959228515625,11.082421875
9.426000000000052,9.426010131835938,-0.0151031494140625,9.270193481445313
9.436000000000044,8.730816650390626,1.0860809326171876,4.020428466796876
9.446000000000032,6.9492431640625005,1.4621643066406251,4.17205810546875
9.457,5.8366943359375005,1.5722229003906252,6.3211914062500005
9.466999999999992,5.403189086914063,1.6893096923828126,3.904837036132813
9.476999999999984,7.662231445312501,1.7096466064453126,2.2527618408203125
9.486999999999972,10.23111267089844,0.8324676513671876,4.716668701171876
9.497000000000083,9.957611083984377,0.691754150390625,6.593646240234375
9.507000000000076,6.504821777343751,-0.4080841064453125,6.219656372070313
9.51700000000006,2.291790771484376,-1.8482666015625,5.547192382812501
9.52700000000005,5.810226440429688,-1.1354278564453126,7.885787963867188
9.537000000000042,12.3684326171875,-1.0833892822265625,8.517578125
9.547000000000033,14.147463989257814,-0.432159423828125,4.800259399414063
9.557000000000023,9.044692993164062,0.2308837890625,7.308877563476563
9.567000000000014,2.621817016601563,-0.6866699218750001,13.535711669921875
9.577000000000004,3.0572662353515625,1.3912841796875002,15.469812011718751
9.586999999999996,6.098382568359376,0.8214019775390625,3.508566284179688
9.598000000000084,9.153704833984376,-0.5117126464843751,-1.4931182861328125
9.608000000000075,11.622695922851562,1.0977447509765623,1.7613861083984377
9.61800000000006,7.661633300781251,2.7836151123046875,2.1382171630859377
9.62800000000005,6.763369750976563,2.7001739501953126,10.942007446289065
9.63800000000004,6.471026611328125,1.11494140625,4.296771240234375
9.648000000000032,8.772387695312501,-1.9785125732421875,10.186102294921875
9.658000000000024,9.493450927734376,-1.04854736328125,6.200665283203126
9.668000000000012,8.605654907226564,-0.476422119140625,0.2782867431640625
9.678000000000004,8.716610717773438,-1.4132659912109375,2.1555633544921875
9.687999999999995,6.776379394531251,-1.7181701660156252,9.259127807617189
9.697999999999986,3.761880493164063,-1.68916015625,8.474511718750001
9.70799999999997,4.295724487304688,0.1311431884765625,9.194976806640623
9.718000000000082,6.681274414062501,0.7394561767578125,10.170849609375
9.729000000000047,9.421524047851562,-0.236566162109375,7.773486328125
9.73900000000004,10.256085205078126,0.4613189697265625,4.4537841796875
9.74900000000003,8.511447143554689,1.909426879882813,4.297967529296876
9.759000000000022,6.477755737304688,2.1814331054687504,6.268704223632813
9.769000000000013,5.66861572265625,1.7277404785156252,5.609997558593751
9.779000000000003,7.017132568359376,0.883160400390625,4.480551147460938
9.788999999999994,8.961102294921876,0.23985595703125,4.105664062500001
9.798999999999984,8.18560791015625,0.070880126953125,4.775286865234375
9.808999999999976,4.662985229492188,-0.6153411865234375,4.592852783203125
9.81900000000008,2.8186065673828127,-1.4901275634765625,4.792184448242188
9.829000000000072,11.644827270507813,-1.5732696533203123,9.230267333984376
9.839000000000064,14.07239685058594,-1.7721527099609375,8.894558715820313
9.849000000000052,12.35572204589844,-1.1097076416015623,7.700512695312501
9.859000000000044,4.883102416992188,-1.6411590576171875,9.866842651367188
9.869000000000035,2.685519409179688,-0.6388183593750001,14.724673461914064
9.880000000000004,4.282565307617188,3.053826904296875,8.622851562500001
9.889999999999992,6.043502807617188,2.8199523925781254,-0.8231964111328126
9.899999999999984,9.899740600585938,2.481103515625,0.082843017578125
9.909999999999975,11.12234802246094,1.588372802734375,2.54271240234375
9.92000000000008,6.674395751953125,1.917950439453125,4.682873535156251
9.93000000000007,7.778720092773438,0.4486083984375,11.159881591796877
9.940000000000062,7.469479370117188,-0.1341339111328125,7.918536376953125
9.950000000000053,9.737493896484375,-1.1017822265625,8.937774658203125
9.960000000000043,8.654403686523438,0.22789306640625,1.8075927734375
9.970000000000034,8.212075805664064,-0.6886138916015625,-0.1559661865234375
9.980000000000024,7.893115234375,-1.9252777099609373,2.0136535644531253
9.990000000000016,4.783660888671875,-2.2651733398437504,11.077188110351564
10.0,3.409274291992188,-1.9415771484375,8.135513305664062
10.010999999999974,6.354089355468751,-1.303955078125,10.271188354492187
10.021000000000086,8.826669311523439,0.13218994140625,10.870230102539065
10.03100000000007,10.227224731445313,0.605322265625,7.1047607421875005
10.04100000000006,8.958859252929688,2.0404205322265625,4.15770263671875
10.051000000000052,7.076498413085938,2.431906127929688,5.765216064453125
10.061000000000044,5.6049133300781255,1.6498321533203126,5.786599731445313
10.071000000000032,5.63272705078125,1.7574981689453126,3.915304565429688
10.081000000000024,7.85543212890625,1.3340118408203123,3.2313262939453127
10.091000000000015,9.7389892578125,0.5827423095703126,4.487579345703125
10.101000000000006,8.537316894531251,-0.0862823486328125,5.468386840820313
10.111000000000004,4.344323730468751,-1.5796997070312502,5.235409545898438
10.120999999999997,3.04036865234375,-1.828677368164063,5.9762115478515625
10.13099999999998,11.783447265625,-0.8871978759765625,10.397695922851565
10.14099999999997,13.606890869140626,-1.4736785888671875,6.848007202148438
10.151000000000074,12.346151733398438,0.6600524902343751,7.21781005859375
10.162000000000042,3.7603851318359376,-0.4457672119140625,9.740036010742188
10.172000000000033,1.5005950927734375,-0.4966094970703125,15.9118408203125
10.182000000000023,5.0112548828125005,2.32139892578125,8.997439575195314
10.192000000000014,7.675540161132813,-0.54072265625,-1.5369323730468751
10.202000000000004,11.415139770507814,-0.6892120361328126,-0.1203765869140625
10.211999999999996,10.172943115234377,2.8030548095703125,2.9639556884765628
10.223000000000084,6.093746948242188,2.89681396484375,2.6693695068359378
10.231999999999978,7.231268310546875,1.2481781005859376,13.180413818359376
10.241999999999967,8.24183349609375,-0.4625152587890625,5.21641845703125
10.252000000000072,9.412252807617188,-1.472332763671875,9.917684936523438
10.262000000000064,8.534625244140626,0.0082244873046875,0.7113433837890626
10.272000000000055,8.427557373046875,-1.038677978515625,0.2071075439453125
10.282000000000046,7.518676757812501,-1.1735595703125,6.43424072265625
10.292000000000035,4.730725097656251,-1.600933837890625,9.577490234375
10.302000000000028,3.710440063476563,-0.33974609375,8.57081298828125
10.312999999999995,6.1013732910156255,0.7979248046875,10.163223266601562
10.322999999999986,8.85194091796875,-0.1152923583984375,10.131222534179688
10.33299999999997,10.216458129882811,-0.2947357177734375,5.978305053710938
10.343000000000082,9.060842895507813,0.968994140625,3.862966918945313
10.353000000000073,6.8894287109375005,2.15631103515625,5.5664825439453125
10.363000000000063,5.469433593750001,1.7368621826171875,5.813366699218751
10.373000000000054,6.431399536132813,0.9888824462890624,4.1693664550781255
10.383000000000044,8.480044555664064,0.3069976806640625,3.5152954101562504
10.393000000000036,9.362008666992187,0.14774169921875,4.981646728515625
10.40300000000002,6.8415771484375005,0.0348419189453125,5.310177612304688
10.413000000000018,3.155661010742188,-1.11494140625,4.649526977539063
10.423000000000007,6.388183593750001,-1.4742767333984377,7.32786865234375
10.433,13.792315673828126,-1.092510986328125,10.35926513671875
10.44400000000008,13.003512573242189,-1.4008544921875,7.006515502929688
10.454000000000072,8.627188110351563,-0.8783752441406251,7.582229614257813
10.464000000000064,2.3961669921875,-1.4120697021484376,11.382540893554689
10.474000000000052,3.410171508789063,0.8465240478515625,13.584609985351564
10.484000000000044,6.003277587890626,3.854293823242188,3.54759521484375
10.494000000000035,8.489465332031251,1.5019409179687502,-1.2697113037109375
10.504000000000026,11.399288940429688,1.3271331787109375,2.029205322265625
10.514000000000015,8.55047607421875,2.270257568359375,4.88504638671875
10.524000000000008,7.002627563476563,0.769512939453125,11.950628662109375
10.534000000000006,6.16507568359375,1.0424163818359375,2.385400390625
10.54399999999999,9.807028198242188,-1.0926605224609376,11.450280761718751
10.55399999999998,8.784051513671876,-0.144451904296875,4.049588012695313
10.563999999999972,8.275927734375001,-0.00299072265625,0.09749755859375
10.574000000000076,8.087960815429689,-1.095950317382813,1.224551391601563
10.584000000000067,6.223544311523438,-1.9659515380859376,7.679278564453125
10.595000000000034,4.986880493164063,-2.1920501708984377,9.561489868164063
10.605000000000024,4.9514404296875005,-1.9086791992187504,8.036370849609376
10.615000000000016,8.191290283203125,-0.5443115234375,11.280856323242189
10.625,8.90338134765625,0.297576904296875,9.198565673828126
10.635000000000003,9.176583862304687,0.865216064453125,5.1024719238281255
10.644999999999996,7.184164428710938,2.6119476318359376,4.374081420898438
10.65499999999998,6.783856201171876,1.55338134765625,6.185562133789063
10.66499999999997,5.705401611328125,1.5701293945312502,4.847363281250001
10.675000000000075,7.0823303222656255,2.0076721191406253,3.420040893554688
10.685000000000066,9.158489990234376,0.8369537353515626,4.13377685546875
10.69500000000005,9.894955444335938,0.372344970703125,5.9313507080078125
10.705000000000048,7.691390991210938,-0.3010162353515625,6.596487426757813
10.715000000000046,3.223849487304688,-1.6806365966796877,5.414105224609376
10.726000000000006,3.097042846679688,-2.28072509765625,5.719906616210938
10.73500000000002,11.7224365234375,-1.08802490234375,9.235800170898438
10.745999999999997,13.39185791015625,-1.1989807128906251,5.334402465820313
10.75599999999998,12.134109497070312,1.053631591796875,6.488223266601563
10.76599999999997,3.915155029296875,0.03768310546875,10.481884765625
10.776000000000074,2.6164337158203126,0.1562652587890625,17.464923095703128
10.786000000000064,4.936636352539063,2.541217041015625,8.273236083984376
10.796000000000056,8.386883544921876,-0.8575897216796876,-1.399658203125
10.806000000000054,11.282800292968751,-0.7469329833984375,0.0387298583984375
10.816000000000043,9.558798217773438,2.716622924804688,2.8857482910156254
10.826000000000027,4.984039306640625,2.977264404296875,4.28570556640625
10.83600000000002,6.8176513671875005,0.87269287109375,10.616317749023438
10.84600000000001,8.310470581054688,-0.8456268310546876,5.997894287109375
10.856000000000002,10.471417236328126,-1.6713653564453126,9.805233764648438
10.866999999999967,9.108544921875,0.071478271484375,1.0771087646484376
10.877000000000072,8.20594482421875,-1.432855224609375,0.3648681640625
10.887000000000064,7.611090087890625,-1.2223083496093752,7.498489379882813
10.897000000000055,4.584179687500001,-1.44990234375,8.960952758789062
10.907000000000046,3.75634765625,-0.5902191162109376,6.6860595703125005
10.917000000000035,6.301153564453125,1.39188232421875,9.83035583496094
10.927000000000028,9.016131591796876,0.124114990234375,10.19537353515625
10.93700000000002,9.619210815429687,-0.1643402099609375,5.478854370117188
10.94700000000001,8.798406982421875,1.3636199951171877,4.8860931396484375
10.957,6.914401245117188,2.0033355712890626,6.810324096679688
10.966999999999992,6.0121002197265625,1.5044830322265623,5.870639038085938
10.976999999999984,6.682919311523438,0.9534423828125,3.9351928710937503
10.986999999999972,8.288040161132812,0.4215423583984375,3.4290130615234378
10.998000000000054,9.109442138671875,-0.1487884521484375,4.9444122314453125
11.008000000000044,5.803347778320313,-0.2023223876953125,4.650274658203125
11.018000000000036,2.723651123046875,-0.54251708984375,4.680630493164063
11.02800000000002,7.905227661132813,-1.7066558837890626,7.428057861328125
11.038000000000018,15.235189819335938,-1.3355072021484375,10.28016052246094
11.048000000000007,13.348941040039064,-0.8327667236328126,7.422076416015625
11.058,7.135116577148438,-1.45289306640625,7.805786132812501
11.06799999999999,1.770806884765625,-1.349713134765625,12.3265625
11.077999999999982,3.2313262939453127,1.044659423828125,12.70279541015625
11.087999999999973,5.6218109130859375,3.4387329101562503,1.6893096923828126
11.098000000000084,8.535223388671875,1.84766845703125,-1.0448089599609376
11.108000000000075,12.370077514648438,1.149932861328125,2.289846801757813
11.11800000000006,8.44879150390625,1.7886016845703123,4.512701416015625
11.129000000000026,7.036123657226563,0.63223876953125,12.972259521484377
11.139000000000015,6.22489013671875,0.73990478515625,4.308584594726563
11.149000000000008,10.238140869140626,-1.4481079101562502,11.413494873046876
11.159000000000006,8.546289062500001,0.0761138916015625,2.906234741210937
11.16899999999999,8.558102416992188,0.5105163574218751,-0.1688262939453125
11.17899999999998,7.187454223632813,-1.194195556640625,0.8665618896484376
11.188999999999972,6.590206909179688,-1.371246337890625,4.203311157226563
11.199000000000076,4.514047241210938,-1.5068756103515626,12.957455444335938
11.209000000000067,5.094247436523438,-1.666131591796875,6.986776733398438
11.219000000000058,9.16641540527344,-0.6507812500000001,11.542843627929688
11.229000000000047,9.472515869140626,0.0707305908203125,9.980191040039063
11.23900000000004,8.5474853515625,1.2199157714843751,5.331112670898438
11.24900000000003,6.827221679687501,2.053131103515625,4.57281494140625
11.259000000000022,6.209188842773438,1.11793212890625,6.579739379882813
11.269000000000013,5.899050903320313,1.519287109375,4.531842041015626
11.27999999999998,6.8146606445312505,1.5931579589843752,2.1205718994140628
11.288999999999994,9.548330688476565,0.8504119873046876,4.030596923828125
11.300000000000075,9.878805541992188,0.1305450439453125,6.516336059570313
11.310000000000066,7.057058715820313,-0.6356781005859375,6.202459716796875
11.32000000000005,2.204461669921875,-1.4884826660156252,4.8766723632812505
11.330000000000048,4.982693481445313,-1.5309509277343751,7.012496948242188
11.340000000000046,14.23987731933594,-0.7437927246093751,10.248907470703124
11.35000000000003,14.630316162109375,-0.43724365234375,5.212979125976563
11.36000000000002,9.03018798828125,0.6925018310546875,6.003875732421875
11.370000000000012,1.7615356445312502,-0.5873779296875,12.428546142578126
11.380000000000004,1.6897583007812502,0.7224090576171875,17.110223388671876
11.389999999999992,5.648129272460938,1.8653137207031247,4.6154327392578125
11.399999999999984,9.463244628906253,-0.8589355468750001,-2.4443176269531253
11.409999999999975,12.826760864257814,-0.412420654296875,1.0256683349609377
11.42000000000008,9.418234252929688,3.0728179931640627,3.502584838867188
11.43000000000007,4.5853759765625,2.6230133056640628,2.8613739013671875
11.441000000000043,6.202011108398438,0.8813659667968751,15.247152709960938
11.451000000000027,9.419430541992188,-1.6244110107421876,6.9635986328125
11.46100000000002,10.219598388671876,-1.2697113037109375,7.851394653320313
11.47100000000001,8.49903564453125,0.4675994873046875,-0.5790039062500001
11.481000000000002,8.015734863281251,-1.4123687744140625,0.354400634765625
11.490999999999993,6.948345947265626,-1.1964385986328123,2.8974121093750003
11.500999999999983,4.1324310302734375,-1.526763916015625,14.419021606445314
11.510999999999974,4.166375732421876,-0.1840789794921875,6.478952026367188
11.521000000000086,7.077096557617188,1.2715057373046876,10.875015258789062
11.53100000000007,10.582971191406251,-0.4544403076171875,10.053314208984377
11.54100000000006,9.65809020996094,-0.05443115234375,5.596539306640626
11.551000000000052,7.313064575195313,1.43853759765625,4.187460327148438
11.56200000000002,5.9048828125,2.272052001953125,6.719555664062501
11.571000000000032,5.733514404296876,1.447808837890625,6.045297241210938
11.582,6.953430175781251,0.7245025634765625,2.627947998046875
11.591999999999992,9.357223510742188,0.4550384521484375,3.080743408203125
11.601999999999984,9.589901733398438,0.0094207763671875,5.664129638671875
11.611999999999972,6.149822998046876,-0.0650482177734375,6.179730224609376
11.62400000000003,2.059710693359375,-0.4711883544921875,5.364758300781251
11.632000000000076,6.0472412109375,-1.7015716552734377,6.88583984375
11.64200000000006,15.331939697265629,-1.6426544189453127,9.753045654296876
11.65200000000005,14.123986816406251,-0.4326080322265625,6.52635498046875
11.662000000000042,8.534774780273438,-0.81885986328125,6.816604614257813
11.672000000000033,1.7121887207031252,-1.947409057617188,11.8540283203125
11.682000000000023,3.095846557617188,0.7333251953125001,15.201394653320314
11.692000000000014,5.375823974609375,3.3060943603515627,3.161941528320313
11.702000000000004,7.969229125976563,1.7485260009765626,-1.47322998046875
11.711999999999996,12.460397338867187,1.0587158203125,1.7817230224609375
11.724000000000052,9.251651000976564,1.1242126464843751,2.7767364501953127
11.733000000000075,6.354986572265625,0.8798706054687501,12.849490356445314
11.74300000000006,6.469381713867188,0.9840972900390624,5.202960205078125
11.75300000000005,8.312863159179688,-0.7861114501953126,11.25528564453125
11.76300000000004,9.466534423828126,-0.3150726318359375,4.47113037109375
11.773000000000032,8.968429565429688,0.4702911376953125,-0.0701324462890625
11.783000000000024,8.062091064453126,-0.681884765625,0.736614990234375
11.793000000000012,6.943411254882813,-1.2912445068359375,3.900949096679688
11.803000000000004,3.945062255859375,-2.046102905273438,13.393203735351564
11.812999999999995,4.159796142578125,-1.1013336181640625,8.271292114257813
11.822999999999986,8.104708862304689,-0.5552276611328125,10.549624633789064
11.83299999999997,9.773980712890626,-0.0569732666015625,9.251052856445312
11.843000000000082,9.793869018554688,1.0274627685546875,5.141201782226563
11.854000000000047,7.322784423828126,1.81776123046875,3.893771362304688
11.86400000000004,6.408520507812501,1.1566619873046875,6.435885620117188
11.87400000000003,5.338888549804688,1.3543487548828126,5.507864379882813
11.884000000000022,6.602020263671876,1.418798828125,3.459518432617188
11.894000000000013,9.374719238281251,0.9154602050781252,3.4895751953125003
11.904000000000003,9.0618896484375,-0.0109161376953125,4.808932495117188
11.913999999999994,5.213876342773438,-0.5444610595703125,4.671209716796875
11.923999999999984,3.758291625976563,-0.6711181640625,5.412609863281251
11.933999999999976,11.583517456054688,-0.457281494140625,11.183209228515626
11.94400000000008,12.939361572265629,-0.835308837890625,7.956967163085938
11.954000000000072,10.42864990234375,0.1353302001953125,6.783407592773438
11.964000000000064,4.530346679687501,-0.4059906005859375,10.19656982421875
11.974000000000052,2.6473876953125,-0.576910400390625,14.68385009765625
11.984000000000044,5.709738159179688,0.923834228515625,7.199716186523438
11.994000000000035,7.208090209960938,-0.7539611816406251,-1.0519866943359375
12.004000000000026,11.461795043945314,-1.580447387695313,0.7765411376953125
12.014000000000015,8.927905273437501,2.5627502441406254,2.7390533447265626
12.024999999999984,7.201211547851563,1.825537109375,12.734347534179689
12.034999999999975,6.261825561523438,1.4213409423828125,2.9250762939453128
12.04500000000008,9.64149169921875,-0.6956420898437501,7.790234375000001
12.05500000000007,9.362905883789065,-0.5004974365234376,8.45716552734375
12.065000000000062,8.08631591796875,0.7629333496093751,0.8613281250000001
12.075000000000053,7.713522338867188,-0.1281524658203125,0.5956024169921875
12.085000000000043,7.773934936523438,-0.94805908203125,8.052670288085938
12.095000000000034,4.78515625,-1.0264160156250002,8.1790283203125
12.105000000000024,4.061849975585938,0.3440826416015625,8.14971923828125
12.115000000000016,6.3944641113281255,0.7481292724609375,10.714413452148438
12.125,8.886184692382812,-0.7378112792968751,9.886581420898438
12.135000000000003,9.59423828125,-0.593658447265625,6.087466430664063
12.144999999999996,8.33634033203125,0.3799713134765625,4.113739013671875
12.15499999999998,7.205099487304688,1.2703094482421875,6.1022705078125
12.16600000000006,6.0509796142578125,1.0678375244140623,5.348309326171876
12.176000000000052,6.700265502929688,0.5950042724609376,3.4838928222656254
12.186000000000044,8.680871582031251,0.498553466796875,4.034185791015625
12.196000000000032,9.237893676757814,-0.024224853515625,5.248419189453125
12.206000000000024,7.425665283203125,0.4523468017578125,6.127990722656251
12.216000000000015,3.5135009765625003,0.040673828125,5.560650634765626
12.226000000000006,3.319552612304688,-0.9610687255859376,5.349057006835938
12.236000000000004,13.345202636718753,-0.6282012939453125,9.642837524414062
12.245999999999997,13.799343872070311,-0.7191192626953126,7.019076538085938
12.25599999999998,10.583270263671876,-0.772802734375,6.537420654296875
12.26599999999997,3.5499877929687504,-1.896417236328125,10.387228393554688
12.276000000000074,2.57261962890625,-0.7668212890625,15.059634399414064
12.287000000000042,5.227185058593751,3.5184356689453127,6.932644653320313
12.297000000000033,7.260427856445313,2.451495361328125,-1.17655029296875
12.307000000000023,11.5597412109375,0.5947052001953126,0.718670654296875
12.317000000000014,10.318740844726562,1.1953918457031252,3.0532287597656254
12.327000000000004,6.112139892578125,1.230682373046875,11.886926269531251
12.336999999999996,6.031390380859375,0.6974365234375001,5.7544494628906255
12.346999999999989,8.3166015625,-0.350213623046875,8.973812866210938
12.356999999999978,10.157241821289062,-0.6362762451171875,6.6609375
12.366999999999967,8.931942749023438,0.6401641845703125,0.340045166015625
12.377000000000072,7.982687377929688,-0.20157470703125,0.399560546875
12.387000000000064,7.284054565429688,-0.975872802734375,3.4082275390625
12.397000000000055,4.35269775390625,-2.080795288085937,12.561633300781253
12.407000000000046,4.114785766601563,-2.174853515625,7.826721191406251
12.417000000000035,7.3248779296875,-1.088623046875,10.653402709960938
12.427000000000028,8.951382446289063,0.2141357421875,10.008453369140623
12.43700000000002,9.92142333984375,0.6147430419921875,6.289190673828125
12.447999999999986,7.624398803710938,1.55457763671875,3.966744995117188
12.45799999999997,6.965393066406251,1.7226562500000002,6.156552124023438
12.468000000000082,5.5125,1.235467529296875,5.2041564941406255
12.478000000000073,6.257638549804688,1.2620849609375,3.821694946289063
12.488000000000063,8.751004028320313,1.526614379882813,4.049588012695313
12.498000000000054,9.800747680664063,0.2911468505859375,4.3417816162109375
12.508000000000044,7.281063842773438,-0.1191802978515625,5.032638549804688
12.518000000000036,2.52596435546875,-0.8181121826171875,5.217465209960938
12.52800000000002,5.7723937988281255,-0.8493652343750001,7.812664794921876
12.538000000000018,14.613418579101564,-0.8245422363281251,10.303787231445312
12.548000000000007,14.269036865234376,-0.445916748046875,6.032437133789063
12.558,8.027099609375,-0.247332763671875,7.287344360351563
12.56799999999999,1.4539398193359376,-1.0584167480468751,13.118804931640629
12.577999999999982,2.582489013671875,0.5682373046875,14.7466552734375
12.587999999999973,6.32896728515625,0.681585693359375,2.750567626953125
12.599000000000052,8.82083740234375,-0.8077941894531251,-1.7672180175781251
12.609000000000044,12.060238647460938,0.289801025390625,1.6006347656250002
12.619000000000035,8.707339477539064,2.8154663085937504,2.9789093017578128
12.629000000000026,6.041708374023438,2.17784423828125,9.604855346679688
12.64099999999997,7.615875244140626,0.337353515625,7.96190185546875
12.649000000000008,8.515335083007812,-0.7436431884765625,9.34705505371094
12.659000000000006,9.651809692382812,-0.5997894287109375,5.429806518554688
12.66899999999999,8.068670654296875,0.396868896484375,-1.0673889160156251
12.67899999999998,8.715563964843751,-0.73990478515625,1.318310546875
12.688999999999972,6.270349121093751,-1.469940185546875,8.304190063476563
12.699000000000076,3.637915039062501,-1.0712768554687502,9.9423583984375
12.709000000000067,4.22349853515625,0.5849853515625001,9.500180053710938
12.719000000000058,7.413702392578125,0.059515380859375,10.4065185546875
12.730000000000024,10.25458984375,-0.5455078125,8.834445190429689
12.740999999999993,9.916937255859375,-0.017047119140625,4.368548583984375
12.75,7.83629150390625,1.0172943115234376,4.176693725585938
12.760000000000003,5.934341430664063,2.093356323242188,6.539663696289063
12.769999999999996,5.408721923828125,1.0615570068359377,5.066732788085938
12.77999999999998,7.3105224609375,0.6290985107421876,3.1833251953125004
12.78999999999997,9.69532470703125,0.2869598388671875,3.940277099609376
12.800000000000075,8.911157226562501,0.01614990234375,5.166024780273438
12.810000000000066,5.3596740722656255,0.247332763671875,5.807833862304688
12.82000000000005,1.3111328125,-0.5395263671875,4.946505737304688
12.830000000000048,9.621304321289063,-1.5454559326171875,8.183065795898438
12.841000000000015,15.443942260742189,-0.90738525390625,9.3059326171875
12.85000000000003,13.687939453125,-0.820654296875,6.2748352050781255
12.861000000000004,5.666671752929688,-1.7353668212890627,8.391220092773438
12.870999999999997,1.2098968505859375,-1.044659423828125,14.973052978515629
12.88099999999998,3.33226318359375,2.074514770507813,12.51138916015625
12.89099999999997,5.959762573242188,3.1134918212890628,0.295782470703125
12.901000000000074,9.840972900390623,1.8862487792968752,-0.7606903076171876
12.911000000000064,12.640438842773438,0.6186309814453126,2.18681640625
12.921000000000056,7.9349853515625,1.6640380859375,2.697482299804688
12.931000000000054,5.822189331054688,0.50543212890625,12.836480712890626
12.941000000000043,6.913204956054688,-0.00478515625,6.112438964843751
12.952000000000004,8.977102661132813,-0.8366546630859376,10.512091064453124
12.96100000000002,9.160284423828124,-0.1724151611328125,2.1250579833984378
12.97100000000001,8.856127929687501,0.214434814453125,-0.451898193359375
12.981000000000002,8.762966918945313,-0.5490966796875001,1.728936767578125
12.990999999999993,5.648278808593751,-2.0543273925781254,6.722845458984375
13.000999999999983,3.3273284912109378,-1.947857666015625,11.707034301757814
13.010999999999974,5.022470092773438,-1.0866790771484376,10.556204223632813
13.021000000000086,8.154055786132814,-0.3294281005859375,10.522409057617187
13.032000000000046,10.452276611328124,0.5628540039062501,7.844515991210938
13.042000000000035,8.89859619140625,1.894921875,3.893023681640625
13.052000000000028,7.673745727539063,1.72086181640625,4.5287017822265625
13.06200000000002,5.9806976318359375,1.317413330078125,6.306835937500001
13.07200000000001,4.924822998046875,1.2453369140625,4.6229095458984375
13.082,7.458114624023438,1.2768890380859377,4.035980224609375
13.091999999999992,10.107147216796877,0.478814697265625,3.994110107421875
13.101999999999984,10.131671142578126,0.164190673828125,5.308383178710938
13.111999999999972,6.2314697265625005,-0.3318206787109375,6.245376586914063
13.122000000000083,1.4063873291015625,-1.5898681640625,5.805142211914063
13.132000000000076,4.936038208007813,-1.2979736328125,7.335943603515625
13.14200000000006,14.969912719726564,-0.6174346923828126,8.884091186523438
13.15200000000005,14.757272338867187,0.1399658203125,4.725341796875
13.163000000000018,9.03138427734375,0.8218505859375,7.229922485351563
13.173000000000007,2.6318359375,-1.3259368896484376,13.771231079101565
13.183,2.2671173095703128,-0.04366455078125,15.664956665039064
13.19299999999999,5.483489990234375,0.8351593017578126,4.207199096679688
13.202999999999982,8.091400146484375,-0.5274139404296876,-1.8084899902343752
13.212999999999973,12.2404296875,0.0922637939453125,1.0413696289062502
13.223000000000084,9.29322204589844,2.857635498046875,2.7351654052734378
13.233000000000075,5.71826171875,2.5388244628906254,4.1548614501953125
13.24300000000006,7.053469848632813,0.691754150390625,11.333193969726564
13.25300000000005,8.278021240234375,-1.0464538574218751,9.450234985351564
13.26300000000004,9.245071411132812,-0.7855133056640625,6.815258789062501
13.273000000000032,9.075198364257814,0.08074951171875,0.2041168212890625
13.283000000000024,9.608444213867188,-0.406439208984375,0.8863006591796876
13.293000000000012,6.584674072265625,-1.5779052734375,3.617578125
13.30399999999998,3.4536865234375003,-0.986639404296875,14.047872924804688
13.313999999999972,2.7910919189453125,0.4463653564453125,8.953176879882813
13.324000000000076,6.972421264648438,0.2154815673828125,9.711026000976563
13.334000000000067,10.5285400390625,-0.6243133544921875,8.429202270507814
13.344000000000058,10.626187133789063,-0.3416900634765625,4.634124755859375
13.354000000000047,8.510101318359375,1.5955505371093752,3.8577331542968754
13.36400000000004,6.0106048583984375,1.876080322265625,6.198721313476563
13.37400000000003,5.155108642578125,1.1674285888671876,6.590655517578125
13.384000000000022,6.866699218750001,0.875982666015625,3.9876800537109376
13.394000000000013,9.401785278320313,0.0955535888671875,3.039022827148438
13.404000000000003,9.248660278320314,0.2301361083984375,4.747772216796875
13.413999999999994,5.936734008789063,0.0985443115234375,6.125747680664063
13.423999999999984,0.9405822753906252,-0.48629150390625,4.749118041992188
13.433999999999976,8.137457275390625,-1.3875457763671877,7.762719726562499
13.44500000000005,15.768435668945314,-1.1390167236328126,10.0619873046875
13.455000000000048,14.139239501953126,-0.7976257324218751,6.575701904296875
13.465000000000046,6.888980102539063,-1.409976196289063,7.775280761718751
13.47500000000003,1.6999267578125,-1.474725341796875,14.041741943359376
13.48500000000002,3.242242431640625,1.4790618896484375,13.22901306152344
13.495000000000012,5.502032470703125,3.116781616210938,1.1402130126953125
13.505000000000004,9.014935302734376,2.1744049072265628,-1.3193572998046876
13.514999999999992,12.222784423828124,0.2157806396484375,1.802658081054688
13.524999999999984,8.499334716796875,1.916455078125,2.9573760986328126
13.534999999999975,5.648129272460938,0.7509704589843751,8.128933715820313
13.54500000000008,7.835543823242188,-0.4175048828125,10.006210327148438
13.55500000000007,8.8106689453125,-0.2941375732421875,10.86649169921875
13.565000000000062,9.171798706054688,-0.05682373046875,3.196334838867188
13.575000000000053,8.889025878906251,0.0414215087890625,-0.5283111572265625
13.58600000000002,7.808178710937501,-0.51260986328125,1.3743865966796875
13.59600000000001,5.923275756835938,-1.7066558837890626,6.7279296875000005
13.606000000000002,3.2311767578125004,-1.8856506347656248,11.650509643554688
13.615999999999993,5.060452270507813,-1.4766693115234375,8.787789916992189
13.625999999999983,8.107550048828125,0.0414215087890625,11.034121704101564
13.635999999999974,10.473809814453126,0.3243438720703125,8.435931396484376
13.646000000000086,10.021163940429688,1.0240234375,4.191348266601563
13.65600000000007,7.390823364257813,2.270407104492188,4.362567138671875
13.66600000000006,6.192141723632813,1.1055206298828126,6.180178833007813
13.676000000000052,5.005871582031251,1.1100067138671876,4.805493164062501
13.686000000000044,6.965841674804688,1.191204833984375,3.7306274414062495
13.696000000000032,8.043548583984375,0.511114501953125,3.281271362304688
13.706000000000024,6.500933837890625,-0.6688751220703125,3.2293823242187503
13.716999999999992,5.2105865478515625,-0.4661041259765625,4.146188354492188
13.726999999999984,12.297552490234375,0.154620361328125,10.882342529296876
13.736999999999972,12.973605346679689,-0.8022613525390626,9.405523681640624
13.747000000000083,10.569363403320311,0.134283447265625,9.200210571289062
13.757000000000076,4.100430297851563,-1.0477996826171876,10.354330444335938
13.76700000000006,2.3028564453125,-0.6093597412109375,13.821774291992188
13.77700000000005,5.7457763671875,1.1464935302734376,6.9420654296875
13.787000000000042,6.676937866210938,-1.1832794189453126,-1.6279998779296876
13.797000000000033,10.857070922851562,-1.5613067626953123,0.5336944580078126
13.807000000000023,9.056655883789062,2.403045654296875,2.643649291992188
13.817000000000014,6.925765991210938,2.1760498046875,6.8619140625
13.827000000000004,8.6742919921875,1.3302734375,10.10071716308594
13.836999999999996,9.106301879882814,-0.3692047119140625,5.514443969726563
13.848000000000084,9.276922607421875,-0.8375518798828125,8.72393798828125
13.858000000000075,7.748663330078125,1.0651458740234376,2.0199340820312504
13.866999999999967,7.456619262695313,0.3539520263671875,0.32359619140625
13.877000000000072,7.340130615234376,-0.9906768798828126,4.735211181640626
13.88800000000004,5.061798095703125,-1.1429046630859376,9.679772949218751
13.898000000000032,3.859228515625,0.005084228515625,8.403033447265626
13.908000000000024,6.3959594726562505,0.5232269287109376,10.80667724609375
13.918000000000012,8.51458740234375,-0.645697021484375,10.02774353027344
13.928000000000004,10.439266967773438,-0.8516082763671876,7.212277221679688
13.937999999999995,9.068170166015626,0.2633331298828125,3.848013305664063
13.947999999999986,7.106854248046876,1.1998779296875002,4.883102416992188
13.95799999999997,5.368048095703125,1.2756927490234375,5.823983764648438
13.968000000000082,6.1620849609375,0.6763519287109375,3.842330932617188
13.978000000000073,8.19996337890625,0.3880462646484375,3.2643737792968754
13.988000000000063,9.075646972656251,0.398065185546875,4.537973022460938
13.998000000000054,6.913204956054688,0.31761474609375,5.60281982421875
14.008000000000044,2.3711944580078126,-0.1999298095703125,4.261032104492188
14.018000000000036,8.060745239257812,-0.778485107421875,7.6595397949218755
14.029000000000003,15.468615722656253,-0.4379913330078125,11.022158813476564
14.038999999999994,13.66984558105469,-0.874188232421875,7.342971801757813
14.048999999999984,6.910214233398438,-1.3135253906250002,7.5369201660156255
14.058999999999976,0.587677001953125,-1.581494140625,12.51602478027344
14.06900000000008,2.6234619140625,1.0966979980468752,13.943347167968753
14.079000000000072,5.855236816406251,3.44710693359375,2.01873779296875
14.089000000000064,9.709680175781251,0.7790832519531251,-1.5487457275390626
14.099000000000052,12.947137451171876,0.6174346923828126,2.0299530029296875
14.109000000000044,8.856127929687501,1.4944641113281252,3.0968933105468754
14.119000000000035,5.682821655273438,1.230084228515625,11.819784545898438
14.129000000000026,7.019525146484376,0.101983642578125,7.784701538085938
14.14099999999997,8.306582641601564,-0.657659912109375,9.098825073242187
14.149000000000008,8.926858520507814,-0.1676300048828125,4.452886962890625
14.159999999999975,8.467483520507812,0.5733215332031251,-1.161297607421875
14.17000000000008,9.037515258789064,-1.002789306640625,1.0056304931640625
14.18000000000007,6.612487792968751,-1.538577270507813,2.9711334228515627
14.190000000000062,2.9875823974609377,-1.884005737304688,15.409997558593751
14.200000000000053,4.6288909912109375,-1.3090393066406252,10.223336791992187
14.210000000000043,8.523260498046875,-0.6470428466796876,10.982830810546876
14.220000000000034,10.146624755859376,0.6422576904296875,8.440267944335938
14.230000000000024,9.209930419921877,1.2297851562500002,3.749618530273438
14.240999999999993,7.747018432617188,1.392181396484375,4.009213256835938
14.25,5.474517822265625,1.6262054443359375,6.090457153320313
14.260000000000003,4.974468994140626,1.3618255615234376,4.901644897460938
14.269999999999996,7.503872680664063,1.0226776123046877,3.341085815429688
14.27999999999998,10.068417358398438,0.399859619140625,4.16966552734375
14.28999999999997,8.225384521484376,0.2157806396484375,4.845867919921876
14.300000000000075,3.774142456054688,-0.493170166015625,3.911865234375
14.311000000000044,5.291635131835938,-0.5621063232421876,6.893914794921876
14.321000000000032,13.300491333007814,-0.7370635986328126,11.342614746093751
14.331000000000024,13.5192626953125,-0.42408447265625,7.668063354492188
14.341000000000015,9.25613708496094,-0.1368255615234375,7.336093139648438
14.351000000000006,3.1863159179687504,-1.1630920410156251,12.83558349609375
14.361000000000004,2.6106018066406254,-0.0641510009765625,14.732598876953126
14.370999999999997,5.5759033203125,0.32718505859375,3.817208862304688
14.38099999999998,7.643539428710938,-1.0914642333984377,-2.0126068115234377
14.39099999999997,11.184854125976564,0.0073272705078125,0.9921722412109376
14.401000000000074,9.099124145507814,3.0835845947265628,2.7885498046875004
14.411000000000064,7.048236083984375,2.87886962890625,2.8000640869140625
14.421000000000056,8.269647216796876,0.6464447021484375,12.503164672851565
14.431000000000054,8.500979614257814,-0.7557556152343751,8.296563720703126
14.442000000000014,8.807080078125,-0.3378021240234375,8.203701782226563
14.451000000000027,7.855133056640626,0.6125,0.6304443359375
14.461999999999996,8.643487548828126,-0.50064697265625,0.8140747070312501
14.471999999999989,6.25419921875,-1.3492645263671876,6.645535278320313
14.481999999999978,4.423428344726563,-1.296328735351563,10.73609619140625
14.491999999999967,3.761581420898438,-0.0826934814453125,8.519522094726563
14.502000000000072,6.591552734375001,0.0847869873046875,10.361657714843751
14.512000000000064,10.041201782226564,-0.7153808593750001,9.068020629882811
14.522000000000055,10.998382568359377,-0.6268554687500001,4.682424926757813
14.532000000000046,8.7580322265625,1.0518371582031252,3.4693878173828128
14.542000000000035,6.148925781250001,1.9655029296875,5.819647216796875
14.552000000000028,5.427264404296875,0.9861907958984376,6.191842651367188
14.56200000000002,6.249563598632813,0.5519378662109375,3.936090087890625
14.57200000000001,8.578439331054689,1.0294067382812502,3.933248901367188
14.582,8.242282104492189,0.5586669921875,4.3163604736328125
14.593000000000082,5.535528564453125,0.051739501953125,4.961459350585938
14.603000000000073,2.720510864257813,-0.5251708984375001,5.115032958984376
14.613000000000063,11.656939697265626,-0.9673492431640626,9.467132568359377
14.623000000000054,15.1306640625,-0.6470428466796876,9.965237426757811
14.633000000000044,11.957656860351562,-1.1297454833984375,7.087564086914063
14.643000000000036,4.662237548828125,-1.9300628662109376,9.728970336914063
14.65300000000002,2.092608642578125,-0.8384490966796876,14.352029418945314
14.663000000000018,4.605712890625,1.8958190917968751,8.355331420898438
14.673000000000007,5.734262084960938,2.6834259033203125,-1.1010345458984376
14.683,9.865048217773438,1.4053405761718751,0.1203765869140625
14.69299999999999,10.963690185546875,0.2579498291015625,2.396017456054688
14.702999999999982,8.100521850585938,1.2647766113281251,3.574661254882813
14.712999999999973,7.579537963867188,0.1798919677734375,12.975549316406251
14.723000000000084,7.461105346679688,0.2579498291015625,6.026754760742188
14.73500000000002,8.768499755859375,-0.6536224365234375,10.527941894531253
14.744000000000035,8.364303588867188,0.9242828369140624,2.241995239257813
14.754000000000026,8.409613037109375,0.142657470703125,-0.279632568359375
14.764000000000015,8.477951049804688,-0.796728515625,1.808041381835937
14.774000000000008,4.245928955078125,-1.64310302734375,7.38529052734375
14.784000000000006,3.697579956054688,-1.4225372314453126,12.235943603515626
14.79399999999999,5.578744506835938,-0.54371337890625,9.870132446289062
14.80399999999998,9.032281494140626,-0.521282958984375,10.054660034179689
14.813999999999972,10.913595581054688,0.2906982421875,7.364056396484376
14.824000000000076,9.376663208007812,1.4324066162109377,3.971978759765625
14.834000000000067,7.078292846679688,1.1405120849609376,4.331912231445313
14.844000000000058,5.2345123291015625,1.2797302246093751,6.2329650878906255
14.854000000000047,5.367449951171875,0.8015136718750001,4.4684387207031255
14.865000000000016,7.360018920898438,0.6811370849609375,2.876776123046876
14.875,7.3694396972656255,0.1604522705078125,2.627947998046875
14.885000000000003,4.9364868164062505,-0.9425262451171876,2.1916015625000003
14.894999999999996,9.856524658203126,0.6421081542968751,7.449740600585938
14.90499999999998,14.133108520507813,0.017047119140625,12.198260498046876
14.91499999999997,12.595428466796877,0.002392578125,10.235000610351562
14.925000000000075,6.763070678710938,-0.409429931640625,10.137802124023438
14.935000000000066,0.9473114013671876,-1.2469818115234377,12.760067749023438
14.94500000000005,3.3759277343750003,1.31890869140625,12.214260864257811
14.955000000000048,6.122158813476563,0.2827728271484375,0.1625457763671875
14.965000000000046,8.788238525390625,-2.0538787841796875,-1.9550354003906247
14.97500000000003,12.075491333007813,-0.7720550537109375,2.2886505126953125
14.98500000000002,6.552374267578125,1.1840270996093751,2.154367065429688
14.995000000000012,7.603314208984376,3.158651733398438,5.362216186523438
15.00599999999998,8.284451293945313,1.078155517578125,14.895144653320314
15.014999999999992,11.05191650390625,-1.5454559326171875,8.372079467773439
15.026000000000074,8.933587646484376,0.0022430419921875,4.632180786132813
15.036000000000064,7.621109008789063,1.107913208007813,-0.4858428955078125
15.046000000000056,6.666171264648438,-0.7553070068359375,0.6939971923828125
15.056000000000054,5.720654296875001,-0.8409912109375001,3.645391845703125
15.066000000000043,3.4915191650390627,-0.4140655517578125,13.76270751953125
15.076000000000027,5.477658081054688,0.37742919921875,7.299905395507813
15.08600000000002,8.299554443359376,0.8149719238281251,11.719146728515623
15.09600000000001,10.79591064453125,-0.831121826171875,10.019369506835938
15.106000000000002,9.367840576171876,-0.5217315673828126,5.387637329101563
15.115999999999993,7.472320556640626,1.0947540283203123,4.834353637695313
15.125999999999983,5.5328369140625,1.3334136962890626,6.318649291992188
15.135999999999974,5.427264404296875,0.70401611328125,3.5781005859375004
15.146000000000086,7.637109375,0.4104766845703125,2.016644287109376
15.15600000000007,8.917886352539064,0.1248626708984375,3.2323730468750003
15.16600000000006,8.18800048828125,0.4592254638671875,5.622259521484375
15.176000000000052,4.83360595703125,0.1900604248046875,5.46763916015625
15.18700000000002,2.8226440429687503,-0.4041961669921875,5.122509765625001
15.19700000000001,13.488308715820311,-1.1088104248046875,10.2390380859375
15.207,15.414334106445311,-0.4861419677734375,10.27911376953125
15.216999999999992,11.892907714843751,-0.608612060546875,7.223342895507813
15.226999999999984,2.2892486572265627,-1.58927001953125,8.83758544921875
15.236999999999972,0.2764923095703125,-0.9129180908203126,14.63943786621094
15.247000000000083,4.1786376953125,2.5362823486328128,8.879605102539063
15.258000000000044,7.945004272460938,2.2829681396484376,-1.5647460937500002
15.26700000000006,11.1314697265625,0.5881256103515625,-0.4188507080078125
15.27700000000005,12.400881958007814,0.6916046142578125,3.127548217773438
15.287000000000042,6.276779174804688,1.5822418212890623,3.30235595703125
15.297000000000033,6.117971801757813,0.1257598876953125,14.976193237304688
15.307000000000023,8.339031982421876,-0.7363159179687501,7.221099853515626
15.31799999999999,9.010000610351565,-0.1084136962890625,10.022659301757812
15.327999999999982,8.870782470703126,0.168975830078125,1.029705810546875
15.337999999999973,8.1527099609375,0.5057312011718751,-0.7973266601562501
15.348000000000084,6.728677368164063,-0.2356689453125,1.7664703369140626
15.358000000000075,5.18890380859375,-1.487286376953125,3.565240478515625
15.36800000000006,4.345071411132813,-1.2492248535156252,13.896841430664065
15.37800000000005,6.768902587890626,-1.280926513671875,11.05191650390625
15.38800000000004,9.696820068359376,-0.325091552734375,11.279959106445313
15.398000000000032,10.054959106445311,0.722259521484375,7.888778686523438
15.408000000000024,7.878909301757813,0.94327392578125,3.383255004882813
15.418000000000012,6.631927490234376,1.4294158935546877,4.881307983398438
15.428000000000004,5.336196899414063,0.9151611328125,5.891574096679688
15.437999999999995,5.550183105468751,0.89542236328125,3.278878784179688
15.449000000000076,8.442062377929688,1.107464599609375,2.930609130859376
15.459000000000067,9.846356201171876,0.253912353515625,4.96160888671875
15.469000000000058,8.011248779296876,-0.0309539794921875,5.6576995849609375
15.479000000000047,3.354244995117188,-1.3147216796875,4.332809448242188
15.48900000000004,6.1058593750000005,-0.252716064453125,8.064633178710938
15.49900000000003,13.14048767089844,-0.288604736328125,11.344259643554688
15.509000000000022,13.4977294921875,-0.3168670654296875,6.741836547851563
15.519000000000013,8.822781372070313,0.4246826171875,6.920083618164063
15.529000000000003,2.7089965820312503,-0.6136962890625001,12.6698974609375
15.538999999999994,2.459869384765625,0.613995361328125,14.068658447265626
15.548999999999984,5.597137451171875,0.5746673583984375,3.019134521484375
15.558999999999976,8.568270874023439,-1.039126586914063,-1.5692321777343752
15.56900000000008,11.86419677734375,-0.201275634765625,1.5215301513671875
15.579000000000072,8.131027221679688,2.7007720947265628,2.75924072265625
15.589000000000064,7.518826293945313,1.8748840332031247,11.882589721679688
15.599000000000052,7.362261962890625,0.6084625244140626,4.732669067382813
15.61000000000002,8.356677246093751,-1.0850341796875,10.3706298828125
15.620000000000012,8.813510131835939,-0.3554473876953125,5.6512695312500005
15.630000000000004,8.244525146484376,0.3061004638671875,0.167181396484375
15.639999999999992,9.064431762695314,-0.6240142822265625,1.179690551757813
15.649999999999984,6.256591796875001,-1.3486663818359377,8.1120361328125
15.659999999999975,3.880612182617188,-0.9972564697265626,9.834841918945314
15.67000000000008,4.114935302734375,0.43365478515625,9.78250427246094
15.68000000000007,6.836642456054688,0.437841796875,10.622149658203126
15.690000000000062,10.055557250976562,-0.29189453125,8.34351806640625
15.700000000000053,10.577288818359376,-0.34632568359375,3.9965026855468753
15.710000000000043,8.425912475585939,1.1103057861328125,4.080990600585938
15.720000000000034,5.8805084228515625,1.8988098144531247,6.310125732421875
15.730000000000024,5.097238159179688,1.055126953125,5.285504150390626
15.740999999999993,7.092050170898438,0.4729827880859375,3.8969116210937504
15.750999999999983,8.682815551757812,0.0004486083984375,3.639859008789063
15.760999999999974,6.408670043945313,0.15970458984375,3.338394165039063
15.771000000000086,4.233517456054688,-0.0578704833984375,4.296322631835938
15.78100000000007,9.910208129882813,-0.84876708984375,8.617767333984375
15.79100000000006,14.577529907226564,-0.9093292236328124,11.24810791015625
15.801000000000052,12.124688720703126,-0.990826416015625,8.222393798828126
15.811000000000044,5.214923095703125,-1.65865478515625,8.44520263671875
15.821000000000032,1.484893798828125,-0.5465545654296875,13.290472412109375
15.831000000000024,3.950445556640626,1.9686431884765627,10.21331787109375
15.841000000000015,6.629983520507813,1.8693511962890623,-0.2932403564453125
15.851000000000006,9.83887939453125,0.3246429443359375,-0.6180328369140625
15.861000000000004,11.657537841796875,0.9784149169921876,2.781072998046876
15.870999999999997,6.802398681640626,1.9855407714843751,4.726837158203125
15.882000000000076,7.180426025390625,0.7617370605468751,14.312551879882813
15.89200000000006,7.832254028320313,0.4104766845703125,2.60252685546875
15.90200000000005,10.610037231445313,-1.167727661132813,11.280108642578126
15.912000000000042,7.719204711914063,1.04017333984375,1.104473876953125
15.922000000000033,8.021716308593751,0.2755950927734375,-0.13218994140625
15.932000000000023,6.781613159179688,-0.9843963623046876,1.5574188232421875
15.942000000000014,5.9522857666015625,-1.831369018554688,11.66322021484375
15.952000000000004,3.766815185546875,-1.4016021728515626,7.545742797851563
15.961999999999996,6.723892211914063,-0.9483581542968752,9.74915771484375
15.971999999999989,9.182116699218753,-0.6470428466796876,11.313006591796876
15.981999999999978,9.332699584960938,0.0521881103515625,8.311666870117188
15.991999999999967,8.395108032226563,1.2976745605468751,4.9832916259765625
16.002000000000073,6.767855834960938,1.2677673339843751,4.458419799804688
16.012000000000064,6.240890502929688,1.3853027343750002,6.148477172851563
16.022000000000055,5.882003784179688,1.437939453125,3.270654296875
16.032000000000046,7.686456298828125,0.8000183105468751,2.056271362304688
16.043000000000013,6.977655029296876,0.4260284423828125,3.667074584960938
16.053000000000004,4.094747924804688,-0.160601806640625,3.5631469726562504
16.062999999999995,8.379855346679689,0.25780029296875,6.276629638671875
16.072999999999986,16.3556640625,0.264678955078125,11.76251220703125
16.08299999999997,14.627923583984376,-0.2160797119140625,10.03492126464844
16.09300000000008,6.087466430664063,-0.8578887939453126,9.16043395996094
16.103000000000073,-0.1188812255859375,-1.5873260498046875,12.997979736328126
16.113000000000063,1.935894775390625,0.2884552001953125,12.985568237304689
16.123000000000054,6.221600341796876,-0.1060211181640625,0.8673095703125001
16.133000000000045,9.5404052734375,-1.7691619873046875,-2.3447265625
16.143000000000036,12.366189575195314,-1.0098175048828126,1.538427734375
16.15300000000002,7.949340820312501,3.3310668945312503,3.7170196533203126
16.163000000000018,6.365005493164063,2.6690704345703127,3.271102905273438
16.173999999999985,7.856478881835938,-0.1876678466796875,17.91383056640625
16.183999999999976,11.241827392578124,-0.9891815185546876,7.5892578125
16.19400000000008,8.620159912109376,0.7971771240234375,6.8430725097656255
16.20400000000007,7.925714111328125,0.8845062255859376,-1.2556549072265626
16.214000000000063,6.494204711914063,-0.057122802734375,0.5178436279296875
16.224000000000053,5.8072357177734375,-0.590667724609375,2.8135223388671875
16.234000000000044,3.538772583007813,-0.6572113037109375,4.89102783203125
16.244000000000035,6.286499023437501,-0.140863037109375,15.251339721679688
16.254000000000026,7.882348632812499,0.6036773681640626,10.238589477539064
16.264000000000017,10.895501708984376,-1.2677673339843751,11.439813232421876
16.274000000000008,9.260025024414062,-0.7729522705078126,6.090606689453125
16.284000000000006,7.255792236328125,0.62147216796875,4.500888061523438
16.29500000000008,5.466592407226563,1.2670196533203126,5.928659057617188
16.30500000000007,5.738748168945313,0.5555267333984375,4.065438842773438
16.31399999999997,6.876119995117188,0.6853240966796875,1.3694519042968751
16.325000000000053,8.655001831054689,0.7004272460937501,3.171661376953125
16.335000000000043,7.314260864257813,0.4508514404296875,5.0760040283203125
16.345000000000034,4.745230102539063,-0.030206298828125,4.867251586914063
16.355000000000025,7.122854614257813,-0.3967193603515625,6.776229858398438
16.365000000000016,15.078775024414064,-0.3641204833984375,11.444448852539065
16.375,13.801138305664065,-0.411224365234375,9.82093505859375
16.385000000000005,7.803543090820313,-1.2801788330078123,7.344616699218751
16.394999999999996,0.701025390625,-1.6121490478515623,10.62244873046875
16.40499999999998,2.1379180908203126,0.8403930664062501,13.425802612304688
16.41499999999997,5.4072265625,2.3758300781250004,3.216671752929688
16.425000000000075,8.896203613281251,0.8384490966796876,-1.6238128662109377
16.435000000000066,11.774923706054688,0.7753448486328126,1.6381683349609375
16.44500000000005,10.046734619140626,1.3373016357421876,3.347216796875
16.456000000000024,6.617721557617188,1.1870178222656251,13.919720458984376
16.466000000000015,7.572360229492188,-0.218621826171875,6.565982055664063
16.476000000000006,8.67847900390625,-0.581396484375,8.441613769531251
16.486000000000004,9.17972412109375,-0.267071533203125,6.01195068359375
16.495999999999995,7.0329833984375005,1.10955810546875,-1.107464599609375
16.50599999999998,7.978051757812499,-0.7256988525390625,0.6395660400390626
16.51599999999997,6.988571166992188,-0.7810272216796875,2.6260040283203128
16.526000000000074,4.4972991943359375,-2.062103271484375,12.402825927734376
16.536000000000065,4.983441162109376,-0.9166564941406252,9.55655517578125
16.546000000000056,8.0390625,-0.3243438720703125,11.946142578125
16.556000000000054,9.492105102539064,-0.1807891845703125,10.4065185546875
16.566000000000045,9.24537048339844,1.1097076416015623,5.366552734375
16.577000000000005,7.790682983398438,1.0196868896484377,3.311178588867188
