time,ax,ay,az
0.0,8.097830200195313,-0.8043548583984376,6.462951660156251
0.0099999999999909,7.461254882812501,-1.28900146484375,6.722396850585938
0.0209999999999865,7.168014526367188,-1.0144531250000002,6.996945190429688
0.0300000000000011,6.978103637695313,-1.4799591064453126,6.584973144531251
0.039999999999992,7.250408935546876,-1.1032775878906251,6.1970764160156255
0.0499999999999829,7.859619140625001,-0.113946533203125,5.70390625
0.0600000000000022,8.301199340820313,0.0638519287109375,5.503976440429688
0.0709999999999979,7.990762329101563,0.430364990234375,6.0449981689453125
0.0809999999999888,7.78365478515625,1.0684356689453125,6.582730102539063
0.0909999999999797,6.5365234375000005,1.1252593994140625,5.803048706054688
0.100999999999999,4.9115142822265625,1.36795654296875,4.462606811523438
0.11099999999999,8.357723999023438,1.8591827392578129,4.857681274414063
0.1209999999999809,10.616616821289064,1.10357666015625,8.045791625976562
0.1310000000000002,6.256442260742188,-1.165185546875,6.496896362304688
0.1409999999999911,5.827871704101563,-1.01983642578125,8.107101440429688
0.1509999999999891,8.418734741210939,-1.5242218017578126,10.9903076171875
0.1610000000000013,8.596682739257814,-1.0083221435546876,8.24183349609375
0.1709999999999922,7.387533569335938,2.1932464599609376,1.5167449951171876
0.1809999999999831,8.159140014648438,-0.2426971435546875,1.1357269287109375
0.1910000000000025,8.9135498046875,-1.6954406738281251,10.869482421875
0.2009999999999934,5.649774169921876,1.565045166015625,10.390368652343753
0.2109999999999843,4.861569213867188,2.1201232910156254,2.960516357421876
0.22199999999998,10.205093383789062,-0.7810272216796875,4.137515258789063
0.2319999999999993,11.149713134765626,-1.2556549072265626,9.125143432617188
0.2419999999999902,7.903732299804688,1.88236083984375,5.433694458007813
0.2519999999999811,6.515887451171875,2.283566284179688,0.4119720458984375
0.2620000000000004,8.121606445312501,-1.1150909423828126,4.034036254882813
0.2719999999999913,6.567178344726563,-0.9589752197265624,11.83548583984375
0.2819999999999893,4.6348724365234375,0.7364654541015625,6.433941650390626
0.2920000000000016,7.0165344238281255,0.4197479248046875,3.2851593017578127
0.3019999999999925,9.613827514648438,-1.5279602050781251,8.340676879882814
0.3119999999999834,8.476007080078126,-1.045556640625,10.883837890625
0.3220000000000027,6.451885986328126,0.5573211669921876,5.439825439453125
0.3319999999999936,6.791033935546875,0.1149932861328125,4.275088500976563
0.3429999999999893,7.703503417968751,-0.4957122802734375,8.497689819335939
0.3529999999999802,7.825823974609375,0.2594451904296875,6.276480102539063
0.3629999999999995,7.901638793945313,1.3150207519531252,1.275393676757813
0.3729999999999904,8.228524780273439,0.9655548095703126,4.114636230468751
0.3829999999999813,8.066577148437501,1.0373321533203126,9.700558471679688
0.3930000000000007,6.91514892578125,0.9464141845703126,7.633670043945313
0.4029999999999916,6.820642089843751,0.4044952392578125,4.763922119140625
0.4129999999999896,5.708242797851563,-0.5447601318359375,6.144140625
0.4230000000000018,6.7354064941406255,-1.0249206542968752,6.54130859375
0.4329999999999927,8.838482666015626,0.13577880859375,5.0964904785156255
0.4429999999999836,9.545040893554688,0.3093902587890625,5.783758544921875
0.4530000000000029,8.422473144531251,-0.7460357666015626,6.695330810546875
0.4629999999999938,7.243231201171875,-1.1017822265625,8.823977661132814
0.4729999999999847,6.104513549804688,-0.2714080810546875,9.368588256835938
0.4829999999999756,6.748565673828126,0.7787841796875,6.273638916015625
0.492999999999995,7.865151977539063,-0.18243408203125,3.856536865234376
0.5039999999999907,8.83997802734375,-1.041668701171875,6.566879272460938
0.5139999999999816,8.371331787109376,1.6993286132812502,8.090203857421876
0.5240000000000009,6.761724853515625,1.9530914306640623,5.141949462890626
0.5339999999999918,7.885040283203126,1.0815948486328126,5.715121459960938
0.5439999999999898,8.138354492187501,0.706707763671875,8.035025024414063
0.554000000000002,8.582028198242188,0.6032287597656251,5.9373321533203125
0.563999999999993,7.883395385742188,1.0323974609375002,1.818658447265625
0.5739999999999839,8.459707641601563,-0.4649078369140625,4.113290405273438
0.5840000000000032,6.484036254882813,-1.5722229003906252,6.539065551757813
0.5939999999999941,6.4079223632812505,-1.5548767089843751,6.999935913085938
0.603999999999985,6.191693115234376,-0.624462890625,5.887088012695313
0.6139999999999759,8.419482421875001,-1.1037261962890623,7.880554199218751
0.625,8.252151489257812,-1.2909454345703126,8.371630859375001
0.6339999999999861,7.978051757812499,0.097198486328125,7.1585937500000005
0.6449999999999818,6.175543212890625,0.5583679199218751,6.398651123046876
0.6550000000000011,6.40732421875,0.6207244873046875,7.535723876953125
0.664999999999992,7.433590698242188,1.2407012939453126,6.049185180664063
0.674999999999983,8.166616821289063,1.5318481445312502,3.324337768554688
0.6850000000000023,8.294769287109375,1.5729705810546877,3.7067016601562495
0.6949999999999932,8.414248657226564,1.3803680419921875,6.827520751953125
0.7049999999999841,7.748663330078125,0.6253601074218751,7.279269409179688
0.7150000000000034,6.819595336914063,0.1559661865234375,6.414950561523438
0.7249999999999943,5.9108642578125,-0.13697509765625,6.642694091796876
0.7349999999999852,4.552777099609376,-0.8522064208984376,5.150473022460938
0.7449999999999761,5.891574096679688,-1.083538818359375,4.141851806640625
0.7549999999999955,12.006704711914065,-0.9709381103515624,6.143392944335938
0.7649999999999864,12.75184326171875,-1.0149017333984376,7.142294311523438
0.7749999999999773,9.389523315429688,-1.45528564453125,7.204052734375001
0.7849999999999966,3.9088745117187504,-1.3373016357421876,10.056604003906251
0.7959999999999923,3.8759765625,0.54251708984375,11.893206787109376
0.8059999999999832,6.284255981445313,2.045504760742188,5.383151245117188
0.8160000000000025,8.287591552734376,1.5898681640625,0.0309539794921875
0.8259999999999934,10.022509765625,1.0682861328125002,2.890982055664063
0.8359999999999843,9.715362548828123,1.3600311279296875,10.265206909179687
0.8460000000000036,6.49345703125,1.7015716552734377,6.560299682617188
0.8559999999999945,6.723593139648438,0.4605712890625,7.069619750976563
0.8659999999999854,7.578939819335938,-0.9951629638671876,8.870034790039064
0.8759999999999764,9.294418334960938,-0.4921234130859375,6.124102783203125
0.8859999999999957,8.6910400390625,0.1350311279296875,1.24832763671875
0.8959999999999866,7.601669311523438,-0.7203155517578126,2.123114013671876
0.9059999999999776,6.793276977539063,-1.164736938476563,7.593145751953125
0.9159999999999968,5.559155273437501,-1.1488861083984376,7.388131713867188
0.9269999999999924,5.905331420898438,-0.256005859375,5.819647216796875
0.9379999999999882,8.528195190429688,-0.1093109130859375,7.236950683593751
0.9470000000000028,10.206887817382814,-0.3404937744140625,7.630081176757813
0.9569999999999936,8.841473388671876,0.366064453125,6.1851135253906255
0.9669999999999844,5.917294311523438,1.6438507080078126,6.578991699218751
0.977000000000004,5.35638427734375,1.445864868164063,8.324676513671875
0.9869999999999948,5.931051635742188,0.329876708984375,7.079190063476563
0.9969999999999856,7.541555786132813,0.826336669921875,4.299163818359375
1.0069999999999766,9.079983520507811,1.2163269042968752,3.289047241210938
1.016999999999996,9.782803344726563,-0.119329833984375,5.213427734375
1.0269999999999868,8.1718505859375,-0.2106964111328125,7.458264160156251
1.0379999999999896,6.75125732421875,0.0189910888671875,7.945901489257813
1.046999999999997,6.514990234375,-0.90738525390625,6.99051513671875
1.0579999999999927,7.326223754882813,-1.37154541015625,6.875970458984376
1.0669999999999789,6.417941284179688,-1.0995391845703126,5.548239135742188
1.078000000000003,4.206900024414063,-1.296328735351563,2.643499755859376
1.087999999999994,5.9697814941406255,-0.4797119140625,3.98603515625
1.0979999999999848,11.351885986328126,0.5778076171875001,8.283105468750001
1.1079999999999757,11.969021606445311,0.868505859375,6.3466125488281255
1.117999999999995,9.778317260742188,1.6160369873046876,6.481643676757813
1.127999999999986,5.857778930664063,1.2427947998046875,11.276071166992187
1.1379999999999768,5.840582275390625,1.8382476806640624,13.407110595703124
1.147999999999996,5.796170043945313,1.0702301025390626,4.5152435302734375
1.157999999999987,7.325924682617188,-0.3004180908203125,0.436346435546875
1.167999999999978,8.958859252929688,0.3312225341796875,5.349505615234375
1.1779999999999973,8.46673583984375,0.7198669433593751,6.0405120849609375
1.1879999999999882,6.953280639648438,0.9869384765625,4.0113067626953125
1.198999999999984,6.965692138671876,-0.5441619873046876,6.845315551757813
1.2090000000000032,8.71197509765625,-1.870098876953125,10.035818481445313
1.218999999999994,9.479693603515626,-0.7289886474609375,6.608450317382813
1.228999999999985,8.350546264648438,-0.2165283203125,2.2310791015625
1.238999999999976,7.631576538085938,-0.4897308349609375,4.670462036132813
1.2489999999999952,6.698471069335938,-1.1644378662109376,7.418936157226563
1.258999999999986,5.377767944335938,-0.775494384765625,5.532687377929688
1.268999999999977,5.332757568359376,1.142755126953125,5.425021362304688
1.2789999999999964,7.735952758789063,0.9251800537109376,7.977154541015626
1.2889999999999873,9.284548950195314,0.2678192138671875,8.137307739257814
1.2989999999999782,8.657693481445314,0.8045043945312501,6.821090698242188
1.3089999999999975,7.154705810546876,1.4412292480468751,6.805838012695313
1.3189999999999884,7.408917236328126,1.1746063232421875,7.787243652343751
1.3289999999999793,6.853240966796876,0.11663818359375,5.492462158203125
1.3400000000000034,7.027899169921875,0.516796875,3.901846313476563
1.3499999999999943,7.593893432617188,0.1326385498046875,4.143795776367188
1.3599999999999852,8.25379638671875,-0.9888824462890624,5.8127685546875005
1.369999999999976,8.036968994140626,-0.3991119384765625,7.033432006835938
1.3799999999999957,6.929354858398438,-0.399261474609375,6.665124511718751
1.3899999999999864,5.693438720703125,-0.783270263671875,6.2003662109375
1.3999999999999773,5.29716796875,-0.9226379394531252,6.135916137695313
1.4099999999999966,8.406024169921876,-0.075067138671875,6.660040283203125
1.4199999999999875,11.73798828125,0.2906982421875,6.287994384765626
1.4299999999999784,9.644631958007814,-0.4092803955078125,4.5342346191406255
1.4399999999999975,6.777874755859376,-0.2624359130859375,7.922573852539063
1.4499999999999886,5.160641479492188,0.5178436279296875,11.099020385742188
1.4599999999999795,6.399847412109375,2.1153381347656253,8.49066162109375
1.4699999999999989,7.641595458984375,2.2935852050781254,2.840438842773437
1.4799999999999898,9.625790405273438,0.3569427490234375,4.227835083007813
1.4899999999999878,9.55520935058594,0.2112945556640625,7.754943847656251
1.5009999999999764,6.961953735351563,1.155615234375,6.634619140625
1.5109999999999957,5.90966796875,0.17884521484375,5.309429931640626
1.5209999999999866,7.117022705078125,-1.1174835205078126,7.834945678710938
1.5309999999999775,8.53253173828125,-1.073968505859375,7.282708740234375
1.5409999999999968,9.008206176757811,-0.3434844970703125,2.93150634765625
1.5509999999999875,8.492904663085938,-0.3883453369140625,2.020233154296875
1.5609999999999786,7.671951293945313,-0.5728729248046875,6.435437011718751
1.570999999999998,6.278872680664063,-0.8818145751953126,7.832104492187501
1.5809999999999889,5.701663208007813,-0.0157012939453125,6.322387695312501
1.5909999999999798,7.000534057617188,0.8466735839843751,6.846063232421876
1.600999999999999,8.773583984375001,0.127703857421875,7.770346069335938
1.610999999999983,8.613580322265626,0.3482696533203125,6.775631713867188
1.6219999999999857,6.89481201171875,1.4946136474609375,6.302947998046876
1.6319999999999766,6.1242523193359375,1.0313507080078126,7.5144897460937505
1.641999999999996,6.962850952148438,0.3146240234375,7.3404296875
1.6519999999999868,7.619165039062499,0.66932373046875,4.675994873046875
1.6619999999999775,8.441165161132814,0.61429443359375,3.513351440429688
1.671999999999997,8.6384033203125,-0.5085723876953125,5.190249633789063
1.681999999999988,8.051473999023438,-0.4200469970703125,7.36734619140625
1.6919999999999789,6.99051513671875,-0.4505523681640625,7.063040161132813
1.7019999999999982,7.227230834960938,-0.7894012451171876,6.955075073242188
1.711999999999989,7.572958374023438,-0.6811370849609375,7.075152587890625
1.721999999999987,6.960009765625,-0.6545196533203126,5.9099670410156255
1.731999999999999,4.509112548828125,-0.6925018310546875,4.026708984375
1.7419999999999831,3.6572052001953126,-0.5486480712890626,3.5973907470703126
1.7519999999999882,9.662127685546876,0.9951629638671876,6.624450683593751
1.7620000000000005,13.645770263671876,1.0488464355468752,6.606805419921876
1.7719999999999914,11.888272094726563,1.827630615234375,5.5570617675781255
1.782999999999987,7.071414184570313,1.4232849121093751,10.161279296875
1.792999999999978,4.39696044921875,0.6742584228515626,14.410498046875
1.8029999999999973,4.8766723632812505,0.8658142089843751,8.955569458007814
1.812999999999988,6.013446044921875,-0.7422973632812501,0.4604217529296875
1.822999999999979,8.822482299804689,-0.7405029296875001,1.2169250488281251
1.8329999999999984,9.943405151367188,0.3461761474609375,6.862811279296875
1.842999999999989,7.6574462890625,0.8934783935546876,5.074807739257813
1.8529999999999875,6.522167968750001,0.3552978515625,5.7339630126953125
1.8629999999999995,7.887283325195313,-1.0443603515625002,9.714016723632811
1.872999999999984,9.566424560546876,-1.265374755859375,8.8298095703125
1.8829999999999885,8.787341308593751,0.08673095703125,3.1576049804687503
1.893000000000001,7.838833618164063,0.8234954833984376,1.899557495117188
1.902999999999992,7.219155883789063,-1.2118408203125002,5.6859619140625
1.9129999999999896,6.196926879882813,-0.7734008789062501,7.155902099609375
1.9239999999999784,4.4898223876953125,0.892431640625,5.1715576171875
1.9339999999999973,6.608151245117188,1.0573699951171875,7.181771850585938
1.9439999999999884,9.168807983398438,0.2118927001953125,9.229519653320311
1.9539999999999795,9.08402099609375,-0.1909576416015625,7.930349731445313
1.9639999999999984,7.70888671875,1.03778076171875,6.2936767578125
1.973999999999989,7.339532470703125,0.58917236328125,7.355682373046876
1.983999999999988,6.903036499023438,0.24703369140625,6.80748291015625
1.994,6.839633178710938,0.575115966796875,4.015942382812501
2.003999999999984,7.25728759765625,0.0299072265625,2.926870727539063
2.0139999999999887,8.144485473632812,-0.3751861572265625,5.243783569335938
2.024000000000001,8.348153686523439,-0.3249420166015625,7.14842529296875
2.033999999999992,7.832852172851563,-0.350213623046875,6.978701782226563
2.04399999999999,7.930947875976563,-0.3385498046875,7.458563232421875
2.054000000000002,6.091802978515625,-0.40135498046875,6.973617553710938
2.0649999999999977,4.117926025390625,-0.02572021484375,5.224942016601563
2.0749999999999886,5.7967681884765625,0.2690155029296875,4.475616455078125
2.0849999999999795,11.71705322265625,0.18004150390625,6.407772827148438
2.094999999999999,11.084365844726562,-0.3129791259765625,4.495205688476563
2.1049999999999898,8.644683837890625,-0.3790740966796875,6.554916381835938
2.114999999999988,5.510107421875,0.0007476806640625,11.568563842773438
2.125,6.227880859375,1.20645751953125,12.37187194824219
2.134999999999991,6.573757934570313,2.4253265380859377,4.051980590820313
2.144999999999989,8.296115112304689,0.3823638916015625,1.8887908935546875
2.1569999999999894,9.207687377929688,0.1948455810546875,7.110293579101563
2.164999999999992,7.707092285156251,0.8136260986328125,7.140200805664063
2.174999999999983,6.241638183593751,0.480010986328125,3.906631469726563
2.1850000000000023,7.259381103515626,-0.920843505859375,6.260928344726563
2.194999999999993,8.717507934570314,-0.9775177001953126,9.310418701171876
2.205999999999989,9.422122192382814,0.168377685546875,5.033685302734376
2.21599999999998,8.926110839843751,-0.1280029296875,1.1541198730468751
2.225999999999999,7.735653686523438,-0.4912261962890625,5.275784301757813
2.235999999999983,6.630133056640625,-0.68607177734375,8.742630004882812
2.245999999999988,5.0102081298828125,-0.2776885986328125,5.827572631835938
2.256,6.2601806640625,0.7180725097656251,5.276980590820313
2.265999999999991,8.344714355468751,0.18004150390625,7.584024047851563
2.275999999999989,9.020318603515626,-0.0043365478515625,7.993453979492188
2.2860000000000014,7.383645629882813,0.7980743408203126,6.623104858398438
2.2959999999999923,6.20694580078125,1.04256591796875,7.5757995605468755
2.305999999999983,7.079788208007813,0.31641845703125,8.259628295898438
2.3160000000000025,7.736401367187501,-0.250323486328125,5.291934204101563
2.3259999999999934,7.992706298828126,0.77998046875,3.115286254882813
2.336999999999989,8.277124023437501,0.5339935302734375,4.19119873046875
2.346999999999987,8.076296997070314,-0.5912658691406251,6.436035156250001
2.357,7.122854614257813,-0.189312744140625,7.221847534179688
2.366999999999983,7.021618652343751,-0.0761138916015625,6.872680664062501
2.376999999999988,7.894161987304688,-0.6933990478515626,7.032086181640626
2.3870000000000005,6.869989013671876,-1.1242126464843751,6.402688598632813
2.396999999999992,4.175198364257813,-0.5824432373046875,4.1693664550781255
2.4069999999999894,5.85703125,0.2595947265625,4.42447509765625
2.4170000000000016,11.415289306640624,0.3126800537109375,7.419534301757813
2.4269999999999925,11.311660766601562,0.8770294189453126,5.626446533203126
2.4369999999999834,8.628085327148439,1.8093872070312504,6.628488159179688
2.4470000000000027,5.970977783203125,0.840093994140625,11.408410644531251
2.4579999999999984,6.451437377929688,1.1417083740234375,12.316244506835938
2.4669999999999845,6.535626220703126,0.47672119140625,3.725094604492188
2.477000000000004,7.621408081054688,-1.203616333007813,0.73511962890625
2.4879999999999995,9.098376464843753,-0.1236663818359375,6.865951538085938
2.497999999999984,7.610342407226563,0.7986724853515625,6.945355224609376
2.5079999999999885,6.318200683593751,0.7526153564453125,4.088766479492188
2.5180000000000007,7.645034790039063,-0.6826324462890625,6.705648803710938
2.527999999999992,8.8465576171875,-1.433453369140625,9.35916748046875
2.538999999999988,9.533526611328126,0.1054229736328125,5.6237548828125
2.548000000000002,8.327517700195314,0.1786956787109375,1.48758544921875
2.5579999999999927,7.59703369140625,-0.2965301513671875,5.279672241210938
2.567999999999984,6.501831054687501,-0.8990112304687501,7.883993530273438
2.578000000000003,5.3705902099609375,-0.2008270263671875,5.543154907226563
2.587999999999994,6.0355773925781255,1.4288177490234375,5.713177490234376
2.5979999999999848,8.16766357421875,0.69205322265625,8.0689697265625
2.607999999999976,8.984878540039062,0.1652374267578125,7.849301147460938
2.619,8.01513671875,0.563751220703125,6.636413574218751
2.627999999999986,6.441418457031251,0.7322784423828126,7.417440795898438
2.6399999999999864,7.045245361328125,0.6156402587890626,8.077642822265625
2.649000000000001,7.389926147460938,0.036785888671875,4.862316894531251
2.658999999999992,7.931097412109375,0.0100189208984375,3.241046142578125
2.66899999999999,8.127886962890626,0.197686767578125,4.6069091796875
2.679000000000002,8.016931152343751,-0.4275238037109375,6.0509796142578125
2.688999999999993,7.398898315429688,-0.461767578125,6.927859497070313
2.698999999999984,6.215170288085938,-0.247930908203125,7.039114379882813
2.709000000000003,5.07047119140625,-0.316717529296875,6.084326171875
2.718999999999994,5.77867431640625,-0.4586273193359375,5.163034057617188
2.728999999999985,10.999578857421875,0.1973876953125,7.040011596679688
2.739999999999988,12.340618896484376,0.451898193359375,6.474465942382813
2.7489999999999952,8.392266845703126,-0.2881561279296875,4.59075927734375
2.758999999999986,5.067330932617188,-0.8019622802734375,9.242678833007814
2.768999999999977,4.565188598632813,0.4544403076171875,12.269589233398438
2.780000000000001,6.364257812500001,2.1247589111328127,6.224142456054688
2.789999999999992,7.875469970703126,2.002438354492188,0.5658447265625001
2.799999999999983,10.91015625,-0.3721954345703125,5.193240356445313
2.8100000000000023,10.002621459960938,0.1215728759765625,9.588854980468753
2.819999999999993,6.328817749023438,1.2692626953125,6.144290161132813
2.829999999999984,5.842227172851563,-0.2929412841796875,5.6781860351562505
2.84099999999998,7.143341064453126,-1.256402587890625,8.708984375
2.8499999999999943,9.03138427734375,-0.4113739013671875,6.632525634765625
2.859999999999985,8.727078247070313,0.074169921875,0.7427459716796876
2.869999999999976,8.369537353515625,0.218621826171875,0.8215515136718751
2.8799999999999955,7.37392578125,-0.5830413818359376,8.708087158203126
2.8899999999999864,5.717214965820313,-0.8478698730468751,8.478848266601563
2.8999999999999773,5.77628173828125,0.4557861328125,6.366799926757813
2.9099999999999966,7.735653686523438,0.4281219482421875,7.249063110351563
2.9199999999999875,9.903030395507812,-0.2050140380859375,7.931546020507813
2.9299999999999784,8.569168090820312,0.0788055419921875,6.17105712890625
2.9410000000000025,5.881106567382813,1.286907958984375,5.812020874023438
2.9509999999999934,5.308831787109376,1.088922119140625,7.9182373046875005
2.9609999999999843,6.56583251953125,-0.2794830322265625,7.355084228515626
2.971000000000004,7.788739013671876,0.4194488525390625,4.412811279296875
2.9809999999999945,9.14503173828125,0.7286895751953125,3.452340698242188
2.990999999999985,9.557003784179688,-0.2669219970703125,5.4718261718750005
3.0009999999999764,8.368939208984376,-0.401953125,7.748065185546875
3.010999999999996,6.313265991210938,0.1607513427734375,7.4181884765625
3.0209999999999866,5.848507690429688,-0.4924224853515625,6.036923217773438
3.030999999999977,4.894616699218751,-1.4854919433593752,5.00048828125
3.0420000000000016,5.307934570312501,-0.9503021240234376,4.3413330078125005
3.050999999999988,10.314404296875,0.801214599609375,6.036624145507813
3.0619999999999834,12.689636230468752,0.2806793212890625,6.333901977539063
3.070999999999998,9.454122924804688,0.9323577880859376,6.403137207031251
3.0819999999999936,5.234811401367188,1.3664611816406251,10.96339111328125
3.0919999999999845,4.109701538085938,1.1270538330078126,12.492248535156252
3.102000000000004,6.864007568359376,1.9178009033203127,6.329864501953126
3.1119999999999948,8.109194946289064,-0.6762023925781251,0.0031402587890625
3.1219999999999857,9.745269775390623,-1.627252197265625,2.832662963867188
3.1319999999999766,8.915792846679688,0.694744873046875,9.961798095703124
3.141999999999996,6.309976196289063,1.4113220214843751,5.383001708984375
3.151999999999987,6.509606933593751,0.0300567626953125,5.245278930664063
3.1619999999999777,8.874371337890626,-1.8427337646484376,9.286492919921876
3.171999999999997,9.206939697265623,-0.6030792236328125,7.117022705078125
3.181999999999988,9.20364990234375,0.347821044921875,1.7420959472656252
3.191999999999979,7.29197998046875,-0.4526458740234375,2.0081207275390627
3.201999999999998,6.640750122070313,-0.640911865234375,8.798406982421875
3.211999999999989,5.326776123046876,-0.5450592041015625,7.11552734375
3.2229999999999848,6.04783935546875,0.587078857421875,4.36466064453125
3.232999999999976,8.117419433593751,1.5780548095703126,7.237249755859375
3.242999999999995,9.246865844726564,0.0803009033203125,8.680123901367189
3.252999999999986,8.349649047851564,0.0354400634765625,6.847708129882813
3.262999999999977,6.541757202148438,1.2272430419921876,6.60411376953125
3.272999999999996,5.961856079101563,0.7080535888671875,8.310769653320314
3.282999999999987,7.199267578125,0.3886444091796875,6.824380493164063
3.292999999999978,7.944406127929688,0.2711090087890625,3.106314086914063
3.3029999999999973,8.252301025390626,0.089422607421875,3.093902587890625
3.312999999999988,8.296563720703126,-0.454888916015625,6.326873779296876
3.322999999999979,7.566677856445313,-0.69923095703125,7.483984375
3.3329999999999984,7.023712158203126,-0.2883056640625,7.065133666992188
3.343999999999994,6.0233154296875,-0.4053924560546875,6.152664184570313
3.352999999999988,4.951589965820313,-0.1798919677734375,4.756146240234376
3.363999999999976,6.669012451171875,-0.120526123046875,3.9658477783203128
3.3739999999999952,12.636550903320314,0.31881103515625,6.992758178710938
3.383999999999986,11.438018798828123,-0.033197021484375,6.613833618164063
3.393999999999977,8.161532592773439,-0.5947052001953126,7.423272705078125
3.4039999999999964,3.719561767578125,-0.7164276123046875,11.288482666015623
3.413999999999988,4.441073608398438,0.7256988525390625,12.4569580078125
3.423999999999978,6.575103759765626,2.8811126708984376,4.404736328125001
3.433999999999997,9.195275878906251,0.6422576904296875,-0.3330169677734375
3.4439999999999884,10.84854736328125,-0.4347015380859375,2.286407470703125
3.45399999999998,8.536120605468751,0.739605712890625,11.917581176757814
3.463999999999998,5.301803588867188,1.6764495849609375,5.9814453125
3.473999999999989,6.953131103515625,-0.1700225830078125,5.7738891601562505
3.483999999999988,8.764163208007814,-1.383059692382813,8.755639648437501
3.494999999999976,9.92725524902344,0.1066192626953125,5.944659423828125
3.5049999999999955,8.136859130859376,0.6805389404296875,0.1813873291015625
3.5149999999999864,7.8703857421875005,-0.8079437255859375,1.5393249511718752
3.5249999999999773,5.2101379394531255,-0.7796813964843751,10.624093627929687
3.5349999999999966,5.414852905273438,-0.6593048095703126,8.217160034179688
3.5449999999999875,6.510504150390625,0.189013671875,4.351800537109376
3.5549999999999784,9.727774047851565,-0.198284912109375,7.189547729492188
3.5649999999999977,9.557901000976564,-0.100189208984375,8.965887451171875
3.5749999999999886,7.860516357421876,0.328680419921875,6.518280029296876
3.5849999999999795,5.187857055664063,0.9120208740234376,6.162982177734375
3.594999999999999,5.678933715820313,0.8710479736328126,8.467633056640626
3.6049999999999898,7.3464111328125,0.4083831787109375,6.29307861328125
3.614999999999988,8.505914306640626,0.487188720703125,2.1295440673828128
3.625999999999976,9.196771240234376,0.966900634765625,3.3699462890625003
3.634999999999991,8.607000732421875,0.140264892578125,7.17294921875
3.6459999999999866,7.315457153320313,-0.3265869140625,8.200860595703126
3.656999999999989,6.3585754394531255,-0.0801513671875,7.389627075195313
3.665999999999997,7.348355102539063,-0.42528076171875,7.372280883789063
3.675999999999988,7.9466491699218755,-1.0277618408203126,6.402090454101563
3.685999999999978,6.343621826171876,-1.0205841064453125,4.460214233398438
3.695999999999998,3.4201904296875,-0.54251708984375,2.753408813476563
3.705999999999989,6.313714599609376,-0.3500640869140625,5.066732788085938
3.71599999999998,11.998330688476564,0.3600830078125,8.424417114257814
3.725999999999999,12.579577636718753,0.8362060546875001,5.787347412109376
3.735999999999983,9.176583862304687,1.4078826904296875,6.468933105468751
3.745999999999988,5.866900634765625,1.032696533203125,12.422265625
3.7569999999999766,5.213128662109376,1.4539398193359376,12.786984252929688
3.765999999999991,5.136117553710938,0.7138854980468751,3.0110595703125003
3.776999999999987,7.266409301757813,-0.5914154052734375,0.0729736328125
3.7869999999999777,9.367242431640626,-0.034991455078125,6.425418090820313
3.796999999999997,8.504718017578126,1.1146423339843752,6.962103271484375
3.806999999999988,7.11612548828125,1.020135498046875,4.524365234375001
3.816999999999979,7.424169921875,-0.764129638671875,7.630230712890626
3.826999999999998,9.08282470703125,-1.6537200927734377,10.42266845703125
3.836999999999989,9.361260986328126,-0.3539520263671875,5.776132202148438
3.846999999999987,7.536022949218751,0.5498443603515626,0.7319793701171875
3.857999999999976,8.038314819335938,-0.713287353515625,4.343875122070313
3.866999999999983,6.190646362304688,-1.412966918945313,7.1454345703125
3.876999999999988,5.6038665771484375,-0.253314208984375,5.493658447265625
3.887000000000001,5.7003173828125,1.0515380859375,5.323336791992188
3.896999999999992,8.620458984375,0.42886962890625,8.753546142578125
3.906999999999989,9.291278076171876,0.403448486328125,8.957662963867188
3.9170000000000016,8.083773803710939,0.6021820068359376,6.499139404296876
3.927999999999997,6.544598388671876,1.047052001953125,7.383047485351563
3.937999999999988,6.534130859375001,0.8572906494140625,8.329312133789063
3.947999999999979,6.970776367187501,0.463262939453125,5.243185424804688
3.9579999999999984,7.602117919921875,0.30924072265625,2.454486083984375
3.967999999999989,8.283554077148438,0.219219970703125,3.868649291992188
3.9779999999999873,8.439071655273438,-0.2283416748046875,6.4318481445312505
3.988,7.656100463867188,-0.662445068359375,7.012945556640625
3.9979999999999833,6.856381225585938,-0.3177642822265625,7.303494262695313
4.0079999999999885,6.121411132812501,-0.6308929443359376,6.767257690429688
4.018000000000001,4.653564453125,-1.1871673583984377,4.682574462890625
4.027999999999992,7.150967407226563,0.110955810546875,4.729379272460938
4.03799999999999,13.244863891601565,0.6735107421875001,6.9899169921875
4.048000000000002,11.4556640625,-0.80570068359375,4.7854553222656255
4.0589999999999975,7.464096069335938,-0.2220611572265625,7.832553100585938
4.068999999999988,3.2030639648437504,0.0832916259765625,12.245513916015623
4.078999999999979,4.2864532470703125,1.2972259521484375,12.25882263183594
4.088999999999999,7.112088012695313,3.544754028320313,3.7877502441406254
4.0989999999999895,9.182864379882814,0.3796722412109375,-0.426776123046875
4.108999999999988,11.38568115234375,-0.1703216552734375,3.2326721191406254
4.119,8.110690307617189,1.3745361328125,11.157937622070314
4.128999999999984,5.1238555908203125,0.6655853271484375,5.497994995117188
4.138999999999989,6.676190185546876,-0.8197570800781251,6.815707397460938
4.149000000000001,9.2640625,-2.0428131103515628,9.044094848632811
4.158999999999992,9.891217041015626,-0.273052978515625,4.684967041015625
4.16899999999999,8.899343872070313,0.430364990234375,0.24822998046875
4.179000000000002,6.8251281738281255,-0.9063385009765624,1.722955322265625
4.188999999999993,6.201113891601563,-0.792242431640625,11.188742065429688
4.198999999999984,4.491616821289063,-0.5232269287109376,6.902139282226563
4.20999999999998,6.546542358398438,0.5929107666015625,5.191296386718751
4.219999999999999,9.499880981445314,0.7210632324218751,7.38887939453125
4.22999999999999,10.215411376953126,-0.593060302734375,8.519970703125
4.239999999999988,7.508657836914063,1.3334136962890626,6.634619140625
4.25,5.329617309570313,1.6656829833984377,6.478652954101563
4.259999999999991,5.690747070312501,0.3016143798828125,8.408715820312501
4.269999999999989,7.1600891113281255,0.5345916748046875,6.1806274414062505
4.280000000000001,8.166018676757814,0.3255401611328125,2.3830078125000003
4.289999999999992,9.186602783203126,0.4056915283203125,3.0014892578125
4.299999999999983,9.095236206054688,-0.5822937011718751,7.250857543945313
4.310000000000002,7.102368164062501,-0.3437835693359375,8.189495849609376
4.319999999999993,6.781912231445313,-0.079254150390625,7.2498107910156255
4.329999999999984,7.059451293945313,-1.2677673339843751,6.906924438476563
4.340000000000003,7.108050537109375,-0.9996490478515626,6.627890014648438
4.349999999999994,4.9050842285156255,-1.11075439453125,3.460565185546875
4.360999999999983,5.141351318359376,-0.4475616455078125,3.1567077636718754
4.370999999999988,9.898544311523438,1.1711669921875,7.476956176757813
4.381,11.365344238281253,0.355596923828125,6.3654541015625
4.390999999999991,9.967031860351565,1.5568206787109375,6.337191772460938
4.400999999999989,6.836044311523438,1.6265045166015626,10.854827880859377
4.411000000000001,6.292630004882813,1.284515380859375,13.1125244140625
4.420999999999992,6.583477783203126,0.693548583984375,5.675793457031251
4.430999999999983,6.946551513671875,-0.5941070556640625,0.9766204833984377
4.4410000000000025,7.856927490234375,0.2770904541015625,4.952487182617188
4.450999999999993,8.1287841796875,1.200177001953125,6.749612426757813
4.460999999999984,6.849203491210938,0.8694030761718751,3.7632263183593753
4.471000000000004,7.416094970703125,-0.32239990234375,6.097634887695313
4.481999999999999,8.866595458984376,-1.660748291015625,9.724185180664064
4.4909999999999854,9.354083251953126,-0.8874969482421876,7.109246826171876
4.501999999999988,9.01209411621094,0.091815185546875,3.0607055664062504
4.5120000000000005,7.457516479492188,-0.6041259765625,3.8741821289062495
4.521999999999991,6.995300292968751,-0.8855529785156251,6.866101074218751
4.531999999999989,5.68895263671875,-0.7478302001953125,5.23077392578125
4.542000000000002,5.3571319580078125,0.59515380859375,5.092901611328125
4.5519999999999925,7.115377807617188,1.1176330566406252,8.20953369140625
4.561999999999983,8.849099731445314,-0.122320556640625,8.394659423828125
4.572000000000003,8.634066772460939,0.4245330810546875,7.1873046875
4.581999999999994,7.426712036132813,1.453790283203125,7.438226318359375
4.5919999999999845,7.161285400390626,1.1740081787109375,7.866946411132813
4.602000000000004,7.3694396972656255,0.4170562744140625,5.839236450195313
4.611999999999995,6.884344482421875,0.3733917236328125,3.4050872802734378
4.621999999999986,7.627239990234376,0.1511810302734375,4.05003662109375
4.631999999999977,8.043399047851564,-0.485992431640625,5.5929504394531255
4.643000000000001,7.939620971679688,-0.44561767578125,6.469680786132813
4.652999999999992,7.4265625,-0.278436279296875,6.788342285156251
4.66299999999999,6.256591796875001,-1.0907165527343752,6.444110107421875
4.673000000000002,4.182525634765625,-1.2214111328125,5.352496337890625
4.682999999999993,7.183865356445313,-0.136676025390625,6.018231201171876
4.692999999999984,13.06766357421875,0.1891632080078125,7.658642578125001
4.703000000000003,11.508151245117189,-0.6832305908203126,4.695285034179688
4.712999999999994,7.481591796875,-0.359185791015625,6.998440551757813
4.722999999999985,3.6337280273437504,-0.1440032958984375,11.490206909179689
4.732999999999976,5.4179931640625005,2.4118682861328127,11.980087280273438
4.742999999999995,6.4438110351562505,3.4957061767578126,2.553927612304688
4.752999999999986,9.24671630859375,0.7200164794921875,0.1308441162109375
4.762999999999977,10.461248779296875,0.7834197998046876,6.842773437500001
4.774000000000001,7.974014282226563,1.2432434082031252,9.171649169921876
4.783999999999992,5.851647949218751,0.7177734375,4.757641601562501
4.79399999999999,6.744229125976563,-1.0675384521484377,7.100125122070313
4.804000000000002,8.920877075195314,-1.700076293945313,9.578836059570314
4.813999999999993,9.141293334960938,-0.06519775390625,4.2599853515625
4.823999999999984,8.489465332031251,-0.5019927978515626,0.2265472412109375
4.834000000000003,7.287344360351563,-1.0008453369140626,3.6202697753906254
4.843999999999994,6.620413208007813,-1.4833984375,10.15335388183594
4.853999999999985,5.35997314453125,-1.03359375,5.903536987304688
4.863999999999976,6.561645507812501,0.6781463623046875,5.371038818359375
4.873999999999995,9.196173095703124,0.48270263671875,8.55885009765625
4.883999999999986,9.264361572265626,0.0898712158203125,7.904479980468751
4.893999999999977,7.568173217773438,1.34403076171875,6.052774047851563
4.903999999999996,5.528500366210938,1.6833282470703126,6.743630981445313
4.913999999999987,6.390426635742188,0.9114227294921876,8.536120605468751
4.924999999999983,7.249362182617188,0.6545196533203126,5.186361694335938
4.935000000000002,8.191290283203125,0.957928466796875,2.438934326171875
4.944999999999993,8.922372436523439,0.2109954833984375,4.55487060546875
4.954999999999984,8.349050903320313,-0.4813568115234375,7.338336181640625
4.965000000000003,7.413552856445313,-0.5196380615234375,7.729672241210938
4.974999999999994,6.838287353515626,-0.95703125,6.92471923828125
4.984999999999985,7.634567260742188,-1.1366241455078123,7.185809326171875
4.994999999999976,6.419137573242188,-1.4264251708984377,5.431002807617188
5.004999999999996,4.056765747070313,-1.1983825683593752,2.9663482666015626
5.014999999999986,6.219207763671876,0.3455780029296875,4.601824951171875
5.024999999999977,12.054705810546876,0.5854339599609375,8.056259155273438
5.034999999999997,11.773876953125,0.8309722900390626,5.641549682617188
5.044999999999988,8.356976318359376,2.026962280273437,7.419982910156251
5.054999999999978,4.9346923828125,1.492669677734375,12.26480407714844
5.0660000000000025,5.9706787109375,1.9125671386718752,12.421218872070314
5.075999999999993,6.350350952148438,0.6974365234375001,2.523123168945313
5.085999999999984,7.783505249023438,-1.47083740234375,0.1134979248046875
5.096000000000004,9.26809997558594,0.0222808837890625,7.556808471679688
5.1059999999999945,8.030389404296876,0.8267852783203126,6.7745849609375
5.1159999999999854,6.829763793945313,0.536834716796875,3.6907012939453128
5.125999999999976,7.675241088867188,-1.225,7.443609619140625
5.135999999999996,8.982635498046875,-1.941278076171875,10.164120483398438
5.145999999999987,9.014636230468753,0.1009368896484375,5.286102294921875
5.1559999999999775,8.284002685546875,0.0142059326171875,1.2166259765625
5.165999999999997,7.310971069335938,-0.7472320556640626,5.147930908203126
5.175999999999988,6.743032836914063,-0.5221801757812501,8.365350341796876
5.185999999999979,5.088265991210938,-0.011065673828125,4.631732177734375
5.197000000000003,6.427212524414063,1.3776763916015626,5.425320434570313
5.206999999999994,8.261871337890625,1.447808837890625,8.470474243164062
5.2169999999999845,9.159387207031251,-0.064599609375,7.784402465820313
5.227000000000004,7.712176513671875,0.670819091796875,6.478353881835938
5.236999999999995,6.557159423828126,1.2822723388671875,7.971920776367188
5.246999999999986,6.846212768554688,0.39178466796875,8.204598999023439
5.2579999999999885,7.42716064453125,-0.1305450439453125,4.8980560302734375
5.266999999999996,7.766906738281251,0.2597442626953125,2.9216369628906254
5.276999999999987,8.126391601562501,-0.1042266845703125,4.4684387207031255
5.286999999999978,7.916592407226563,-1.080548095703125,6.392819213867188
5.296999999999997,7.287045288085938,-0.3841583251953125,7.296765136718751
5.306999999999988,7.350747680664063,-0.3505126953125,7.140948486328125
5.316999999999979,6.540411376953125,-0.562255859375,6.158197021484376
5.326999999999998,5.192343139648438,0.2543609619140625,5.186810302734376
5.336999999999989,5.5664825439453125,0.4684967041015625,4.233367919921875
5.346999999999987,12.647915649414063,0.5203857421875,7.309176635742188
5.357999999999976,11.46942138671875,-0.0312530517578125,5.914303588867188
5.367999999999995,7.751354980468751,-0.1532745361328125,6.630880737304688
5.377999999999986,4.274789428710938,-0.3620269775390625,10.98731689453125
5.387999999999977,5.1612396240234375,0.1591064453125,11.82217712402344
5.397999999999996,7.3230834960937505,2.263079833984375,4.362866210937501
5.407999999999987,8.4697265625,0.7218109130859376,0.146246337890625
5.417999999999978,9.987368774414064,-0.5962005615234376,5.453582763671875
5.427999999999997,8.538363647460939,0.6796417236328125,10.579083251953126
5.437999999999988,5.807833862304688,0.939984130859375,5.175146484375
5.447999999999979,6.988122558593751,-0.7704101562500001,5.271896362304688
5.457999999999998,8.981439208984376,-1.13826904296875,9.23819274902344
5.467999999999989,9.212173461914062,0.09031982421875,5.925668334960938
5.478999999999985,8.488568115234376,0.9350494384765624,0.614593505859375
5.488,7.385140991210938,-0.4562347412109375,1.6680755615234375
5.497999999999983,6.1895996093750005,-0.64539794921875,10.305731201171875
5.508999999999986,5.39227294921875,0.1018341064453125,7.656100463867188
5.518999999999977,6.516186523437501,0.3144744873046875,4.566534423828125
5.528999999999996,9.123199462890623,0.2884552001953125,7.238446044921876
5.538999999999987,9.801495361328126,-0.241351318359375,8.757882690429689
5.548999999999978,7.574453735351563,0.253314208984375,5.951089477539063
5.5589999999999975,5.582333374023438,0.9613677978515626,6.74527587890625
5.568999999999988,5.50950927734375,0.3587371826171875,8.554064941406251
5.578999999999979,7.425366210937501,-0.073870849609375,6.2876953125
5.588999999999999,8.560943603515625,-0.0297576904296875,2.4232330322265625
5.5989999999999895,9.034674072265624,0.6495849609375001,3.774740600585938
5.608999999999988,8.6934326171875,0.262286376953125,7.120761108398438
5.619,7.279418945312501,-0.54132080078125,7.545593261718751
5.629999999999996,6.545794677734375,0.066094970703125,7.438674926757813
5.639999999999986,7.165472412109375,-0.0312530517578125,7.331158447265626
5.649999999999977,7.638156127929688,-0.7405029296875001,6.036624145507813
5.659999999999997,5.9552764892578125,-0.4415802001953125,4.380062866210938
5.669999999999988,3.5809417724609376,0.0165985107421875,3.248822021484376
5.679999999999978,7.454226684570313,0.3321197509765625,5.431600952148438
5.689999999999998,13.453018188476564,0.26497802734375,8.06597900390625
5.699999999999989,11.012289428710938,1.4019012451171875,5.540911865234375
5.70999999999998,7.731167602539063,1.6393646240234376,8.434136962890626
5.719999999999999,5.206698608398438,0.056524658203125,12.810162353515626
5.72999999999999,5.85045166015625,0.7239044189453125,10.98477478027344
5.739999999999988,6.335546875,0.1816864013671875,1.684075927734375
5.75,7.969677734375001,-1.952194213867188,0.1915557861328125
5.759999999999991,9.552816772460938,-0.707305908203125,8.150317382812501
5.770999999999987,7.4062255859375,1.43255615234375,6.797763061523438
5.7809999999999775,6.4124084472656255,0.2657257080078125,3.5031829833984376
5.790999999999997,8.562887573242188,-1.0787536621093752,8.280114746093751
5.800999999999988,9.142938232421876,-0.8469726562500001,10.043893432617187
5.810999999999979,9.413897705078126,0.538330078125,4.517636108398438
5.820999999999998,7.413702392578125,0.7911956787109375,0.3372039794921875
5.830999999999989,7.200912475585938,-0.160601806640625,6.243881225585938
5.84099999999998,6.0388671875,-0.315521240234375,8.330508422851564
5.850999999999999,5.3103271484375005,0.560162353515625,4.71038818359375
5.860999999999983,6.442016601562501,1.427920532226563,5.792431640625001
5.870999999999988,8.878857421875,0.4071868896484375,9.166864013671876
5.881,9.136807250976563,-0.32957763671875,8.275778198242188
5.890999999999991,7.511947631835938,0.4115234375,6.112139892578125
5.900999999999989,6.614431762695313,0.4194488525390625,7.67598876953125
5.911000000000001,6.852792358398438,-0.12860107421875,7.558004760742188
5.921999999999997,7.601071166992188,-0.1706207275390625,4.3372955322265625
5.931999999999988,7.506564331054688,-0.0985443115234375,2.567535400390625
5.941999999999979,8.280114746093751,0.11484375,5.190997314453125
5.951999999999998,8.117718505859376,-0.258099365234375,6.678732299804688
5.961999999999989,7.555462646484376,-0.2983245849609375,6.906625366210938
5.971999999999987,6.773388671875001,0.4556365966796875,7.179080200195313
5.981999999999999,5.180978393554688,0.26617431640625,6.156851196289063
5.991999999999983,4.785305786132813,0.2579498291015625,4.805493164062501
6.001999999999988,9.994097900390626,0.3739898681640625,6.30205078125
6.0120000000000005,13.014578247070313,0.4535430908203125,6.590206909179688
6.021999999999991,9.349896240234376,0.3339141845703125,4.669863891601563
6.031999999999989,5.469583129882813,-1.1729614257812502,9.04080505371094
6.042000000000002,3.6488311767578128,-0.9395355224609376,12.698159790039064
6.052999999999997,6.401791381835938,1.1351287841796875,8.438922119140626
6.062999999999988,7.918386840820313,1.31531982421875,0.490179443359375
6.072999999999979,10.517324829101565,-0.6282012939453125,1.7585449218750002
6.082999999999998,10.112380981445312,-0.205462646484375,10.558895874023438
6.092999999999989,6.614730834960938,0.9401336669921876,6.929354858398438
6.102999999999987,5.53642578125,0.3698028564453125,4.746725463867188
6.113,7.394412231445313,-1.05213623046875,8.4589599609375
6.122999999999983,8.756985473632813,-0.0560760498046875,8.113531494140625
6.1329999999999885,9.591546630859376,0.9112731933593752,2.1468902587890626
6.143000000000001,8.186654663085939,0.449505615234375,-0.0097198486328125
6.152999999999992,7.511798095703125,0.1780975341796875,5.819497680664063
6.16299999999999,5.415750122070313,-0.19200439453125,10.44300537109375
6.173000000000002,5.306588745117188,0.313726806640625,5.78465576171875
6.182999999999993,7.446600341796875,0.5030395507812501,6.186309814453126
6.192999999999984,9.972564697265623,-0.6219207763671876,7.986874389648438
6.203000000000003,9.284698486328123,-0.5323486328125,6.966140747070313
6.213999999999999,6.2882934570312505,0.7482788085937501,5.583529663085938
6.2239999999999895,5.275784301757813,0.6945953369140625,8.007510375976564
6.233999999999988,6.181524658203125,-0.516796875,8.230917358398438
6.244,7.658792114257813,-0.259295654296875,4.743734741210938
6.253999999999984,8.624945068359375,0.9538909912109376,2.663687133789063
6.263999999999989,9.654052734375,0.2160797119140625,5.039218139648438
6.275999999999989,8.388079833984376,-0.3600830078125,7.490713500976563
6.283999999999992,6.860717773437501,0.657659912109375,7.7911315917968755
6.29399999999999,6.196627807617188,0.4290191650390625,6.516186523437501
6.304000000000002,6.963748168945313,-0.5431152343750001,6.612039184570313
6.313999999999993,5.720953369140625,-0.424383544921875,5.058956909179688
6.323999999999984,4.542758178710938,-0.2093505859375,2.636770629882813
6.33499999999998,9.180471801757813,0.4653564453125,5.560650634765626
6.344999999999999,12.657336425781253,0.10347900390625,8.1598876953125
6.35499999999999,9.944900512695312,0.9652557373046876,6.710882568359375
6.364999999999988,6.5365234375000005,0.8048034667968751,8.845062255859375
6.375999999999976,5.132080078125,-0.08673095703125,12.387274169921875
6.384999999999991,6.695928955078125,0.9069366455078126,8.932540893554688
6.394999999999989,6.8080810546875,-0.7301849365234375,0.7958312988281251
6.405000000000001,8.34710693359375,-1.412518310546875,1.7944335937500002
6.414999999999992,9.098526000976562,0.5508911132812501,8.835342407226562
6.424999999999983,7.272839355468751,1.5013427734375,5.457919311523438
6.435000000000002,6.887933349609376,0.6826324462890625,4.217068481445313
6.444999999999993,8.543597412109376,-0.7639801025390626,9.148171997070314
6.454999999999984,9.133517456054689,-0.3635223388671875,9.033029174804687
6.465000000000003,8.906072998046875,0.54371337890625,3.025564575195313
6.475999999999999,7.523760986328125,0.1556671142578125,1.5861297607421876
6.484999999999985,7.065283203125,-0.917852783203125,7.314859008789063
6.495999999999988,5.710635375976563,-0.3979156494140625,7.245922851562501
6.506,5.512051391601563,0.4332061767578125,4.091458129882813
6.515999999999991,7.159790039062501,0.5609100341796875,6.549084472656251
6.525999999999989,9.024954223632813,-0.1093109130859375,9.45352478027344
6.536000000000001,8.596832275390625,-0.183929443359375,7.53243408203125
6.545999999999992,7.398150634765625,0.44920654296875,6.264068603515626
6.555999999999983,6.737948608398438,0.6560150146484376,8.12698974609375
6.5660000000000025,7.300503540039063,0.6096588134765626,7.203604125976563
6.575999999999993,7.281362915039063,0.1327880859375,3.1620910644531253
6.585999999999984,7.572061157226563,0.5345916748046875,3.309683227539063
6.596000000000004,7.897900390625001,0.1399658203125,5.986978149414063
6.6059999999999945,8.019772338867188,-0.468646240234375,6.780267333984376
6.6159999999999854,7.529144287109376,0.0035888671875,6.741088867187501
6.626999999999988,6.548934936523438,0.302960205078125,6.713125610351563
6.6370000000000005,4.6595458984375,-0.197686767578125,5.090658569335938
6.646999999999991,5.634072875976563,-0.5072265625000001,4.335501098632813
6.656999999999989,12.236990356445313,0.08074951171875,7.234857177734375
6.667000000000002,12.092388916015626,-0.207855224609375,6.596636962890625
6.6769999999999925,9.07205810546875,-0.7692138671875001,6.231170654296876
6.686999999999983,3.987979125976562,-1.4297149658203123,10.430294799804688
6.697000000000003,4.088168334960938,0.2453887939453125,13.196862792968751
6.706999999999994,6.344369506835938,2.669818115234375,5.601473999023438
6.7169999999999845,8.529092407226564,1.2438415527343751,-0.3712982177734375
6.727000000000004,10.3490966796875,0.2995208740234375,1.8523040771484376
6.736999999999995,9.455169677734377,0.5136566162109375,11.892459106445314
6.746999999999986,5.6596435546875,1.7335723876953126,6.223843383789063
6.756999999999977,6.932495117187501,-0.1601531982421875,5.4467041015625
6.766999999999996,7.912704467773438,-1.088623046875,9.309521484375
6.777999999999992,9.505862426757814,0.0423187255859375,7.130780029296876
6.78799999999999,8.743527221679688,0.22789306640625,0.701324462890625
6.798000000000002,7.403384399414063,-0.2660247802734375,0.902001953125
6.807999999999993,6.410015869140626,-0.8462249755859376,9.342120361328126
6.817999999999984,5.637213134765625,-1.174755859375,8.236599731445313
6.829999999999984,6.027951049804688,0.1123016357421875,4.8102783203125
6.837999999999994,8.670553588867188,0.4358978271484375,6.709088134765626
6.847999999999985,10.134213256835938,-0.5508911132812501,8.376565551757814
6.857999999999976,8.561990356445314,-0.043963623046875,6.814361572265626
6.867999999999995,5.313018798828125,1.534539794921875,6.222198486328126
6.877999999999986,5.5854736328125005,0.97796630859375,8.343966674804689
6.887999999999977,6.88883056640625,-0.1451995849609375,7.03238525390625
6.899000000000001,8.071063232421876,0.6524261474609375,3.360824584960938
6.907999999999987,8.816201782226564,1.409976196289063,2.854046630859376
6.917999999999978,9.0212158203125,-0.3437835693359375,5.882601928710938
6.929000000000002,7.663577270507813,-0.133087158203125,8.548382568359376
6.938999999999993,6.406277465820313,0.040972900390625,7.576248168945313
6.948999999999984,7.1693603515625,-0.6117523193359375,6.623104858398438
6.959000000000003,7.061096191406251,-1.18970947265625,6.085971069335938
6.968999999999994,4.929458618164063,-0.9645080566406252,3.723599243164063
6.978999999999985,5.345916748046875,-0.23267822265625,2.499496459960937
6.988999999999976,11.1625732421875,0.390289306640625,7.200164794921876
6.998999999999995,11.7559326171875,0.0755157470703125,7.622305297851563
7.008999999999986,9.272885131835938,1.181634521484375,7.236801147460938
7.018999999999977,5.329617309570313,0.8800201416015626,10.445098876953123
7.028999999999996,5.618521118164063,1.1807373046875,13.629620361328126
7.038999999999987,6.196179199218751,1.49476318359375,5.4825927734375
7.048999999999978,7.742233276367188,-1.1630920410156251,-0.3122314453125
7.0589999999999975,8.618066406250001,-0.404345703125,2.442523193359375
7.069999999999993,8.870782470703126,0.9256286621093752,9.700857543945313
7.079999999999984,6.363958740234375,1.49117431640625,4.537374877929688
7.090000000000003,7.479049682617188,-0.2202667236328125,5.481246948242188
7.099999999999994,8.983084106445313,-1.719964599609375,10.03970642089844
7.109999999999985,9.683810424804689,-0.325390625,7.956369018554688
7.119999999999976,8.250207519531251,0.5417694091796875,1.52347412109375
7.129999999999996,7.445553588867188,-0.4287200927734375,2.4505981445312504
7.139999999999986,6.344070434570313,-1.17655029296875,8.68505859375
7.149999999999977,5.26068115234375,-0.5311523437500001,6.517532348632813
7.159999999999997,5.8695922851562505,1.0041351318359375,3.849359130859375
7.169999999999988,8.311816406250001,0.51859130859375,6.686508178710938
7.179999999999978,9.851589965820311,0.10587158203125,9.207687377929688
7.189999999999998,8.231814575195314,0.3692047119140625,6.744229125976563
7.200999999999993,6.47850341796875,0.9132171630859376,6.660787963867188
7.210999999999984,6.344967651367188,0.9513488769531252,9.032580566406253
7.221000000000004,7.1361633300781255,0.2193695068359375,6.911111450195313
7.230999999999994,7.445703125,0.2068084716796875,2.5895172119140626
7.2409999999999854,8.137158203125,0.5842376708984376,3.1552124023437504
7.250999999999976,8.409014892578126,-0.2770904541015625,6.312069702148438
7.260999999999996,7.608398437500001,-0.5908172607421875,7.107601928710938
7.270999999999987,6.855783081054688,-0.0186920166015625,6.605459594726563
7.2809999999999775,5.870040893554688,-0.2794830322265625,6.321041870117188
7.290999999999997,5.076303100585938,-0.40673828125,5.228680419921876
7.300999999999988,7.343869018554688,-0.2878570556640625,4.439727783203125
7.310999999999979,13.29361267089844,0.3683074951171875,7.233810424804688
7.320999999999998,11.166909790039064,-0.1081146240234375,6.235955810546876
7.330999999999989,7.1600891113281255,-1.0457061767578126,7.744924926757813
7.341999999999984,2.9310577392578128,-0.6506317138671875,11.6087890625
7.352000000000004,4.899700927734376,0.6922027587890626,11.54224548339844
7.361999999999995,7.101171875,2.938983154296875,2.752511596679688
7.371999999999986,9.906619262695314,0.630743408203125,-0.0118133544921875
7.381999999999977,10.224383544921876,0.131292724609375,4.692892456054688
7.391999999999996,8.415594482421875,1.4032470703125002,11.00870056152344
7.401999999999987,5.422329711914063,0.734222412109375,5.260083007812501
7.411999999999978,6.925765991210938,-0.9461151123046876,6.736004638671876
7.421999999999997,8.757284545898438,-1.1925506591796875,9.448141479492188
7.431999999999988,9.345111083984376,0.1544708251953125,4.501187133789063
7.441999999999979,8.832949829101564,0.0910675048828125,0.2717071533203125
7.451999999999998,7.074105834960938,-0.3983642578125,2.490225219726563
7.461999999999989,5.881854248046875,-0.7427459716796876,10.546484375
7.471999999999987,5.334552001953125,-0.6471923828125,7.006216430664063
7.482999999999976,6.679629516601563,0.4306640625,4.992861938476563
7.492999999999995,9.425112915039064,0.3823638916015625,7.517779541015625
7.502999999999986,10.299151611328126,-0.3976165771484375,7.7896362304687505
7.512999999999977,7.630081176757813,0.5625549316406251,5.527304077148438
7.522999999999996,5.311672973632813,1.8243408203125,7.068124389648438
7.532999999999987,5.334103393554688,0.38460693359375,8.690591430664064
7.542999999999978,6.923971557617188,-0.144451904296875,6.301602172851563
7.552999999999997,8.297760009765625,0.7330261230468751,2.870346069335937
7.562999999999988,9.287838745117188,0.542218017578125,3.548043823242188
7.572999999999979,9.231463623046876,-0.4478607177734375,7.023861694335938
7.582999999999998,7.318746948242188,0.040374755859375,8.096185302734376
7.592999999999989,6.327471923828125,-0.0275146484375,7.101171875
7.602999999999987,7.020571899414063,-0.8915344238281251,6.972421264648438
7.612999999999999,7.65206298828125,-0.730633544921875,6.547589111328126
7.622999999999983,5.939724731445313,-0.4541412353515625,4.1873107910156255
7.632999999999988,4.036428833007813,-0.37384033203125,2.5584136962890627
7.643999999999977,7.592547607421875,0.2444915771484375,5.77269287109375
7.653999999999996,12.101062011718753,0.536236572265625,8.373126220703126
7.663999999999987,10.976849365234376,1.337750244140625,5.585623168945313
7.673999999999978,8.099923706054689,1.5901672363281252,8.062689208984375
7.683999999999997,5.844320678710938,0.584088134765625,12.718646240234376
7.693999999999988,6.091055297851563,0.83082275390625,10.787835693359376
7.703999999999979,6.372332763671875,0.3446807861328125,2.0054290771484378
7.713999999999999,7.5796875,-1.5025390625,1.2900482177734376
7.723999999999989,9.013140869140626,-0.204266357421875,7.517031860351563
7.7339999999999876,7.852740478515625,1.10836181640625,5.710186767578126
7.744,6.878512573242188,0.0623565673828125,3.504229736328125
7.753999999999984,8.124597167968751,-0.98514404296875,8.612234497070313
7.763999999999989,8.989813232421875,-1.042266845703125,10.283749389648438
7.775999999999989,9.17314453125,0.107366943359375,4.695584106445313
7.784999999999997,8.012594604492188,0.7375122070312501,1.37991943359375
7.7949999999999875,7.558303833007813,-0.3425872802734375,6.142944335937501
7.804999999999978,6.0943450927734375,-0.1926025390625,7.416992187500001
7.814999999999998,4.9322998046875,0.3935791015625,4.3736328125
7.824999999999989,6.304293823242188,0.9075347900390626,5.663531494140625
7.8349999999999795,8.840576171875,0.5851348876953125,8.816650390625
7.844999999999999,9.08521728515625,-0.3596343994140625,7.580136108398438
7.85499999999999,7.908966064453126,0.6219207763671876,6.259732055664063
7.864999999999988,7.219604492187501,0.902001953125,8.314059448242189
7.876999999999988,6.5604492187500005,-0.1395172119140625,7.820291137695313
7.884999999999991,7.107003784179688,0.0287109375,4.9160003662109375
7.894999999999989,7.3126159667968755,0.15791015625,2.9741241455078127
7.905000000000001,8.311517333984376,-0.244940185546875,4.7528564453125
7.914999999999992,8.152560424804689,-0.423785400390625,6.262722778320313
7.925999999999988,7.58865966796875,0.0530853271484375,6.592599487304688
7.935999999999979,7.226034545898438,0.1936492919921875,6.952084350585938
7.945999999999998,5.637661743164063,-0.239556884765625,6.53831787109375
7.955999999999989,4.690350341796876,0.34931640625,5.175595092773438
7.96599999999998,8.819790649414063,0.35469970703125,5.795870971679688
7.975999999999999,12.39759216308594,0.0291595458984375,6.811520385742188
7.985999999999983,9.58466796875,0.2220611572265625,5.121014404296876
7.995999999999988,6.330163574218751,-0.8160186767578126,8.145382690429688
8.006,4.3114257812500005,-1.1146423339843752,11.546731567382814
8.015999999999991,6.694882202148438,1.2701599121093752,9.709381103515623
8.02599999999999,7.430001831054688,1.6399627685546876,1.4829498291015626
8.036000000000001,9.745568847656251,-0.2824737548828125,2.507122802734376
8.045999999999992,9.684109497070311,0.3997100830078125,9.105105590820314
8.056999999999988,6.8909240722656255,0.9769195556640624,6.891970825195313
8.066999999999979,6.0849243164062505,0.372943115234375,4.4015960693359375
8.076999999999998,7.357177734375001,-0.8538513183593751,7.935882568359376
8.086999999999989,8.419183349609376,-0.349615478515625,8.608346557617189
8.096999999999987,9.302044677734376,0.6220703125,3.0891174316406254
8.107,8.290731811523438,0.308343505859375,0.2848663330078125
8.116999999999983,8.205496215820313,-0.5244232177734376,7.224539184570313
8.126999999999988,5.346514892578125,-0.1870697021484375,8.863604736328126
8.137,5.499041748046875,0.3624755859375,5.833404541015625
8.146999999999991,7.112835693359376,0.157012939453125,5.667120361328125
8.15699999999999,9.378756713867189,-0.464459228515625,8.118017578125
8.167000000000002,8.842370605468751,0.070880126953125,6.988720703125001
8.177999999999997,7.09818115234375,0.6044250488281251,5.342327880859376
8.187999999999988,5.978753662109376,0.4287200927734375,8.116970825195313
8.197999999999979,6.220703125000001,0.162396240234375,8.5666259765625
8.207999999999998,7.554116821289063,0.191107177734375,4.672406005859376
8.21799999999999,8.456268310546875,0.4816558837890625,2.7007720947265628
8.227999999999987,9.03616943359375,0.377130126953125,5.518032836914063
8.238,8.087063598632813,-0.07476806640625,7.140350341796876
8.247999999999983,7.119564819335938,-0.0677398681640625,6.858474731445313
8.257999999999988,6.619366455078126,0.2074066162109375,7.19029541015625
8.268,7.652212524414063,-0.0844879150390625,7.4561706542968755
8.277999999999992,7.019973754882813,-0.649884033203125,5.338140869140625
8.28799999999999,4.689154052734375,-0.4493560791015625,3.727188110351563
8.298000000000002,3.730029296875,-0.0064300537109375,3.7515625
8.307999999999993,10.802639770507811,0.1867706298828125,7.1167236328125005
8.317999999999984,13.946487426757814,0.4945159912109375,6.999636840820313
8.328000000000003,10.755685424804687,1.7963775634765626,5.618521118164063
8.337999999999994,5.975015258789063,0.5073760986328125,9.5834716796875
8.34899999999999,4.3891845703125005,-0.2403045654296875,14.302682495117187
8.358999999999988,5.273690795898438,1.0184906005859375,8.0833251953125
8.369,6.3391357421875005,-0.9586761474609377,-0.2385101318359375
8.378999999999984,9.258529663085938,-1.5771575927734376,0.9619659423828124
8.388999999999989,9.477301025390624,0.1673309326171875,9.590200805664065
8.399000000000001,6.954327392578126,1.8856506347656248,6.787594604492188
8.408999999999992,6.576150512695313,0.7212127685546875,4.461111450195313
8.41899999999999,8.811416625976562,-1.493716430664063,9.744671630859376
8.429000000000002,9.388027954101563,-0.354400634765625,9.204397583007813
8.438999999999993,8.67130126953125,1.07666015625,2.294332885742188
8.448999999999984,7.6454833984375,0.0946563720703125,0.3828125
8.459000000000003,6.829315185546876,-0.2459869384765625,7.564285278320313
8.468999999999994,5.702410888671875,-0.5790039062500001,7.635464477539063
8.478999999999985,5.295523071289063,0.587677001953125,3.961959838867188
8.489999999999988,7.509854125976563,0.921142578125,6.755743408203125
8.5,9.426907348632811,-0.284716796875,9.5643310546875
8.509999999999991,8.952578735351564,-0.371148681640625,7.460507202148438
8.519999999999989,7.234109497070313,0.23985595703125,6.317303466796876
8.530000000000001,6.1142333984375,0.8451782226562501,8.194430541992189
8.539999999999992,6.744079589843751,0.349017333984375,7.340130615234376
8.549999999999983,7.256390380859376,-0.078656005859375,3.2761871337890627
8.560000000000002,7.937527465820313,0.4744781494140625,2.989675903320313
8.569999999999993,8.257983398437501,0.075067138671875,5.510556030273438
8.579999999999984,8.232263183593751,-0.2169769287109375,6.955972290039063
8.590000000000003,7.69871826171875,0.0165985107421875,7.381851196289063
8.599999999999994,7.435684204101563,0.244940185546875,7.511947631835938
8.609999999999985,7.066629028320313,-0.09151611328125,6.735855102539063
8.619999999999976,4.367352294921876,-0.46475830078125,4.8031005859375
8.631,3.39925537109375,0.3792236328125,3.948052978515625
8.640999999999991,10.806228637695312,0.2708099365234375,6.107952880859376
8.65099999999999,13.96009521484375,-1.0486968994140626,5.740243530273438
8.661000000000001,10.741030883789064,-0.1837799072265625,5.75235595703125
8.670999999999992,5.765216064453125,-0.5743682861328125,10.575942993164062
8.680999999999983,4.655807495117188,0.0533843994140625,14.0552001953125
8.691000000000003,5.88634033203125,2.392877197265625,7.829113769531251
8.700999999999993,6.05142822265625,1.6955902099609377,0.271258544921875
8.711999999999989,8.593692016601564,0.6850250244140625,1.474725341796875
8.721000000000004,9.92620849609375,-0.020635986328125,8.956317138671876
8.730999999999995,7.122854614257813,0.8215515136718751,5.0303955078125
8.740999999999985,6.722994995117188,0.2361175537109375,4.9803009033203125
8.750999999999976,8.127438354492188,-1.3696014404296877,9.776971435546876
8.760999999999996,9.521414184570313,-0.6425567626953126,9.229071044921875
8.770999999999987,9.051870727539065,0.3117828369140625,2.778680419921875
8.78199999999999,7.6718017578125,-0.4462158203125,0.2908477783203125
8.792999999999978,7.254446411132813,-0.615789794921875,7.506863403320313
8.801999999999992,5.610147094726563,-1.04256591796875,7.822982788085938
8.811999999999983,4.836447143554688,0.249127197265625,4.300210571289063
8.822000000000003,7.390823364257813,1.1273529052734377,6.462802124023438
8.831999999999994,9.611434936523438,-0.337652587890625,8.83160400390625
8.841999999999985,8.988766479492188,0.145947265625,7.745822143554688
8.852000000000004,6.839483642578125,1.5379791259765627,6.839334106445313
8.861999999999995,6.346014404296875,0.70521240234375,8.034875488281251
8.871999999999986,7.051974487304688,-0.00478515625,7.453927612304688
8.881999999999977,7.279119873046875,0.4942169189453125,3.6947387695312495
8.893999999999977,7.769149780273438,0.9242828369140624,2.5341888427734376
8.901999999999987,8.464791870117189,-0.1724151611328125,5.286999511718751
8.91299999999999,7.919433593750001,-0.530853271484375,7.093994140625001
8.923000000000002,7.3727294921875,-0.2332763671875,7.366748046875
8.932999999999993,7.587014770507813,-0.6065185546875,7.26207275390625
8.942999999999984,7.959808349609376,-0.7197174072265625,7.311419677734375
8.953000000000003,5.393618774414063,-1.141259765625,5.201315307617188
8.962999999999994,2.5452545166015628,-0.7381103515625,2.9527404785156253
8.972999999999985,8.354882812500001,0.878973388671875,6.313265991210938
8.982999999999976,13.64786376953125,0.211444091796875,6.689349365234375
8.992999999999995,12.338824462890626,1.4551361083984375,5.049386596679688
9.002999999999986,6.877316284179688,1.385601806640625,8.593841552734375
9.012999999999977,4.503579711914063,0.6759033203125,14.57603454589844
9.022999999999996,5.326028442382813,1.6748046875000002,9.92740478515625
9.032999999999989,6.097186279296875,-0.3410919189453125,0.53533935546875
9.042999999999978,8.305834960937501,-1.0430145263671875,0.4364959716796875
9.052999999999995,9.400439453125,0.33555908203125,8.601318359375
9.062999999999988,7.4660400390625,1.343731689453125,6.197674560546876
9.073999999999984,6.783108520507813,0.55029296875,4.51898193359375
9.084000000000003,8.42008056640625,-1.30933837890625,9.308624267578123
9.093999999999994,9.378607177734375,-1.2179718017578125,9.6097900390625
9.103999999999983,9.468777465820311,0.3395965576171875,3.667074584960938
9.113999999999976,7.657745361328126,-0.1239654541015625,0.31761474609375
9.123999999999995,6.927261352539063,-0.47432861328125,6.2210021972656255
9.133999999999986,6.123953247070313,-0.723455810546875,7.606005859375
9.143999999999975,5.116229248046875,-0.1783966064453125,4.29766845703125
9.153999999999996,6.716864013671875,1.5729705810546877,6.693087768554688
9.163999999999987,9.070562744140624,0.4831512451171875,9.23056640625
9.173999999999978,9.2030517578125,-0.5360870361328125,7.7268310546875005
9.183999999999996,7.542303466796875,0.724951171875,7.1047607421875005
9.193999999999988,6.060101318359376,1.272552490234375,8.060894775390626
9.20399999999998,6.939224243164063,0.322998046875,7.383047485351563
9.215000000000003,7.267605590820313,0.046954345703125,3.91246337890625
9.224999999999994,7.862609863281251,0.699530029296875,2.8884399414062503
9.234999999999983,8.182766723632813,-0.161798095703125,4.436138916015626
9.244999999999976,8.102166748046876,-0.7333251953125001,6.55626220703125
9.254999999999995,7.549929809570313,-0.098394775390625,7.824777221679688
9.264999999999986,7.574752807617188,-0.4687957763671875,7.476507568359375
9.274999999999975,7.094143676757813,-0.752166748046875,6.582281494140625
9.284999999999997,4.70859375,-0.3648681640625,5.411712646484375
9.294999999999987,3.4287139892578127,-0.0662445068359375,3.8821075439453128
9.304999999999978,11.42396240234375,0.5103668212890625,6.607553100585938
9.314999999999998,13.364193725585938,-0.7624847412109376,5.1739501953125
9.324999999999989,10.170401000976565,-0.4167572021484375,5.537173461914063
9.33499999999998,5.7338134765625,-0.2729034423828125,11.115469360351565
9.345,4.954431152343751,0.5953033447265625,14.31763610839844
9.355999999999996,6.098980712890626,3.462210083007813,6.898251342773438
9.365999999999984,6.476559448242188,2.1616943359375003,-0.0225799560546875
9.375999999999976,9.004617309570314,0.494964599609375,1.6857208251953126
9.385999999999996,9.140396118164062,0.358587646484375,9.625640869140623
9.395999999999988,6.279022216796876,0.6069671630859376,4.84915771484375
9.405999999999976,6.7354064941406255,-0.367559814453125,5.0040771484375
9.415999999999997,8.748611450195312,-1.6305419921875002,9.970620727539064
9.425999999999988,10.265954589843751,-0.72794189453125,8.353237915039063
9.43599999999998,8.462548828125001,0.375634765625,1.6489349365234376
9.445999999999998,8.135214233398438,-0.50543212890625,0.9953125
9.455999999999989,6.609197998046875,-1.5252685546875,8.28968505859375
9.46599999999998,5.618521118164063,-0.9960601806640624,7.725784301757813
9.477000000000004,4.665676879882813,0.4065887451171875,4.156207275390625
9.485999999999985,7.929302978515626,0.1894622802734375,7.0712646484375
9.496999999999986,9.578836059570314,0.6959411621093751,9.545040893554688
9.506999999999977,8.59234619140625,0.8314208984375001,7.064236450195313
9.516999999999996,6.617572021484375,1.2610382080078126,6.351696777343751
9.526999999999989,6.664227294921876,1.006228637695313,8.647525024414064
9.536999999999978,6.850250244140626,0.401953125,6.898550415039063
9.546999999999995,7.5264526367187505,0.326885986328125,2.879168701171875
9.556999999999988,8.039361572265626,0.751568603515625,3.0297515869140628
9.56699999999998,8.686853027343751,0.1724151611328125,5.8845458984375005
9.576999999999998,7.8608154296875,-0.7970275878906251,6.413903808593751
9.586999999999987,7.236502075195313,-0.5416198730468751,7.351196289062501
9.596999999999989,7.54140625,-0.70521240234375,8.075399780273438
9.607,7.554714965820313,-1.4210418701171876,7.165023803710938
9.616999999999983,5.387637329101563,-0.8209533691406251,5.148678588867188
9.627999999999986,2.42547607421875,0.0874786376953125,3.0412658691406254
9.637999999999977,8.16168212890625,0.6871185302734375,5.185314941406251
9.647999999999996,15.13529968261719,0.3916351318359375,7.012496948242188
9.657999999999989,11.985171508789064,1.7918914794921876,4.960263061523438
9.667999999999978,6.463101196289063,1.5014923095703123,8.684011840820313
9.677999999999995,4.042111206054688,0.09390869140625,15.136346435546876
9.687999999999988,5.085723876953125,0.9615173339843752,11.264108276367187
9.69799999999998,6.086569213867188,0.176751708984375,0.4628143310546875
9.707999999999998,9.017327880859376,-1.3821624755859376,-0.01256103515625
9.71799999999999,9.6432861328125,-0.296978759765625,3.2893463134765626
9.727999999999987,8.141943359375,1.179840087890625,12.206784057617188
9.738,5.2105865478515625,0.8837585449218751,2.481103515625
9.747999999999983,8.560195922851562,-1.5331939697265626,8.867941284179688
9.758999999999986,9.975704956054688,-1.5358856201171875,10.658935546875
9.768,9.324923706054689,0.6959411621093751,3.983493041992188
9.777999999999992,8.168261718750001,0.7672698974609375,-0.1200775146484375
9.788999999999987,6.7386962890625,-0.6675292968750001,1.8203033447265624
9.798999999999978,6.465344238281251,-0.698333740234375,11.591293334960938
9.808999999999996,4.069625854492188,0.5953033447265625,4.907327270507813
9.818999999999988,6.537719726562501,1.3707977294921876,5.429806518554688
9.82899999999998,9.518722534179688,0.50662841796875,9.540554809570311
9.839,9.696820068359376,-0.3692047119140625,8.989215087890626
9.84899999999999,7.41759033203125,0.7239044189453125,6.08731689453125
9.858999999999988,5.998941040039063,0.9580780029296876,7.276129150390625
9.869,6.374874877929688,0.1766021728515625,8.521316528320312
9.878999999999984,7.130630493164063,-0.11663818359375,4.414306640625
9.888999999999989,7.937527465820313,-0.072674560546875,1.6812347412109376
9.899,8.598477172851563,0.256005859375,4.267910766601563
9.909999999999997,8.813958740234376,-0.4358978271484375,7.1095458984375
9.919999999999987,7.431646728515625,-0.5760131835937501,7.224987792968751
9.929999999999978,7.378561401367188,0.190509033203125,7.659091186523438
9.939999999999998,7.437927246093751,-0.49227294921875,7.45347900390625
9.949999999999989,6.097784423828125,0.0653472900390625,6.341976928710938
9.95999999999998,3.0010406494140627,1.2404022216796875,4.026409912109376
9.97,5.48857421875,0.6661834716796875,3.9610626220703127
9.97999999999999,13.37256774902344,-0.3557464599609375,6.384295654296875
9.989999999999988,12.592437744140629,-0.0142059326171875,5.2280822753906255
10.0,8.491110229492188,0.140264892578125,7.830908203125
10.009999999999993,5.5320892333984375,-1.2348693847656251,12.502716064453129
10.019999999999987,6.597085571289063,0.2537628173828125,12.535464477539064
10.03,5.9253692626953125,1.5520355224609377,3.5571655273437504
10.039999999999992,6.974514770507813,1.1752044677734377,0.4882354736328125
10.050999999999988,8.3393310546875,-0.25899658203125,5.903387451171875
10.06099999999998,8.775079345703126,-0.7011749267578126,6.931149291992188
10.070999999999998,5.847012329101563,0.44322509765625,3.4489013671875
10.080999999999989,7.767654418945313,-0.6241638183593751,7.206744384765625
10.09099999999998,9.28140869140625,-0.5046844482421875,10.51239013671875
10.101,10.180120849609375,-0.0346923828125,6.415997314453126
10.110999999999985,8.312863159179688,0.913067626953125,0.7663726806640626
10.120999999999988,7.651913452148438,0.3554473876953125,3.974371337890626
10.131,6.297714233398438,-0.43544921875,8.30224609375
10.140999999999991,4.602124023437501,0.2678192138671875,5.97606201171875
10.15099999999999,5.5092102050781255,0.825140380859375,4.583282470703125
10.161,8.625842285156251,0.0058319091796875,7.847058105468751
10.170999999999992,9.462197875976564,-0.1694244384765625,9.149966430664064
10.180999999999983,7.901339721679688,0.9438720703125,7.437927246093751
10.191000000000004,6.794921875000001,0.38759765625,7.1840148925781255
10.201999999999998,6.9821411132812505,-0.5474517822265625,8.094839477539063
10.211999999999987,7.209735107421875,-0.2606414794921875,5.687307739257813
10.221999999999989,7.278521728515625,0.3401947021484375,2.63961181640625
10.232999999999976,8.161383056640625,0.313427734375,3.819601440429688
10.241999999999983,8.268899536132814,0.0195892333984375,5.921182250976563
10.251999999999988,7.841824340820313,-0.198583984375,6.579141235351563
10.262,7.182669067382813,0.0530853271484375,7.05272216796875
10.271999999999991,6.612637329101563,0.146246337890625,7.376766967773438
10.28199999999999,4.384100341796875,-0.1912567138671875,5.354290771484376
10.29399999999999,6.104214477539063,0.05682373046875,4.903140258789063
10.301999999999992,12.206036376953126,0.6104064941406251,7.013095092773438
10.311999999999983,12.0502197265625,1.2580474853515626,5.3462158203125005
10.322000000000005,7.602566528320313,1.36317138671875,6.474615478515625
10.331999999999994,3.6153350830078126,-0.2256500244140625,11.638546752929688
10.341999999999985,5.2520080566406255,0.10467529296875,12.75767517089844
10.352999999999987,7.389178466796875,0.2995208740234375,2.9635070800781254
10.363,9.529489135742187,-2.0169433593750004,-0.024822998046875
10.372999999999983,10.192083740234375,-1.2477294921875002,5.202960205078125
10.382999999999988,7.8733764648437505,0.25301513671875,10.248010253906251
10.393999999999975,5.476611328125,0.6425567626953126,5.388833618164063
10.402999999999992,5.888882446289063,-0.3955230712890625,6.049484252929688
10.41299999999999,9.2580810546875,-0.9966583251953126,9.664968872070313
10.423000000000002,10.053463745117188,0.7288391113281251,4.374081420898438
10.432999999999993,9.43558044433594,0.8912353515625001,0.2788848876953125
10.442999999999984,7.091152954101563,0.57122802734375,2.397064208984375
10.453000000000005,6.384594726562501,0.186322021484375,10.521661376953126
10.462999999999994,4.928262329101563,0.5411712646484376,7.001431274414063
10.472999999999985,6.033932495117188,1.2688140869140625,4.90538330078125
10.483999999999988,9.015982055664065,0.5609100341796875,7.923171997070313
10.494,9.721643066406251,-0.493768310546875,8.175588989257813
10.503999999999984,7.863955688476563,-0.1769012451171875,6.176739501953126
10.513999999999989,5.286102294921875,0.4774688720703125,6.992758178710938
10.524,6.127243041992188,-0.0979461669921875,8.933737182617188
10.533999999999992,7.069171142578125,-0.8211029052734375,5.724691772460938
10.54399999999999,8.323031616210939,-0.0109161376953125,2.7243988037109377
10.554000000000002,9.092095947265626,0.1818359375,3.7828155517578126
10.563999999999991,8.868838500976564,-0.6907073974609376,6.618917846679688
10.573999999999984,7.454376220703126,0.0889739990234375,7.625146484375
10.584000000000003,6.458016967773438,0.5993408203125,6.906475830078126
10.593999999999994,6.4874755859375,0.4912261962890625,6.532186889648438
10.603999999999983,5.068228149414063,0.7716064453125001,4.9945068359375
10.613999999999976,4.595843505859375,1.03179931640625,3.297271728515625
10.623999999999995,11.008401489257814,0.2859130859375,5.431900024414063
10.633999999999986,13.621694946289065,-0.0662445068359375,7.472918701171875
10.644999999999987,9.379504394531253,0.1544708251953125,7.190444946289063
10.655,4.638311767578125,-1.1967376708984376,10.598971557617189
10.664999999999992,4.189254760742188,-1.5548767089843751,13.2632568359375
10.674999999999985,6.554168701171876,0.9879852294921876,7.459011840820313
10.685000000000002,7.977752685546876,0.630743408203125,0.1526763916015625
10.694999999999991,9.183163452148438,-0.7041656494140626,0.7931396484375001
10.704999999999984,9.79102783203125,-0.3337646484375,9.711474609375
10.715000000000003,6.278872680664063,0.9401336669921876,6.865054321289063
10.724999999999994,6.3989501953125005,0.613995361328125,4.66373291015625
10.734999999999983,8.197869873046876,-0.4388885498046875,9.074600219726562
10.744999999999976,9.9614990234375,0.2380615234375,8.516680908203126
10.754999999999995,9.442459106445312,1.142755126953125,2.0184387207031254
10.765999999999991,7.1959777832031255,0.7793823242187501,0.3360076904296875
10.774999999999975,6.449493408203126,0.0554779052734375,7.665371704101563
10.786,5.2375030517578125,-0.24464111328125,9.261370849609376
10.795999999999992,5.38150634765625,0.7316802978515625,4.421633911132813
10.805999999999983,7.988668823242188,0.0835906982421875,5.661886596679688
10.816000000000004,9.989611816406253,-1.0524353027343751,9.04215087890625
10.825999999999992,8.889025878906251,-0.4559356689453125,8.299404907226563
10.835999999999984,6.082681274414063,0.3910369873046875,6.199169921875001
10.846000000000004,5.9054809570312505,-0.0669921875,7.973266601562501
10.855999999999996,7.081134033203125,-0.2881561279296875,7.677484130859375
10.865999999999984,7.780215454101563,0.0542816162109375,3.153717041015625
10.875999999999976,8.092596435546875,0.9226379394531252,2.039523315429688
10.885999999999996,8.667413330078126,0.4924224853515625,6.002679443359376
10.895999999999988,7.813262939453126,-0.0524871826171875,7.828366088867188
10.905999999999976,7.126443481445313,0.5199371337890626,7.285848999023438
10.917000000000002,7.462899780273438,0.66513671875,7.258782958984375
10.926999999999992,8.053268432617188,0.08553466796875,7.226034545898438
10.936999999999983,7.263867187500001,-0.3554473876953125,5.7529541015625005
10.947000000000005,3.4596679687500003,-0.329278564453125,3.161642456054688
10.956999999999994,2.567535400390625,-0.2989227294921875,2.884103393554688
10.966999999999985,11.080776977539063,-0.1801910400390625,6.941467285156251
10.977000000000004,14.665457153320313,-0.194097900390625,7.365402221679688
10.986999999999997,12.021060180664064,1.5204833984375,5.923574829101563
10.996999999999986,6.193188476562501,0.0650482177734375,9.915591430664064
11.006999999999977,3.8338073730468754,-0.4433746337890625,16.240521240234376
11.016999999999996,4.412661743164063,1.839593505859375,9.6696044921875
11.026999999999989,5.882601928710938,-0.7778869628906251,-0.8028594970703126
11.036999999999978,9.567022705078124,-1.7601898193359375,0.365765380859375
11.046999999999995,10.024752807617189,0.9054412841796876,2.4253265380859377
11.057999999999993,6.744677734375,1.52825927734375,11.943450927734377
11.067999999999984,6.840380859375,1.2924407958984376,2.7785308837890628
11.078000000000005,8.67010498046875,-0.9963592529296876,10.08232421875
11.087999999999994,9.699063110351563,-0.954638671875,12.137698364257814
11.097999999999985,8.883792114257814,1.3118804931640626,2.355194091796875
11.107999999999976,7.845413208007813,-0.076861572265625,0.036785888671875
11.117999999999997,6.692340087890625,-0.6495849609375001,3.5152954101562504
11.127999999999986,5.4493957519531255,-0.787457275390625,10.055706787109376
11.137999999999977,4.418344116210938,0.287408447265625,3.3962646484375
11.147999999999996,7.161883544921875,0.613995361328125,6.338238525390626
11.157999999999989,9.503619384765626,-0.237762451171875,10.540802001953123
11.167999999999978,9.620108032226565,-0.41571044921875,8.55765380859375
11.179000000000002,7.805187988281251,0.0994415283203125,5.6644287109375
11.187999999999988,6.61009521484375,0.92652587890625,8.053567504882814
11.19799999999998,6.570916748046876,0.9111236572265624,7.9625
11.209000000000003,6.706396484375,0.091815185546875,2.9980499267578127
11.218999999999994,7.335494995117188,0.6762023925781251,1.8629211425781247
11.228999999999983,8.22568359375,0.372344970703125,5.453433227539063
11.238999999999976,8.354733276367188,-0.3063995361328125,6.977804565429688
11.248999999999995,8.066427612304688,0.012860107421875,7.109246826171876
11.258999999999986,7.812515258789063,0.110955810546875,7.9945007324218755
11.268999999999975,7.734158325195313,-0.3674102783203125,7.720700073242188
11.278999999999996,5.650820922851563,0.095404052734375,5.821142578125
11.288999999999987,2.500543212890625,1.0472015380859376,3.2600372314453128
11.298999999999978,6.948794555664063,0.2848663330078125,4.001736450195313
11.308999999999996,13.344903564453126,-1.1683258056640626,6.187356567382813
11.318999999999988,11.19248046875,-0.0681884765625,5.519528198242188
11.32899999999998,7.836590576171876,-0.18123779296875,8.770742797851563
11.340000000000003,5.417843627929688,-2.0078216552734376,12.91199645996094
11.349999999999994,7.164276123046876,0.19918212890625,12.759320068359376
11.359999999999983,6.447100830078125,2.154815673828125,2.6524719238281254
11.369999999999976,6.977505493164063,0.753363037109375,0.2308837890625
11.379999999999995,9.044393920898438,0.5447601318359375,7.389926147460938
11.389999999999986,7.380804443359375,0.162396240234375,6.852493286132813
11.399999999999975,6.518728637695313,0.6974365234375001,2.7119873046875003
11.411,7.635015869140625,-0.29010009765625,6.289788818359376
11.419999999999987,9.673641967773438,-0.608013916015625,11.0549072265625
11.429999999999978,9.663772583007812,0.8661132812500001,5.86241455078125
11.439999999999998,8.510101318359375,0.1601531982421875,0.4738800048828125
11.449999999999989,7.433291625976563,-0.264678955078125,4.286154174804688
11.45999999999998,6.431997680664063,-0.49765625,9.843215942382812
11.47,4.5387207031250005,-0.0052337646484375,5.337243652343751
11.47999999999999,5.911611938476563,0.5157501220703126,3.8693969726562494
11.490999999999984,8.536868286132814,-0.6431549072265625,8.287741088867188
11.500999999999976,8.894558715820313,-0.3644195556640625,9.5236572265625
11.510999999999996,7.780514526367188,0.8480194091796875,6.933840942382813
11.520999999999988,6.774435424804688,0.5507415771484375,6.853091430664063
11.530999999999976,7.710232543945313,0.209649658203125,8.547634887695313
11.540999999999997,7.459609985351563,-0.0079254150390625,4.993460083007813
11.550999999999988,7.408468627929688,0.6868194580078125,2.262930297851563
11.56099999999998,7.644287109375001,0.953741455078125,4.455130004882813
11.570999999999998,7.878460693359376,-0.1457977294921875,6.617422485351563
11.580999999999989,7.807431030273438,-0.2561553955078125,6.393267822265625
11.59099999999998,7.623352050781251,0.0968994140625,6.807632446289063
11.601,7.7881408691406255,-0.0737213134765625,7.858273315429688
11.610999999999985,5.867648315429688,-0.9199462890625,5.875274658203125
11.620999999999988,3.6109985351562495,-0.7792327880859375,3.688458251953125
11.631999999999977,7.790084838867188,0.3672607421875,5.357879638671875
11.641999999999996,13.26026611328125,-0.0803009033203125,7.691839599609375
11.651999999999989,10.896697998046877,1.1430541992187502,5.247073364257813
11.661999999999978,6.629534912109375,1.426873779296875,7.9589111328125
11.671999999999995,3.361273193359376,0.1559661865234375,12.649411010742188
11.681999999999988,6.287396240234376,1.6061676025390623,11.59144287109375
11.69199999999998,7.755691528320313,0.377728271484375,1.021182250976563
11.701999999999998,9.39625244140625,-2.2348175048828125,0.3521575927734375
11.711999999999987,9.848599243164063,-0.3593353271484375,6.460708618164063
11.721999999999989,6.970776367187501,1.1689239501953126,10.719049072265626
11.732,5.726486206054688,0.71119384765625,2.990423583984376
11.741999999999983,7.629034423828125,-1.331768798828125,7.233212280273438
11.751999999999988,9.520068359375,-0.964208984375,9.813458251953126
11.762,9.570162963867189,0.6066680908203126,3.4626586914062503
11.771999999999991,8.143588256835939,0.29727783203125,-0.150732421875
11.782999999999989,7.002926635742188,-0.35709228515625,3.2431396484375004
11.792999999999978,5.6816253662109375,-0.4299163818359375,12.33134765625
11.802999999999995,5.38031005859375,0.5187408447265626,5.2732421875
11.812999999999988,7.075302124023438,1.5020904541015625,4.377371215820313
11.82299999999998,9.548031616210938,0.4486083984375,8.613131713867189
11.832999999999998,9.159387207031251,-0.289801025390625,8.813809204101563
11.84299999999999,6.686657714843751,0.7394561767578125,5.824282836914063
11.852999999999987,5.596240234375,0.6391174316406251,7.091751098632813
11.863,6.497943115234375,-0.059515380859375,8.728723144531251
11.872999999999983,7.982388305664063,-0.0251220703125,4.99151611328125
11.882999999999988,8.323330688476563,0.318511962890625,1.3041046142578123
11.893,8.917138671875001,-0.2714080810546875,4.777230834960938
11.902999999999992,7.949041748046875,-0.5299560546875001,8.067324829101564
11.913999999999987,7.099078369140625,-0.2531646728515625,7.438375854492188
11.923000000000002,6.880007934570313,-0.253314208984375,6.560598754882813
11.933999999999996,7.115826416015626,0.1419097900390625,7.021917724609375
11.943999999999988,5.8491058349609375,0.593359375,5.128491210937501
11.95399999999998,3.97945556640625,0.7259979248046875,2.2621826171875004
11.964,9.4076171875,0.7135864257812501,5.75714111328125
11.97399999999999,12.824069213867189,-0.1591064453125,8.0570068359375
11.983999999999988,10.174737548828126,-0.24942626953125,6.356332397460938
11.994,6.504074096679688,-0.8291778564453126,9.379504394531253
12.003999999999984,4.8382415771484375,-1.3748352050781252,12.654345703125
12.013999999999989,6.469232177734376,1.1533721923828126,9.004019165039063
12.024,7.004272460937501,1.8412384033203129,0.7968780517578126
12.033999999999992,8.08392333984375,-0.1638916015625,0.7841674804687501
12.04399999999999,9.723287963867188,0.16688232421875,10.3682373046875
12.054000000000002,6.756042480468751,0.9374420166015626,6.477307128906251
12.064999999999998,7.134967041015625,-0.341241455078125,3.97347412109375
12.074999999999989,8.040557861328125,-0.45279541015625,8.848800659179688
12.08499999999998,9.315802001953124,-0.0480010986328125,9.185256958007812
12.095,8.981887817382812,1.1907562255859376,2.3670074462890627
12.10499999999999,8.045791625976562,0.237762451171875,0.237762451171875
12.114999999999988,6.179580688476563,-0.26796875,6.596038818359376
12.125,5.78465576171875,0.0067291259765625,9.165817260742188
12.134999999999993,5.555715942382813,-0.3303253173828125,4.412661743164063
12.144999999999987,7.640249633789063,0.0560760498046875,6.012997436523438
12.155,9.610986328125,-0.1242645263671875,9.45546875
12.164999999999992,8.748910522460939,-0.6919036865234376,7.561444091796876
12.174999999999985,6.676190185546876,0.72794189453125,6.773239135742188
12.185000000000002,5.588613891601563,0.561956787109375,8.186505126953126
12.194999999999991,7.066180419921875,-0.32239990234375,7.389328002929688
12.205999999999989,7.750009155273438,-0.08433837890625,3.085528564453125
12.21599999999998,8.228973388671875,1.103875732421875,2.7238006591796875
12.226,8.499932861328126,0.7693634033203126,5.534033203125
12.235999999999985,8.015286254882813,-0.252117919921875,7.009356689453125
12.245999999999988,7.13048095703125,0.365765380859375,7.382449340820313
12.256,7.464245605468751,0.2364166259765625,7.749859619140626
12.265999999999991,7.984930419921875,-0.5643493652343751,7.201660156250001
12.27599999999999,7.360916137695313,-0.29608154296875,5.8805084228515625
12.286,4.318453979492188,-0.30684814453125,3.828125
12.295999999999992,2.6524719238281254,-0.7041656494140626,2.450897216796875
12.305999999999983,9.291876220703124,0.4726837158203125,6.076998901367188
12.316000000000004,14.074041748046875,-0.0285614013671875,7.383047485351563
12.325999999999992,12.18719482421875,1.869650268554688,6.217263793945313
12.336999999999987,7.517630004882813,0.9882843017578126,9.824075317382814
12.346999999999989,3.868499755859376,-0.82364501953125,14.986511230468752
12.357,4.910168457031251,2.047598266601563,11.359811401367187
12.366999999999983,6.0475402832031255,-0.5543304443359376,0.1236663818359375
12.376999999999988,8.6312255859375,-2.1751525878906253,-0.0611602783203125
12.387,10.38797607421875,-0.2453887939453125,2.0972442626953125
12.396999999999991,6.2003662109375,1.9584747314453128,11.600115966796876
12.40699999999999,7.31590576171875,0.7349700927734375,2.641256713867188
12.417000000000002,8.342620849609375,-1.2750946044921876,9.53128356933594
12.426999999999992,9.918731689453123,-0.9042449951171876,11.890963745117189
12.436999999999983,9.121554565429689,0.9580780029296876,3.217120361328125
12.447000000000005,7.972668457031251,0.061309814453125,0.1200775146484375
12.456999999999994,6.429455566406251,-0.2986236572265625,3.8653594970703127
12.466999999999985,5.4837890625000005,-0.2543609619140625,9.90946044921875
12.477000000000004,4.690948486328125,0.204266357421875,3.459518432617188
12.486999999999997,6.880456542968751,1.16578369140625,5.921780395507813
12.497999999999983,9.162078857421877,0.7280914306640626,10.400836181640626
12.507999999999988,9.48941345214844,-0.602630615234375,8.592047119140625
12.518,7.959808349609376,0.2205657958984375,6.103616333007813
12.527999999999992,6.692788696289063,0.6422576904296875,7.712625122070313
12.53799999999999,6.784454345703126,0.2564544677734375,8.191439819335939
12.548000000000002,6.792977905273438,-0.143255615234375,3.482247924804688
12.557999999999993,7.421627807617188,0.483001708984375,1.891183471679688
12.567999999999984,8.147625732421876,-0.049346923828125,4.793380737304688
12.578000000000005,8.280862426757814,-0.5627044677734375,6.819595336914063
12.587999999999994,7.8150573730468755,0.1487884521484375,7.160537719726563
12.59899999999999,7.849002075195313,-0.15791015625,7.719204711914063
12.607999999999976,8.12698974609375,-0.4151123046875,8.222094726562501
12.619,6.478952026367188,0.2537628173828125,6.578991699218751
12.628999999999984,3.1564086914062504,0.7905975341796876,3.4782104492187504
12.637999999999977,4.6408538818359375,0.3997100830078125,3.1091552734375
12.649,11.904421997070314,-0.2667724609375,6.417044067382813
12.658999999999992,12.271084594726563,-0.6458465576171876,5.25828857421875
12.66899999999999,9.53143310546875,0.3183624267578125,6.879708862304688
12.679000000000002,5.922528076171876,-0.9230865478515624,11.78628845214844
12.688999999999991,5.706747436523438,-0.266473388671875,14.338720703125
12.698999999999984,6.300405883789063,2.448504638671875,6.302947998046876
12.709000000000003,6.929953002929688,0.8288787841796875,0.003289794921875
12.718999999999994,9.201257324218751,0.01854248046875,3.8357513427734378
12.728999999999983,8.815603637695313,0.1786956787109375,8.278170776367189
12.738999999999976,6.22728271484375,0.6220703125,3.4915191650390627
12.748999999999995,6.752304077148438,-0.0115142822265625,5.223147583007813
12.758999999999986,8.942858886718751,-0.8933288574218751,10.206289672851565
12.768999999999975,9.786990356445314,0.2962310791015625,7.435684204101563
12.78,9.320138549804687,0.4987030029296875,1.29677734375
12.789999999999992,7.912255859375,-0.25899658203125,1.741946411132813
12.799999999999985,6.573458862304688,-0.3796722412109375,9.4076171875
12.810000000000002,4.9322998046875,-0.2860626220703125,6.949093627929688
12.819999999999991,5.119818115234375,0.1233673095703125,3.9730255126953127
12.829999999999984,7.949041748046875,0.1069183349609375,7.253250122070313
12.840000000000003,9.348251342773438,-0.4370941162109375,9.298904418945312
12.849999999999994,8.092147827148438,0.2332763671875,7.138256835937501
12.859999999999983,6.710882568359375,1.0347900390625,6.9301025390625
12.869999999999976,6.878213500976563,0.322100830078125,8.575448608398439
12.879999999999995,7.441815185546876,-0.1712188720703125,6.477905273437501
12.889999999999986,7.3828979492187505,0.5277130126953126,2.835653686523438
12.899999999999975,8.152859497070313,1.1710174560546875,3.3778717041015627
12.911999999999978,8.246917724609375,-0.20277099609375,5.516836547851563
12.920999999999992,7.756588745117188,-0.10228271484375,6.667068481445313
12.930999999999983,7.198370361328125,0.2086029052734375,6.9612060546875005
12.941000000000004,7.833151245117188,-0.4335052490234375,7.765859985351563
12.950999999999992,8.060745239257812,-0.4412811279296875,7.848104858398438
12.960999999999984,6.740191650390625,-0.51859130859375,6.120663452148438
12.971000000000004,3.565988159179688,-0.399261474609375,3.8234893798828127
12.980999999999996,3.989474487304688,-0.4577301025390625,3.402694702148438
12.990999999999984,11.357269287109377,0.40853271484375,6.846511840820313
13.000999999999976,13.30079040527344,0.5371337890625001,6.014791870117188
13.012999999999977,10.1983642578125,1.7290863037109376,5.207147216796876
13.020999999999988,5.841928100585938,0.738409423828125,10.700506591796875
13.030999999999976,4.8976074218750005,0.402252197265625,15.232049560546876
13.040999999999997,4.972674560546875,1.863519287109375,7.025656127929688
13.050999999999988,7.079937744140626,-0.96361083984375,-0.3748870849609375
13.061999999999983,9.75274658203125,-2.056719970703125,1.1405120849609376
13.072000000000005,9.73584899902344,0.193798828125,10.521063232421875
13.081999999999994,5.944210815429688,2.111300659179688,5.3631134033203125
13.091999999999985,6.916644287109375,-0.1828826904296875,4.613040161132813
13.102000000000004,8.492755126953126,-1.6169342041015626,10.589700317382814
13.111999999999997,9.538162231445312,-0.170172119140625,9.015383911132814
13.121999999999986,9.01702880859375,0.590069580078125,1.380218505859375
13.131999999999977,8.035025024414063,0.219818115234375,0.4391876220703125
13.141999999999996,7.160836791992188,-0.506927490234375,7.413702392578125
13.151999999999989,5.049685668945313,-0.8653656005859376,7.942312622070313
13.161999999999978,5.178436279296875,0.878973388671875,3.990072631835938
13.171999999999995,7.337887573242188,1.2024200439453123,6.681423950195313
13.181999999999988,9.9926025390625,-0.07716064453125,9.641342163085938
13.19199999999998,8.747415161132814,-0.31043701171875,7.162481689453125
13.203000000000005,6.821539306640625,0.883160400390625,6.3678466796875
13.214,5.9144531250000005,0.701324462890625,8.781359863281251
13.222999999999985,6.576300048828125,-0.1652374267578125,8.175439453125001
13.232999999999976,7.256988525390626,0.3372039794921875,3.624606323242188
13.242999999999997,8.215365600585939,0.6554168701171875,1.785760498046875
13.252999999999986,8.961102294921876,-0.476123046875,4.949047851562501
13.262999999999977,8.17364501953125,-0.2256500244140625,7.506713867187501
13.272999999999996,6.935336303710938,-0.00418701171875,7.128836059570313
13.282999999999989,7.3096252441406255,-0.25540771484375,7.196875
13.292999999999978,7.368392944335938,-0.1601531982421875,7.203305053710938
13.302999999999995,5.260083007812501,0.423785400390625,4.867849731445313
13.312999999999988,3.88076171875,1.3745361328125,2.669219970703125
13.32299999999998,10.749255371093753,-0.2130889892578125,5.6871582031250005
13.334000000000003,13.051962280273438,-0.529058837890625,7.46903076171875
13.34299999999999,9.33045654296875,0.02392578125,6.582431030273438
13.353999999999983,4.9478515625,-0.9389373779296876,9.88538513183594
13.363999999999976,5.011105346679688,-0.9897796630859376,13.43656921386719
13.373999999999995,6.936532592773438,1.256402587890625,7.911956787109376
13.383999999999986,7.562939453125001,1.7398529052734375,0.1694244384765625
13.393999999999975,8.699563598632814,0.083441162109375,1.1294464111328126
13.403999999999996,9.3083251953125,-0.047552490234375,10.67972106933594
13.413999999999987,6.339285278320313,1.0304534912109375,6.771893310546876
13.423999999999978,6.588861083984376,-0.1359283447265625,3.8741821289062495
13.433999999999996,8.426211547851564,-0.9428253173828126,8.737246704101564
13.443999999999988,10.088455200195312,0.1233673095703125,9.0475341796875
13.45399999999998,9.454122924804688,0.7361663818359375,2.1187774658203127
13.464,7.202108764648438,0.135479736328125,0.137872314453125
13.47399999999999,6.6549560546875,-0.296978759765625,7.360617065429688
13.484999999999983,5.074359130859375,-0.4222900390625,9.26884765625
13.494999999999976,5.4730224609375,0.23387451171875,4.531991577148438
13.504999999999995,7.689895629882813,0.4185516357421875,5.480349731445313
13.514999999999986,10.192083740234375,-0.359783935546875,8.851791381835938
13.524999999999975,8.991906738281251,-0.2603424072265625,7.917938232421876
13.534999999999997,5.983538818359375,0.9471618652343752,6.560897827148438
13.544999999999987,5.737701416015625,0.7831207275390626,8.530139160156251
13.554999999999978,6.799856567382813,-0.6802398681640626,7.443759155273438
13.564999999999998,7.913302612304688,0.0309539794921875,3.705804443359375
13.574999999999989,8.214767456054688,1.2164764404296875,2.3879425048828127
13.58499999999998,8.797659301757813,0.226397705078125,5.083331298828125
13.595,7.925714111328125,-0.2189208984375,7.419534301757813
13.60499999999999,6.978402709960938,0.1356292724609375,7.656399536132813
13.614999999999988,7.206295776367188,0.0052337646484375,7.223043823242188
13.625,8.326470947265626,-0.5088714599609375,7.22080078125
13.635999999999996,7.7417846679687505,-0.256304931640625,6.163281250000001
13.645999999999988,5.223895263671875,-0.09031982421875,4.0960937500000005
13.655999999999976,2.7001739501953126,-0.3330169677734375,2.728585815429688
13.665999999999997,7.027749633789063,0.0719268798828125,5.21103515625
13.675999999999988,13.54677734375,0.483001708984375,8.136709594726563
13.68599999999998,12.1746337890625,1.377227783203125,5.564837646484375
13.695999999999998,8.543148803710938,1.3818634033203123,8.504867553710938
13.705999999999989,5.506369018554688,-0.1338348388671875,14.40810546875
13.71599999999998,4.286004638671876,0.7986724853515625,12.199755859375
13.726,6.122457885742188,0.3733917236328125,2.141357421875
13.735999999999985,7.484881591796875,-2.003634643554688,-0.426776123046875
13.745999999999988,10.305581665039064,-1.1005859375,2.0942535400390625
13.756,7.616772460937501,1.718020629882813,10.415042114257814
13.765999999999991,6.451138305664063,0.5677886962890626,1.915707397460937
13.77599999999999,8.203103637695314,-0.6506317138671875,9.596780395507814
13.786999999999978,9.478347778320312,-1.122418212890625,11.266799926757812
13.796999999999995,9.36395263671875,0.5102172851562501,5.027853393554688
13.806999999999988,8.342770385742188,0.8098876953125,0.2770904541015625
13.81699999999998,6.990216064453126,-0.368157958984375,3.953735351562501
13.826999999999998,5.873629760742188,-0.1757049560546875,8.935830688476564
13.836999999999987,4.643994140625001,0.0940582275390625,4.4329986572265625
13.846999999999989,5.9567718505859375,0.9990509033203124,4.875924682617188
13.857,9.077740478515626,1.1847747802734376,9.64612731933594
13.866999999999983,9.463543701171876,-0.6555664062500001,8.598925781250001
13.876999999999988,8.395556640625001,-0.0731231689453125,6.5021301269531255
13.887,6.868344116210938,0.8121307373046875,7.839730834960938
13.896999999999991,6.426763916015625,-0.0360382080078125,8.199664306640626
13.907999999999989,6.998291015625001,0.051141357421875,4.823287963867188
13.917999999999978,7.188351440429688,0.2214630126953125,2.15810546875
13.927999999999995,8.127886962890626,0.044561767578125,3.940576171875
13.937999999999988,8.403033447265626,-0.318212890625,6.321490478515625
13.94799999999998,7.761224365234375,-0.189013671875,7.089059448242188
13.957999999999998,7.625146484375,0.2391082763671875,7.720550537109376
13.96799999999999,8.125942993164063,-0.3775787353515625,7.945004272460938
13.977999999999987,7.298858642578126,-0.0949554443359375,7.061993408203126
13.988,4.709640502929688,0.6914550781250001,4.805941772460938
13.997999999999983,1.95533447265625,0.6597534179687501,2.260089111328125
14.007999999999988,9.49674072265625,-0.1638916015625,4.972076416015625
14.018,14.073443603515626,-0.6089111328125001,6.915597534179688
14.03,11.460897827148438,0.125311279296875,5.548388671875
14.03799999999999,7.379757690429688,-0.4930206298828125,9.53203125
14.048000000000002,4.89700927734375,-1.3983123779296875,14.612969970703126
14.057999999999993,5.480947875976563,1.89552001953125,11.347250366210938
14.068999999999988,5.807684326171875,2.4200927734375,1.3175628662109375
14.07899999999998,7.476358032226563,0.301165771484375,-0.052935791015625
14.089,10.269842529296875,0.207855224609375,4.6990234375
14.09899999999999,7.237100219726563,0.8320190429687501,8.814257812500001
14.108999999999988,6.709835815429688,0.2397064208984375,1.8512573242187504
14.119,7.992257690429688,-0.5643493652343751,10.156045532226564
14.129999999999995,9.513040161132814,-0.7301849365234375,10.877557373046876
14.138999999999989,9.705343627929688,0.5909667968750001,3.944015502929688
14.149,8.317498779296876,-0.296380615234375,-0.189910888671875
14.158999999999992,6.891073608398438,-0.4257293701171875,3.8605743408203126
14.16899999999999,5.732617187500001,-0.453094482421875,9.715362548828123
14.179000000000002,4.59195556640625,-0.7158294677734376,4.140206909179688
14.188999999999991,6.387286376953125,0.4541412353515625,5.390628051757813
14.199999999999989,9.400289916992188,0.132489013671875,9.364251708984376
14.20999999999998,9.449188232421877,-0.427972412109375,8.272637939453126
14.22,7.751055908203125,0.98992919921875,7.217660522460938
14.22999999999999,6.123355102539063,1.1411102294921875,8.078689575195312
14.239999999999988,6.810922241210938,0.0801513671875,8.000631713867188
14.25,7.085321044921876,0.1170867919921875,4.099234008789063
14.259999999999993,7.56832275390625,1.017742919921875,2.4651031494140625
14.269999999999987,8.227029418945314,0.763531494140625,4.149478149414063
14.28,8.311367797851563,-0.3624755859375,5.9491455078125
14.289999999999992,7.744775390625,-0.19918212890625,7.334747314453126
14.299999999999985,7.438824462890626,-0.0506927490234375,7.932742309570313
14.310000000000002,8.166317749023438,-0.631939697265625,7.796365356445313
14.319999999999991,8.078540039062501,-0.6141448974609376,7.12509765625
14.329999999999984,7.012646484375001,-0.2328277587890625,6.004473876953125
14.340000000000003,4.290939331054688,-0.2669219970703125,4.273294067382813
14.351,2.9799560546875004,-0.9295166015625,2.89801025390625
14.360999999999985,7.506115722656251,0.14893798828125,5.211334228515625
14.370999999999988,13.422512817382811,0.9663024902343752,7.570565795898438
14.381,12.323571777343751,1.2866088867187502,4.519281005859376
14.390999999999991,9.15101318359375,1.1924011230468752,8.588009643554688
14.40099999999999,5.146884155273438,0.7678680419921876,14.571398925781253
14.411,4.655508422851563,1.356292724609375,12.079977416992188
14.420999999999992,4.9948059082031255,0.6757537841796876,1.5577178955078126
14.432999999999993,8.116671752929689,-2.0324951171875,0.045159912109375
14.441000000000004,9.974508666992188,-0.8477203369140626,6.992459106445313
14.450999999999992,7.964593505859375,1.4741271972656251,5.9433135986328125
14.460999999999984,6.635067749023438,0.7946350097656251,3.555221557617188
14.471000000000004,8.161383056640625,-0.8604309082031251,9.075646972656251
14.480999999999996,9.054263305664064,-1.182681274414063,11.162124633789062
14.491999999999983,9.139349365234375,-0.015850830078125,4.354342651367188
14.501999999999988,8.664273071289063,0.9000579833984376,0.3907379150390625
14.512,7.515237426757813,-0.8566925048828126,4.313967895507813
14.521999999999991,6.143991088867188,-0.8822631835937501,8.434735107421876
14.53199999999999,4.484439086914063,0.4677490234375,4.4992431640625
14.542000000000002,5.856283569335938,1.0457061767578126,5.498294067382813
14.551999999999992,8.538812255859376,0.76263427734375,9.73121337890625
14.561999999999983,9.319390869140626,-0.29249267578125,9.1360595703125
14.572000000000005,8.042800903320312,0.4864410400390625,6.068026733398438
14.581999999999994,7.076199340820313,0.6806884765625001,7.67239990234375
14.591999999999985,6.632376098632813,0.320904541015625,8.560943603515625
14.602000000000004,6.958813476562501,0.4161590576171875,4.859625244140625
14.611999999999997,7.159191894531251,0.25301513671875,1.67001953125
14.621999999999986,8.190243530273438,0.1057220458984375,4.095346069335938
14.632999999999988,8.582327270507813,-0.5375823974609375,6.70938720703125
14.643,7.76212158203125,-0.4198974609375,6.574954223632813
14.652999999999992,7.794271850585938,0.1111053466796875,7.331607055664063
14.66299999999999,7.642044067382813,-0.672613525390625,8.072109985351563
14.673000000000002,5.641549682617188,-0.26497802734375,6.515887451171875
14.682999999999993,3.350506591796876,0.683380126953125,3.7923858642578128
14.692999999999984,7.606304931640626,0.386700439453125,4.75225830078125
14.703000000000005,13.076037597656253,-0.240753173828125,6.663778686523438
14.712999999999994,10.425360107421875,-0.176153564453125,4.486532592773438
14.722999999999985,6.789389038085938,-0.1854248046875,8.110391235351564
14.732999999999976,5.106658935546875,-0.442327880859375,13.276715087890626
14.742999999999997,7.055264282226563,1.1281005859375002,11.165264892578126
14.753999999999984,7.260876464843751,2.207452392578125,1.894921875
14.762999999999977,8.027996826171876,0.4689453125,1.289300537109375
14.774,9.354083251953126,0.2214630126953125,8.546737670898438
14.783999999999992,7.092947387695313,0.9171051025390624,6.53831787109375
14.79399999999999,6.142794799804688,-0.1399658203125,3.5570159912109376
14.804000000000002,7.402487182617188,-0.63642578125,7.168762207031251
14.813999999999991,9.517974853515623,-0.6830810546875,9.746017456054688
14.823999999999984,9.610537719726564,0.1136474609375,3.9680908203125
14.834000000000003,8.505316162109375,0.2672210693359375,0.6222198486328125
14.843999999999994,7.464544677734375,-0.6060699462890625,6.234310913085938
14.853999999999983,6.06937255859375,-0.8673095703125001,8.772387695312501
14.863999999999976,5.006320190429688,-0.0339447021484375,5.668466186523438
14.873999999999995,6.195431518554688,0.7606903076171876,5.135369873046876
14.883999999999986,9.243276977539065,-0.126507568359375,7.881451416015626
14.893999999999975,9.020617675781253,-0.2169769287109375,7.828814697265625
14.905,7.080386352539063,1.1421569824218751,6.856381225585938
14.914999999999992,6.043054199218751,0.939984130859375,8.082427978515625
14.924999999999985,7.023861694335938,-0.0107666015625,8.235552978515626
14.935000000000002,7.575051879882813,0.324493408203125,4.781118774414063
14.944999999999991,8.184561157226563,0.6652862548828126,2.8032043457031253
14.954999999999984,8.42127685546875,0.3641204833984375,4.2504150390625
14.965000000000003,8.116671752929689,-0.0488983154296875,6.669311523437501
14.974999999999994,7.088162231445313,-0.533544921875,6.898251342773438
14.984999999999983,7.2064453125,-0.2117431640625,7.260726928710938
14.994999999999976,8.125942993164063,-0.3736907958984375,7.590304565429688
15.004999999999995,8.070913696289063,-0.61907958984375,6.603366088867188
15.014999999999986,7.372131347656251,0.055029296875,6.117523193359375
15.024999999999975,5.58487548828125,-0.2370147705078125,5.356683349609376
15.034999999999997,2.9575256347656254,-1.0503417968750002,3.556716918945313
15.044999999999987,5.299560546875,-0.176153564453125,4.278378295898438
15.055999999999983,12.445892333984377,1.020733642578125,7.6658203125
15.066000000000004,13.664163208007814,0.9574798583984376,4.935888671875
15.075999999999992,11.007354736328123,1.2362152099609376,6.596038818359376
15.085999999999984,5.363262939453126,0.6089111328125001,12.774722290039064
15.096000000000004,3.881060791015625,1.546502685546875,15.145916748046876
15.105999999999996,4.2984161376953125,1.446014404296875,4.403091430664063
15.115999999999984,7.106405639648438,-1.7476287841796876,-0.6270050048828125
15.125999999999976,10.431640625,-1.263430786132813,1.5369323730468751
15.135999999999996,8.752200317382814,1.4999969482421875,9.245669555664064
15.145999999999988,6.898101806640626,1.4173034667968751,3.4215362548828128
15.155999999999976,7.252203369140625,0.0753662109375,7.780813598632813
15.165999999999997,8.399295043945314,-1.7989196777343752,11.630023193359376
15.175999999999988,9.909909057617188,-0.284417724609375,7.367495727539063
15.18599999999998,8.417987060546876,0.487786865234375,0.2603424072265625
15.197000000000005,8.480792236328126,-0.6311920166015625,1.244439697265625
15.206999999999994,5.8785644531250005,-0.9547882080078126,8.549429321289063
15.216999999999985,5.2170166015625,-0.693548583984375,5.981146240234375
15.227000000000004,4.886392211914063,1.086978149414063,4.13138427734375
15.236999999999997,7.92003173828125,0.6884643554687501,9.12110595703125
15.246999999999986,9.440814208984376,-0.0160003662109375,10.52076416015625
15.256999999999977,8.982934570312501,0.1936492919921875,6.867147827148438
15.266999999999996,7.0975830078125,0.8228973388671875,6.345565795898438
15.276999999999989,6.776229858398438,0.923834228515625,8.794519042968751
15.286999999999978,6.689648437500001,0.369952392578125,6.314910888671876
15.296999999999995,6.658993530273438,0.6772491455078126,1.8557434082031248
15.306999999999988,8.059698486328125,0.4702911376953125,2.911767578125
15.31699999999998,8.541055297851564,-0.6802398681640626,5.875125122070313
15.326999999999998,8.353387451171876,-0.240155029296875,7.135266113281251
15.336999999999987,7.662380981445313,-0.180938720703125,7.065283203125
15.347999999999985,8.066128540039063,-0.79373779296875,8.194879150390626
15.357999999999976,7.462301635742188,-0.548199462890625,7.851095581054688
15.367999999999997,4.538571166992188,0.14176025390625,5.086621093750001
15.377999999999986,2.3801666259765626,0.5102172851562501,2.7912414550781253
15.387999999999977,8.229122924804688,-0.2021728515625,4.698724365234376
15.397999999999996,14.146716308593753,-0.2839691162109375,6.73929443359375
15.407999999999989,11.505010986328124,0.2190704345703125,4.7690063476562505
15.417999999999978,7.473965454101563,-0.19918212890625,9.090301513671877
15.427999999999995,5.004525756835938,-0.2089019775390625,14.506948852539065
15.437999999999988,6.004025268554688,1.4319580078125,11.70269775390625
15.44799999999998,5.930303955078125,2.662191772460938,1.54261474609375
15.457999999999998,7.637557983398438,0.7239044189453125,0.4007568359375
15.46799999999999,9.683062744140626,-0.2902496337890625,7.622753906250001
15.478999999999983,7.593295288085938,0.350213623046875,5.798413085937501
15.488,6.300854492187501,-0.008673095703125,3.532492065429688
15.498999999999995,7.66641845703125,-0.6910064697265625,8.218804931640626
15.508999999999986,9.435281372070314,-1.158755493164063,10.539157104492189
15.518999999999975,9.917834472656253,0.1873687744140625,4.495205688476563
15.528999999999996,8.378509521484375,-0.160003662109375,0.1499847412109375
15.538999999999987,7.29796142578125,-0.4317108154296875,5.215222167968751
15.548999999999978,6.044699096679688,-0.4601226806640625,8.934783935546875
15.558999999999996,4.693490600585938,-0.1463958740234375,4.789642333984375
15.568999999999988,6.035128784179688,0.935498046875,5.329916381835938
15.57899999999998,8.80767822265625,0.397467041015625,8.892465209960939
15.589,9.1456298828125,0.0351409912109375,8.454025268554688
15.59899999999999,7.59224853515625,0.9197967529296877,6.838436889648438
15.608999999999988,6.582131958007813,1.0144531250000002,8.185159301757814
15.619,7.072909545898438,0.151629638671875,7.919882202148438
15.631,7.282559204101563,-0.01435546875,4.218264770507813
15.639999999999986,7.546340942382813,0.8091400146484375,2.7149780273437503
15.649999999999975,8.256338500976563,0.271856689453125,4.476214599609375
15.659999999999997,8.115176391601564,-0.79373779296875,5.8474609375
15.669999999999987,7.691989135742188,-0.37264404296875,7.0299926757812505
15.679999999999978,7.505966186523438,-0.254510498046875,7.664175415039063
15.689999999999998,8.182766723632813,-0.58558349609375,7.759579467773438
15.699999999999989,7.9206298828125,-0.3072967529296875,6.912307739257813
15.70999999999998,6.94864501953125,0.088824462890625,6.212478637695313
15.72,4.691696166992188,0.160003662109375,4.9843383789062505
15.730999999999996,2.0375793457031253,0.1834808349609375,2.7498199462890627
15.739999999999988,6.827520751953125,0.6679779052734376,4.443765258789063
15.75,14.8375732421875,0.7421478271484375,7.271194458007813
15.759999999999993,13.902972412109376,2.2354156494140627,5.409469604492188
15.769999999999987,9.031683349609375,1.6764495849609375,8.021716308593751
15.780999999999976,4.407727050781251,-0.9607696533203126,14.700299072265626
15.790999999999997,3.374282836914063,0.370849609375,13.99344177246094
15.800999999999988,5.031591796875,-0.1789947509765625,2.355343627929688
15.81099999999998,7.418936157226563,-2.476766967773438,-0.9329559326171876
15.820999999999998,10.74088134765625,-2.075860595703125,2.020980834960937
15.830999999999989,8.647674560546875,0.7390075683593751,6.775482177734376
15.84099999999998,6.282611083984375,1.057220458984375,7.519125366210938
15.851,7.666268920898438,-0.30924072265625,5.299411010742188
15.860999999999985,9.27423095703125,-1.2178222656250002,14.137893676757814
15.870999999999988,10.418331909179688,0.7451385498046875,5.9279113769531255
15.881,8.396752929687501,1.1749053955078126,-0.3264373779296875
15.890999999999991,7.655651855468751,0.352008056640625,1.2538604736328125
15.90099999999999,5.219259643554688,0.5908172607421875,7.242483520507813
15.911,4.614535522460938,-0.019140625,6.1806274414062505
15.921999999999995,4.911813354492188,1.897463989257813,4.46036376953125
15.931999999999988,8.807977294921876,0.8052520751953126,9.786392211914062
15.94199999999998,9.9878173828125,-1.1126983642578123,9.76112060546875
15.951999999999998,9.195425415039065,-0.2962310791015625,7.696774291992188
15.961999999999987,6.415847778320313,0.1873687744140625,7.532135009765626
15.971999999999989,6.253302001953125,0.0586181640625,8.665170288085939
15.982,6.579440307617188,-0.5807983398437501,5.149426269531251
15.991999999999983,7.020571899414063,-0.29608154296875,1.8860992431640624
16.00199999999999,7.920779418945313,0.4592254638671875,2.69344482421875
16.012,8.778369140625001,-0.490478515625,5.527005004882813
16.02199999999999,8.363705444335938,-0.1619476318359375,7.299307250976563
16.03199999999999,7.751504516601563,0.7283905029296875,7.849600219726563
16.042,7.816104125976563,0.480609130859375,7.84346923828125
16.052999999999997,6.371734619140626,0.6286499023437501,6.6920410156250005
16.062999999999988,3.4329010009765626,1.179840087890625,4.353894042968751
16.07299999999998,5.281765747070313,0.7923919677734376,3.404937744140625
16.083,14.030377197265626,-0.5094696044921876,6.541159057617188
16.09299999999999,11.525796508789064,-0.320306396484375,5.617623901367188
16.102999999999987,7.087713623046875,-0.1972381591796875,7.529144287109376
16.113,3.6933929443359377,-1.8008636474609376,12.238934326171876
16.122999999999983,6.045147705078126,-0.719268798828125,13.183703613281253
16.13299999999999,7.597930908203126,1.7416473388671876,3.8382934570312495
16.143,8.392715454101562,-0.1843780517578125,-0.2696136474609375
16.15299999999999,10.32935791015625,-0.35828857421875,3.302056884765625
16.16299999999999,8.301498413085938,0.3695037841796875,11.749652099609376
16.173000000000002,4.893569946289063,1.5459045410156251,3.688906860351562
16.182999999999993,6.966738891601563,0.2618377685546875,5.087667846679688
16.192999999999984,9.177032470703123,-0.6610992431640625,9.965386962890626
16.20399999999998,9.685455322265623,1.0947540283203123,6.1193176269531255
16.214,9.1288818359375,0.6829315185546876,0.3366058349609375
16.22399999999999,7.4445068359375,-0.4586273193359375,2.0196350097656253
16.233999999999988,6.176290893554688,0.0183929443359375,11.783148193359375
16.244,4.668966674804688,-0.108563232421875,7.029693603515626
16.253999999999984,6.0415588378906255,0.10467529296875,3.422283935546876
16.26399999999999,9.293670654296877,-0.055328369140625,7.098330688476563
16.274,9.677529907226564,-1.1041748046875002,8.447595214843751
16.283999999999992,7.716513061523438,-0.0683380126953125,6.254647827148438
16.29399999999999,5.8295166015625,0.711492919921875,7.104611206054688
16.304000000000002,6.117971801757813,0.063104248046875,9.0822265625
16.313999999999993,7.625744628906251,0.131591796875,6.371136474609376
16.323999999999984,8.05640869140625,0.4248321533203125,2.1569091796875
16.334000000000003,8.761471557617188,1.081146240234375,3.916650390625
16.343999999999994,8.263217163085939,0.0916656494140625,6.756491088867188
16.35499999999999,7.165173339843751,0.006280517578125,7.314260864257813
16.364999999999988,6.798809814453126,0.5830413818359376,7.075750732421875
16.375,7.613931274414063,0.0620574951171875,7.405029296875001
16.38499999999999,8.411856079101563,-0.1786956787109375,6.7087890625
16.39499999999999,7.745373535156251,-0.375933837890625,5.573660278320313
16.405,5.9156494140625,-0.1792938232421875,5.41619873046875
16.414999999999992,2.9823486328125,-0.76502685546875,4.245779418945313
16.424999999999983,3.857583618164063,-0.9664520263671876,3.637466430664063
16.435000000000002,12.040798950195311,0.8897399902343751,7.272689819335938
16.444999999999993,15.043484497070311,0.730633544921875,5.885592651367188
16.454999999999984,11.546133422851565,1.1924011230468752,5.712728881835938
16.465000000000003,6.2003662109375,0.4861419677734375,12.028985595703126
16.474999999999994,2.984591674804688,0.1112548828125,15.8161376953125
16.484999999999985,3.821096801757813,1.454986572265625,7.019226074218751
16.495999999999988,6.410165405273438,-1.15382080078125,-0.7228576660156251
16.506,10.411453247070312,-2.1691711425781253,0.9000579833984376
16.51599999999999,9.942059326171876,0.8227478027343751,3.7289825439453126
16.52599999999999,7.139453125,2.0363830566406254,9.284249877929687
16.536,6.027951049804688,0.8489166259765626,4.007269287109375
16.545999999999992,9.031982421875,-1.3319183349609376,12.514678955078129
16.555999999999983,9.408065795898438,-0.5543304443359376,8.536569213867189
16.566000000000003,9.314456176757814,1.342236328125,1.59525146484375
16.575999999999993,7.897750854492188,-0.186322021484375,0.17525634765625
16.585999999999984,6.535028076171876,-0.7303344726562501,5.359075927734375
16.596000000000004,4.977459716796876,-0.6642395019531251,8.096932983398439
16.605999999999995,4.53214111328125,0.2720062255859375,4.138113403320313
16.616999999999983,7.165322875976563,0.9730316162109376,8.189047241210938
16.625999999999976,9.800897216796876,-0.4900299072265625,10.866192626953126
16.637,9.591995239257812,-0.50782470703125,7.605407714843751
16.647999999999996,7.660586547851563,0.5647979736328126,6.024212646484376
16.65699999999999,6.398052978515626,1.047052001953125,8.085717773437501
16.667,6.382650756835938,0.4774688720703125,6.97496337890625
16.676999999999992,6.5903564453125005,0.181536865234375,2.8305694580078127
16.686999999999983,7.455422973632813,0.7511199951171875,1.8866973876953128
16.697000000000003,9.003421020507814,0.0563751220703125,5.452236938476563
16.706999999999994,8.583673095703126,-0.352606201171875,6.827371215820313
16.716999999999985,8.022314453125,0.3662139892578125,7.463198852539063
16.727000000000004,7.793972778320313,-0.141461181640625,8.166766357421876
16.736999999999995,7.627090454101563,-0.94267578125,8.094689941406251
16.747999999999983,6.220254516601563,-0.050543212890625,6.571963500976563
16.756999999999977,3.3222442626953126,0.1398162841796875,3.391180419921876
16.768,2.88365478515625,-0.33017578125,2.0256164550781253
16.77799999999999,12.047229003906253,-0.3282318115234375,6.305490112304688
