time,ax,ay,az
0.0,0.158807373046875,8.164373779296875,6.158944702148438
0.0100000000000193,0.6933990478515626,8.139550781250001,6.196777343750001
0.0200000000000102,0.8477203369140626,6.654208374023438,5.63212890625
0.0300000000000011,0.835308837890625,5.501882934570313,5.517733764648438
0.0400000000000204,0.6480895996093751,6.541458129882813,4.9828430175781255
0.0500000000000113,0.0035888671875,8.694479370117188,4.061102294921875
0.0600000000000022,-0.2456878662109375,11.258425903320314,4.1523193359375
0.0699999999999931,-0.5624053955078125,10.60928955078125,5.093499755859376
0.0800000000000125,-1.346124267578125,8.669805908203125,7.486077880859375
0.0900000000000034,-1.3163665771484376,6.054568481445313,10.595831298828124
0.0999999999999943,-0.289501953125,6.201861572265625,8.95242919921875
0.1100000000000136,-0.04246826171875,7.082031250000001,2.4486541748046875
0.1210000000000093,0.152825927734375,8.203851318359376,1.1925506591796875
0.1310000000000002,-0.043963623046875,8.634066772460939,6.468185424804688
0.1410000000000195,-1.194644165039063,8.011996459960939,7.155752563476563
0.1510000000000104,-0.2280426025390625,8.020220947265626,5.176791381835938
0.1610000000000013,1.044061279296875,9.147723388671876,7.31949462890625
0.1710000000000207,1.40384521484375,9.1587890625,7.773635864257813
0.1810000000000116,0.131591796875,8.068521118164064,4.263125610351563
0.1910000000000025,-0.61907958984375,7.038516235351563,3.2748413085937504
0.2009999999999934,-0.4284210205078125,7.236801147460938,6.4602600097656255
0.2110000000000127,0.2678192138671875,7.264315795898438,5.866152954101563
0.2210000000000036,-0.4510009765625,7.335644531250001,3.9610626220703127
0.2309999999999945,-0.5603118896484376,8.42008056640625,5.733663940429688
0.2410000000000138,0.024822998046875,9.289932250976562,6.773837280273438
0.2510000000000048,0.465057373046875,8.842370605468751,4.8931213378906255
0.2620000000000004,-0.1532745361328125,7.831207275390626,5.312420654296876
0.271000000000015,-0.4646087646484375,7.273138427734375,7.097732543945313
0.2820000000000107,0.1984344482421875,7.001580810546876,6.0584564208984375
0.2920000000000016,0.5329467773437501,6.976907348632813,4.677340698242188
0.3020000000000209,0.4068878173828125,7.736700439453125,5.417544555664063
0.3120000000000118,0.268865966796875,8.338732910156251,5.3870391845703125
0.3220000000000027,0.1105072021484375,8.437875366210939,5.332159423828125
0.3319999999999936,-0.0886749267578125,8.410659790039062,6.335546875
0.3420000000000129,0.0480010986328125,8.262918090820314,6.492559814453125
0.3520000000000038,-0.10587158203125,7.858572387695313,5.553024291992188
0.3619999999999947,-0.480908203125,6.821389770507813,5.522967529296875
0.3720000000000141,-0.749176025390625,5.546145629882813,5.357730102539063
0.382000000000005,-0.4998992919921875,5.7065979003906255,4.384548950195313
0.3919999999999959,-0.4308135986328125,8.524606323242189,4.069625854492188
0.4020000000000152,-0.473431396484375,11.704791259765626,5.414553833007813
0.4130000000000109,0.3210540771484375,10.752545166015626,4.96519775390625
0.4230000000000018,1.1870178222656251,8.899493408203126,7.2172119140625
0.4330000000000211,1.6760009765625,6.703256225585938,10.30423583984375
0.443000000000012,0.5890228271484376,6.2494140625000005,8.7030029296875
0.4530000000000029,-0.46356201171875,6.5440002441406255,3.5247161865234378
0.4629999999999938,-0.878973388671875,7.446301269531251,1.394573974609375
0.4730000000000132,-0.5492462158203125,9.123199462890623,5.606259155273438
0.4830000000000041,0.381317138671875,8.840127563476564,6.859970092773438
0.492999999999995,-0.6670806884765625,7.787243652343751,5.3526458740234375
0.5030000000000143,-0.2773895263671875,8.563186645507812,7.264315795898438
0.5130000000000052,0.4107757568359375,9.066375732421877,8.127737426757813
0.5229999999999961,-0.3772796630859375,8.145083618164064,4.674050903320313
0.5330000000000155,-0.8720947265625001,6.965692138671876,2.4719818115234378
0.5430000000000064,0.1948455810546875,7.326821899414063,5.725439453125
0.554000000000002,0.838299560546875,7.575201416015625,6.958663940429688
0.5640000000000214,0.4705902099609375,7.035974121093751,4.173553466796875
0.5740000000000123,-0.1392181396484375,8.215066528320314,4.670910644531251
0.5840000000000032,0.1873687744140625,9.609939575195312,7.168612670898438
0.5939999999999941,0.37623291015625,8.931643676757814,6.097186279296875
0.6040000000000134,-0.11005859375,7.482339477539063,4.956076049804688
0.6140000000000043,-0.208453369140625,7.411459350585938,6.435287475585938
0.6239999999999952,0.0127105712890625,7.201809692382813,6.547738647460938
0.6340000000000146,-0.3587371826171875,6.928906250000001,4.742388916015625
0.6440000000000055,-0.74468994140625,7.446899414062501,4.653265380859375
0.6539999999999964,-0.2283416748046875,8.663674926757814,5.543304443359375
0.6640000000000157,-0.13577880859375,8.553167724609375,5.613287353515625
0.6740000000000066,-0.29368896484375,8.1551025390625,6.0472412109375
0.6839999999999975,0.058917236328125,8.153756713867189,6.4252685546875
0.6949999999999932,0.6255096435546875,7.692138671875001,5.787646484375
0.7050000000000125,0.8417388916015626,6.234909057617188,5.37193603515625
0.7150000000000034,0.8919830322265626,5.092303466796875,4.943365478515625
0.7249999999999943,0.9090301513671876,6.8984008789062505,4.307986450195313
0.7350000000000136,-0.0276641845703125,11.38807373046875,5.029498291015625
0.7450000000000045,0.138470458984375,11.252444458007814,4.289593505859376
0.7560000000000002,-0.49287109375,9.816598510742187,5.7499633789062505
0.7650000000000148,-1.4407806396484375,6.66392822265625,10.606896972656251
0.7750000000000057,-0.54132080078125,5.809478759765625,10.871725463867188
0.7849999999999966,-0.3099884033203125,6.854586791992188,4.353445434570313
0.7950000000000159,0.106768798828125,7.566378784179688,-0.1724151611328125
0.8050000000000068,-0.254510498046875,8.64139404296875,4.732818603515625
0.8160000000000025,-1.2587951660156251,8.370135498046876,7.658493041992188
0.8259999999999934,-1.3396942138671877,7.697821044921875,5.384945678710938
0.8360000000000127,-0.137274169921875,8.733209228515626,6.259133911132813
0.8460000000000036,1.1820831298828125,9.553564453125,8.317648315429688
0.8569999999999993,1.1909057617187502,8.510848999023438,5.96409912109375
0.8660000000000139,-0.18961181640625,7.144088745117188,3.2313262939453127
0.8760000000000048,-0.6178833007812501,6.970028686523438,5.1380615234375
0.8859999999999957,0.7659240722656251,7.5144897460937505,6.410015869140626
0.896000000000015,0.499151611328125,7.187005615234376,4.443167114257813
0.906000000000006,-0.6338836669921876,7.8150573730468755,4.658499145507813
0.9159999999999968,-0.30206298828125,9.255538940429688,6.75364990234375
0.926000000000016,0.6612487792968751,9.320886230468751,5.711981201171875
0.936000000000007,0.2474822998046875,8.18201904296875,5.029797363281251
0.9470000000000028,-0.8169158935546875,7.3966552734375,6.489419555664063
0.9569999999999936,-0.5157501220703126,6.992758178710938,6.511251831054688
0.967000000000013,0.1221710205078125,6.967037963867188,5.2161193847656255
0.977000000000004,0.2548095703125,7.2767272949218755,5.045498657226563
0.9869999999999948,0.21951904296875,8.240786743164064,5.208343505859375
0.997000000000014,0.0716278076171875,8.468231201171875,5.264569091796876
1.007000000000005,-0.000299072265625,8.376565551757814,6.271096801757813
1.016999999999996,0.203070068359375,8.316900634765625,6.545196533203126
1.0270000000000152,0.4379913330078125,8.130429077148438,5.592053222656251
1.037000000000006,-0.0921142578125,7.356130981445313,5.6955322265625
1.046999999999997,-0.45399169921875,5.91624755859375,5.539266967773438
1.0570000000000164,-0.3698028564453125,5.2330169677734375,4.393820190429688
1.0670000000000073,-0.034393310546875,6.993356323242188,3.727487182617188
1.0769999999999982,-0.4831512451171875,11.154946899414064,5.781515502929688
1.087999999999994,-0.07177734375,11.075543212890626,4.822839355468751
1.0980000000000132,1.077557373046875,10.206887817382814,6.096737670898438
1.108000000000004,1.2359161376953125,7.80458984375,10.163223266601562
1.117999999999995,0.705511474609375,6.337939453125,9.70908203125
1.1280000000000143,-0.4753753662109375,5.945108032226563,5.183370971679688
1.1380000000000052,-0.93968505859375,6.347360229492188,1.720562744140625
1.147999999999996,-1.5352874755859376,8.676235961914063,4.054373168945313
1.1580000000000157,-0.64539794921875,9.194677734375,5.88035888671875
1.1680000000000064,-0.1686767578125,8.291329956054689,4.876821899414063
1.1779999999999973,0.1170867919921875,8.283105468750001,7.221697998046875
1.1880000000000166,0.2663238525390625,9.026748657226562,9.158639526367187
1.1980000000000075,0.2325286865234375,8.462847900390626,6.08133544921875
1.2079999999999984,-0.2498748779296875,7.383944702148438,2.6415557861328125
1.218999999999994,0.0572723388671875,7.176837158203125,4.363165283203125
1.2280000000000086,0.6899597167968751,7.5043212890625,6.955523681640625
1.2379999999999995,0.6769500732421876,7.024908447265625,4.75943603515625
1.2480000000000189,0.100189208984375,7.545443725585938,3.983642578125
1.2580000000000098,-0.226995849609375,9.420925903320311,6.603515625000001
1.268000000000001,0.1607513427734375,9.353485107421877,6.6950317382812505
1.2789999999999964,-0.3090911865234375,8.017230224609376,5.0184326171875
1.2890000000000157,-0.5091705322265625,7.341625976562501,5.896209716796875
1.2990000000000066,0.040673828125,7.264166259765625,7.044497680664063
1.3089999999999975,-0.3066986083984375,6.835446166992188,5.651867675781251
1.3190000000000168,-0.5822937011718751,7.149472045898438,4.43643798828125
1.3290000000000075,-0.26617431640625,8.381051635742189,4.926766967773438
1.3389999999999986,0.254510498046875,8.82203369140625,5.442816162109375
1.349000000000018,-0.094207763671875,8.245571899414063,6.013894653320313
1.3590000000000089,0.061309814453125,8.0869140625,6.143392944335938
1.3689999999999998,0.6673797607421875,8.167514038085939,6.174346923828126
1.379000000000019,0.9278717041015626,6.689050292968751,5.866900634765625
1.38900000000001,0.853253173828125,5.109649658203125,5.3900299072265625
1.399000000000001,0.6359771728515625,5.554071044921876,4.4479522705078125
1.4099999999999966,-0.17884521484375,9.835440063476565,4.234564208984375
1.420000000000016,-0.12740478515625,12.499874877929688,4.536178588867188
1.4300000000000068,-0.3814666748046875,10.744619750976565,4.458868408203125
1.4399999999999975,-1.3453765869140626,8.116372680664064,8.250506591796876
1.450000000000017,-0.6261077880859376,5.537472534179688,12.349441528320314
1.460000000000008,-0.1218719482421875,5.8785644531250005,8.839379882812501
1.4699999999999989,-0.329876708984375,6.697573852539063,0.8242431640625001
1.4800000000000182,-0.16090087890625,8.426809692382813,-0.5459564208984375
1.490000000000009,0.0107666015625,9.44888916015625,7.911358642578126
1.5,-1.40384521484375,7.898947143554688,7.440319824218751
1.510000000000019,-0.805401611328125,7.474713134765626,4.794277954101563
1.5200000000000102,0.8104858398437501,9.253445434570311,7.909713745117188
1.5300000000000011,1.6078125,9.448590087890626,8.663076782226563
1.5400000000000205,0.47911376953125,7.883395385742188,3.699972534179688
1.5500000000000114,-0.6308929443359376,6.896008300781251,1.6984313964843751
1.5600000000000025,-0.7390075683593751,7.340130615234376,6.619964599609376
1.5699999999999932,0.8354583740234376,7.295269775390626,7.24532470703125
1.5810000000000173,-0.1410125732421875,6.936233520507813,3.644943237304688
1.5910000000000082,-0.6910064697265625,8.661431884765626,4.688406372070313
1.600999999999999,0.245538330078125,10.011294555664064,7.42476806640625
1.6110000000000184,0.7861114501953126,8.816799926757813,5.7697021484375
1.621000000000009,-0.2851654052734375,7.168014526367188,4.85513916015625
1.6310000000000002,-0.8553466796875001,7.134967041015625,7.175491333007813
1.6410000000000196,0.1018341064453125,7.096984863281251,6.78056640625
1.6510000000000105,0.2735015869140625,7.045245361328125,4.044204711914063
1.6610000000000014,0.0121124267578125,7.792477416992188,4.0805419921875
1.6710000000000207,0.189312744140625,8.685656738281251,5.866302490234375
1.6810000000000116,0.0503936767578125,8.357125854492189,6.285601806640625
1.6910000000000025,-0.05203857421875,8.125344848632814,5.91923828125
1.7009999999999934,0.2441925048828125,8.399743652343751,6.226086425781251
1.7110000000000127,0.22310791015625,7.728027343750001,6.097933959960938
1.7220000000000084,-0.43843994140625,5.99998779296875,5.532537841796875
1.731999999999999,-0.6350799560546876,4.668817138671876,4.574160766601563
1.7420000000000186,0.0112152099609375,6.651068115234375,4.057064819335938
1.7520000000000095,-0.1009368896484375,11.292520141601564,5.311224365234375
1.7620000000000005,-0.069085693359375,11.66187438964844,4.441372680664063
1.7720000000000198,0.417205810546875,10.157391357421876,5.233465576171875
1.782000000000011,0.7639801025390626,7.736102294921875,10.223785400390623
1.7920000000000016,0.7588958740234375,6.0091094970703125,10.955615234375
1.802000000000021,-0.6361267089843751,5.749664306640625,5.372085571289063
1.812000000000012,-0.9017028808593752,6.484933471679688,0.7123901367187501
1.8220000000000027,-0.9703399658203126,9.157443237304689,3.691748046875
1.8319999999999936,0.1514801025390625,9.420626831054689,6.727780151367188
1.842000000000013,0.25780029296875,7.817898559570313,5.131781005859375
1.852000000000004,-0.4053924560546875,7.914349365234376,6.781912231445313
1.8629999999999995,0.7107452392578125,9.353634643554688,9.552517700195311
1.8730000000000189,0.6077148437500001,8.715414428710938,6.291732788085938
1.8830000000000096,-0.356494140625,7.347906494140625,1.8069946289062504
1.893000000000001,-0.1413116455078125,7.193734741210938,4.1698150634765625
1.90300000000002,0.72674560546875,7.48338623046875,7.577444458007813
1.913000000000011,0.1607513427734375,6.870587158203126,5.159146118164063
1.9230000000000016,-0.536834716796875,7.41160888671875,3.2639251708984376
1.9330000000000207,-0.2301361083984375,9.557003784179688,6.73271484375
1.943000000000012,0.049346923828125,9.607098388671876,7.188052368164063
1.953000000000003,-0.3055023193359375,7.793524169921875,4.707846069335938
1.9629999999999936,-0.4412811279296875,7.235903930664063,5.7350097656250005
1.9730000000000127,0.0261688232421875,7.399047851562501,7.504769897460938
1.983000000000004,0.0073272705078125,6.913653564453125,5.432647705078125
1.992999999999995,-0.381317138671875,7.055862426757813,3.960165405273438
2.0030000000000143,-0.0632537841796875,8.43922119140625,5.24273681640625
2.01400000000001,0.30325927734375,8.780911254882813,5.782562255859375
2.024000000000001,0.0444122314453125,8.193533325195313,5.5246124267578125
2.03400000000002,0.0210845947265625,8.134765625,6.200814819335938
2.044000000000011,0.59156494140625,8.091250610351564,6.560000610351563
2.054000000000002,0.7632324218750001,6.485382080078126,5.768804931640625
2.0640000000000214,0.7463348388671875,4.916897583007813,5.326177978515625
2.0740000000000123,0.5467041015625,6.0584564208984375,4.775585937500001
2.084000000000003,-0.2432952880859375,10.333096313476563,4.010858154296876
2.093999999999994,-0.20994873046875,12.265402221679688,4.196282958984376
2.1040000000000134,-0.5864807128906251,10.443753051757811,4.5765533447265625
2.1140000000000043,-1.1417083740234375,7.493405151367188,8.977999877929689
2.1239999999999952,-0.320904541015625,5.582632446289063,12.229513549804688
2.1340000000000146,-0.42408447265625,6.00596923828125,7.542303466796875
2.1450000000000102,-0.21832275390625,7.049133300781251,0.2247528076171875
2.155000000000001,0.01136474609375,8.861810302734376,0.5507415771484375
2.1650000000000205,-0.4873382568359375,9.136807250976563,8.677731323242188
2.175000000000012,-1.6045227050781252,7.514340209960938,6.759182739257813
2.1850000000000023,-0.6316406250000001,7.669708251953126,5.250811767578125
2.194999999999993,1.0323974609375002,9.446347045898438,8.289984130859375
2.2050000000000125,1.595849609375,9.374569702148438,7.84825439453125
2.2150000000000034,0.241949462890625,7.65086669921875,2.65635986328125
2.2249999999999943,-0.8338134765625,7.0210205078125005,2.5512359619140628
2.2350000000000136,-0.58857421875,7.371383666992188,7.23515625
2.2450000000000045,0.8511596679687501,7.031787109375,6.373678588867188
2.2549999999999955,-0.174359130859375,7.079339599609376,3.494061279296876
2.265000000000015,-0.3521575927734375,8.933587646484376,6.0001373291015625
2.2750000000000057,0.381915283203125,9.9280029296875,7.154855346679688
2.2849999999999966,0.6377716064453125,8.546289062500001,4.792633056640625
2.2960000000000207,-0.3650177001953125,7.2408386230468755,5.294027709960938
2.306000000000012,-0.6554168701171875,7.159042358398438,7.732962036132813
2.3160000000000025,0.2277435302734375,6.958813476562501,6.0304931640625
2.3259999999999934,0.264080810546875,7.086517333984376,3.85205078125
2.3360000000000127,0.0219818115234375,8.110690307617189,4.796520996093751
2.346000000000004,0.0945068359375,8.637805175781251,5.831610107421875
2.3559999999999945,-0.022430419921875,8.217459106445313,5.771496582031251
2.366000000000014,-0.0776092529296875,8.255889892578125,6.394314575195313
2.3760000000000048,0.3046051025390625,8.256039428710938,6.369342041015625
2.385999999999996,0.0366363525390625,7.646380615234375,5.88035888671875
2.39700000000002,-0.5121612548828125,6.076849365234375,5.515341186523438
2.406000000000006,-0.3760833740234375,5.0399658203125,4.744482421875
2.4170000000000016,0.067889404296875,6.42467041015625,3.839340209960938
2.4279999999999973,-0.2944366455078125,10.591494750976564,5.019778442382813
2.437000000000012,-0.32239990234375,11.677874755859376,4.856484985351563
2.4470000000000027,0.7406524658203125,10.409060668945314,4.966842651367188
2.4569999999999936,1.4138641357421875,8.263217163085939,9.942208862304687
2.467000000000013,0.7630828857421875,6.1851135253906255,11.092141723632814
2.477000000000004,-0.448907470703125,5.755496215820313,6.161337280273438
2.4869999999999948,-0.87149658203125,6.202609252929688,1.2221588134765626
2.497000000000014,-1.3663116455078126,8.651412963867188,3.3448242187500004
2.507000000000005,-0.5748168945312501,9.388775634765626,6.113485717773438
2.516999999999996,-0.12501220703125,8.166018676757814,4.728781127929688
2.5270000000000152,-0.052337646484375,7.9684814453125,6.713125610351563
2.537000000000006,0.2779876708984375,9.181369018554689,9.62115478515625
2.548000000000002,0.4460662841796875,8.705844116210939,6.672451782226563
2.558000000000021,-0.1344329833984375,7.6685119628906255,2.3964660644531253
2.568000000000012,-0.0103179931640625,7.124349975585938,3.869097900390625
2.578000000000003,0.7565032958984376,7.380056762695313,7.306484985351563
2.587999999999994,0.61309814453125,6.940869140625001,5.122958374023438
2.598000000000013,-0.057720947265625,7.306784057617188,3.48778076171875
2.608000000000004,-0.3207550048828125,9.22877197265625,6.5245605468750005
2.617999999999995,-0.0791046142578125,9.663473510742188,6.883895874023438
2.6280000000000143,-0.24942626953125,8.225534057617189,4.9409729003906255
2.638000000000005,-0.5164978027343751,7.386038208007813,5.945108032226563
2.647999999999996,-0.18602294921875,7.261026000976563,7.284353637695313
2.6580000000000155,-0.1858734130859375,6.878811645507813,5.42935791015625
2.6680000000000064,-0.4880859375,6.968533325195313,4.439578247070313
2.679000000000002,-0.3252410888671875,8.166766357421876,5.194735717773438
2.6880000000000166,0.1670318603515625,8.76700439453125,5.136117553710938
2.6990000000000123,0.261090087890625,8.503372192382812,5.497845458984376
2.709000000000003,0.01435546875,8.228823852539064,6.729275512695313
2.718999999999994,0.538330078125,8.105456542968751,6.353042602539063
2.7290000000000134,0.7346710205078125,7.226483154296876,5.8247314453125005
2.7390000000000043,0.66094970703125,5.981146240234375,6.027651977539063
2.7489999999999952,0.69683837890625,5.605661010742188,5.3391876220703125
2.7590000000000146,0.5851348876953125,6.928457641601563,4.006521606445313
2.769000000000005,-0.21473388671875,10.297506713867188,3.341384887695313
2.7789999999999964,-0.490777587890625,12.4665283203125,4.709490966796875
2.789000000000016,-0.7787841796875,10.016229248046876,5.6442413330078125
2.7990000000000066,-1.5352874755859376,7.047637939453126,8.990859985351562
2.808999999999997,-0.64599609375,5.542855834960938,12.027639770507813
2.819000000000017,0.18841552734375,6.465942382812501,7.153060913085938
2.829000000000008,-0.1529754638671875,7.134219360351563,-0.03828125
2.838999999999998,-0.0028411865234375,8.375668334960938,0.826336669921875
2.849000000000018,-0.5776580810546875,8.992953491210939,8.71197509765625
2.8600000000000136,-1.1964385986328123,7.763168334960938,6.889877319335938
2.8700000000000045,0.09031982421875,7.847058105468751,5.519378662109375
2.8799999999999955,1.0012939453125,9.529937744140623,7.931396484375001
2.890000000000015,1.284814453125,9.494647216796876,7.451235961914063
2.9000000000000057,-0.1015350341796875,7.631726074218751,2.9291137695312504
2.9099999999999966,-0.8740386962890626,6.788940429687501,2.7537078857421875
2.920000000000016,-0.344232177734375,7.272689819335938,6.691293334960938
2.930000000000007,0.664837646484375,7.106106567382813,6.333752441406251
2.9399999999999977,-0.605621337890625,7.111041259765625,3.935791015625
2.950000000000017,-0.6637908935546876,8.920877075195314,5.872882080078125
2.960000000000008,0.456085205078125,9.973312377929688,6.914401245117188
2.969999999999999,0.8915344238281251,8.627935791015625,5.460760498046875
2.980000000000018,-0.302960205078125,7.132275390625001,5.6322784423828125
2.990000000000009,-0.5105163574218751,7.023114013671876,7.238296508789063
3.0010000000000048,0.3629241943359375,7.053021240234376,5.687457275390625
3.010999999999996,0.3512603759765625,7.137210083007813,4.0008392333984375
3.021000000000015,0.169573974609375,7.952331542968751,4.653265380859375
3.031000000000006,0.1733123779296875,8.740536499023438,5.657400512695313
3.040999999999997,-0.0716278076171875,8.438922119140626,6.111392211914063
3.051000000000016,-0.2229583740234375,8.243029785156251,6.609945678710938
3.061000000000007,0.030804443359375,8.105157470703126,6.354089355468751
3.070999999999998,0.011065673828125,7.526751708984375,5.765216064453125
3.0810000000000173,-0.439935302734375,5.625250244140625,5.460012817382813
3.091000000000008,-0.331072998046875,5.171258544921876,4.4322509765625
3.100999999999999,-0.139666748046875,7.783505249023438,4.152618408203125
3.1110000000000184,-0.2513702392578125,11.3539794921875,5.770001220703126
3.1210000000000093,0.354998779296875,10.686300659179688,3.935491943359376
3.131,0.9476104736328126,9.488366699218751,6.85294189453125
3.141999999999996,0.9894805908203126,7.205697631835938,10.206439208984376
3.1520000000000152,0.1837799072265625,6.450988769531251,8.584420776367189
3.162000000000006,-0.8852539062500001,6.176290893554688,3.5812408447265627
3.171999999999997,-1.1414093017578126,7.27822265625,2.63841552734375
3.1820000000000164,-0.3742889404296875,9.048580932617188,5.98204345703125
3.1920000000000077,0.08433837890625,8.57679443359375,5.4628540039062505
3.201999999999998,-0.6730621337890625,8.082278442382814,4.732369995117188
3.212000000000017,0.027813720703125,8.728125,8.16766357421875
3.2220000000000084,0.471636962890625,8.949288940429689,8.455520629882812
3.2319999999999998,-0.2178741455078125,7.9705749511718755,4.082785034179688
3.242000000000018,-0.268267822265625,7.505218505859376,2.6828277587890628
3.252000000000009,0.5042358398437501,7.506713867187501,6.129037475585938
3.2620000000000005,0.6954925537109375,7.232614135742188,6.4004455566406255
3.27200000000002,0.236865234375,6.993057250976563,3.988577270507813
3.2830000000000155,-0.0765625,8.119363403320314,5.360870361328125
3.2930000000000064,0.0016448974609375,9.45367431640625,7.28360595703125
3.3029999999999973,-0.0599639892578125,8.708087158203126,5.483938598632813
3.3130000000000166,-0.38101806640625,7.810272216796876,5.11533203125
3.3230000000000075,-0.326885986328125,7.585818481445313,6.865951538085938
3.3329999999999984,-0.0611602783203125,7.1825195312500005,6.227133178710938
3.3430000000000177,-0.411822509765625,6.836492919921875,4.647283935546875
3.3530000000000086,-0.4798614501953125,7.523461914062499,5.0782470703125
3.3629999999999995,-0.0539825439453125,8.614627075195314,5.366552734375
3.373000000000019,0.1876678466796875,8.582925415039064,5.140902709960938
3.3830000000000098,-0.1341339111328125,8.195477294921876,6.307583618164063
3.3930000000000007,0.225201416015625,8.132223510742188,6.634469604492188
3.40300000000002,0.6736602783203125,7.665072631835938,5.745477294921876
3.413000000000011,0.8764312744140625,6.356332397460938,5.861367797851563
3.423000000000002,0.9123199462890624,5.405133056640626,5.681774902343751
3.433999999999997,0.6027801513671875,6.265863037109376,4.242190551757813
3.444000000000017,-0.1873687744140625,10.56263427734375,3.729132080078125
3.454000000000008,-0.177947998046875,12.425405883789065,4.942468261718751
3.463999999999998,-0.44501953125,9.912301635742187,4.7899414062500005
3.4749999999999943,-1.426873779296875,7.082928466796876,8.440267944335938
3.484000000000009,-0.4568328857421875,5.445059204101563,11.795709228515626
3.494,-0.1514801025390625,6.294424438476563,7.739691162109375
3.504000000000019,-0.42408447265625,7.17294921875,0.225799560546875
3.51400000000001,-0.206060791015625,8.695526123046875,-0.045758056640625
3.524000000000001,-0.4906280517578125,9.254940795898438,9.703848266601565
3.53400000000002,-1.3338623046875,7.588809204101563,7.741635131835938
3.544000000000011,-0.4248321533203125,7.590902709960938,4.747622680664063
3.554000000000002,0.8877960205078126,9.583770751953123,7.249661254882813
3.5640000000000214,1.5672882080078123,9.498684692382811,7.965042114257813
3.575000000000017,0.305950927734375,7.567276000976563,2.9021972656250004
3.585000000000008,-0.716278076171875,7.0616943359375,1.6792907714843752
3.594999999999999,-0.7008758544921876,7.4531799316406255,6.843222045898438
3.605000000000018,0.8459259033203126,7.127340698242188,7.546340942382813
3.615000000000009,-0.35350341796875,6.891671752929688,4.030447387695313
3.625,-0.6089111328125001,8.8537353515625,5.2345123291015625
3.6350000000000193,0.5363861083984376,10.064678955078126,7.414450073242188
3.64500000000001,0.708203125,8.379855346679689,5.726187133789063
3.655000000000001,-0.49765625,6.983786010742188,4.698126220703125
3.665000000000021,-0.5939575195312501,7.237548828125001,7.084124755859375
3.676000000000016,0.27813720703125,7.195828247070313,6.289340209960938
3.6850000000000014,0.2331268310546875,7.149472045898438,3.6874114990234377
3.694999999999993,0.146844482421875,8.001828002929688,4.16727294921875
3.705000000000013,0.244342041015625,8.776275634765625,6.578094482421876
3.7150000000000034,-0.06639404296875,8.225384521484376,6.705648803710938
3.725999999999999,-0.1505828857421875,8.014987182617189,5.930453491210938
3.7360000000000175,0.29129638671875,8.365948486328126,6.055764770507813
3.746000000000009,0.1505828857421875,7.753598022460938,6.226684570312501
3.756,-0.5169464111328126,6.249713134765625,5.202362060546875
3.76600000000002,-0.8705993652343751,4.864111328125,4.503729248046875
3.7760000000000105,-0.1727142333984375,6.259283447265625,4.282116699218751
3.786000000000002,-0.256005859375,10.713217163085938,5.262774658203125
3.7960000000000207,-0.5181427001953125,11.537759399414064,4.480999755859376
3.806000000000012,0.3952239990234375,10.128680419921876,4.561151123046876
3.8160000000000025,1.2374114990234375,8.150616455078126,9.834094238281253
3.8259999999999934,1.4135650634765626,6.487026977539063,11.063131713867188
3.8360000000000127,-0.2211639404296875,5.906378173828125,5.9279113769531255
3.846000000000004,-0.9078338623046877,6.401940917968751,1.4533416748046877
3.8559999999999945,-0.9558349609375,8.495446777343751,3.8907806396484377
3.867000000000018,0.44322509765625,9.529040527343753,6.445904541015626
3.8770000000000095,0.4329071044921875,7.90806884765625,4.8008575439453125
3.887000000000001,-0.5896209716796875,7.974911499023438,6.276181030273438
3.89700000000002,0.26138916015625,9.209033203125,9.369036865234376
3.9070000000000102,0.280230712890625,8.804986572265626,6.534429931640625
3.9170000000000016,-0.399560546875,7.7761779785156255,2.1886108398437503
3.927000000000021,-0.4631134033203125,7.26566162109375,3.805395507812501
3.937000000000012,0.433953857421875,7.367794799804688,7.371533203125001
3.9470000000000023,0.193499755859375,6.7309204101562505,5.483938598632813
3.9569999999999936,-0.1825836181640625,7.2378479003906255,3.668569946289063
3.967000000000013,-0.008673095703125,9.260922241210938,6.390426635742188
3.977000000000004,0.142657470703125,9.630426025390626,7.008609008789063
3.9869999999999943,-0.2005279541015625,8.07794189453125,4.873382568359375
3.997000000000014,-0.2250518798828125,7.506863403320313,5.781964111328126
4.007000000000005,0.210546875,7.42357177734375,7.371533203125001
4.016999999999996,-0.0518890380859375,6.829763793945313,5.503976440429688
4.02800000000002,-0.5656951904296875,7.001431274414063,4.194039916992188
4.038000000000011,-0.224603271484375,8.209234619140625,5.128042602539063
4.048000000000002,0.107366943359375,8.698367309570314,5.583230590820313
4.058000000000021,-0.25421142578125,8.249011230468751,5.687905883789063
4.068000000000012,-0.1016845703125,8.139251708984375,6.418838500976563
4.078000000000003,0.2930908203125,8.321835327148438,6.542355346679688
4.087999999999994,0.509918212890625,7.142593383789063,5.574407958984375
4.098000000000013,0.5938079833984375,5.714224243164063,5.468536376953125
4.108000000000004,0.6404632568359375,5.454928588867188,5.065237426757813
4.117999999999995,0.39417724609375,7.353738403320313,4.137814331054688
4.128000000000014,-0.0859832763671875,12.203195190429687,4.35269775390625
4.138000000000005,-0.2074066162109375,11.225527954101564,4.315911865234376
4.147999999999996,-1.0585662841796877,9.471917724609376,6.025259399414063
4.158000000000016,-1.1331848144531251,6.22130126953125,11.223135375976565
4.169000000000011,0.34871826171875,5.834002685546875,11.28399658203125
4.179000000000002,-0.1909576416015625,6.434390258789063,3.78804931640625
4.189000000000021,-0.249725341796875,7.424020385742188,-0.69085693359375
4.199000000000012,0.281427001953125,9.355728149414062,4.85753173828125
4.209000000000003,-1.0319488525390623,8.62344970703125,8.457464599609375
4.218999999999994,-1.3218994140625,7.168463134765625,4.804296875
4.229000000000013,0.0109161376953125,8.597280883789063,6.379061889648438
4.239000000000004,1.39786376953125,9.767849731445311,9.30413818359375
4.248999999999995,0.8092895507812501,8.5833740234375,5.679681396484376
4.259000000000015,-0.4720855712890625,7.219305419921875,1.3364044189453126
4.2690000000000055,-1.0702301025390626,7.221997070312501,4.798764038085938
4.278999999999996,0.4729827880859375,7.438674926757813,7.793823242187501
4.289000000000016,0.4658050537109375,6.638058471679688,4.726837158203125
4.299000000000007,-0.55567626953125,7.61617431640625,3.736309814453125
4.310000000000002,0.1152923583984375,9.762765502929687,7.208837890625
4.319999999999993,0.7729522705078126,9.4351318359375,6.495999145507813
4.3300000000000125,0.21712646484375,7.831655883789063,4.496701049804688
4.340000000000003,-0.6829315185546876,7.159790039062501,6.397903442382813
4.349999999999994,-0.1016845703125,7.217660522460938,7.5264526367187505
4.360000000000014,0.23626708984375,6.8729797363281255,4.653414916992188
4.3700000000000045,0.055328369140625,7.350299072265625,3.9100708007812495
4.379999999999996,-0.0227294921875,8.489614868164063,5.651419067382813
4.390000000000015,-0.0919647216796875,8.495745849609376,6.017782592773438
4.400000000000006,-0.202471923828125,8.288638305664064,5.723794555664063
4.409999999999997,0.0227294921875,8.285348510742189,6.451437377929688
4.420000000000016,0.1903594970703125,8.140597534179689,6.456820678710938
4.430000000000007,-0.3348114013671875,6.714321899414063,5.359225463867188
4.439999999999998,-0.4388885498046875,5.051480102539063,4.953683471679688
4.450000000000017,-0.1096099853515625,5.62674560546875,4.615582275390626
4.460000000000008,-0.0862823486328125,9.284249877929687,4.674798583984376
4.471000000000004,-0.2845672607421875,11.381195068359377,4.764071655273438
4.4809999999999945,0.5160491943359375,10.73310546875,4.291088867187501
4.491000000000014,1.4895294189453123,9.171798706054688,8.651712036132814
4.501000000000005,1.36676025390625,6.977056884765625,10.822079467773438
4.510999999999996,-0.171966552734375,6.111093139648438,7.622454833984375
4.521000000000015,-0.92413330078125,5.890228271484375,2.6943420410156254
4.531000000000006,-1.4104248046875,7.952032470703125,3.0660888671875
4.540999999999997,-0.87568359375,9.12589111328125,5.560052490234376
4.551000000000016,-0.2480804443359375,8.353686523437501,4.316061401367188
4.561000000000007,-0.2118927001953125,7.978948974609375,5.694485473632813
4.570999999999998,-0.009869384765625,8.841921997070314,9.155499267578126
4.581000000000017,0.31103515625,8.849996948242188,7.7292236328125
4.592000000000013,-0.1598541259765625,7.97147216796875,3.490472412109375
4.602000000000004,-0.1502838134765625,7.38170166015625,3.4314056396484376
4.611999999999995,0.5609100341796875,7.432693481445313,6.732266235351563
4.622000000000014,0.7146331787109376,6.928607177734375,5.7960205078125
4.632000000000005,0.602032470703125,7.020870971679688,3.72823486328125
4.641999999999996,-0.0895721435546875,8.659188842773439,5.785552978515625
4.652000000000015,0.003289794921875,9.55520935058594,6.610543823242188
4.662000000000006,-0.11783447265625,8.687301635742188,5.179632568359375
4.671999999999997,-0.4717864990234375,7.697671508789063,5.804394531250001
4.682000000000016,-0.2752960205078125,7.497592163085938,7.222445678710938
4.693000000000012,-0.214434814453125,6.921878051757813,5.866900634765625
4.703000000000003,-0.6177337646484375,6.857278442382813,4.854241943359376
4.7120000000000175,-0.5598632812500001,7.766757202148438,5.096340942382813
4.722000000000008,0.076263427734375,8.571112060546875,5.0774993896484375
4.731999999999999,0.040972900390625,8.479446411132812,5.2684570312500005
4.742000000000019,-0.0394775390625,8.307778930664064,6.442166137695313
4.7520000000000095,0.3959716796875,8.163626098632813,6.463998413085938
4.763000000000005,0.6966888427734376,7.695877075195313,5.6811767578125005
4.772999999999996,0.751568603515625,6.366650390625001,5.9029388427734375
4.783000000000016,0.772802734375,5.2823638916015625,5.648428344726563
4.793000000000006,0.6776977539062501,6.105709838867188,4.543057250976563
4.802999999999997,-0.1780975341796875,9.345260620117188,3.95732421875
4.813000000000017,-0.2630340576171875,12.929193115234376,4.2650695800781255
4.823000000000008,-0.5324981689453125,10.97236328125,4.718911743164063
4.832999999999998,-1.5005950927734375,7.948443603515625,8.005865478515625
4.843000000000018,-0.8761322021484376,5.4972473144531255,12.286337280273438
4.853000000000009,0.0168975830078125,5.695980834960938,8.888726806640626
4.863,-0.2124908447265625,6.618020629882813,0.8560943603515626
4.873000000000005,-0.12860107421875,8.5474853515625,-0.398065185546875
4.88300000000001,0.2906982421875,9.450982666015626,7.568771362304688
4.8940000000000055,-1.257598876953125,7.961303710937501,7.378112792968751
4.904000000000011,-0.59036865234375,7.357327270507813,5.5066680908203125
4.914000000000016,0.8399444580078126,9.143984985351564,7.962350463867188
4.924000000000007,1.4965576171875,9.565676879882814,8.293572998046876
4.934000000000012,0.2214630126953125,7.992706298828126,3.4975006103515627
4.944000000000017,-0.643902587890625,6.913504028320313,1.5517364501953126
4.954000000000008,-0.7786346435546876,7.451684570312499,6.441717529296875
4.964000000000013,0.8034576416015625,7.1002746582031255,7.098031616210938
4.974000000000018,-0.2537628173828125,6.7339111328125005,4.050933837890625
4.984000000000009,-0.8703002929687501,8.539559936523439,5.014245605468751
4.994000000000014,0.3102874755859375,10.254888916015624,7.197174072265626
5.004000000000005,0.8972167968750001,8.8716796875,5.758486938476563
5.01400000000001,-0.250921630859375,7.176837158203125,5.170510864257813
5.024000000000015,-0.66334228515625,7.0497314453125,7.090554809570313
5.035000000000011,0.30565185546875,7.083975219726563,6.504821777343751
5.045000000000016,0.2133880615234375,6.938327026367188,4.005923461914063
5.055000000000007,0.067889404296875,7.808926391601563,4.219610595703125
5.065000000000012,0.23387451171875,8.756088256835938,5.746075439453126
5.075000000000017,-0.029010009765625,8.476605224609376,6.26077880859375
5.085000000000008,-0.2510711669921875,8.131326293945314,6.4049316406250005
5.095000000000013,0.061309814453125,8.249459838867189,6.2793212890625005
5.105000000000018,0.119927978515625,7.906573486328125,5.960061645507813
5.115000000000009,-0.466552734375,6.114382934570313,5.534930419921875
5.125000000000014,-0.8119812011718751,4.858428955078125,5.068377685546875
5.135000000000005,-0.3887939453125,6.606207275390625,4.2863037109375
5.14500000000001,-0.2450897216796875,10.636654663085938,4.876821899414063
5.155000000000015,-0.2552581787109375,11.11651611328125,4.308734130859375
5.165000000000006,0.6129486083984376,10.206140136718751,5.126248168945313
5.175000000000011,1.5424652099609375,8.265310668945313,9.367990112304687
5.186000000000007,1.529605102539063,6.642843627929688,10.329656982421875
5.196000000000012,-0.3638214111328125,5.546893310546875,5.938079833984375
5.206000000000017,-0.94267578125,6.708938598632813,2.1217681884765627
5.216000000000008,-1.2030181884765625,8.535372924804689,3.8940704345703128
5.226000000000013,0.1374237060546875,9.265109252929689,5.776132202148438
5.236000000000004,0.3194091796875,8.063735961914062,4.776632690429688
5.246000000000009,-0.32718505859375,8.252151489257812,6.824081420898438
5.256000000000014,0.1780975341796875,8.9482421875,9.33524169921875
5.266000000000005,-0.088824462890625,8.420230102539064,6.435137939453125
5.2760000000000105,-0.43604736328125,7.784103393554688,2.370745849609375
5.286000000000016,-0.0157012939453125,7.521966552734375,4.12779541015625
5.296000000000007,0.686370849609375,7.362710571289063,7.162033081054688
5.306000000000012,0.2423980712890625,6.845315551757813,5.192642211914063
5.316000000000017,-0.0788055419921875,7.376318359375,3.7783294677734376
5.325999999999993,0.013458251953125,9.355130004882811,6.63701171875
5.3370000000000175,0.098095703125,9.458309936523438,6.713574218750001
5.347000000000008,-0.2711090087890625,8.2316650390625,4.7331176757812505
5.3570000000000135,-0.2839691162109375,7.572509765625001,5.8177032470703125
5.367000000000004,0.1505828857421875,7.286148071289063,7.304989624023438
5.3770000000000095,-0.1912567138671875,6.652114868164063,5.59085693359375
5.387000000000015,-0.6688751220703125,7.009655761718751,4.498794555664063
5.397000000000006,-0.3505126953125,8.285647583007814,5.091705322265625
5.407000000000011,0.131890869140625,8.811566162109376,5.3536926269531255
5.417000000000016,-0.188714599609375,8.224337768554689,5.7006164550781255
5.427000000000007,-0.2184722900390625,8.083624267578125,6.685610961914063
5.437000000000012,0.42288818359375,7.98582763671875,6.494802856445313
5.447000000000017,0.5957519531250001,7.124349975585938,5.499789428710938
5.456999999999994,0.533544921875,6.02032470703125,5.397207641601563
5.467000000000013,0.462066650390625,5.812020874023438,5.399600219726563
5.478000000000009,0.0145050048828125,7.273886108398438,4.511505126953125
5.488000000000014,-0.253912353515625,11.136553955078126,4.064093017578125
5.498000000000005,-0.322100830078125,12.51602478027344,5.014694213867188
5.50800000000001,-0.648388671875,9.287838745117188,5.896359252929688
5.518000000000015,-0.203070068359375,6.205001831054688,9.164321899414062
5.528000000000006,0.3832611083984375,5.5066680908203125,10.82447204589844
5.538000000000011,-0.031103515625,6.410165405273438,5.355487060546875
5.548000000000016,-0.2053131103515625,7.332803344726563,-0.35589599609375
5.558000000000007,-0.1475921630859375,9.364849853515626,3.2938323974609376
5.568000000000012,-0.52935791015625,9.126040649414064,8.647225952148439
5.578000000000017,-1.00787353515625,7.580136108398438,7.18431396484375
5.587999999999994,-0.28890380859375,7.843319702148438,6.126943969726563
5.599000000000018,0.7141845703125,9.476553344726565,7.769000244140625
5.609000000000009,0.5682373046875,8.99908447265625,6.008062744140625
5.619000000000014,-0.5271148681640625,7.094891357421876,2.0630004882812503
5.629000000000005,-1.0654449462890625,7.003823852539063,3.3647125244140628
5.63900000000001,-0.0198883056640625,7.406674194335938,6.919635009765625
5.649000000000015,0.727642822265625,7.098629760742188,6.160140991210938
5.659000000000006,-0.1610504150390625,7.634268188476563,4.417446899414063
5.669000000000011,0.1320404052734375,9.526348876953126,6.371734619140626
5.679000000000016,0.8420379638671875,9.762167358398438,6.908569335937501
5.689000000000007,0.4939178466796875,7.774383544921876,5.249615478515626
5.699000000000012,-0.3102874755859375,6.823333740234376,5.9054809570312505
5.709000000000017,-0.0297576904296875,7.0105529785156255,7.031637573242188
5.718999999999994,0.021234130859375,7.096536254882813,5.16258544921875
5.729000000000013,-0.023626708984375,7.455422973632813,3.4417236328125003
5.739000000000004,-0.083740234375,8.62464599609375,4.863064575195313
5.748999999999995,-0.22071533203125,8.73111572265625,6.406277465820313
5.759000000000015,-0.6135467529296875,8.099774169921876,6.531289672851563
5.77000000000001,-0.365765380859375,7.984182739257813,6.570767211914063
5.780000000000015,0.0901702880859375,7.625595092773438,6.215768432617188
5.790000000000006,-0.112451171875,6.192889404296875,5.2624755859375005
5.800000000000011,-0.300567626953125,4.757641601562501,4.608554077148438
5.8100000000000165,-0.1679290771484375,6.888681030273438,3.8396392822265626
5.819999999999993,-0.0668426513671875,12.195718383789064,4.9025421142578125
5.8300000000000125,0.47791748046875,11.372970581054688,4.236956787109375
5.840000000000018,1.0777069091796876,9.152957153320314,6.488372802734376
5.849999999999994,0.5733215332031251,7.031787109375,11.190386962890626
5.860000000000014,0.7675689697265625,6.260928344726563,10.335787963867189
5.8700000000000045,-0.336456298828125,6.394613647460938,3.979904174804688
5.879999999999996,-0.7448394775390625,7.0584045410156255,0.5703308105468751
5.890000000000015,-0.9694427490234376,9.314007568359376,4.8078857421875005
5.9010000000000105,0.141461181640625,8.933737182617188,6.886886596679688
5.911000000000016,-1.0413696289062502,7.239941406250001,4.947552490234376
5.921000000000007,-0.5510406494140625,8.300750732421875,6.448446655273438
5.931000000000012,0.7016235351562501,9.606051635742189,8.956765747070314
5.941000000000017,0.473431396484375,8.501876831054688,5.552276611328125
5.950999999999993,-0.6072662353515625,7.23575439453125,2.12401123046875
5.961000000000013,0.093310546875,7.335943603515625,4.903140258789063
5.971000000000018,1.13946533203125,7.49295654296875,7.686007690429688
5.9809999999999945,0.640911865234375,6.63760986328125,4.8068389892578125
5.991000000000014,-0.426776123046875,7.663128662109376,3.5964935302734378
6.001000000000005,0.17047119140625,9.726727294921876,6.667816162109376
6.010999999999996,0.4029998779296875,9.219351196289065,6.812567138671875
6.021000000000015,-0.346923828125,7.521966552734375,5.013946533203125
6.031000000000006,-0.6104064941406251,7.20823974609375,6.478802490234376
6.041000000000011,-0.26378173828125,7.474713134765626,7.289437866210938
6.052000000000007,-0.414813232421875,7.087713623046875,4.763323974609375
6.062000000000012,-0.6488372802734376,7.365402221679688,3.8888366699218753
6.072000000000017,-0.303857421875,8.370733642578125,5.538668823242188
6.081999999999994,0.087030029296875,8.490213012695314,5.996697998046876
6.093999999999994,-0.0372344970703125,8.090203857421876,5.5690246582031255
6.102000000000018,0.246734619140625,8.2914794921875,6.171954345703125
6.111999999999995,0.682781982421875,7.969528198242188,6.287844848632813
6.122000000000014,0.9380401611328124,6.453680419921875,5.704354858398438
6.132000000000005,0.9334045410156252,5.323934936523438,5.589361572265625
6.141999999999996,0.78775634765625,6.0950927734375,4.958169555664063
6.152000000000015,0.082244873046875,9.370083618164063,3.6264007568359378
6.162000000000006,0.050543212890625,12.734347534179689,4.045401000976563
6.172000000000011,-0.57840576171875,10.371078491210938,5.230325317382813
6.182000000000016,-1.5871765136718752,7.975210571289063,8.177084350585938
6.193000000000012,-1.4258270263671875,5.985781860351563,12.024798583984376
6.203000000000017,-0.058319091796875,6.105111694335938,8.871530151367189
6.212999999999994,-0.2965301513671875,6.553720092773438,1.270458984375
6.223000000000013,-0.3348114013671875,8.4123046875,0.090020751953125
6.233000000000004,-0.0916656494140625,9.402532958984375,6.653460693359375
6.242999999999995,-1.1300445556640626,8.048333740234376,6.551327514648438
6.253000000000014,-0.2989227294921875,7.453778076171876,5.274139404296875
6.263000000000005,0.7711578369140626,9.032281494140626,7.974014282226563
6.272999999999996,1.3957702636718752,9.252398681640626,8.4888671875
6.283000000000016,0.2739501953125,7.87935791015625,4.2396484375000005
6.294000000000011,-0.5510406494140625,7.091003417968751,2.4076812744140628
6.303000000000012,0.0722259521484375,7.6000244140625,6.1884033203125
6.313000000000017,0.763531494140625,7.257437133789063,6.630282592773438
6.323000000000008,-0.392083740234375,6.873428344726563,3.842779541015626
6.333000000000013,-0.698333740234375,8.496343994140625,4.997048950195313
6.343999999999994,0.1682281494140625,9.856076049804688,6.820642089843751
6.354000000000013,0.5612091064453125,8.670703125000001,5.3765716552734375
6.364000000000004,-0.44202880859375,7.308279418945313,5.565286254882813
6.373999999999995,-0.5603118896484376,7.108798217773438,7.467236328125001
6.384000000000015,0.1760040283203125,7.102966308593751,6.427511596679688
6.3940000000000055,0.2316314697265625,7.0524230957031255,4.20914306640625
6.404000000000011,0.1350311279296875,7.951284790039063,4.5135986328125
6.414000000000016,0.2284912109375,8.675189208984376,5.703158569335938
6.424000000000007,-0.0865814208984375,8.320489501953126,5.7952728271484375
6.434000000000012,-0.149835205078125,8.054614257812501,6.370239257812501
6.444000000000017,0.1667327880859375,8.34949951171875,6.2165161132812505
6.454000000000008,0.0871795654296875,7.824777221679688,5.5814361572265625
6.464000000000013,-0.431561279296875,5.741738891601563,5.523266601562501
6.474000000000018,-0.7910461425781251,4.8617187500000005,5.376272583007813
6.484000000000009,-0.3225494384765625,6.997991943359375,4.19119873046875
6.4950000000000045,-0.112750244140625,11.2774169921875,4.783810424804688
6.504999999999996,0.1027313232421875,11.125189208984375,4.039569091796875
6.515000000000015,0.9674987792968752,10.096380615234375,5.7481689453125
6.525000000000006,1.5617553710937502,7.888180541992188,10.300048828125
6.535000000000011,0.7855133056640625,6.323733520507813,11.038308715820314
6.545000000000016,-0.765325927734375,5.635418701171876,5.372982788085938
6.555000000000007,-0.9637603759765626,6.7243408203125,0.9443206787109376
6.565000000000012,-1.15262451171875,9.2628662109375,4.08592529296875
6.575000000000017,-0.1736114501953125,9.199313354492189,5.61956787109375
6.585000000000008,-0.02093505859375,7.5593505859375005,4.0015869140625
6.595000000000013,-0.2735015869140625,8.244674682617188,7.190744018554688
6.605000000000018,0.518890380859375,8.953326416015626,10.091445922851562
6.616000000000014,-0.0234771728515625,8.45477294921875,6.209786987304688
6.625000000000014,-0.5929107666015625,7.712176513671875,1.761834716796875
6.635000000000005,0.19918212890625,7.610043334960938,4.703958129882813
6.646000000000015,0.9036468505859376,7.423870849609376,7.989117431640626
6.656000000000006,0.384906005859375,6.507214355468751,4.528103637695313
6.666000000000011,-0.2020233154296875,7.574453735351563,3.269158935546875
6.676000000000016,-0.1042266845703125,9.580780029296877,6.575701904296875
6.686000000000007,0.1063201904296875,9.24671630859375,6.635665893554688
6.696000000000012,-0.2319305419921875,7.846310424804688,4.736706542968751
6.706000000000017,-0.233575439453125,7.422674560546875,6.648226928710938
6.716000000000008,-0.09091796875,7.298260498046876,7.662680053710938
6.726000000000013,-0.3865509033203125,6.925915527343751,5.1896514892578125
6.736000000000004,-0.6582580566406251,7.36495361328125,3.979904174804688
6.746000000000009,-0.2041168212890625,8.505465698242189,5.249166870117188
6.756000000000014,0.2086029052734375,8.346807861328125,5.555117797851563
6.766000000000005,0.035888671875,7.987472534179688,5.850302124023438
6.7760000000000105,0.0581695556640625,8.17783203125,6.436035156250001
6.786000000000016,0.6253601074218751,7.92003173828125,6.064138793945313
6.797000000000011,0.7556060791015625,6.660339355468751,5.452236938476563
6.807000000000016,0.8388977050781251,5.490069580078125,5.698223876953126
6.817000000000007,0.3910369873046875,6.391174316406251,5.049835205078125
6.827000000000012,-0.1215728759765625,10.097427368164062,4.245928955078125
6.8370000000000175,0.098992919921875,11.824569702148438,4.171160888671875
6.848000000000013,-0.7907470703125,9.897198486328126,5.110546875000001
6.8570000000000135,-1.84647216796875,7.445553588867188,8.524905395507814
6.867000000000004,-0.4505523681640625,6.036175537109376,11.290576171875
6.8770000000000095,0.244342041015625,6.558505249023438,7.063638305664063
6.887000000000015,-0.215631103515625,6.93070068359375,0.6063690185546875
6.897000000000006,0.322998046875,8.822482299804689,2.7895965576171875
6.907000000000011,-0.4306640625,8.990261840820313,7.548583984375001
6.918000000000006,-1.16937255859375,7.807431030273438,6.055914306640625
6.928000000000012,-0.07177734375,8.009603881835938,5.3297668457031255
6.938000000000017,1.2176727294921876,9.170004272460938,8.103662109375001
6.948000000000008,1.0648468017578123,8.77178955078125,7.469479370117188
6.958000000000013,-0.322100830078125,7.456918334960938,3.193194580078125
6.968000000000018,-0.8629730224609375,7.309326171875001,3.175399780273438
6.978000000000009,-0.0925628662109375,7.702456665039063,6.562692260742188
6.988000000000014,0.3648681640625,7.093395996093751,5.835348510742188
6.998000000000005,-0.4915252685546875,7.1573974609375,4.2281341552734375
7.00800000000001,-0.1511810302734375,8.82083740234375,6.367248535156251
7.018000000000015,0.4218414306640625,9.52530212402344,6.4970458984375
7.028000000000006,0.596051025390625,8.432492065429688,4.7126312255859375
7.039000000000016,-0.32359619140625,7.381103515625001,6.098980712890626
7.048000000000016,-0.3551483154296875,7.040908813476563,7.433441162109376
7.058000000000007,0.2211639404296875,7.008758544921876,5.47900390625
7.068000000000012,0.3548492431640625,7.2650634765625,4.151870727539063
7.079000000000008,0.0701324462890625,8.330807495117188,5.213726806640626
7.089000000000013,-0.1257598876953125,8.530438232421876,5.50950927734375
7.099000000000018,-0.3237457275390625,8.216262817382812,5.837292480468751
7.109000000000009,-0.1613494873046875,8.090353393554688,6.71776123046875
7.119000000000014,0.051739501953125,8.077044677734376,6.421829223632813
7.129000000000005,-0.28651123046875,6.749014282226563,5.101873779296875
7.13900000000001,-0.7146331787109376,5.146884155273438,5.248419189453125
7.149000000000015,-0.40255126953125,6.0749053955078125,4.848110961914063
7.159000000000006,-0.1736114501953125,10.080081176757814,4.583731079101563
7.169000000000011,-0.209649658203125,11.2343505859375,4.3114257812500005
7.179000000000016,0.6497344970703125,9.866094970703124,5.020974731445313
7.189000000000007,1.3127777099609377,8.11083984375,9.216061401367188
7.199000000000012,1.4884826660156252,6.9342895507812505,10.012640380859375
7.211000000000013,0.027215576171875,6.602767944335938,6.228030395507813
7.220000000000013,-0.774298095703125,6.655703735351563,2.5135528564453127
7.230000000000018,-0.9814056396484376,8.126541137695312,4.126748657226563
7.240000000000009,0.3074462890625,9.19886474609375,6.348855590820313
7.250000000000014,-0.2169769287109375,7.996893310546875,4.895065307617188
7.260000000000005,-0.6721649169921875,8.09708251953125,5.696728515625001
7.27000000000001,0.1224700927734375,8.98831787109375,8.493203735351564
7.280000000000015,0.0330474853515625,8.581729125976564,6.7548461914062505
7.290000000000006,-0.5953033447265625,7.767654418945313,3.343328857421876
7.300000000000011,-0.295184326171875,7.423123168945313,3.84068603515625
7.311000000000007,0.71119384765625,7.715167236328125,6.743182373046875
7.319999999999993,0.5923126220703125,7.023712158203126,5.5545196533203125
7.3300000000000125,-0.019140625,7.117471313476563,4.068878173828125
7.340000000000018,0.183331298828125,8.794219970703125,6.366799926757813
7.349999999999994,0.26318359375,9.188247680664062,6.693685913085938
7.360000000000014,-0.0934600830078125,8.196224975585938,4.996002197265625
7.371000000000009,-0.2579498291015625,7.673596191406251,5.706747436523438
7.381000000000014,-0.0825439453125,7.630230712890626,6.9985900878906255
7.391000000000005,-0.203668212890625,7.086666870117188,5.60162353515625
7.40100000000001,-0.5713775634765625,7.037619018554688,4.695135498046875
7.411000000000016,-0.551190185546875,8.007958984375001,5.4304046630859375
7.4210000000000065,-0.130096435546875,8.457464599609375,5.320645141601563
7.431000000000012,-0.1496856689453125,8.232263183593751,5.449993896484376
7.441000000000017,-0.1395172119140625,8.238095092773438,6.384445190429688
7.450999999999993,0.3425872802734375,8.004071044921876,6.19737548828125
7.461000000000013,0.7923919677734376,6.73271484375,5.384796142578125
7.471000000000018,1.0256683349609377,5.3390380859375,5.605511474609376
7.480999999999994,1.1017822265625,5.491714477539063,4.60631103515625
7.491000000000014,0.2462860107421875,10.46453857421875,4.271649169921876
7.501000000000005,-0.00538330078125,12.65479431152344,4.5571136474609375
7.512000000000015,-0.1610504150390625,10.442257690429688,4.5855255126953125
7.522000000000006,-1.4391357421875002,7.3129150390625,9.03482360839844
7.532000000000011,-0.7732513427734375,5.2221008300781255,12.422415161132813
7.542000000000016,-0.4556365966796875,6.178533935546875,7.866049194335938
7.552000000000007,-0.2032196044921875,6.845166015625001,0.170770263671875
7.562000000000012,-0.1614990234375,8.89381103515625,-0.4891326904296875
7.572000000000017,-0.8792724609375001,9.434384155273438,8.845660400390626
7.581999999999994,-1.39068603515625,7.624847412109376,7.3574768066406255
7.592000000000013,-0.9008056640625,7.422674560546875,5.13865966796875
7.602000000000018,0.7932891845703126,9.372177124023438,8.088708496093751
7.611999999999995,1.5302032470703126,9.362008666992187,8.001080322265626
7.622000000000014,0.6304443359375,7.583425903320313,3.146987915039063
7.632000000000005,-0.5647979736328126,7.031338500976563,2.3083892822265626
7.641999999999996,-0.25899658203125,7.555911254882813,6.711032104492188
7.652000000000015,1.2167755126953126,7.339233398437501,6.827969360351563
7.663000000000011,-0.009869384765625,6.946401977539063,3.7529083251953126
7.673000000000016,-0.7986724853515625,8.867343139648439,5.448199462890625
7.683000000000007,0.2358184814453125,9.957760620117188,7.148724365234376
7.693000000000012,0.5964996337890626,8.541653442382813,5.2494659423828125
7.703000000000017,-0.5689849853515625,7.069769287109375,5.033984375
7.712999999999994,-0.9574798583984376,7.008758544921876,7.4920593261718755
7.723000000000013,-0.0976470947265625,7.114480590820313,6.389678955078126
7.733000000000004,0.1628448486328125,7.089208984375,3.7452819824218753
7.742999999999995,0.1939483642578125,8.238095092773438,4.444363403320313
7.753000000000014,0.1685272216796875,8.695376586914064,6.100476074218751
7.763000000000005,0.069085693359375,8.266207885742189,6.229675292968751
7.772999999999996,0.04964599609375,8.063586425781251,6.2284790039062505
7.783000000000015,0.4771697998046875,8.236001586914064,6.201861572265625
7.793000000000006,0.3916351318359375,7.642791748046876,5.8476104736328125
7.8030000000000115,-0.2811279296875,6.104364013671876,5.368197631835938
7.814000000000007,-0.459375,5.101574707031251,4.8277740478515625
7.824000000000012,0.0575714111328125,6.755743408203125,4.140954589843751
7.834000000000017,-0.3303253173828125,10.655197143554688,5.355487060546875
7.843999999999994,0.0179443359375,11.1936767578125,4.493560791015625
7.854000000000013,0.8196075439453125,10.330853271484376,5.16497802734375
7.864000000000004,0.8199066162109375,8.074652099609375,9.379653930664062
7.873999999999995,0.557769775390625,6.429156494140625,10.38857421875
7.8840000000000146,-0.7861114501953126,5.826824951171876,6.196777343750001
7.894000000000005,-1.0593139648437502,6.361865234375,1.9125671386718752
7.904000000000011,-1.44093017578125,8.5953369140625,3.5573150634765627
7.914000000000016,-0.7271942138671875,9.329559326171877,6.223245239257813
7.924000000000007,-0.1614990234375,8.023959350585939,4.914804077148438
7.935000000000016,0.009869384765625,8.18680419921875,6.517681884765626
7.944999999999993,0.371148681640625,8.938372802734376,9.111984252929688
7.9550000000000125,0.482403564453125,8.618515014648438,6.6884521484375
7.965000000000018,0.260791015625,7.657147216796876,2.5672363281250004
7.974999999999994,0.2370147705078125,7.350448608398438,3.744085693359376
7.985000000000014,0.8542999267578125,7.680624389648438,6.917990112304688
7.995000000000003,0.6503326416015626,6.945654296875,5.37193603515625
8.004999999999995,-0.27694091796875,7.257736206054688,3.9387817382812496
8.015000000000015,-0.4344024658203125,8.992654418945314,6.573309326171875
8.025000000000006,-0.157611083984375,9.46982421875,6.993356323242188
8.03500000000001,-0.3732421875,8.150616455078126,4.9115142822265625
8.045000000000016,-0.4705902099609375,7.449291992187501,5.705700683593751
8.055000000000007,-0.2630340576171875,7.410861206054688,7.210183715820313
8.065000000000012,-0.2761932373046875,6.92471923828125,5.4251708984375
8.075000000000017,-0.408831787109375,7.102966308593751,4.4119140625
8.086000000000013,-0.17525634765625,8.232113647460938,5.029946899414063
8.096000000000018,0.3552978515625,8.799304199218751,5.394665527343751
8.105999999999995,0.3289794921875,8.183364868164062,5.7601318359375
8.116000000000014,0.087628173828125,8.124447631835938,6.752304077148438
8.126000000000005,0.664837646484375,8.095736694335939,6.229824829101563
8.135999999999996,0.7849151611328126,7.441815185546876,5.769253540039063
8.146000000000015,0.5347412109375,5.954379272460938,5.886788940429688
8.156000000000006,0.6313415527343751,5.663531494140625,5.000637817382813
8.166000000000011,0.4637115478515625,6.765014648437501,3.935043334960938
8.176000000000016,-0.2785858154296875,10.072006225585938,3.700271606445313
8.186000000000007,-0.6769500732421876,12.695916748046876,4.907626342773438
8.196000000000012,-0.8851043701171876,10.390817260742187,5.456573486328125
8.206000000000017,-1.5660919189453126,7.4053283691406255,9.054861450195313
8.216000000000008,-0.4018035888671875,5.485882568359376,12.462939453125
8.226000000000013,0.0575714111328125,5.836395263671875,7.649072265625
8.236999999999995,-0.2715576171875,6.551776123046875,-0.0203369140625
8.247000000000014,-0.1293487548828125,8.737695312500001,-0.074169921875
8.257000000000005,0.2954833984375,9.467282104492188,8.3823974609375
8.266999999999996,-1.09400634765625,7.824179077148438,7.006665039062501
8.277000000000015,-0.435748291015625,7.618417358398438,5.610147094726563
8.287000000000006,0.9374420166015626,9.539208984375,8.365649414062501
8.297000000000011,1.54500732421875,9.584368896484376,7.880703735351563
8.307000000000016,0.2313323974609375,7.610043334960938,2.757894897460938
8.317000000000007,-0.8125793457031251,6.821987915039063,1.6903564453125002
8.327000000000012,-1.042117309570313,7.309475708007813,6.827520751953125
8.337000000000018,0.6160888671875,6.862661743164063,7.125994873046875
8.347000000000008,-0.5722747802734376,6.899447631835938,3.6636352539062496
8.357000000000014,-0.530853271484375,9.0451416015625,5.079891967773438
8.367000000000004,0.5199371337890626,10.328909301757813,7.544845581054688
8.37700000000001,0.6735107421875001,8.499783325195313,5.931051635742188
8.388000000000005,-0.36546630859375,6.939523315429688,5.246923828125
8.397999999999996,-0.195892333984375,7.008160400390626,7.335943603515625
8.408000000000015,0.434552001953125,7.14603271484375,6.195880126953125
8.418000000000006,0.2361175537109375,6.996347045898438,3.367404174804688
8.428000000000011,0.0838897705078125,8.145532226562501,3.9490997314453127
8.438000000000017,0.14415283203125,8.769546508789062,6.152963256835938
8.448000000000008,-0.0859832763671875,8.362957763671876,6.628936767578126
8.458000000000013,-0.347821044921875,8.146429443359375,6.30504150390625
8.468000000000018,0.057122802734375,8.273983764648438,6.394613647460938
8.478000000000009,-0.1454986572265625,7.044796752929688,6.047390747070313
8.488000000000014,-0.63702392578125,4.983740234375,5.149127197265625
8.498000000000005,-0.814373779296875,4.955178833007813,4.082485961914063
8.50800000000001,-0.174359130859375,9.248959350585938,4.407727050781251
8.518000000000015,-0.2836700439453125,12.132913208007814,5.0426574707031255
8.52900000000001,0.33316650390625,10.89505310058594,3.6395599365234377
8.539000000000016,1.139764404296875,9.044393920898438,8.346807861328125
8.549000000000007,1.34522705078125,6.737948608398438,11.289529418945314
8.559000000000012,0.10587158203125,5.962902832031251,8.151364135742188
8.569000000000017,-0.8148223876953126,5.8206939697265625,2.2730987548828128
8.579000000000008,-1.006378173828125,7.677783203125,2.443869018554688
8.589000000000013,0.0405242919921875,9.416738891601565,6.2763305664062505
8.599000000000018,0.5993408203125,8.486624145507813,5.3964599609375
8.609000000000009,-0.335858154296875,7.776327514648438,5.067330932617188
8.619000000000014,0.2244537353515625,9.0307861328125,9.009851074218751
8.629000000000005,0.6059204101562501,9.264361572265626,8.535223388671875
8.63900000000001,-0.3146240234375,7.92362060546875,3.057415771484376
8.649000000000015,-0.5244232177734376,7.38828125,1.8582855224609376
8.659000000000006,0.307147216796875,7.422973632812501,6.6038146972656255
8.669000000000011,0.5603118896484376,6.917990112304688,6.989318847656251
8.680000000000007,-0.516796875,6.641647338867188,3.701318359375
8.690000000000012,-0.197686767578125,8.482138061523438,5.1691650390625
8.700000000000017,0.150433349609375,10.011294555664064,7.658193969726563
8.711000000000013,-0.194097900390625,8.702554321289064,5.552276611328125
8.720000000000013,-0.45279541015625,7.521667480468751,4.806988525390626
8.730000000000018,-0.11783447265625,7.448245239257813,7.211679077148438
8.740000000000009,0.1834808349609375,7.168762207031251,6.575103759765626
8.750000000000014,-0.1981353759765625,6.69443359375,3.917697143554688
8.760000000000005,-0.3829620361328125,7.6957275390625,4.540963745117188
8.77000000000001,-0.00059814453125,8.666665649414064,5.87138671875
8.780000000000015,0.161798095703125,8.481838989257813,5.581735229492188
8.790000000000006,-0.122320556640625,8.146728515625,6.079241943359375
8.800000000000011,0.2100982666015625,8.35548095703125,6.768304443359376
8.812000000000012,0.5767608642578126,7.589407348632813,6.179879760742188
8.821000000000012,0.5957519531250001,5.9371826171875,5.471975708007813
8.831000000000017,0.608612060546875,5.33963623046875,5.098583984375001
8.841000000000008,0.4689453125,6.477456665039063,4.155758666992188
8.851000000000013,-0.1766021728515625,11.3037353515625,3.96031494140625
8.861000000000004,-0.25780029296875,11.903225708007811,4.230227661132813
8.87100000000001,-0.8252899169921876,10.021163940429688,4.902691650390626
8.881000000000014,-1.1898590087890626,6.726882934570313,10.482781982421876
8.891000000000005,0.005682373046875,5.589511108398438,12.697711181640626
8.90100000000001,-0.1801910400390625,6.30504150390625,5.765963745117188
8.912000000000006,-0.20576171875,7.326522827148438,-0.5483489990234376
8.921000000000006,0.226397705078125,9.161480712890626,2.277584838867188
8.931000000000012,-0.5562744140625,9.049478149414064,8.840725708007813
8.941000000000017,-1.42059326171875,7.107751464843751,5.326177978515625
8.950999999999993,-0.4092803955078125,7.966687011718751,5.764169311523438
8.962000000000018,1.118829345703125,9.644033813476565,8.951980590820312
8.972000000000008,1.1331848144531251,9.095535278320312,6.542654418945313
8.982000000000014,-0.24942626953125,7.54140625,1.7503204345703127
8.992000000000004,-1.1113525390625,7.195828247070313,3.7354125976562496
9.00200000000001,0.0346923828125,7.445404052734376,7.735354614257813
9.012000000000016,0.7502227783203126,6.682769775390626,5.667718505859376
9.022000000000006,-0.4490570068359375,7.3111206054687505,3.6714111328125
9.03200000000001,0.073272705078125,9.386981201171876,6.477606201171875
9.042000000000016,0.6391174316406251,9.761419677734375,6.860418701171875
9.052000000000008,0.3144744873046875,7.990911865234375,4.589114379882813
9.062000000000012,-0.4571319580078125,7.118069458007813,6.149972534179688
9.072000000000015,-0.2229583740234375,7.21182861328125,7.724288940429688
9.081999999999994,0.2141357421875,7.077993774414063,5.059704589843751
9.092000000000011,0.0871795654296875,7.434039306640625,3.661392211914063
9.102000000000018,-0.0312530517578125,8.268450927734376,5.305242919921875
9.113000000000014,-0.0515899658203125,8.486474609375001,6.023464965820313
9.123000000000005,-0.180340576171875,8.090951538085939,5.822488403320313
9.13300000000001,-0.157611083984375,8.199664306640626,6.55626220703125
9.143000000000017,0.1568634033203125,8.248712158203126,6.354238891601563
9.153000000000006,0.00059814453125,7.173098754882813,5.3885345458984375
9.163000000000013,-0.471636962890625,5.457321166992188,5.206549072265625
9.173000000000016,-0.0647491455078125,5.440423583984376,4.705303955078126
9.183000000000009,0.07177734375,8.519821166992188,4.624703979492188
9.193000000000012,-0.2495758056640625,11.49334716796875,5.010955810546875
9.203000000000015,0.346624755859375,10.907464599609376,4.036877441406251
9.214000000000013,1.1623443603515626,9.047384643554688,7.415048217773438
9.223000000000011,0.91934814453125,6.799407958984376,10.505361938476565
9.233000000000004,-0.0705810546875,6.215618896484376,8.20654296875
9.242999999999997,-0.8294769287109376,6.169561767578125,3.0919586181640626
9.254000000000003,-1.284515380859375,7.569070434570313,2.6215179443359378
9.26400000000001,-0.8372528076171876,8.991159057617189,6.0251098632812505
9.274000000000015,0.009271240234375,8.5714111328125,5.607305908203125
9.284000000000006,-0.33077392578125,7.962350463867188,5.446255493164063
9.294000000000011,0.074468994140625,8.805136108398438,8.426361083984375
9.304000000000016,0.475225830078125,9.050076293945311,7.996743774414063
9.314000000000007,0.0258697509765625,8.060147094726563,3.726889038085938
9.324000000000012,-0.1807891845703125,7.507162475585938,2.6535186767578125
9.334000000000016,0.527264404296875,7.49833984375,6.051129150390626
9.343999999999994,0.82484130859375,7.188201904296876,6.1537109375000005
9.354000000000012,0.3303253173828125,6.858474731445313,4.184170532226563
9.364000000000004,-0.1607513427734375,8.211627197265626,5.8725830078125005
9.373999999999995,-0.1191802978515625,9.494198608398438,7.199566650390626
9.384000000000016,-0.24105224609375,8.808575439453126,5.0535736083984375
9.39500000000001,-0.4711883544921875,7.788290405273438,5.182324218750001
9.405000000000015,-0.3569427490234375,7.467834472656251,7.0090576171875005
9.415000000000006,-0.1748077392578125,7.105209350585938,6.142047119140625
9.425000000000011,-0.4175048828125,6.817501831054688,4.506570434570313
9.435000000000016,-0.4864410400390625,7.658642578125001,5.214175415039063
9.444999999999991,-0.0291595458984375,8.519223022460938,5.349954223632813
9.455000000000013,0.227294921875,8.485278320312501,5.340533447265625
9.465000000000018,0.1045257568359375,8.197271728515625,6.503326416015626
9.474999999999994,0.310736083984375,8.268450927734376,6.656002807617188
9.485000000000014,0.6709686279296876,7.987472534179688,5.468536376953125
9.495000000000005,0.701324462890625,7.103863525390626,5.882901000976563
9.504999999999995,0.6174346923828126,5.817852783203126,5.81097412109375
9.515000000000017,0.7541107177734375,5.3533935546875,4.303201293945313
9.525000000000006,0.7932891845703126,7.309774780273438,3.952090454101562
9.53500000000001,-0.2954833984375,12.44080810546875,5.167370605468751
9.546000000000006,-0.31641845703125,11.524899291992188,3.802554321289063
9.556000000000012,-0.6941467285156251,9.363204956054688,5.682522583007813
9.566000000000017,-1.8657623291015624,5.767758178710938,12.114370727539065
9.575999999999992,-0.5812469482421876,5.709439086914063,11.848944091796875
9.586000000000013,-0.4725341796875,6.476858520507813,2.970086669921875
9.596000000000018,-0.1428070068359375,7.810720825195313,-0.7630828857421875
9.605999999999996,-0.101983642578125,9.255838012695314,3.6921966552734378
9.616000000000014,-0.9680969238281252,8.649768066406251,8.942111206054689
9.626000000000005,-1.337750244140625,7.0868164062500005,5.278924560546876
9.635999999999996,-0.015850830078125,8.585317993164063,6.510354614257813
9.646000000000017,1.3337127685546877,10.02430419921875,8.877062988281251
9.656000000000006,1.374087524414063,8.798556518554689,5.415750122070313
9.666000000000013,0.044561767578125,6.901989746093751,2.0365325927734377
9.676000000000016,-1.0682861328125002,7.004122924804688,4.871588134765625
9.686000000000009,0.349615478515625,7.333999633789063,7.368392944335938
9.697000000000015,0.7403533935546875,6.71536865234375,4.798464965820313
9.706999999999994,-0.74169921875,7.655651855468751,3.978408813476563
9.717000000000011,-0.5036376953125,9.839627075195311,6.54429931640625
9.727000000000018,0.8493652343750001,9.725531005859375,6.540560913085938
9.736999999999997,0.353802490234375,7.8599182128906255,4.953533935546876
9.747000000000014,-0.6794921875000001,7.015487670898438,6.373229980468751
9.757000000000003,-0.145050048828125,7.057806396484375,7.272689819335938
9.766999999999996,0.252716064453125,6.696975708007813,5.085125732421876
9.777000000000015,0.1580596923828125,7.36495361328125,3.949847412109375
9.787000000000006,0.2250518798828125,8.561093139648438,4.888485717773438
9.797000000000011,0.2537628173828125,8.657843017578125,6.061447143554688
9.807000000000016,-0.406439208984375,8.120559692382812,6.880307006835938
9.817000000000007,-0.0136077880859375,8.150317382812501,6.389828491210938
9.830000000000013,0.3901397705078125,8.48408203125,5.702560424804688
9.837999999999994,-0.08433837890625,7.344915771484375,5.517285156250001
9.848000000000011,-0.6368743896484376,5.491864013671876,5.460162353515625
9.858000000000004,-0.6581085205078125,4.881607055664063,4.582235717773438
9.867999999999997,-0.0288604736328125,7.411907958984376,4.2767333984375
9.878000000000014,-0.24703369140625,11.444747924804688,5.399600219726563
9.888000000000003,0.06280517578125,11.334689331054689,4.1068603515625
9.897999999999996,1.0516876220703126,10.075894165039063,5.7649169921875005
9.908000000000015,1.3165161132812502,7.563537597656251,10.687945556640626
9.918000000000006,0.4197479248046875,5.9652954101562505,10.528390502929687
9.929000000000016,-0.677099609375,5.5107055664062505,4.667620849609375
9.938000000000017,-0.9993499755859376,6.932495117187501,0.9736297607421877
9.948000000000008,-1.15740966796875,9.4470947265625,4.53094482421875
9.958000000000013,-0.1105072021484375,9.257781982421877,5.6560546875
9.968000000000018,0.3294281005859375,7.685559082031251,4.754202270507813
9.978000000000009,-0.11663818359375,8.285797119140625,7.789187622070313
9.989000000000004,0.6841278076171875,9.03916015625,9.516329956054689
9.998999999999995,0.0465057373046875,8.410211181640626,5.364309692382813
10.009000000000016,-0.486590576171875,7.458264160156251,1.6266540527343751
10.019000000000004,0.1766021728515625,7.434338378906251,5.046994018554688
10.02900000000001,0.8257385253906251,7.321737670898438,7.61617431640625
10.039000000000016,0.0300567626953125,6.630581665039063,4.521374511718751
10.049000000000008,-0.4532440185546875,7.753598022460938,3.731076049804688
10.059000000000012,-0.3081939697265625,9.743325805664064,6.961953735351563
10.069000000000017,0.07835693359375,9.254342651367187,6.394314575195313
10.079000000000008,-0.24224853515625,7.745523071289063,4.814764404296875
10.089000000000013,-0.2229583740234375,7.339682006835938,6.539065551757813
10.099000000000018,0.056524658203125,7.167416381835938,7.331158447265626
10.109000000000009,-0.23028564453125,6.847857666015625,4.890130615234376
10.119000000000014,-0.4954132080078125,7.413702392578125,4.159497070312501
10.129999999999995,-0.0095703125,8.579037475585938,5.2579895019531255
10.140000000000017,0.276641845703125,8.447296142578125,5.7290283203125005
10.150000000000006,-0.0011962890625,8.000631713867188,6.0883636474609375
10.16000000000001,0.2172760009765625,8.158541870117189,6.562393188476563
10.170000000000016,0.7053619384765626,7.5737060546875,5.92581787109375
10.180000000000009,0.6323883056640626,6.589010620117188,5.415600585937501
10.190000000000012,0.2708099365234375,6.155056762695313,5.573211669921875
10.200000000000015,0.27933349609375,6.522616577148438,4.637564086914063
10.210000000000008,-0.0886749267578125,9.447244262695314,3.094500732421875
10.220000000000011,-0.5206848144531251,12.430041503906253,5.451190185546875
10.230000000000018,-0.8679077148437501,9.620855712890624,5.599380493164063
10.240000000000007,-0.9550872802734376,7.457366943359376,7.4771057128906255
10.251000000000005,0.095404052734375,6.006417846679688,11.776718139648438
10.260000000000003,0.295184326171875,6.360220336914063,8.755938720703126
10.271000000000017,-0.3865509033203125,6.7745849609375,0.6760528564453125
10.281000000000006,-0.2956329345703125,8.563336181640626,0.74110107421875
10.291000000000013,0.012860107421875,9.839028930664064,7.782907104492188
10.301000000000016,-0.7790832519531251,8.03128662109375,6.8463623046875
10.311000000000009,-0.521282958984375,7.476657104492188,4.610198974609375
10.321000000000012,0.6347808837890625,9.0630859375,7.55576171875
10.331000000000016,1.1430541992187502,9.252249145507813,8.54449462890625
10.341000000000008,-0.2298370361328125,7.4068237304687505,3.4454620361328128
10.351000000000012,-0.88465576171875,6.922625732421875,1.95772705078125
10.361000000000004,-0.5323486328125,7.755990600585938,6.914999389648438
10.37100000000001,0.5863311767578125,7.337738037109376,7.066629028320313
10.381000000000014,-0.4175048828125,6.990365600585938,3.589614868164063
10.391000000000004,-0.2465850830078125,8.660385131835938,5.0281524658203125
10.402000000000015,0.5151519775390625,9.8155517578125,7.3703369140625
10.411000000000016,0.563751220703125,8.3740234375,5.494107055664063
10.422000000000011,-0.1538726806640625,7.080386352539063,5.042059326171875
10.432000000000016,-0.003289794921875,7.136611938476563,7.52884521484375
10.442000000000007,0.4385894775390625,7.208987426757813,6.488522338867188
10.452000000000012,0.2531646728515625,7.191790771484375,3.7153747558593753
10.462000000000018,0.004486083984375,8.165270996093751,4.498046875
10.472000000000008,-0.1870697021484375,8.701657104492188,6.138308715820313
10.482000000000014,-0.287408447265625,8.218206787109375,6.025558471679688
10.492000000000004,-0.341241455078125,8.041604614257814,6.158645629882813
10.50200000000001,-0.12979736328125,8.179327392578125,6.415548706054688
10.512000000000016,-0.08673095703125,7.652960205078125,5.5261077880859375
10.522000000000006,-0.5576202392578126,5.825479125976563,5.0176849365234375
10.53200000000001,-0.6042755126953125,5.02501220703125,5.135968017578126
10.542000000000016,-0.15252685546875,7.113433837890626,4.2396484375000005
10.553000000000011,-0.0578704833984375,11.081076049804688,4.844970703125
10.563000000000017,0.171368408203125,10.851837158203123,4.256097412109376
10.573000000000008,0.9375915527343752,10.077987670898438,6.032586669921876
10.583000000000013,1.8986602783203128,8.213272094726562,10.457659912109376
10.593000000000018,1.5762603759765623,6.594094848632813,10.508053588867188
10.603000000000009,-0.418701171875,5.7499633789062505,5.232119750976563
10.613000000000014,-0.9023010253906252,6.396258544921875,1.6961883544921876
10.623000000000005,-1.7133850097656251,8.95242919921875,4.427764892578125
10.63300000000001,-0.8892913818359376,8.855679321289063,5.175894165039063
10.643000000000017,-0.424383544921875,8.015585327148438,3.68636474609375
10.653000000000006,-0.5647979736328126,8.324826049804688,7.312765502929688
10.663000000000013,0.08553466796875,9.058001708984376,9.934881591796875
10.673000000000016,0.011065673828125,8.349798583984375,6.173300170898438
10.683000000000009,-0.4798614501953125,7.648773193359376,2.253509521484375
10.694000000000017,-0.015850830078125,7.535574340820313,4.972973632812501
10.704000000000008,0.8249908447265626,7.382748413085938,7.444058227539063
10.714000000000013,1.0024902343750002,6.64957275390625,4.47412109375
10.724000000000018,0.7105957031250001,7.604959106445313,3.5543243408203127
10.734000000000009,0.1227691650390625,9.490908813476564,6.640899658203126
10.744000000000014,0.1499847412109375,9.42615966796875,6.316406250000001
10.754000000000003,-0.272454833984375,8.082278442382814,4.748968505859375
10.76400000000001,-0.5232269287109376,7.467984008789063,6.426614379882813
10.774000000000015,-0.18721923828125,7.248614501953125,7.430899047851563
10.784000000000006,-0.24583740234375,6.743331909179688,5.256643676757813
10.794000000000011,-0.6210235595703125,7.102517700195313,4.66612548828125
10.804000000000016,-0.7858123779296876,8.290731811523438,5.3047943115234375
10.814000000000007,-0.0841888427734375,8.53970947265625,5.0999298095703125
10.824000000000012,-0.0276641845703125,8.305685424804688,5.6707092285156255
10.834000000000016,0.0749176025390625,8.250656127929688,6.644488525390625
10.843999999999994,0.5535827636718751,8.273385620117189,6.010903930664063
10.855000000000018,0.8110839843750001,7.360168457031251,5.450592041015625
10.865000000000007,0.6925018310546875,6.217861938476563,6.058157348632813
10.875000000000014,0.7394561767578125,6.11602783203125,5.682821655273438
10.885000000000003,0.7651763916015626,6.750958251953126,4.531243896484376
10.89500000000001,0.16090087890625,8.219104003906251,3.6080078125
10.905000000000015,-0.442626953125,12.076687622070311,4.626797485351563
10.915000000000006,-0.6193786621093751,10.913595581054688,5.685513305664063
10.925000000000011,-1.2140838623046877,8.347256469726563,6.893017578125001
10.935000000000016,-1.02821044921875,6.10406494140625,10.984475708007814
10.944999999999991,0.148638916015625,6.17105712890625,9.741232299804688
10.955000000000013,-0.222210693359375,6.680825805664063,2.4785614013671875
10.965000000000018,-0.377130126953125,7.8958068847656255,0.170172119140625
10.974999999999994,-0.243743896484375,9.252398681640626,5.744580078125001
10.986000000000004,-0.5594146728515625,8.398995971679689,7.314709472656251
10.99600000000001,-0.3964202880859375,7.55635986328125,5.756692504882813
11.006000000000014,0.434552001953125,8.57559814453125,7.134518432617188
11.016000000000004,1.020733642578125,9.519619750976563,8.242282104492189
11.02600000000001,0.2298370361328125,8.224038696289064,4.57879638671875
11.036000000000016,-0.6421081542968751,7.0883117675781255,2.3478668212890628
11.046000000000006,-0.3485687255859375,7.33743896484375,5.589361572265625
11.056000000000012,0.6542205810546875,7.234408569335938,6.749911499023438
11.066000000000017,-0.1601531982421875,6.8849426269531255,4.4325500488281255
11.075999999999992,-0.640911865234375,8.183215332031251,4.748669433593751
11.086000000000013,0.255108642578125,9.772634887695313,6.7892395019531255
11.096000000000018,0.6948944091796876,9.141741943359376,6.024810791015625
11.105999999999996,-0.21533203125,7.526004028320313,5.216717529296876
11.116000000000014,-0.2014251708984375,7.068124389648438,6.793875122070313
11.126000000000005,0.237164306640625,7.007711791992188,6.801800537109376
11.137000000000016,0.153125,6.904083251953126,4.616030883789063
11.147000000000006,0.092413330078125,7.695129394531251,4.1922454833984375
11.15700000000001,0.1303955078125,8.773135375976564,5.304644775390625
11.167000000000016,-0.13697509765625,8.565878295898438,5.959313964843751
11.177000000000008,-0.3288299560546875,8.094540405273438,6.486727905273438
11.187000000000012,-0.0841888427734375,8.184860229492188,6.507513427734375
11.197000000000015,-0.033795166015625,7.650567626953125,5.667868041992188
11.206999999999994,-0.46356201171875,5.940921020507813,5.332308959960938
11.217000000000011,-0.8508605957031251,5.100827026367188,5.578744506835938
11.227000000000018,-0.5277130126953126,6.751705932617188,4.237255859375001
11.236999999999997,-0.17764892578125,11.042047119140626,3.828125
11.247000000000014,0.3037078857421875,11.360708618164065,4.801156616210938
11.257000000000003,0.8070465087890626,9.907067871093751,6.076998901367188
11.266999999999996,1.042117309570313,7.864852905273438,9.2843994140625
11.277000000000015,1.12032470703125,6.265863037109376,10.298703002929688
11.288000000000013,-0.4113739013671875,5.9892211914062505,6.590805053710938
11.298000000000016,-0.8193084716796876,6.658694458007813,1.4581268310546875
11.308000000000009,-0.3204559326171875,8.954821777343751,2.9859375000000004
11.318000000000012,0.6174346923828126,9.243127441406251,6.275433349609376
11.328000000000015,0.0031402587890625,7.922125244140625,5.747720336914063
11.337999999999994,-0.3958221435546875,7.981491088867188,6.007165527343751
11.348000000000011,0.4227386474609375,9.004019165039063,8.827117919921875
11.358000000000004,-0.11424560546875,8.637057495117189,6.965692138671876
11.367999999999997,-0.542816162109375,7.698269653320313,2.671163940429688
11.378000000000014,-0.2217620849609375,7.347308349609375,3.520379638671875
11.388000000000003,0.6724639892578126,7.500433349609375,7.277774047851563
11.397999999999996,0.0306549072265625,6.854885864257813,5.686260986328126
11.408000000000015,-0.4006072998046875,7.328167724609376,3.533837890625
11.418000000000006,-0.1686767578125,9.337185668945311,6.178533935546875
11.430000000000009,0.3337646484375,9.484030151367188,6.926513671875001
11.439000000000007,-0.05263671875,8.031436157226564,5.062695312500001
11.449000000000012,-0.2480804443359375,7.28360595703125,5.758486938476563
11.459000000000016,0.1399658203125,7.384991455078126,7.411010742187501
11.468999999999994,-0.0195892333984375,6.964346313476563,5.565136718750001
11.479000000000012,-0.419598388671875,7.124948120117188,4.095645141601563
11.489000000000004,-0.2720062255859375,8.280563354492188,5.109201049804688
11.498999999999995,0.04964599609375,8.65455322265625,5.671905517578125
11.509000000000016,-0.243743896484375,8.150018310546876,5.72843017578125
11.519000000000004,-0.2238555908203125,8.135363769531251,6.391323852539063
11.530000000000015,0.409429931640625,7.944256591796876,6.272293090820313
11.539000000000016,0.6974365234375001,6.6591430664062505,5.543902587890625
11.549000000000008,0.6853240966796875,5.414254760742188,5.405880737304688
11.559000000000012,0.382513427734375,5.7459259033203125,4.585675048828126
11.569000000000017,-0.2595947265625,10.336984252929687,3.9837921142578128
11.580000000000013,0.317315673828125,12.22891540527344,4.4298583984375
11.590000000000018,-0.2830718994140625,10.183560180664063,4.79771728515625
11.599999999999994,-1.22918701171875,7.439422607421876,8.938821411132814
11.610000000000014,0.1152923583984375,5.859274291992188,12.217550659179688
11.620000000000005,-0.1305450439453125,6.39835205078125,7.915097045898438
11.629999999999995,-0.2690155029296875,6.816903686523438,0.4466644287109375
11.640000000000017,-0.1469940185546875,8.639001464843751,0.247930908203125
11.650000000000006,-0.497357177734375,9.239987182617188,8.49783935546875
11.66000000000001,-1.5508392333984375,7.535574340820313,6.319546508789063
11.670000000000016,-0.7482788085937501,7.68436279296875,4.8007080078125
11.680000000000009,0.7433441162109375,9.507955932617188,8.246170043945312
11.690000000000012,1.1472412109375,9.225930786132814,8.26456298828125
11.700000000000015,-0.3745880126953125,7.563088989257813,3.34422607421875
11.710000000000008,-0.9700408935546876,7.044497680664063,2.3909332275390627
11.720000000000011,-0.0127105712890625,7.661334228515625,7.025207519531251
11.730999999999996,0.9368438720703126,7.009954833984375,6.663180541992188
11.741000000000014,0.026318359375,6.905877685546876,3.418994140625
11.751000000000005,-0.2247528076171875,8.81365966796875,5.5365753173828125
11.760999999999996,0.611602783203125,9.979443359375,7.278820800781251
11.771000000000017,0.832318115234375,8.623898315429688,4.886691284179688
11.781000000000006,-0.2121917724609375,7.386486816406251,4.897457885742188
11.791000000000013,-0.47911376953125,7.253399658203126,7.775280761718751
11.801000000000016,0.083740234375,6.904830932617188,6.50003662109375
11.811000000000009,0.0022430419921875,6.904232788085938,3.9985961914062496
11.821000000000012,-0.043963623046875,8.014987182617189,4.42447509765625
11.831000000000016,-0.1371246337890625,8.7293212890625,6.001632690429688
11.841000000000008,-0.36307373046875,8.222991943359375,5.909069824218751
11.851000000000012,-0.367559814453125,8.084970092773439,6.183169555664063
11.861000000000004,0.2175750732421875,8.34052734375,6.449044799804688
11.872000000000014,0.0868804931640625,7.6460815429687505,5.820843505859376
11.882000000000003,-0.47552490234375,6.04185791015625,5.2330169677734375
11.891999999999996,-0.4741790771484375,4.978506469726563,5.1921936035156255
11.902000000000015,-0.0300567626953125,6.653759765625001,4.3492584228515625
11.912000000000006,0.0240753173828125,10.701254272460938,4.3776702880859375
11.922000000000011,0.2256500244140625,11.498281860351565,4.595544433593751
11.932000000000016,0.7514190673828125,10.543643188476564,5.500537109375
11.942000000000007,1.0893707275390625,8.331405639648438,9.285745239257814
11.952000000000012,0.870001220703125,6.271545410156251,10.986419677734377
11.962000000000018,-0.5689849853515625,5.482443237304688,6.910662841796875
11.972000000000008,-0.9296661376953126,6.127691650390625,1.3384979248046875
11.982000000000014,-1.0503417968750002,8.77298583984375,2.5403198242187504
11.992000000000004,-0.082244873046875,9.33045654296875,5.858676147460938
12.00200000000001,0.2627349853515625,7.982089233398438,5.038171386718751
12.013000000000003,-0.338250732421875,8.027847290039062,6.5712158203125
12.022999999999996,0.4933197021484375,9.029440307617188,9.670501708984377
12.033000000000015,0.3578399658203125,8.867343139648439,7.495797729492188
12.043000000000006,-0.40015869140625,7.874572753906251,2.4072326660156254
12.053000000000011,0.04306640625,7.464694213867188,3.082388305664063
12.063000000000017,0.7011749267578126,7.410412597656251,7.271044921875
12.073000000000008,0.199481201171875,6.606207275390625,5.511303710937501
12.083000000000013,-0.2056121826171875,7.102517700195313,3.2712524414062503
12.093000000000018,-0.266473388671875,9.218603515625,6.291583251953125
12.103000000000009,-0.026617431640625,9.7796630859375,7.018179321289063
12.113000000000014,-0.2029205322265625,8.362957763671876,4.762576293945313
12.123000000000005,-0.3572418212890625,7.48338623046875,5.879162597656251
12.13300000000001,-0.134881591796875,7.24771728515625,7.766607666015625
12.143000000000017,-0.1136474609375,6.716116333007813,5.773739624023438
12.15400000000001,-0.4583282470703125,7.010403442382813,3.874481201171875
12.164000000000016,-0.1837799072265625,8.263516235351563,4.768707275390625
12.174000000000008,0.13099365234375,8.657693481445314,5.5077148437500005
12.184000000000012,-0.0034393310546875,8.14971923828125,5.852395629882813
12.194000000000017,0.0432159423828125,8.121755981445313,6.71776123046875
12.204000000000008,0.4469635009765625,8.377313232421876,6.616226196289063
12.214000000000013,0.7046142578125001,7.226931762695313,5.435638427734375
12.224000000000018,0.6854736328125001,5.762225341796875,5.312420654296876
12.234000000000009,0.608612060546875,5.40782470703125,4.90897216796875
12.244000000000014,0.3162689208984375,7.150070190429688,3.676495361328125
12.254000000000003,-0.332867431640625,12.210073852539065,4.252957153320313
12.26400000000001,-0.329876708984375,11.6937255859375,4.7863525390625
12.274000000000015,-0.9802093505859376,9.308474731445314,6.006268310546876
12.284000000000006,-0.7180725097656251,6.32298583984375,11.31031494140625
12.295000000000016,-0.0725250244140625,5.713327026367188,12.326712036132813
12.305000000000009,-0.4414306640625,6.051727294921875,3.8545928955078126
12.315000000000012,-0.1822845458984375,7.434786987304688,-0.7286895751953125
12.325000000000015,-0.00538330078125,9.594387817382811,3.201119995117188
12.335000000000008,-0.5830413818359376,8.899044799804688,9.08865661621094
12.345000000000011,-1.2885528564453126,7.148873901367188,4.928561401367188
12.355000000000018,-0.18123779296875,8.468380737304688,6.184365844726563
12.365000000000007,1.290496826171875,9.946246337890626,9.150863647460938
12.375000000000014,0.778485107421875,8.711676025390625,5.881704711914063
12.385000000000003,-0.4462158203125,6.983187866210938,1.4706878662109375
12.39500000000001,-1.2148315429687502,7.121060180664063,4.508065795898438
12.405000000000015,0.182733154296875,7.361514282226563,7.7268310546875005
12.415000000000006,0.6518280029296876,6.475961303710938,4.907476806640625
12.425000000000011,-0.372943115234375,7.324130249023438,3.859228515625
12.435000000000016,-0.1344329833984375,9.744970703125,7.010403442382813
12.447000000000015,0.7376617431640625,9.906170654296876,6.431997680664063
12.456000000000016,0.5830413818359376,8.154803466796876,4.47412109375
12.466000000000008,-0.2567535400390625,7.096835327148438,6.217861938476563
12.476000000000012,0.2154815673828125,7.0658813476562505,7.709036254882813
12.486000000000004,0.363970947265625,6.667367553710938,4.970730590820313
12.49600000000001,0.0154022216796875,7.282858276367188,3.7876007080078127
12.506000000000014,-0.3395965576171875,8.527148437500001,5.2194091796875
12.516000000000004,-0.3312225341796875,8.746667480468751,6.0116516113281255
12.52600000000001,-0.3742889404296875,8.189794921875,6.265713500976563
12.536000000000016,-0.174359130859375,8.197271728515625,6.667218017578126
12.547000000000011,0.1344329833984375,8.375817871093751,5.991015625
12.556000000000012,-0.286212158203125,6.964346313476563,5.2270355224609375
12.566000000000017,-0.7828216552734376,5.098883056640625,5.100527954101563
12.575999999999992,-0.5321990966796876,5.298513793945313,4.447653198242188
12.586000000000013,0.1131988525390625,8.6096923828125,4.071868896484375
12.596000000000018,0.1664337158203125,10.967279052734376,5.111444091796876
12.607000000000014,0.5486480712890626,10.663272094726564,4.773941040039063
12.617000000000004,1.2747955322265625,10.150811767578126,8.097381591796875
12.62700000000001,1.700076293945313,7.918685913085938,10.779910278320314
12.637000000000016,0.515899658203125,6.201113891601563,8.943008422851562
12.647000000000006,-0.7835693359375001,5.54300537109375,3.641055297851562
12.65700000000001,-1.24114990234375,7.219454956054688,2.4504486083984376
12.667000000000016,-1.3576385498046877,8.802145385742188,4.485186767578125
12.677000000000008,-0.487188720703125,8.611337280273439,3.602774047851563
12.687000000000012,-0.122021484375,8.364901733398439,4.514645385742188
12.697000000000015,0.148040771484375,8.870333862304689,9.029440307617188
12.706999999999994,0.158807373046875,8.665020751953126,9.512442016601565
12.717000000000011,-0.19200439453125,8.065380859375,5.088714599609375
12.727000000000018,-0.16927490234375,7.583126831054688,3.075509643554688
12.736999999999997,0.5057312011718751,7.480844116210938,6.077297973632813
12.748000000000005,0.95224609375,6.875222778320313,5.970977783203125
12.75800000000001,0.7825225830078125,6.8080810546875,3.6168304443359376
12.768000000000017,-0.014654541015625,8.221347045898439,4.8007080078125
12.778000000000006,-0.21533203125,9.440814208984376,6.378164672851563
12.788000000000013,-0.196490478515625,9.102264404296877,5.225390625
12.798000000000016,-0.5595642089843751,8.1598876953125,5.556912231445313
12.808000000000009,-0.59515380859375,7.510302734375,7.516583251953126
12.818000000000012,-0.3282318115234375,6.885690307617188,6.579589843750001
12.828000000000015,-0.4840484619140625,6.716714477539063,5.048788452148438
12.837999999999994,-0.6059204101562501,7.457965087890625,5.051031494140625
12.848000000000011,-0.119927978515625,8.217608642578126,4.830166625976563
12.858000000000004,0.2971282958984375,8.394808959960939,4.984188842773438
12.867999999999997,0.404644775390625,8.34949951171875,6.501083374023438
12.878000000000014,0.5561248779296876,8.297311401367189,6.760977172851563
12.88900000000001,0.8202056884765626,7.522116088867188,5.429656982421875
12.899000000000015,0.9688446044921876,6.413754272460938,5.3047943115234375
12.909000000000006,0.8915344238281251,5.656951904296875,5.566033935546876
12.919000000000011,0.009869384765625,7.016983032226563,4.564889526367188
12.929000000000016,-0.28411865234375,11.15345153808594,4.39337158203125
12.939000000000007,-0.273052978515625,10.919577026367188,4.713827514648438
12.949000000000012,-0.9005065917968751,9.176135253906253,5.810675048828125
12.959000000000016,-0.9849945068359376,6.667068481445313,9.941909790039062
12.968999999999994,-0.26019287109375,6.465194702148438,10.704244995117188
12.979000000000012,-0.5737701416015626,6.617871093750001,4.147833251953125
12.989000000000004,-0.093310546875,7.711129760742188,0.5797515869140626
12.998999999999995,-0.1902099609375,9.068469238281253,5.542257690429688
13.009000000000016,-0.9105255126953126,8.521615600585939,7.410412597656251
13.019000000000004,-0.8149719238281251,7.575201416015625,4.593450927734375
13.030000000000015,0.3707000732421875,8.73590087890625,6.062045288085938
13.040000000000006,1.3509094238281252,9.406271362304688,8.540457153320313
13.050000000000011,0.4969085693359375,8.097830200195313,5.733514404296876
13.060000000000016,-0.5775085449218751,7.118817138671876,2.78914794921875
13.069999999999991,-0.5015441894531251,7.308129882812499,5.316906738281251
13.080000000000013,0.7286895751953125,7.772439575195313,6.813763427734376
13.090000000000018,0.1244140625,6.86490478515625,4.3881378173828125
13.099999999999994,-0.5991912841796876,7.681072998046876,4.772744750976563
13.110000000000014,-0.1356292724609375,9.193630981445311,6.915597534179688
13.120000000000005,0.5935089111328126,9.152957153320314,5.610446166992188
13.129999999999995,0.2364166259765625,7.960705566406251,4.721603393554688
13.140000000000017,-0.4397857666015625,7.38768310546875,6.731069946289063
13.150000000000006,0.0931610107421875,7.2172119140625,6.790884399414063
13.16000000000001,0.3084930419921875,6.936831665039063,4.907476806640625
13.170000000000016,0.08912353515625,7.515686035156251,5.10576171875
13.181000000000012,-0.053533935546875,8.315255737304689,5.574108886718751
13.191000000000017,-0.175555419921875,8.470025634765626,5.338140869140625
13.200999999999992,-0.2441925048828125,8.196673583984376,6.149822998046876
13.211000000000013,-0.051739501953125,8.259030151367188,6.492709350585938
13.221000000000018,0.0372344970703125,8.0761474609375,5.397506713867188
13.230999999999996,-0.360382080078125,6.662731933593751,5.149426269531251
13.241000000000014,-0.8481689453125001,5.110098266601563,5.685513305664063
13.251000000000005,-0.6092102050781251,5.835049438476563,4.427914428710938
13.260999999999996,-0.2292388916015625,9.648968505859376,4.1349731445312505
13.271000000000017,-0.241650390625,11.204742431640623,5.0800415039062505
13.281000000000006,0.4318603515625,10.2725341796875,5.105612182617188
13.291000000000013,1.3722930908203126,8.919680786132814,8.547634887695313
13.301000000000016,1.84766845703125,7.013693237304688,10.622598266601564
13.311000000000009,0.65496826171875,6.343621826171876,7.786495971679688
13.322000000000015,-0.6323883056640626,6.0950927734375,2.7531097412109378
13.331999999999994,-1.251019287109375,8.056259155273438,2.8036529541015627
13.342000000000011,-0.5583679199218751,9.487918090820314,5.6412506103515625
13.352000000000018,0.3389984130859375,8.501428222656251,4.628143310546875
13.361999999999997,-0.285015869140625,7.922125244140625,5.239297485351563
13.372000000000014,0.0665435791015625,8.820388793945312,8.91055908203125
13.382000000000003,-0.0275146484375,8.522811889648438,8.235104370117188
13.391999999999996,-0.618780517578125,7.806683349609376,3.644793701171875
13.402000000000015,-0.2117431640625,7.340728759765626,2.983544921875
13.412000000000006,0.69085693359375,7.703204345703125,6.719107055664063
13.422000000000011,0.6032287597656251,7.008758544921876,6.211581420898438
13.432000000000016,0.020635986328125,6.830212402343751,3.695635986328125
13.442000000000007,-0.1161895751953125,8.576943969726564,5.373431396484375
13.452000000000012,0.15013427734375,9.68680114746094,6.764715576171875
13.462000000000018,-0.0270660400390625,8.540158081054688,5.087518310546876
13.473000000000011,-0.4963104248046875,7.655801391601563,5.529995727539063
13.483000000000004,-0.1027313232421875,7.50731201171875,7.231417846679688
13.492999999999997,-0.019140625,7.084274291992188,6.197824096679688
13.503000000000014,-0.5474517822265625,6.846661376953126,4.799511718750001
13.513000000000003,-0.72315673828125,7.710083007812501,5.03099365234375
13.522999999999996,-0.092413330078125,8.559896850585938,5.250363159179688
13.533000000000015,0.32479248046875,8.390621948242188,5.510107421875
13.543000000000006,-0.0620574951171875,8.22149658203125,6.456222534179688
13.553000000000011,0.3398956298828125,8.074951171875,6.2150207519531255
13.563000000000017,0.7494750976562501,7.047189331054688,5.450442504882813
13.573000000000008,0.8134765625000001,6.059652709960938,5.6098480224609375
13.583000000000013,0.9595733642578126,5.936734008789063,5.098583984375001
13.593000000000018,0.4021026611328125,8.05401611328125,3.63133544921875
13.604000000000012,-0.0179443359375,11.730810546875,4.458718872070313
13.614000000000004,-0.1443023681640625,10.594036865234376,5.253952026367188
13.623999999999995,-0.8888427734375001,8.519970703125,6.638058471679688
13.634000000000016,-1.5070251464843751,6.473269653320313,11.172891235351564
13.644000000000004,-0.4068878173828125,6.558355712890625,10.383639526367189
13.65400000000001,-0.248529052734375,6.834848022460938,2.9811523437500003
13.664000000000016,-0.1422088623046875,7.8703857421875005,0.067889404296875
13.674000000000008,-0.6421081542968751,9.140396118164062,6.127392578125001
13.684000000000012,-1.1927001953125,8.2017578125,7.119265747070313
13.694000000000017,-1.087127685546875,7.342224121093751,4.128543090820313
13.704000000000008,0.1176849365234375,8.950933837890625,6.146682739257813
13.714000000000013,1.35120849609375,9.479095458984377,8.668310546875
13.724000000000018,0.7928405761718751,8.074951171875,5.729925537109375
13.734000000000009,-0.5241241455078125,6.76561279296875,2.915057373046875
13.744000000000014,-0.032598876953125,7.542752075195313,6.066830444335938
13.754000000000003,1.1909057617187502,7.639651489257813,6.954776000976563
13.765000000000017,0.284716796875,6.848156738281251,4.024914550781251
13.775000000000006,-0.5822937011718751,7.882498168945313,4.303799438476563
13.78500000000001,0.06280517578125,9.436029052734376,6.794622802734375
13.795000000000016,0.6916046142578125,9.052169799804688,5.685662841796876
13.805000000000009,-0.0683380126953125,7.758831787109376,4.706799316406251
13.815000000000012,-0.8480194091796875,7.437628173828125,6.727032470703126
13.825000000000015,-0.1447509765625,7.316055297851563,7.067974853515626
13.835000000000008,0.232379150390625,6.929055786132813,4.982244873046875
13.845000000000011,-0.1088623046875,7.428207397460938,4.909420776367188
13.855000000000018,0.0378326416015625,8.335293579101563,5.624203491210938
13.865000000000007,-0.0261688232421875,8.447595214843751,5.759533691406251
13.875000000000014,-0.252716064453125,8.1479248046875,5.848806762695313
13.885000000000003,0.05921630859375,8.300750732421875,5.970977783203125
13.89500000000001,0.2201171875,7.624697875976563,5.412609863281251
13.906000000000006,-0.1997802734375,5.7604309082031255,5.422479248046876
13.916000000000013,-0.53533935546875,5.1715576171875,5.244680786132813
13.926000000000016,-0.1401153564453125,8.000631713867188,4.412811279296875
13.936000000000009,0.0299072265625,11.3707275390625,5.009759521484376
13.946000000000012,0.6033782958984375,10.67987060546875,4.342230224609375
13.956000000000016,0.7110443115234375,9.126788330078126,6.929354858398438
13.966000000000008,0.7532135009765626,7.10655517578125,10.442257690429688
13.976000000000012,0.075067138671875,6.330163574218751,9.8059814453125
13.986000000000004,-0.8224487304687501,6.13516845703125,3.7557495117187503
13.99600000000001,-1.04974365234375,7.7196533203125,1.3307220458984377
14.006000000000014,-0.705810546875,9.795513916015626,5.247970581054688
14.016000000000004,0.1610504150390625,8.628982543945312,5.540164184570313
14.02600000000001,-0.24942626953125,7.615426635742188,4.437335205078125
14.036000000000016,0.1203765869140625,8.454025268554688,7.805935668945313
14.048000000000016,0.838299560546875,8.791378784179688,8.951681518554688
14.057000000000016,-0.065496826171875,7.934387207031251,4.9683380126953125
14.067000000000007,-0.3267364501953125,7.281811523437501,2.387643432617188
14.077000000000012,0.66812744140625,7.854086303710938,6.0629425048828125
14.087000000000018,1.067987060546875,7.375271606445313,7.195379638671875
14.097000000000008,0.00777587890625,6.731069946289063,4.002633666992188
14.107000000000014,-0.6476409912109375,8.043548583984375,4.1563568115234375
14.117000000000004,-0.2691650390625,9.660781860351562,6.855633544921876
14.12700000000001,-0.0494964599609375,8.769396972656251,5.7529541015625005
14.137000000000016,-0.6279022216796876,7.580734252929688,4.886242675781251
14.147999999999996,-0.5031890869140625,7.369589233398438,6.969131469726563
14.15700000000001,-0.1933502197265625,7.362561035156251,7.169061279296876
14.167000000000016,-0.314923095703125,7.019973754882813,4.688107299804688
14.177000000000008,-0.3481201171875,7.590454101562501,4.490420532226563
14.187000000000012,0.042767333984375,8.534774780273438,5.783160400390625
14.198000000000008,0.4520477294921875,8.249011230468751,5.674447631835938
14.208000000000013,0.273052978515625,7.996743774414063,5.788693237304688
14.218000000000018,0.3871490478515625,8.307479858398438,6.175991821289063
14.228000000000009,0.81766357421875,7.561892700195313,5.698971557617188
14.238000000000014,0.8958709716796875,5.965893554687501,5.354290771484376
14.248000000000005,0.9890319824218752,5.310028076171875,5.231671142578126
14.25800000000001,0.07835693359375,7.553518676757813,4.885943603515625
14.268000000000017,-0.09869384765625,11.832943725585938,4.48428955078125
14.278000000000006,-0.13876953125,11.198760986328123,4.041513061523438
14.288000000000013,-1.0157989501953126,9.2174072265625,6.481344604492188
14.298000000000016,-1.8367523193359376,6.313415527343751,11.08660888671875
14.308000000000009,-0.5969482421875001,6.017782592773438,10.505810546875
14.318000000000012,-0.359783935546875,6.35947265625,3.3077392578125004
14.328000000000015,-0.16807861328125,7.868441772460938,0.0393280029296875
14.337999999999994,0.0632537841796875,9.477151489257814,5.523266601562501
14.349000000000018,-1.104473876953125,8.5187744140625,6.7339111328125005
14.359000000000009,-1.0156494140625,7.462002563476563,4.97955322265625
14.369000000000014,0.3931304931640625,8.695974731445313,7.191491699218751
14.379000000000003,1.3914337158203125,9.293670654296877,8.665020751953126
14.38900000000001,0.7910461425781251,8.021865844726562,5.280718994140625
14.399000000000015,-0.389093017578125,6.977355957031251,2.618975830078125
14.409000000000006,-0.526068115234375,7.521218872070313,5.443862915039063
14.419000000000011,0.91456298828125,7.638006591796875,6.509457397460938
14.429000000000016,0.3527557373046875,6.885540771484376,4.392324829101563
14.439000000000007,-0.7210632324218751,7.793075561523438,4.816259765625
14.449000000000012,0.0634033203125,9.6073974609375,6.839932250976563
14.459000000000016,0.7183715820312501,9.211126708984375,5.577996826171876
14.468999999999994,-0.002392578125,7.80458984375,4.789642333984375
14.479000000000012,-0.6433044433593751,7.1137329101562505,6.864306640625
14.490000000000007,-0.1242645263671875,7.006814575195313,7.070965576171876
14.500000000000014,0.2053131103515625,6.8864379882812505,4.762576293945313
14.510000000000003,-0.00179443359375,7.68974609375,4.580291748046875
14.52000000000001,-0.044561767578125,8.610739135742188,5.42337646484375
14.530000000000015,-0.081048583984375,8.443258666992188,5.8849945068359375
14.540000000000006,-0.150732421875,8.080633544921875,6.543402099609375
14.550000000000011,-0.0,8.018725585937501,6.166421508789063
14.560000000000016,0.0177947998046875,7.224090576171876,5.157650756835938
14.569999999999991,-0.368756103515625,5.697476196289063,5.251559448242188
14.580000000000013,-0.75784912109375,5.63153076171875,5.488125610351563
14.590000000000018,-0.2954833984375,8.749508666992188,4.201516723632813
14.601000000000012,0.126806640625,11.595181274414063,4.5686279296875005
14.610000000000014,0.66334228515625,10.440911865234376,5.2672607421875
14.620000000000005,0.6133972167968751,8.502175903320314,7.488021850585938
14.629999999999995,0.7790832519531251,6.789089965820313,9.406719970703126
14.641000000000004,0.1451995849609375,6.480746459960938,8.375668334960938
14.65100000000001,-0.6866699218750001,6.590954589843751,3.748870849609376
14.661000000000016,-0.6163879394531251,7.873226928710938,1.959521484375
14.671000000000006,0.354400634765625,9.413897705078126,5.795571899414063
14.681000000000012,0.3793731689453125,8.512194824218751,6.719854736328125
14.691000000000017,-0.3602325439453125,7.764364624023438,5.258587646484376
14.700999999999992,0.1987335205078125,8.631674194335938,6.780715942382813
14.711000000000013,0.584686279296875,8.870632934570313,8.0869140625
14.721000000000018,-0.356793212890625,7.8189453125,4.62066650390625
14.730999999999996,-0.5837890625000001,7.139303588867188,2.6526214599609377
14.741000000000014,0.517095947265625,7.838833618164063,5.709588623046876
14.751000000000005,0.6305938720703126,7.426861572265626,6.850250244140626
14.760999999999996,-0.381915283203125,6.914550781250001,4.424923706054688
14.772000000000006,-0.736614990234375,8.141195678710938,4.932000732421876
14.78200000000001,0.1012359619140625,9.562237548828126,7.025656127929688
14.792000000000016,0.1206756591796875,8.6144775390625,5.834600830078125
14.802000000000008,-0.494964599609375,7.483236694335938,4.871588134765625
14.812000000000012,-0.3476715087890625,7.319793701171876,6.812866210937501
14.822000000000015,0.0249725341796875,7.323681640625001,6.567178344726563
14.831999999999994,-0.20277099609375,7.04075927734375,4.506570434570313
14.842000000000011,-0.2860626220703125,7.783505249023438,4.665228271484375
14.852000000000018,0.0683380126953125,8.616571044921876,5.85703125
14.861999999999997,0.25421142578125,8.3345458984375,5.828320312500001
14.872000000000014,0.10706787109375,8.039511108398438,6.002529907226563
14.882000000000003,0.285015869140625,7.993902587890625,6.088513183593751
14.891999999999996,0.5743682861328125,7.176239013671876,5.729925537109375
14.902000000000015,0.6030792236328125,5.5440521240234375,5.0655364990234375
14.912000000000006,0.502142333984375,5.464947509765626,4.571170043945313
14.923000000000016,-0.3672607421875,9.068768310546876,4.469635009765625
14.933000000000009,0.14056396484375,12.080874633789064,4.5590576171875
14.943000000000012,-0.5254699707031251,10.353134155273438,4.4494476318359375
14.953000000000015,-1.6303924560546876,8.51279296875,8.527447509765626
14.962999999999994,-0.353802490234375,6.420184326171875,12.094931030273438
14.973000000000011,0.127703857421875,6.5440002441406255,8.918484497070313
14.983000000000004,-0.16448974609375,6.31102294921875,1.367657470703125
14.992999999999997,0.032598876953125,8.24482421875,1.0059295654296876
15.003000000000014,0.518890380859375,9.486273193359375,6.973767089843751
15.013000000000003,-0.811383056640625,8.093344116210938,5.417544555664063
15.022999999999996,-0.8454772949218751,7.641595458984375,4.200619506835938
15.033000000000015,0.5938079833984375,9.143984985351564,8.3560791015625
15.043000000000006,1.227093505859375,9.068917846679687,8.72393798828125
15.053000000000011,-0.303857421875,7.581332397460938,4.131085205078126
15.065000000000012,-0.90618896484375,6.970925903320313,2.7807739257812503
15.074000000000012,-0.498553466796875,7.7531494140625,6.630581665039063
15.084000000000016,0.6944458007812501,7.2632690429687505,6.336593627929688
15.093999999999994,-0.3629241943359375,6.770248413085938,3.570025634765625
15.104000000000012,-0.387896728515625,8.348751831054688,5.218063354492188
15.114000000000004,0.366961669921875,9.749606323242189,6.779968261718751
15.123999999999995,0.8196075439453125,8.730966186523439,5.050881958007813
15.134000000000016,0.1915557861328125,7.530639648437501,5.563641357421876
15.144000000000004,-0.314923095703125,7.283905029296876,7.548434448242188
15.15400000000001,0.49705810546875,7.209286499023438,6.377267456054688
15.165000000000006,0.349017333984375,6.9821411132812505,4.543057250976563
15.174000000000008,-0.24703369140625,7.870834350585938,4.907327270507813
15.184000000000012,-0.3034088134765625,8.562887573242188,5.453433227539063
15.194999999999991,-0.3210540771484375,8.332901000976562,5.607754516601563
15.205000000000013,-0.4714874267578125,8.115176391601564,6.3810058593750005
15.215000000000018,-0.12740478515625,8.319143676757813,5.959164428710938
15.224999999999994,-0.1960418701171875,7.227081298828126,5.179034423828125
15.235000000000014,-0.6299957275390625,5.0902099609375,5.330813598632813
15.245000000000005,-0.6331359863281251,5.399899291992188,4.673004150390625
15.254999999999995,-0.1327880859375,9.480889892578126,4.520477294921875
15.266000000000004,0.19080810546875,10.970120239257811,4.7983154296875
15.275000000000006,0.79373779296875,10.354928588867187,5.04534912109375
15.28500000000001,1.6090087890625002,9.121405029296875,8.932391357421876
15.295000000000016,1.9130157470703129,7.360317993164063,10.562335205078126
15.305000000000009,0.363970947265625,6.250759887695313,7.697970581054688
15.315000000000012,-0.755157470703125,5.86480712890625,2.775091552734376
15.325000000000015,-1.3743865966796875,8.009753417968751,2.800213623046876
15.335000000000008,-1.2765899658203126,9.242529296875,5.427862548828125
15.345000000000011,-0.3548492431640625,8.480642700195313,4.193890380859376
15.355000000000018,-0.428271484375,8.017678833007814,4.872335815429688
15.366000000000014,-0.031103515625,9.009552001953123,9.06787109375
15.376000000000005,0.3264373779296875,8.62943115234375,8.704797363281251
15.385999999999996,-0.5887237548828126,7.641744995117188,4.126599121093751
15.396000000000017,-0.4158599853515625,7.245773315429688,3.04156494140625
15.406000000000006,0.5790039062500001,7.721298217773438,6.788192749023438
15.416000000000013,1.1973358154296876,7.127340698242188,6.273040771484376
15.426000000000016,0.8632720947265625,6.970028686523438,3.180783081054688
15.436000000000009,-0.1543212890625,8.540307617187501,5.0760040283203125
15.446000000000012,0.15850830078125,9.649865722656251,7.08861083984375
15.456000000000016,-0.10826416015625,8.590252685546876,5.164828491210938
15.466000000000008,-0.4212432861328125,7.666119384765626,5.00706787109375
15.476000000000012,-0.5259185791015626,7.566378784179688,7.326522827148438
15.486000000000004,-0.1511810302734375,7.117172241210938,6.653460693359375
15.49600000000001,-0.5090209960937501,6.751705932617188,4.67509765625
15.507000000000003,-0.635528564453125,7.688250732421875,5.006170654296875
15.516999999999996,-0.2624359130859375,8.463595581054689,5.6098480224609375
15.527000000000015,0.0539825439453125,8.352639770507814,5.400946044921875
15.537000000000006,0.029010009765625,8.199066162109375,5.9228271484375
15.547000000000011,0.4382904052734375,8.405126953125,6.191693115234376
15.557000000000016,0.9108245849609377,7.681671142578126,5.683868408203125
15.567000000000007,1.0334442138671875,6.02032470703125,5.475115966796875
15.577000000000012,0.9990509033203124,5.301803588867188,5.271148681640625
15.587000000000018,0.41810302734375,7.03477783203125,4.619470214843751
15.597000000000008,0.0411224365234375,11.388671875,4.8273254394531255
15.607000000000014,0.0115142822265625,11.102908325195314,4.040167236328125
15.617000000000004,-0.71478271484375,9.605902099609375,5.516537475585938
15.62700000000001,-1.5491943359375002,6.665573120117188,10.834640502929688
15.637000000000016,-0.7850646972656251,5.966790771484376,11.233154296875
15.647999999999996,-0.496160888671875,6.466839599609376,3.925024414062501
15.658000000000015,-0.02930908203125,7.685110473632813,-0.401953125
15.668000000000006,-0.1876678466796875,9.397149658203126,5.408721923828125
15.678000000000011,-1.227392578125,8.510848999023438,7.221099853515626
15.688000000000017,-1.1889617919921875,7.322036743164063,4.765567016601563
15.698000000000008,-0.011065673828125,8.565130615234375,6.828118896484376
15.708000000000013,1.3585357666015625,9.43079528808594,8.909811401367188
15.718999999999994,1.08802490234375,8.337237548828126,5.549734497070313
15.728000000000009,-0.2723052978515625,7.099377441406251,2.349661254882813
15.738000000000014,-0.5988922119140625,7.431796264648438,5.388833618164063
15.748000000000005,0.88345947265625,7.521517944335938,6.984832763671876
15.75800000000001,0.34871826171875,6.869839477539063,4.3043975830078125
15.768000000000017,-0.66812744140625,7.648025512695313,4.329519653320313
15.778000000000006,0.041571044921875,9.451431274414062,7.031338500976563
15.789000000000016,0.68128662109375,9.330157470703126,5.779421997070313
15.799000000000008,0.1377227783203125,7.977154541015626,4.406829833984375
15.809000000000012,-0.78775634765625,7.290634155273438,6.685610961914063
15.819000000000017,-0.190509033203125,7.02281494140625,7.349252319335938
15.829000000000008,0.1454986572265625,6.881951904296876,5.060452270507813
15.839000000000013,0.0832916259765625,7.464843750000001,4.397409057617188
15.849000000000018,0.082843017578125,8.55885009765625,5.4408721923828125
15.859000000000009,-0.0109161376953125,8.43922119140625,5.7577392578125
15.869000000000014,-0.1973876953125,8.142840576171876,6.066830444335938
15.879000000000003,0.06998291015625,8.135064697265626,6.410165405273438
15.88900000000001,0.3473724365234375,8.262918090820314,5.841030883789063
15.899000000000015,-0.2337249755859375,6.869989013671876,5.170660400390625
15.909000000000006,-0.6989318847656251,5.04654541015625,5.245278930664063
15.919000000000011,-0.4903289794921875,5.640353393554688,4.707098388671875
15.929000000000016,-0.0602630615234375,9.523358154296876,4.543804931640626
15.940000000000012,-0.39178466796875,11.310614013671875,4.9354400634765625
15.950000000000015,0.3739898681640625,10.369284057617188,4.4329986572265625
15.960000000000008,1.236962890625,9.09119873046875,8.6025146484375
15.970000000000011,1.4048919677734375,7.006814575195313,10.933035278320313
15.980000000000018,-0.0198883056640625,6.08013916015625,7.713073730468751
15.990000000000007,-0.926824951171875,5.954827880859376,2.668023681640625
16.000000000000014,-1.2436920166015626,8.13775634765625,2.9789093017578128
16.010000000000005,-0.2797821044921875,9.526947021484377,5.5077148437500005
16.02000000000001,0.335858154296875,8.36744384765625,4.200469970703125
16.030000000000015,0.2328277587890625,7.933789062500001,5.162435913085938
16.040000000000006,0.3177642822265625,8.8489501953125,9.122451782226562
16.05000000000001,0.29368896484375,8.589804077148438,8.236151123046875
16.060000000000016,-0.344232177734375,7.75853271484375,3.759487915039063
16.069999999999993,-0.2379119873046875,7.367047119140626,3.2552520751953127
16.080000000000013,0.7920928955078126,7.727877807617188,6.948046875
16.091000000000008,0.395672607421875,7.028347778320313,6.2329650878906255
16.101000000000013,-0.406439208984375,6.9342895507812505,3.3986572265625004
16.111000000000004,-0.2851654052734375,8.733508300781251,5.135519409179688
16.12100000000001,0.0634033203125,9.751849365234376,6.7985107421875
16.131000000000014,-0.2824737548828125,8.456716918945313,5.1268463134765625
16.141000000000005,-0.6374725341796875,7.526751708984375,5.25828857421875
16.15100000000001,-0.03768310546875,7.484432983398438,7.326223754882813
16.161000000000016,0.157012939453125,7.1466308593750005,6.570169067382813
16.171000000000006,-0.347222900390625,6.746322631835938,4.626797485351563
16.18100000000001,-0.419000244140625,7.894909667968751,4.978805541992188
16.191000000000017,0.1314422607421875,8.516680908203126,5.499490356445313
16.200999999999993,0.2220611572265625,8.321835327148438,5.472872924804688
16.211000000000013,-0.092413330078125,8.04803466796875,6.08133544921875
16.221000000000018,0.3243438720703125,8.370584106445314,6.238049316406251
16.232000000000014,0.5917144775390626,7.863357543945313,5.48917236328125
16.242000000000004,0.5595642089843751,6.347210693359376,5.551229858398438
16.25200000000001,0.681884765625,5.09140625,5.453433227539063
16.262000000000015,0.4574310302734375,6.0968872070312505,4.768109130859376
16.272000000000006,-0.2220611572265625,10.57340087890625,4.676144409179688
16.28200000000001,-0.0578704833984375,12.26600036621094,4.228433227539063
16.292000000000016,-0.6461456298828125,10.540353393554687,4.523916625976563
16.302000000000007,-1.1001373291015626,7.195678710937501,9.63894958496094
16.312000000000012,-0.2669219970703125,5.469732666015625,12.439312744140626
16.322000000000017,-0.370849609375,6.015689086914063,6.450540161132813
16.331999999999994,-0.0765625,7.087863159179688,-0.1111053466796875
16.342000000000013,0.0402252197265625,9.244772338867188,1.636224365234375
16.352000000000018,-0.735418701171875,9.272885131835938,8.057904052734376
16.361999999999995,-1.5143524169921876,7.601071166992188,5.667568969726563
16.373000000000005,-0.4164581298828125,7.883993530273438,6.162832641601563
16.38300000000001,1.005181884765625,9.308624267578123,8.977401733398438
16.393000000000015,1.1236145019531252,8.824127197265625,6.851745605468751
16.403000000000006,-0.271258544921875,7.394412231445313,2.5235717773437503
16.41300000000001,-0.954937744140625,7.0643859863281255,3.6675231933593753
16.423000000000016,0.176153564453125,7.549032592773438,7.06229248046875
16.433000000000007,0.8447296142578126,7.055712890625,5.382852172851563
16.443000000000012,-0.2211639404296875,7.310073852539063,3.755001831054688
16.453000000000017,-0.093310546875,9.2126220703125,6.65555419921875
16.462999999999994,0.5284606933593751,9.756185913085938,6.585421752929688
16.473000000000013,0.6410614013671876,8.358172607421876,4.561898803710938
16.483000000000004,-0.341839599609375,7.112835693359376,5.96708984375
16.492999999999995,-0.3294281005859375,6.978402709960938,7.757635498046875
16.503000000000014,0.0886749267578125,6.88883056640625,5.537322998046875
16.51400000000001,0.1212738037109375,7.357925415039063,3.978707885742188
16.524000000000015,-0.040374755859375,8.3154052734375,4.9638519287109375
16.534000000000006,-0.13936767578125,8.703900146484376,5.741290283203125
16.54400000000001,-0.3730926513671875,8.172448730468751,5.936883544921876
16.554000000000016,-0.2591461181640625,8.146878051757813,6.730770874023438
16.564000000000007,0.2462860107421875,8.219403076171876,6.155056762695313
16.574000000000012,-0.0300567626953125,7.2985595703125,5.280569458007813
