time,ax,ay,az
0.0,12.86414489746094,1.1838775634765626,9.9614990234375
0.0099999999999909,14.611773681640626,0.5967987060546875,8.683413696289064
0.0199999999999818,8.780313110351564,-0.42169189453125,6.758883666992188
0.0299999999999727,4.106112670898438,-0.045758056640625,8.976055908203126
0.0399999999999636,2.46435546875,0.5042358398437501,7.825823974609375
0.0499999999999545,3.5194824218750003,1.6109527587890626,2.560507202148438
0.0600000000000022,8.515036010742188,0.9191986083984376,1.275543212890625
0.0699999999999931,12.502117919921876,-0.6495849609375001,5.241540527343751
0.0809999999999604,11.30777282714844,0.90439453125,9.034075927734376
0.0909999999999513,7.220950317382813,1.4176025390625,10.564877319335938
0.100999999999999,6.015390014648438,0.07357177734375,9.9926025390625
0.11099999999999,7.505966186523438,-0.5791534423828125,7.935882568359376
0.1209999999999809,7.835543823242188,-0.04127197265625,3.587969970703125
0.1309999999999718,7.232763671875,1.20526123046875,1.038677978515625
0.1409999999999627,7.3814025878906255,0.3183624267578125,3.3478149414062504
0.1509999999999536,7.348654174804688,-0.6436035156250001,5.731121826171876
0.1610000000000013,6.586019897460938,-0.6989318847656251,6.113037109375
0.1709999999999922,6.901242065429688,-0.8806182861328126,6.998440551757813
0.1809999999999831,9.583621215820314,-0.465655517578125,8.013940429687501
0.190999999999974,10.06318359375,-0.7517181396484376,6.469680786132813
0.2009999999999649,8.265460205078126,-0.1191802978515625,5.409170532226563
0.211999999999989,5.945556640625,0.2385101318359375,6.549234008789063
0.2210000000000036,5.0710693359375005,0.045458984375,7.899993896484376
0.2319999999999709,4.973422241210938,0.8309722900390626,7.135565185546875
0.2419999999999618,6.049633789062501,1.032098388671875,6.048886108398438
0.2519999999999527,8.637506103515626,0.8326171875,5.6177734375
0.2620000000000004,10.385284423828123,0.2788848876953125,6.1190185546875
0.2719999999999913,8.749807739257813,0.7891021728515626,6.610394287109376
0.2819999999999822,7.253997802734376,1.08682861328125,7.102368164062501
0.2919999999999731,6.9342895507812505,-0.221612548828125,6.596936035156251
0.3019999999999641,7.366748046875,-0.6841278076171875,5.711981201171875
0.311999999999955,6.800305175781251,-0.0907684326171875,4.910467529296875
0.3220000000000027,6.46055908203125,-0.0777587890625,4.252957153320313
0.3319999999999936,6.151019287109375,-0.4705902099609375,4.674050903320313
0.3419999999999916,4.510009765625,-0.609808349609375,5.794973754882813
0.3519999999999754,5.602072143554688,-0.2346221923828125,6.3481079101562505
0.3619999999999663,13.646218872070314,-0.11484375,8.15570068359375
0.3729999999999904,14.305224609375,0.4323089599609375,8.20594482421875
0.3829999999999813,9.046188354492188,0.0478515625,7.816403198242188
0.3929999999999722,3.289495849609376,-0.2785858154296875,9.520816040039064
0.4029999999999631,2.73651123046875,0.7315307617187501,9.2006591796875
0.412999999999954,4.3915771484375,1.7069549560546875,3.637167358398438
0.4230000000000018,8.353536987304688,1.5100158691406251,1.1266052246093752
0.4329999999999927,12.426004028320314,0.097796630859375,4.130636596679688
0.4429999999999836,11.01064453125,0.1873687744140625,8.129382324218751
0.4529999999999745,6.699966430664063,0.9621154785156252,9.591696166992188
0.4629999999999654,6.128439331054688,-0.6902587890625,9.515432739257813
0.4729999999999563,7.547686767578125,-1.892529296875,8.127737426757813
0.4830000000000041,8.319891357421875,-0.9416290283203126,4.807437133789063
0.492999999999995,7.878460693359376,0.0488983154296875,1.840191650390625
0.5029999999999859,8.021865844726562,-0.2337249755859375,2.212237548828125
0.5139999999999532,7.405776977539063,-0.4605712890625,5.605062866210938
0.5240000000000009,5.700167846679688,0.3078948974609375,6.985430908203125
0.5339999999999918,5.599081420898438,1.1484375,6.913803100585938
0.5439999999999827,8.819342041015625,0.686370849609375,7.243231201171875
0.5539999999999736,10.46438903808594,0.6006866455078126,6.5090087890625
0.5639999999999645,9.098825073242187,0.8723937988281251,5.90069580078125
0.5739999999999554,6.074008178710938,0.9247314453125,6.400296020507813
0.5840000000000032,5.158547973632813,0.2842681884765625,8.404528808593751
0.5939999999999941,4.610198974609375,0.0587677001953125,8.018426513671876
0.6039999999999921,6.109448242187501,0.1362274169921875,5.809628295898438
0.6139999999999759,8.732162475585938,-0.311334228515625,4.649227905273438
0.6239999999999668,10.703347778320314,-0.7110443115234375,5.088265991210938
0.6339999999999577,9.233258056640626,-0.3512603759765625,6.253002929687501
0.6440000000000055,7.043600463867188,-0.182135009765625,6.822885131835938
0.6539999999999964,6.565982055664063,-0.2740997314453125,7.50850830078125
0.6649999999999636,6.970776367187501,-0.6015838623046875,6.816455078125
0.6749999999999545,6.674993896484375,0.1734619140625,4.7196594238281255
0.6850000000000023,6.935635375976563,0.3967193603515625,3.797320556640625
0.6949999999999932,5.427862548828125,-0.1146942138671875,3.91964111328125
0.7069999999999936,3.8795654296875,-0.24822998046875,5.48558349609375
0.714999999999975,8.99429931640625,1.4126678466796876,8.544943237304688
0.7249999999999659,14.75263671875,1.3936767578125,9.39625244140625
0.7349999999999568,12.054257202148438,0.149237060546875,7.363308715820313
0.7450000000000045,6.397604370117188,-0.07596435546875,8.701507568359375
0.7549999999999955,3.253158569335938,-0.4616180419921875,9.41165466308594
0.7649999999999864,2.989376831054688,0.9266754150390626,5.3357482910156255
0.7749999999999773,5.552575683593751,1.0913146972656251,1.0726226806640626
0.7860000000000014,10.528091430664062,-0.7644287109375001,2.7881011962890625
0.7959999999999923,12.4617431640625,-0.6702209472656251,7.079040527343751
0.8069999999999595,8.768948364257813,0.7448394775390625,9.07684326171875
0.8159999999999741,6.433642578125,0.8178131103515626,10.163223266601562
0.825999999999965,7.222744750976563,-0.6208740234375001,9.854879760742188
0.8359999999999559,7.921377563476563,-0.298773193359375,6.192739868164063
0.8460000000000036,7.50850830078125,1.5974945068359376,2.5024871826171875
0.8559999999999945,6.99649658203125,1.2028686523437502,1.7008239746093752
0.8659999999999854,7.630380249023438,0.270361328125,4.720706176757813
0.8759999999999764,6.718658447265626,-0.391485595703125,5.833255004882813
0.8859999999999673,6.125897216796876,-0.5882751464843751,6.22130126953125
0.8959999999999582,8.086764526367189,-0.5316009521484375,7.844366455078125
0.9069999999999824,10.308123779296876,-0.2462860107421875,7.410412597656251
0.9159999999999968,9.735549926757812,-0.8018127441406251,5.2674102783203125
0.9259999999999876,7.133920288085938,0.0258697509765625,6.199169921875001
0.9359999999999786,5.3641601562500005,0.1066192626953125,7.858721923828125
0.9459999999999696,4.7230987548828125,-0.40494384765625,7.33145751953125
0.9569999999999936,5.455227661132813,0.5321990966796876,6.6516662597656255
0.9669999999999916,7.323980712890625,0.5434143066406251,5.921331787109375
0.9769999999999754,9.632818603515624,0.4179534912109375,5.281167602539063
0.9869999999999663,9.85428161621094,0.7928405761718751,5.980847167968751
0.9969999999999573,7.995846557617188,1.2000274658203125,7.051974487304688
1.007000000000005,6.964794921875001,0.5357879638671875,7.238595581054688
1.016999999999996,6.888531494140626,-0.2794830322265625,6.078494262695313
1.0269999999999868,7.295419311523438,-0.1105072021484375,5.674447631835938
1.0369999999999775,6.598431396484376,0.03050537109375,4.4026428222656255
1.0469999999999686,6.391473388671876,0.148638916015625,4.181478881835938
1.0569999999999595,4.990020751953125,-0.3159698486328125,4.847811889648438
1.0669999999999504,5.082135009765626,-0.864019775390625,6.830661010742188
1.0779999999999743,10.925259399414063,-0.1876678466796875,8.553317260742189
1.0879999999999654,13.713211059570314,0.459375,7.941864013671876
1.0979999999999563,10.083370971679688,-0.131591796875,7.048385620117188
1.108000000000004,5.383749389648438,-0.16090087890625,9.447393798828124
1.117999999999995,3.4780609130859377,0.4505523681640625,8.449838256835939
1.127999999999986,4.182525634765625,0.5094696044921876,3.707150268554688
1.1379999999999768,7.439871215820313,0.8246917724609376,2.8046997070312503
1.1479999999999675,10.882940673828124,0.3360076904296875,5.192791748046876
1.1579999999999586,11.011392211914064,0.2570526123046875,7.552920532226563
1.1679999999999495,8.016482543945314,0.7614379882812501,8.831903076171876
1.1779999999999973,7.379159545898438,0.2824737548828125,9.805233764648438
1.1879999999999882,7.139602661132813,-0.723455810546875,7.356579589843751
1.197999999999979,7.312316894531251,-0.7916442871093751,4.158001708984376
1.20799999999997,7.309176635742188,0.350811767578125,3.344375610351563
1.217999999999961,7.891918945312501,-0.006878662109375,2.9472076416015627
1.228999999999992,7.569818115234375,-0.6243133544921875,3.973175048828125
1.238999999999976,6.8140625,0.12620849609375,6.727481079101563
1.2489999999999668,6.642843627929688,0.5447601318359375,8.002426147460938
1.2589999999999577,8.131924438476563,0.6643890380859375,7.373178100585938
1.2690000000000057,9.34107360839844,0.5286102294921875,5.919088745117188
1.2789999999999964,9.057403564453123,0.1114044189453125,6.067578125000001
1.2889999999999873,6.749014282226563,0.1152923583984375,6.570767211914063
1.2989999999999782,5.022320556640626,0.4964599609375,7.166220092773438
1.308999999999969,4.857681274414063,0.3058013916015625,7.524359130859375
1.31899999999996,6.264666748046875,-0.032000732421875,7.121359252929688
1.3289999999999509,8.189944458007814,0.258099365234375,5.635867309570313
1.3389999999999986,9.821981811523438,0.1544708251953125,5.264718627929688
1.3489999999999895,9.524853515625,-0.29368896484375,6.058755493164063
1.3589999999999804,7.687503051757813,-0.003289794921875,6.96658935546875
1.3689999999999714,6.611141967773438,-0.0545806884765625,6.842922973632813
1.3799999999999957,6.700564575195313,-0.3144744873046875,6.007165527343751
1.3899999999999864,7.034927368164063,0.20516357421875,5.30853271484375
1.3999999999999773,6.780416870117188,0.23985595703125,3.87178955078125
1.4099999999999682,6.0580078125000005,-0.0070281982421875,4.154562377929688
1.419999999999959,3.6467376708984376,-0.3823638916015625,5.378366088867188
1.42999999999995,7.246969604492188,0.27095947265625,7.926461791992188
1.4399999999999975,14.7968994140625,1.4353973388671877,10.330853271484376
1.4499999999999886,13.268191528320314,0.3075958251953125,7.211529541015626
1.4599999999999795,7.270745849609375,-0.189013671875,7.591799926757813
1.4699999999999704,3.187811279296876,-0.7236053466796876,9.404626464843751
1.4799999999999611,2.51998291015625,0.2343231201171875,6.854885864257813
1.4899999999999594,4.994955444335938,1.410125732421875,1.821649169921875
1.5,9.687548828125,0.0491973876953125,1.52227783203125
1.5109999999999673,13.150506591796876,-0.9286193847656252,6.6337219238281255
1.5209999999999582,10.03985595703125,0.7116424560546876,9.704147338867188
1.530999999999949,6.311322021484376,0.84158935546875,9.630725097656253
1.5409999999999968,6.292031860351563,-0.1248626708984375,9.669903564453126
1.5509999999999875,7.804141235351563,-0.6258087158203125,6.778173828125
1.5609999999999786,7.703652954101563,0.50064697265625,2.5941528320312504
1.5709999999999695,7.268951416015626,1.7074035644531251,1.143801879882813
1.5809999999999604,7.716961669921876,0.27933349609375,3.9232299804687503
1.5909999999999511,7.260128784179688,-0.40733642578125,6.34691162109375
1.600999999999999,6.163580322265625,-0.1069183349609375,6.734060668945313
1.61099999999999,7.251754760742188,-0.48988037109375,7.425216674804688
1.620999999999981,9.533975219726564,-0.5582183837890625,7.98702392578125
1.6309999999999718,9.813906860351564,-0.2775390625,6.193936157226563
1.641999999999996,7.556509399414063,-0.3898406982421875,5.3107757568359375
1.6519999999999868,5.720654296875001,0.276641845703125,7.355831909179688
1.6619999999999775,4.698574829101563,0.21951904296875,7.665222167968751
1.6719999999999686,5.363412475585938,0.414215087890625,6.569421386718751
1.6819999999999595,7.0105529785156255,0.6509307861328125,5.8079833984375
1.6919999999999504,9.609939575195312,0.26796875,5.850601196289063
1.7019999999999982,10.0021728515625,0.6120513916015625,5.3536926269531255
1.711999999999989,8.625692749023438,0.62745361328125,6.779370117187501
1.7239999999999895,6.756939697265626,0.4885345458984375,7.548583984375001
1.731999999999971,6.721499633789063,0.1733123779296875,6.688003540039063
1.7419999999999618,6.832904052734375,-0.260791015625,5.061199951171876
1.7519999999999598,6.965393066406251,-0.0719268798828125,4.696929931640625
1.7620000000000005,6.663330078125001,-0.0097198486328125,4.59793701171875
1.7719999999999914,5.694036865234375,-0.4095794677734375,4.593600463867188
1.7819999999999894,4.853344726562501,-0.7747467041015625,6.544149780273438
1.7929999999999495,9.222491455078126,-0.2005279541015625,8.891119384765625
1.8029999999999973,13.212863159179689,0.5597137451171875,8.539111328125001
1.812999999999988,10.491156005859375,-0.2139862060546875,5.65904541015625
1.823999999999956,6.478652954101563,-0.0279632568359375,8.255441284179689
1.83299999999997,4.201217651367188,0.5802001953125,8.876016235351564
1.842999999999961,4.407727050781251,0.387298583984375,4.541262817382813
1.852999999999952,7.076947021484376,0.8683563232421876,3.474920654296876
1.8629999999999995,9.7772705078125,0.6065185546875,6.043054199218751
1.8729999999999905,10.956661987304688,0.7070068359375,8.007061767578126
1.8829999999999807,8.484530639648439,1.1695220947265623,7.545593261718751
1.8929999999999725,7.5318359375,0.41331787109375,8.440567016601562
1.9029999999999632,6.925616455078125,-0.3904388427734375,7.537518310546876
1.912999999999954,7.126443481445313,-0.82962646484375,5.09918212890625
1.9239999999999784,7.235006713867188,0.13218994140625,3.7114868164062496
1.9329999999999856,8.122354125976564,0.0402252197265625,3.143997192382813
1.94399999999996,8.210430908203126,-0.8988616943359375,3.78685302734375
1.9539999999999509,7.5608459472656255,-0.2524169921875,6.08731689453125
1.9639999999999984,6.335995483398438,0.4065887451171875,7.343869018554688
1.973999999999989,7.264913940429688,0.4738800048828125,7.504470825195313
1.9839999999999804,8.684609985351564,-0.040374755859375,6.697125244140626
1.993999999999972,8.855230712890625,-0.04306640625,6.362612915039063
2.003999999999955,7.098480224609376,0.237164306640625,6.010006713867188
2.013999999999953,5.7843566894531255,0.3641204833984375,7.009655761718751
2.024000000000001,5.265615844726563,0.5007965087890626,8.075100708007813
2.033999999999992,5.853741455078126,0.57242431640625,7.469329833984376
2.04399999999999,7.6565490722656255,0.3895416259765625,5.478704833984375
2.0539999999999807,9.89630126953125,0.2675201416015625,5.385095214843751
2.0639999999999645,9.547134399414062,-0.0258697509765625,5.618222045898438
2.0739999999999554,7.742980957031251,0.2041168212890625,6.09210205078125
2.0849999999999795,6.756939697265626,0.049945068359375,6.657049560546875
2.0949999999999704,6.567776489257813,-0.6826324462890625,6.344668579101563
2.1049999999999613,6.7309204101562505,-0.1565643310546875,5.407376098632813
2.11499999999996,6.243881225585938,-0.1149932861328125,3.724197387695313
2.125,4.971627807617188,-0.9914245605468752,3.958370971679688
2.134999999999991,5.935836791992188,-0.7165771484375001,6.153860473632813
2.144999999999982,12.39295654296875,1.2133361816406252,10.115222167968753
2.1549999999999727,13.5455810546875,0.7038665771484376,8.660385131835938
2.164999999999964,9.132171630859377,0.0034393310546875,7.372280883789063
2.1749999999999545,4.0367279052734375,-0.092413330078125,9.276473999023438
2.1850000000000023,2.89202880859375,0.31522216796875,7.731765747070313
2.194999999999993,4.289743041992188,1.64609375,2.222555541992188
2.204999999999991,7.8838439941406255,1.1505310058593752,1.2103454589843752
2.214999999999982,11.634509277343753,-0.0838897705078125,6.223095703125001
2.225999999999999,11.129376220703126,0.6359771728515625,9.725082397460938
2.23599999999999,7.213623046875001,1.268365478515625,9.981387329101564
2.245999999999981,6.738098144531251,-0.028411865234375,9.625939941406251
2.255999999999972,7.935134887695313,-1.0675384521484377,7.353588867187501
2.265999999999956,8.046987915039063,-0.2038177490234375,3.767413330078125
2.2759999999999536,6.937130737304688,1.1037261962890623,1.3154693603515626
2.2860000000000014,7.035824584960938,0.1305450439453125,2.960665893554688
2.295999999999985,7.599874877929688,-0.6605010986328126,5.937631225585938
2.3059999999999903,6.788491821289063,-0.82364501953125,6.208142089843751
2.315999999999981,7.455123901367188,-0.724652099609375,6.985729980468751
2.325999999999965,8.971270751953126,-0.5363861083984376,7.6700073242187505
2.335999999999956,10.111334228515624,-0.3165679931640625,7.208090209960938
2.346000000000004,8.000781250000001,0.2187713623046875,5.185763549804688
2.3559999999999945,6.12200927734375,0.710296630859375,6.356033325195313
2.366999999999962,4.832559204101563,0.6299957275390625,7.279418945312501
2.37699999999996,5.2576904296875,0.63104248046875,7.123153686523438
2.3870000000000005,6.085971069335938,0.8895904541015626,6.045745849609375
2.396999999999992,8.498587036132813,0.667828369140625,6.446353149414063
2.4069999999999894,9.89869384765625,0.27933349609375,6.560150146484376
2.4169999999999803,9.005664062500001,0.6914550781250001,6.349154663085938
2.426999999999964,7.676586914062501,0.6301452636718751,6.933242797851563
2.436999999999955,6.7428833007812505,-0.5434143066406251,6.32298583984375
2.4470000000000027,7.198968505859376,-0.6431549072265625,5.7589355468750005
2.4569999999999936,6.632675170898438,-0.4027008056640625,4.463653564453125
2.466999999999992,6.420932006835938,-0.2738006591796875,4.4848876953125005
2.4769999999999754,5.619119262695313,0.007177734375,4.619021606445313
2.4869999999999663,4.294827270507813,-0.2277435302734375,4.793679809570313
2.4979999999999905,7.849002075195313,-0.2524169921875,6.918438720703126
2.5079999999999814,14.986212158203124,0.7428955078125,9.759176635742188
2.5179999999999723,13.352230834960938,0.8261871337890626,8.280563354492188
2.527999999999963,7.507012939453125,-0.05323486328125,7.728027343750001
2.537999999999954,2.2497711181640625,-0.22191162109375,9.617266845703126
2.548000000000002,2.674005126953125,0.2355194091796875,7.885638427734375
2.5579999999999856,5.1859130859375,1.60123291015625,1.7691619873046875
2.5679999999999907,9.7007080078125,0.41571044921875,1.187615966796875
2.5779999999999816,12.419125366210938,-0.47911376953125,6.960906982421876
2.587999999999965,9.768447875976562,0.6552673339843751,10.3275634765625
2.5979999999999563,6.108700561523438,0.4933197021484375,9.362606811523438
2.608000000000004,6.988272094726563,-1.005780029296875,8.522064208984375
2.617999999999995,8.209832763671876,-1.8288269042968752,6.869989013671876
2.627999999999986,7.816702270507813,0.1123016357421875,3.5920074462890628
2.637999999999977,7.242633056640625,0.97138671875,1.091015625
2.649000000000001,7.573406982421876,-0.5665924072265626,3.098837280273438
2.658999999999992,7.5378173828125,0.143853759765625,7.0165344238281255
2.66899999999999,5.83489990234375,0.3732421875,6.8080810546875
2.6789999999999807,6.765014648437501,0.99112548828125,6.8191467285156255
2.6889999999999645,10.00381774902344,0.463262939453125,7.7073913574218755
2.6989999999999554,9.65704345703125,0.296380615234375,6.035427856445313
2.709000000000003,7.8987976074218755,0.9495544433593752,5.433993530273438
2.718999999999994,5.316009521484375,0.2394073486328125,6.611441040039063
2.728999999999992,5.000637817382813,-0.0491973876953125,8.527148437500001
2.738999999999976,5.180380249023438,0.275445556640625,7.534527587890626
2.748999999999967,6.93070068359375,-0.2953338623046875,5.070919799804688
2.7589999999999577,9.684707641601562,-0.18662109375,5.539715576171876
2.769000000000005,10.323226928710938,-0.137274169921875,6.159243774414063
2.7789999999999964,8.156448364257812,-0.23626708984375,6.099429321289063
2.789999999999964,6.788043212890625,0.2229583740234375,7.1376586914062505
2.7999999999999545,6.571963500976563,-0.3075958251953125,7.000534057617188
2.8100000000000023,7.113134765625,-0.3742889404296875,5.745626831054688
2.819999999999993,6.795071411132813,0.40015869140625,4.22708740234375
2.829999999999991,6.467437744140626,0.0127105712890625,3.5543243408203127
2.839999999999982,5.1911468505859375,-0.7146331787109376,4.499093627929688
2.849999999999966,4.948150634765625,-0.7565032958984376,5.81097412109375
2.859999999999957,11.144479370117187,1.7313293457031251,10.109390258789062
2.8700000000000045,14.539547729492188,0.6113037109375,9.41300048828125
2.8799999999999955,10.28614196777344,-0.5959014892578125,7.167117309570313
2.8899999999999864,4.966693115234375,0.1739105224609375,8.721844482421876
2.8999999999999773,2.6976318359375,0.5268157958984375,7.922125244140625
2.909999999999968,3.7500671386718754,1.7720031738281252,3.911865234375
2.919999999999959,7.222894287109375,1.409527587890625,1.4350982666015626
2.9309999999999903,11.682958984375,-0.6551177978515625,4.503430175781251
2.940999999999981,11.833093261718751,0.457879638671875,9.148321533203124
2.950999999999965,7.443310546875001,1.4959594726562502,9.840374755859376
2.960999999999956,6.002529907226563,0.2308837890625,9.486123657226564
2.971000000000004,7.6215576171875,-0.56524658203125,8.079437255859375
2.9809999999999945,8.007659912109375,-0.1466949462890625,4.446606445312501
2.990999999999985,6.898849487304688,1.227542114257813,1.6386169433593751
3.0009999999999764,7.364804077148438,0.5085723876953125,2.9036926269531254
3.010999999999968,7.559051513671876,-1.134979248046875,5.262026977539063
3.020999999999958,6.981842041015626,-1.0217803955078126,6.564486694335938
3.030999999999949,6.649124145507813,-0.9314605712890626,6.533084106445313
3.040999999999997,8.970672607421875,-0.4921234130859375,7.668661499023438
3.050999999999988,9.884487915039063,-0.38460693359375,7.032534790039063
3.060999999999978,8.34830322265625,-0.2400054931640625,5.740692138671875
3.070999999999969,6.050531005859376,0.6567626953125001,6.430950927734376
3.0809999999999604,5.32169189453125,0.2301361083984375,7.717709350585938
3.091999999999992,5.281167602539063,0.53533935546875,7.183715820312501
3.1019999999999754,6.276928710937501,1.2146820068359376,5.9623046875000005
3.1119999999999663,8.40093994140625,0.7494750976562501,5.2086425781250005
3.1219999999999573,10.031930541992187,0.4529449462890625,6.051577758789063
3.132000000000005,8.8298095703125,0.92174072265625,6.523065185546876
3.141999999999996,7.216314697265625,0.7517181396484376,6.692938232421875
3.151999999999987,7.141696166992188,-0.4867401123046875,7.049581909179688
3.1619999999999777,7.146182250976563,-0.784765625,6.204702758789063
3.1719999999999686,6.711181640625001,-0.1718170166015625,4.801455688476563
3.1819999999999595,6.628936767578126,-0.3267364501953125,4.2785278320312505
3.1919999999999504,6.192889404296875,-0.9585266113281252,4.574160766601563
3.201999999999998,4.974468994140626,-0.944769287109375,5.175894165039063
3.211999999999989,6.610244750976563,-0.5281616210937501,6.613833618164063
3.223999999999989,12.388619995117187,0.4065887451171875,9.269595336914064
3.233000000000004,12.905865478515626,0.44083251953125,8.308676147460938
3.242999999999995,8.052969360351563,0.0273651123046875,7.039263916015625
3.252999999999986,4.748220825195313,0.8149719238281251,9.565676879882814
3.262999999999977,3.474920654296876,1.1653350830078126,7.411459350585938
3.272999999999968,5.602969360351563,1.6055694580078126,3.3467681884765628
3.2829999999999586,8.274282836914063,1.4276214599609376,3.020480346679688
3.292999999999949,11.350241088867188,0.3889434814453125,6.705349731445313
3.3029999999999973,9.978845214843751,1.12271728515625,8.269946289062501
3.312999999999988,7.548284912109375,0.7674194335937501,7.801150512695313
3.3239999999999554,7.38828125,-0.7197174072265625,8.349200439453126
3.33299999999997,7.200164794921876,-1.21243896484375,7.473815917968751
3.342999999999961,7.018777465820313,-0.7445404052734376,4.440475463867188
3.352999999999952,7.339083862304688,-0.14893798828125,2.565142822265625
3.3629999999999995,8.26875,-0.9757232666015626,3.93818359375
3.373999999999967,7.637557983398438,-1.083837890625,5.525808715820313
3.3839999999999577,6.426913452148438,0.273651123046875,6.213674926757813
3.394000000000005,7.046142578125001,0.6359771728515625,7.1421447753906255
3.4039999999999964,8.130130004882814,0.735418701171875,7.102218627929688
3.413999999999988,9.507656860351563,0.3844573974609375,6.741238403320313
3.423999999999978,7.564434814453126,0.4834503173828125,5.4239746093750005
3.433999999999969,6.642694091796876,0.8215515136718751,7.205398559570313
3.44399999999996,5.4229278564453125,0.4844970703125,7.416094970703125
3.453999999999951,5.7459259033203125,0.410626220703125,7.1137329101562505
3.463999999999998,6.713873291015625,0.4744781494140625,6.501232910156251
3.473999999999989,8.554513549804689,-0.010467529296875,5.26666259765625
3.4839999999999804,9.823178100585938,-0.1997802734375,5.7459259033203125
3.493999999999972,8.576943969726564,-0.40673828125,6.07415771484375
3.5049999999999955,7.333401489257813,-0.2009765625,6.941915893554688
3.5149999999999864,6.8236328125000005,-0.2854644775390625,6.499288940429688
3.5249999999999773,6.982440185546875,-0.5354888916015625,5.918041992187501
3.534999999999968,6.789089965820313,0.121722412109375,5.661737060546876
3.544999999999959,6.701162719726563,-0.148638916015625,4.567730712890626
3.55499999999995,5.7338134765625,-0.6510803222656251,4.342230224609375
3.5649999999999977,4.7743896484375,-0.5825927734375,6.075802612304688
3.5749999999999886,8.6312255859375,0.8501129150390626,7.951583862304688
3.5849999999999795,13.225573730468753,1.505828857421875,8.358322143554688
3.5949999999999704,11.951525878906253,0.4125701904296875,6.683816528320313
3.604999999999961,6.632077026367188,-0.016748046875,7.802197265625001
3.61499999999996,3.6751495361328126,0.2355194091796875,9.290530395507814
3.625,3.6503265380859378,1.0424163818359375,5.696578979492188
3.634999999999991,6.187655639648438,1.4327056884765623,2.5303009033203128
3.645999999999958,9.625192260742187,0.1529754638671875,4.074411010742188
3.655999999999949,11.958554077148438,-0.391485595703125,7.598080444335938
3.665999999999997,9.14263916015625,0.659454345703125,8.946148681640626
3.675999999999988,6.717611694335938,0.35828857421875,9.297857666015624
3.685999999999978,6.598580932617188,-0.6051727294921876,8.569168090820312
3.6959999999999695,7.950686645507813,-0.6030792236328125,6.109298706054688
3.70599999999996,7.513742065429688,0.4714874267578125,2.645294189453125
3.7159999999999513,7.616323852539063,1.09041748046875,2.4667480468750003
3.725999999999999,7.800851440429688,0.307745361328125,4.469784545898438
3.73599999999999,7.232464599609376,-0.4780670166015625,5.93419189453125
3.745999999999981,6.667367553710938,-0.1401153564453125,6.701312255859375
3.755999999999972,7.480844116210938,-0.3177642822265625,7.084274291992188
3.765999999999956,9.327764892578124,-0.362176513671875,7.153210449218751
3.7759999999999536,9.173892211914064,-0.17705078125,5.8151611328125
3.786000000000002,7.39725341796875,0.1371246337890625,5.781964111328126
3.795999999999985,5.618670654296875,0.1535736083984375,7.103265380859376
3.80699999999996,5.203857421875,-0.0157012939453125,8.0282958984375
3.8169999999999504,5.368197631835938,0.2678192138671875,7.092050170898438
3.826999999999998,7.26566162109375,0.3910369873046875,6.375772094726563
3.836999999999989,9.28006286621094,0.01016845703125,5.76910400390625
3.84699999999998,9.859814453125,0.5707794189453126,6.01195068359375
3.856999999999971,8.124746704101563,0.941778564453125,5.960809326171876
3.866999999999962,6.941168212890625,0.3787750244140625,6.481942749023438
3.87699999999996,6.926663208007813,0.031103515625,6.5275512695312505
3.887000000000001,6.877166748046876,-0.21712646484375,5.072116088867188
3.896999999999992,6.456222534179688,0.3742889404296875,4.2700042724609375
3.906999999999989,5.9971466064453125,0.463262939453125,4.612142944335938
3.91699999999998,5.536126708984376,-0.2301361083984375,5.523117065429688
3.926999999999964,7.739392089843751,-0.3596343994140625,7.280615234375
3.936999999999955,11.75712890625,0.649884033203125,8.663973999023439
3.947999999999979,10.678375244140623,0.3677093505859375,7.5025268554687505
3.95799999999997,7.883993530273438,-0.5426666259765626,8.346209716796876
3.967999999999961,4.5795440673828125,-0.0040374755859375,8.614178466796876
3.977999999999952,5.0082641601562505,-0.2794830322265625,5.66741943359375
3.988,6.335546875,-0.0013458251953125,2.863766479492188
3.9979999999999913,9.027795410156251,0.4198974609375,5.9268646240234375
4.007999999999981,10.079333496093753,0.396270751953125,7.462451171875
4.017999999999972,9.395953369140626,0.2884552001953125,7.678231811523438
4.027999999999963,8.003472900390626,0.0251220703125,8.194879150390626
4.037999999999954,7.853338623046875,-0.2397064208984375,8.145382690429688
4.048000000000002,6.715667724609376,-0.6667816162109376,5.435189819335938
4.057999999999986,6.943411254882813,0.2325286865234375,4.222302246093751
4.067999999999991,7.632324218750001,0.3218017578125,3.831414794921875
4.077999999999982,8.074801635742189,-0.41929931640625,4.010858154296876
4.088999999999999,7.433740234375,0.32359619140625,5.2988128662109375
4.0989999999999895,6.923971557617188,0.7669708251953126,6.6337219238281255
4.1089999999999804,7.694531250000001,0.5804992675781251,7.381851196289063
4.118999999999971,8.265161132812501,0.3644195556640625,6.728378295898438
4.128999999999955,8.362509155273438,0.708203125,5.903836059570313
4.140999999999956,7.765859985351563,0.33316650390625,5.83848876953125
4.149000000000001,6.365902709960938,0.008074951171875,6.809127807617188
4.158999999999992,5.552725219726563,0.1302459716796875,7.560696411132813
4.16899999999999,5.71885986328125,-0.035589599609375,7.122854614257813
4.178999999999981,7.120013427734375,-0.4242340087890625,6.9103637695312505
4.1889999999999645,8.740536499023438,0.00059814453125,6.603515625000001
4.198999999999955,9.297708129882814,0.086431884765625,5.459713745117188
4.209000000000003,8.647824096679688,-0.0737213134765625,5.298962402343751
4.218999999999994,7.508807373046875,0.0765625,6.529046630859376
4.228999999999992,6.618319702148438,-0.08912353515625,6.538766479492188
4.2409999999999854,6.70340576171875,0.3443817138671875,5.797964477539063
4.25,7.110891723632813,0.4032989501953125,5.319448852539063
4.259999999999991,7.116574096679688,0.283819580078125,5.10635986328125
4.269999999999982,5.837442016601563,0.335858154296875,5.111444091796876
4.279999999999973,3.04754638671875,0.5689849853515625,5.106509399414063
4.289999999999964,7.416693115234375,0.4251312255859375,7.038815307617188
4.2999999999999545,15.493289184570314,0.6166870117187501,9.131573486328126
4.310000000000002,13.95994567871094,0.7141845703125,7.46304931640625
4.319999999999993,7.6685119628906255,-0.283819580078125,7.401889038085938
4.329999999999991,2.829522705078125,-1.4019012451171875,9.617864990234375
4.340999999999951,2.40035400390625,-0.6646881103515625,8.591299438476563
4.350999999999999,4.047793579101563,0.9661529541015624,1.9341003417968752
4.36099999999999,9.417037963867188,-0.278436279296875,0.129498291015625
4.370999999999981,13.111328125000002,-1.2447387695312502,5.6277923583984375
4.380999999999972,10.814453125,0.63702392578125,10.905520629882814
4.390999999999956,5.815460205078125,1.191802978515625,9.960302734375
4.400999999999954,6.263021850585938,0.259295654296875,9.721493530273438
4.411000000000001,8.109942626953126,-0.401654052734375,7.618716430664063
4.420999999999985,7.978500366210938,0.9531433105468752,3.56553955078125
4.43099999999999,6.859970092773438,2.2437896728515625,0.3935791015625
4.440999999999981,7.772439575195313,0.233575439453125,2.356390380859376
4.450999999999965,7.517630004882813,-0.37264404296875,7.002029418945313
4.460999999999956,5.738299560546875,-0.590069580078125,7.007263183593751
4.471000000000004,6.542654418945313,0.037982177734375,6.92711181640625
4.4809999999999945,10.582821655273438,-0.968695068359375,7.882647705078125
4.4909999999999854,10.103109741210938,-1.1246612548828123,6.126345825195313
4.500999999999976,8.260076904296875,0.16209716796875,5.670559692382813
4.5120000000000005,5.236007690429688,-0.1052734375,5.8655548095703125
4.521999999999991,5.0341339111328125,-0.1993316650390625,8.415744018554689
4.531999999999989,4.759286499023438,0.757550048828125,7.732064819335938
4.54199999999998,6.391921997070313,0.753363037109375,5.080340576171875
4.551999999999964,9.407467651367188,0.6510803222656251,5.3297668457031255
4.561999999999955,10.310665893554688,0.7895507812500001,6.546841430664063
4.572000000000003,8.599224853515626,0.9556854248046877,6.899896240234376
4.581999999999994,6.773986816406251,0.8979644775390626,6.638357543945313
4.591999999999992,6.862063598632813,-0.030804443359375,7.144537353515625
4.601999999999975,7.0210205078125005,-0.3964202880859375,5.713925170898438
4.611999999999966,6.76322021484375,0.0174957275390625,3.983343505859376
4.621999999999957,5.548837280273438,0.2776885986328125,3.2056060791015626
4.632000000000005,4.774688720703125,-0.3566436767578125,4.746127319335938
4.642999999999972,5.2315216064453125,-1.2812255859375,6.194683837890626
4.652999999999963,12.673486328125,-0.3122314453125,9.226678466796876
4.662999999999954,14.229858398437502,0.7925415039062501,8.81964111328125
4.673000000000002,9.85084228515625,-0.0162994384765625,7.452731323242188
4.682999999999986,4.559655761718751,-0.27215576171875,9.578088378906251
4.692999999999991,2.6749023437500004,0.3662139892578125,8.130578613281251
4.702999999999982,4.443615722656251,0.8429351806640626,3.069976806640625
4.712999999999965,7.709036254882813,0.6898101806640625,1.8753326416015623
4.722999999999956,11.65469665527344,-0.10108642578125,6.087765502929688
4.733000000000004,10.544390869140626,0.3524566650390625,8.973962402343751
4.742999999999995,7.446749877929688,1.1369232177734376,8.996990966796876
4.752999999999986,7.076498413085938,-0.1999298095703125,8.708685302734375
4.762999999999977,7.730120849609375,-1.519586181640625,7.441665649414063
4.772999999999968,7.778869628906251,-0.3671112060546875,4.337893676757813
4.782999999999959,7.157247924804688,0.7496246337890625,1.9614654541015624
4.79399999999999,7.633071899414063,-0.3883453369140625,2.662640380859376
4.803999999999981,7.606304931640626,-0.4355987548828125,5.935388183593751
4.8139999999999645,6.0285491943359375,0.5019927978515626,6.7937255859375005
4.823999999999955,6.851147460937501,1.0283599853515626,6.6884521484375
4.834000000000003,8.807827758789063,0.0387298583984375,7.290185546875
4.843999999999994,9.983929443359376,0.461468505859375,7.535873413085938
4.853999999999992,7.792626953125,0.3075958251953125,5.337393188476563
4.863999999999976,6.381304931640625,-0.0258697509765625,6.576449584960938
4.873999999999967,5.297467041015626,0.4699920654296875,8.099624633789062
4.883999999999958,5.323187255859375,0.2624359130859375,7.428356933593751
4.8940000000000055,6.338388061523438,0.392083740234375,4.970281982421875
4.903999999999996,8.924765014648438,0.0124114990234375,5.552276611328125
4.913999999999987,9.984677124023438,-0.3443817138671875,6.210086059570313
4.923999999999978,8.80887451171875,0.03409423828125,5.9491455078125
4.933999999999969,7.275082397460938,0.076861572265625,6.964047241210938
4.944999999999993,6.963449096679688,-0.1792938232421875,7.419683837890625
4.954999999999991,7.0688720703125005,-0.1556671142578125,6.32657470703125
4.964999999999982,6.608450317382813,0.2773895263671875,4.704107666015625
4.974999999999966,7.090255737304688,0.0584686279296875,4.63861083984375
4.984999999999957,6.184814453125001,-0.6951934814453126,4.750762939453125
4.9950000000000045,4.168768310546875,-0.4916748046875,5.027105712890625
5.004999999999996,4.979852294921876,-0.0462066650390625,5.931201171875
5.014999999999986,13.404568481445311,1.3328155517578126,9.39326171875
5.024999999999977,15.876550292968751,0.659454345703125,8.450137329101564
5.034999999999968,9.290530395507814,-0.4972076416015625,6.627441406250001
5.044999999999959,3.4888275146484378,-0.327484130859375,9.256436157226563
5.05499999999995,1.5209320068359375,0.152825927734375,9.017327880859376
5.064999999999998,3.749468994140625,1.49775390625,4.0326904296875
5.074999999999989,7.961154174804688,1.43734130859375,0.1822845458984375
5.085999999999956,12.98511962890625,-0.438739013671875,4.062298583984376
5.096000000000004,12.041845703125,0.6584075927734375,10.170251464843751
5.1059999999999945,6.839184570312501,1.30096435546875,10.498333740234376
5.1159999999999854,5.34561767578125,0.19798583984375,9.592144775390626
5.125999999999976,7.521218872070313,-0.9009552001953126,7.419683837890625
5.135999999999967,8.102017211914063,-0.5064788818359376,4.1140380859375005
5.145999999999958,7.442263793945313,1.7275909423828126,1.44033203125
5.155999999999949,7.416842651367188,0.935797119140625,1.8232940673828129
5.165999999999997,7.799206542968751,-0.8082427978515626,5.728131103515626
5.175999999999988,6.485681152343751,-0.5957519531250001,7.715914916992188
5.185999999999979,6.4348388671875005,-0.5319000244140626,7.413104248046875
5.1959999999999695,8.894110107421875,-0.8816650390625,7.347158813476563
5.20599999999996,10.405621337890626,-0.5495452880859375,6.890625000000001
5.216999999999992,8.641094970703126,-0.4717864990234375,5.2569427490234375
5.226999999999975,6.062643432617188,0.1015350341796875,5.764767456054688
5.236999999999966,4.677490234375,0.4557861328125,7.69273681640625
5.246999999999957,4.920187377929688,0.5217315673828126,7.650717163085938
5.257000000000005,6.405529785156251,0.6180328369140625,5.928659057617188
5.266999999999996,8.806332397460938,0.4299163818359375,5.5799407958984375
5.276999999999987,10.395452880859375,0.9471618652343752,6.2927795410156255
5.286999999999978,9.135162353515623,0.720465087890625,6.310125732421875
5.296999999999969,6.97855224609375,0.8300750732421875,7.003674316406251
5.30699999999996,6.626095581054688,0.3410919189453125,7.063488769531251
5.31699999999995,6.8655029296875005,-0.7560546875,5.448797607421875
5.326999999999998,6.953579711914063,-0.2259490966796875,4.8128204345703125
5.336999999999989,7.041506958007813,0.0634033203125,4.93289794921875
5.34699999999998,6.6382080078125005,-0.766522216796875,4.949795532226563
5.358000000000004,5.304046630859375,-0.710296630859375,5.693289184570313
5.366999999999962,5.311224365234375,-0.3494659423828125,7.102667236328125
5.377999999999986,10.963839721679689,-0.0862823486328125,8.154354858398438
5.387999999999977,13.032073974609377,-0.008673095703125,6.997991943359375
5.397999999999968,9.386083984375,-0.26737060546875,6.275283813476563
5.407999999999959,5.705401611328125,0.275146484375,9.227276611328126
5.4179999999999495,3.820050048828125,0.5639007568359375,9.0762451171875
5.427999999999997,4.877270507812501,1.7506195068359376,5.0819854736328125
5.437999999999988,7.666119384765626,1.7821716308593751,3.0351348876953126
5.447999999999979,11.128927612304688,0.5057312011718751,5.247073364257813
5.45799999999997,10.712319946289064,1.1734100341796876,7.291531372070313
5.467999999999961,7.589855957031251,0.6724639892578126,7.260876464843751
5.477999999999952,6.91514892578125,-0.1389190673828125,8.559896850585938
5.488,6.727780151367188,-1.041668701171875,8.302545166015626
5.497999999999991,7.216165161132813,-1.1192779541015625,4.996899414062501
5.508999999999958,8.163327026367188,-0.2415008544921875,2.870944213867188
5.5190000000000055,8.63062744140625,-0.844281005859375,3.0278076171875004
5.528999999999996,7.916891479492188,-0.9846954345703126,4.796520996093751
5.540999999999997,6.180776977539063,-0.1347320556640625,6.389828491210938
5.548999999999978,6.197525024414063,0.32957763671875,7.5982299804687505
5.558999999999969,7.364056396484376,0.6615478515625001,7.658792114257813
5.56899999999996,9.424215698242188,0.6313415527343751,6.544448852539063
5.578999999999951,8.789434814453125,0.5740692138671876,5.256045532226563
5.588999999999999,7.306634521484375,0.8402435302734376,7.205099487304688
5.5989999999999895,5.146734619140625,0.831121826171875,7.731915283203126
5.6089999999999804,4.997796630859376,0.481207275390625,7.471273803710938
5.618999999999971,6.478353881835938,0.503338623046875,6.812268066406251
5.628999999999955,8.633767700195314,-0.0240753173828125,5.2337646484375
5.640999999999956,9.874020385742188,0.0668426513671875,4.45677490234375
5.649999999999977,9.295465087890626,-0.1999298095703125,5.359823608398438
5.659999999999968,7.339682006835938,-0.7419982910156251,7.102069091796875
5.669999999999959,6.439324951171876,-0.5036376953125,7.759429931640626
5.67999999999995,6.509606933593751,-0.5467041015625,6.185861206054688
5.689999999999998,7.165921020507813,-0.4176544189453125,5.370291137695313
5.699999999999989,7.018478393554688,-0.06759033203125,4.431204223632813
5.70999999999998,4.655657958984375,0.1305450439453125,3.851751708984376
5.71999999999997,4.524365234375001,-0.170172119140625,5.646633911132813
5.729999999999961,10.926754760742188,1.0974456787109377,9.295465087890626
5.7409999999999854,13.877700805664064,1.53125,8.4123046875
5.75,10.38319091796875,0.520086669921875,6.425717163085938
5.759999999999991,5.72484130859375,-0.1469940185546875,9.35797119140625
5.769999999999982,3.5606048583984378,-0.118731689453125,9.482235717773438
5.779999999999973,3.756198120117188,1.2116912841796876,3.7319732666015626
5.790999999999997,6.375921630859375,0.6377716064453125,1.3658630371093752
5.800999999999988,11.569610595703123,-0.637921142578125,5.480050659179688
5.810999999999979,11.524002075195312,-0.3587371826171875,7.522415161132813
5.8209999999999695,8.091250610351564,0.4260284423828125,8.287142944335939
5.83099999999996,6.54130859375,0.2089019775390625,10.029986572265626
5.840999999999951,7.286895751953126,-0.8411407470703126,9.186154174804688
5.850999999999999,7.866796875,-0.1634429931640625,4.427017211914063
5.86099999999999,7.538864135742188,1.1092590332031251,1.181634521484375
5.870999999999981,7.663726806640626,0.8163177490234376,2.8375976562500003
5.880999999999972,7.708587646484376,0.1123016357421875,5.206997680664063
5.890999999999956,5.8954620361328125,-0.3330169677734375,5.481097412109375
5.900999999999954,6.63760986328125,-0.155517578125,7.661782836914063
5.911000000000001,8.17484130859375,-0.1164886474609375,7.99539794921875
5.920999999999985,10.24561767578125,-0.4451690673828125,7.139303588867188
5.93099999999999,8.352938842773439,0.2911468505859375,5.86839599609375
5.94199999999995,6.696527099609376,0.377728271484375,7.222744750976563
5.951999999999998,5.2816162109375,-0.1786956787109375,7.230221557617188
5.961999999999989,5.067779541015625,-0.0088226318359375,7.0868164062500005
5.97199999999998,5.851947021484375,0.4451690673828125,6.527850341796875
5.981999999999971,8.352340698242188,0.4103271484375,4.958319091796875
5.991999999999962,10.431939697265626,0.168377685546875,4.828521728515625
6.00199999999996,9.321783447265624,0.42886962890625,6.0295959472656255
6.0120000000000005,7.519573974609376,0.6890625,7.613333129882813
6.021999999999991,6.544149780273438,0.15970458984375,7.101022338867188
6.031999999999989,7.051525878906251,-0.4963104248046875,6.612039184570313
6.04199999999998,6.652413940429688,-0.0393280029296875,5.458367919921876
6.051999999999964,6.833950805664063,0.527862548828125,4.083831787109375
6.061999999999955,5.960809326171876,0.016748046875,3.5927551269531253
6.072999999999979,4.2759857177734375,-0.4373931884765625,5.5141448974609375
6.081999999999994,6.540560913085938,-0.084039306640625,7.575051879882813
6.092999999999961,13.460195922851565,0.1176849365234375,8.618066406250001
6.102999999999952,13.03641052246094,0.162396240234375,7.602267456054688
6.113,8.107699584960939,-0.053533935546875,8.509054565429688
6.122999999999991,3.845620727539063,0.073870849609375,9.651809692382812
6.132999999999981,3.7415435791015614,0.223406982421875,6.784454345703126
6.142999999999972,5.5041259765625,0.68128662109375,2.5323944091796875
6.152999999999963,8.953775024414064,0.5329467773437501,2.9262725830078127
6.162999999999954,11.809017944335938,0.008074951171875,6.160739135742188
6.173000000000002,9.608743286132814,0.5833404541015625,7.822085571289063
6.182999999999986,7.288540649414063,1.1043243408203125,9.497787475585938
6.192999999999991,7.054516601562501,-0.2388092041015625,8.841323852539062
6.202999999999982,7.471722412109376,-0.98275146484375,6.472073364257813
6.212999999999965,7.403833007812499,0.08433837890625,4.13916015625
6.2239999999999895,7.635464477539063,0.3617279052734375,2.584283447265625
6.2339999999999804,7.609445190429688,-0.5333953857421876,2.9416748046875
6.243999999999971,7.077096557617188,-0.3066986083984375,5.762374877929688
6.253999999999955,5.70330810546875,0.19320068359375,7.127639770507813
6.263999999999953,7.041207885742188,0.8137756347656251,7.590753173828125
6.274000000000001,9.224136352539062,0.32479248046875,6.851745605468751
6.283999999999992,9.901385498046876,-0.2265472412109375,6.364407348632813
6.29399999999999,7.895208740234375,0.3449798583984375,6.772640991210938
6.303999999999981,5.79661865234375,0.2426971435546875,7.207791137695313
6.3139999999999645,4.991366577148438,0.097198486328125,7.650717163085938
6.323999999999955,5.367749023437501,0.3840087890625,6.983486938476563
6.334000000000003,7.236651611328125,0.43245849609375,5.176492309570313
6.343999999999994,9.485824584960938,-0.007476806640625,4.5162902832031255
6.353999999999992,9.992153930664063,0.057421875,5.3462158203125005
6.364999999999959,8.381350708007814,0.2974273681640625,6.775033569335938
6.375,7.001580810546876,-0.23387451171875,7.523611450195313
6.384999999999991,6.6636291503906255,-0.1009368896484375,7.311569213867188
6.394999999999982,6.948495483398438,0.2112945556640625,6.230722045898438
6.404999999999973,6.7473693847656255,-0.111553955078125,4.427166748046876
6.414999999999964,6.965841674804688,-0.2456878662109375,4.377371215820313
6.4249999999999545,5.248568725585938,-0.4062896728515625,4.8247833251953125
6.435000000000002,4.0352325439453125,-0.8750854492187501,5.558407592773438
6.444999999999993,9.7748779296875,0.7998687744140626,8.822183227539064
6.454999999999991,14.035910034179688,0.8668609619140626,8.36624755859375
6.464999999999982,11.200704956054688,0.359185791015625,6.140103149414063
6.474999999999966,6.226684570312501,0.535040283203125,8.52296142578125
6.484999999999957,3.552679443359376,-0.2139862060546875,9.356924438476565
6.4950000000000045,3.9938110351562495,1.2134857177734375,5.8067871093750005
6.504999999999996,5.980847167968751,1.36376953125,1.8153686523437504
6.514999999999986,10.809219360351562,-0.4975067138671875,3.5993347167968754
6.525999999999954,12.118856811523438,-0.2740997314453125,8.329910278320312
6.536000000000001,8.08212890625,0.6971374511718751,8.567971801757814
6.545999999999985,6.017782592773438,0.6853240966796875,8.959906005859375
6.55699999999996,7.170706176757813,-0.8596832275390626,8.821585083007813
6.565999999999981,8.22747802734375,-0.646893310546875,5.7055511474609375
6.575999999999965,7.68974609375,1.1601013183593751,2.428765869140625
6.585999999999956,7.505368041992188,0.8429351806640626,1.8508087158203128
6.596000000000004,7.958013916015625,-0.313128662109375,4.946505737304688
6.6059999999999945,6.648825073242188,-0.41630859375,6.322836303710938
6.6159999999999854,6.1242523193359375,-0.3004180908203125,6.489270019531251
6.625999999999976,7.658642578125001,-0.296978759765625,7.21781005859375
6.635999999999967,10.2294677734375,-0.3446807861328125,7.556808471679688
6.645999999999958,8.758929443359376,-0.326287841796875,5.827572631835938
6.656999999999989,6.933541870117188,0.44322509765625,6.941018676757813
6.66699999999998,5.169464111328125,0.309539794921875,7.476358032226563
6.676999999999964,5.35040283203125,0.1230682373046875,7.789187622070313
6.686999999999955,5.6393066406250005,0.6630432128906251,6.688601684570313
6.697000000000003,7.798458862304688,0.4269256591796875,5.092602539062501
6.706999999999994,10.104455566406251,0.5031890869140625,4.9234771728515625
6.716999999999992,9.688446044921877,0.261090087890625,5.6632324218750005
6.726999999999975,7.538565063476563,0.6308929443359376,7.264465332031251
6.736999999999966,6.733163452148438,0.5606109619140626,7.285101318359375
6.746999999999957,7.107003784179688,-0.6718658447265625,6.045596313476563
6.757999999999981,7.254147338867188,-0.3437835693359375,5.902789306640625
6.766999999999996,6.987374877929688,0.2691650390625,4.920037841796876
6.777999999999963,6.77757568359375,-0.2271453857421875,4.250265502929688
6.786999999999978,5.294027709960938,-0.2763427734375,5.468087768554688
6.796999999999969,3.644943237304688,-0.131890869140625,6.683816528320313
6.807999999999986,8.645880126953125,0.2166778564453125,7.453927612304688
6.817999999999991,14.849237060546876,0.3647186279296875,7.808926391601563
6.827999999999982,11.605499267578123,-0.1030303955078125,5.9563232421875005
6.837999999999965,6.948345947265626,-0.128302001953125,8.880352783203126
6.847999999999956,3.309683227539063,-0.186920166015625,10.212869262695314
6.858000000000004,3.6914489746093753,0.5522369384765625,6.997393798828125
6.867999999999995,6.156851196289063,1.282421875,2.591909790039063
6.877999999999986,10.261767578125,0.4463653564453125,3.0055267333984377
6.887999999999977,12.325515747070314,0.3874481201171875,6.372482299804688
6.897999999999968,8.80169677734375,0.9353485107421876,7.503872680664063
6.907999999999959,6.560748291015625,0.649884033203125,8.628085327148439
6.9179999999999495,6.333303833007813,-0.716278076171875,9.267053222656251
6.927999999999997,7.315756225585938,-1.2345703125,6.661386108398438
6.937999999999988,8.073306274414064,0.2486785888671875,3.348562622070313
6.948999999999955,8.309573364257814,0.1607513427734375,1.4605194091796876
6.959000000000003,8.151812744140626,-0.7191192626953126,4.005624389648438
6.968999999999994,6.603964233398438,-0.2127899169921875,6.473718261718751
6.978999999999992,5.4825927734375,0.3576904296875,7.215267944335938
6.988999999999976,6.884344482421875,0.6787445068359376,7.58028564453125
6.998999999999967,9.37098083496094,0.11304931640625,7.374822998046875
7.008999999999958,9.635360717773438,0.110357666015625,6.1312805175781255
7.0190000000000055,7.678082275390626,0.6886138916015625,6.228778076171875
7.028999999999996,5.6955322265625,0.3683074951171875,7.52884521484375
7.038999999999987,4.689154052734375,0.3025115966796875,7.806533813476563
7.048999999999978,5.718411254882813,0.4493560791015625,7.020870971679688
7.058999999999969,7.668362426757813,0.008673095703125,4.899252319335938
7.069999999999993,10.071856689453126,0.17525634765625,4.709042358398438
7.079999999999991,9.83035583496094,0.121722412109375,5.028451538085938
7.089999999999982,8.023809814453125,-0.2334259033203125,6.751406860351563
7.099999999999966,6.5484863281250005,-0.06639404296875,8.069268798828126
7.109999999999957,6.419735717773438,-0.3312225341796875,6.935784912109376
7.1200000000000045,6.998739624023438,-0.337652587890625,5.687008666992188
7.129999999999996,7.033432006835938,-0.2696136474609375,4.704705810546876
7.139999999999986,6.434689331054688,-0.33555908203125,4.058709716796876
7.149999999999977,3.9592681884765626,-0.7669708251953126,4.2863037109375
7.159999999999968,5.892620849609376,-0.1435546875,6.651516723632813
7.169999999999959,13.653396606445314,1.684075927734375,10.139147949218753
7.17999999999995,14.407806396484377,0.6208740234375001,7.614230346679688
7.189999999999998,8.245870971679688,0.177349853515625,7.048535156250001
7.199999999999989,3.952389526367188,0.305950927734375,10.3778076171875
7.2099999999999795,2.223602294921875,0.2319305419921875,7.855133056640626
7.21999999999997,4.2546020507812505,1.8866973876953128,2.4200927734375
7.230999999999994,8.353387451171876,1.1388671875,0.635528564453125
7.2409999999999854,12.828106689453126,-1.126904296875,5.439974975585938
7.250999999999976,10.928997802734376,0.68607177734375,9.677529907226564
7.260999999999967,6.736453247070313,1.072024536132813,10.188644409179688
7.270999999999958,6.233712768554688,-0.63642578125,9.443655395507813
7.280999999999949,8.186056518554688,-0.9872375488281252,7.8958068847656255
7.290999999999997,7.752850341796876,-0.145050048828125,3.3526000976562504
7.300999999999988,7.057357788085938,1.630242919921875,1.0938568115234375
7.310999999999979,7.508209228515626,0.7076049804687501,2.842681884765625
7.3209999999999695,7.305737304687501,-0.7559051513671875,5.523565673828125
7.33099999999996,6.457119750976563,-0.3297271728515625,7.115676879882813
7.340999999999951,6.38878173828125,-0.3856536865234375,7.02281494140625
7.350999999999999,9.95013427734375,-0.2358184814453125,8.162280273437501
7.361999999999966,10.087408447265624,-0.703717041015625,6.29307861328125
7.370999999999981,8.422622680664062,-0.1257598876953125,5.9802490234375005
7.382000000000005,5.524163818359376,0.43843994140625,6.528747558593751
7.391999999999996,4.881906127929688,-0.212640380859375,7.807431030273438
7.401999999999987,4.6587982177734375,0.52935791015625,7.524060058593751
7.411999999999978,6.330911254882813,0.7687652587890625,5.9772583007812505
7.421999999999969,9.16641540527344,0.40015869140625,4.755099487304688
7.431999999999959,10.678823852539065,0.442626953125,5.658895874023438
7.44199999999995,8.779266357421875,0.9008056640625,6.850399780273438
7.451999999999998,6.936233520507813,0.77998046875,7.180426025390625
7.461999999999989,6.820642089843751,-0.2308837890625,6.929205322265625
7.47199999999998,6.948944091796876,-0.5582183837890625,6.033932495117188
7.481999999999971,6.906326293945313,0.2519683837890625,4.7829132080078125
7.491999999999962,6.825277709960938,-0.1643402099609375,3.5471466064453128
7.502999999999986,6.244628906250001,-0.342437744140625,4.543057250976563
7.512,4.599282836914063,-0.6996795654296876,6.373828125
7.521999999999991,7.162481689453125,-0.7138854980468751,7.700961303710938
7.532999999999959,13.275817871093752,0.626556396484375,9.636856079101562
7.542999999999949,11.845654296875,-0.180938720703125,6.9037841796875
7.552999999999997,7.435086059570313,-0.3361572265625,7.357626342773438
7.562999999999988,4.163235473632813,0.4629638671875,9.209033203125
7.572999999999979,3.9752685546875,0.6346313476562501,6.318350219726563
7.58299999999997,6.006716918945313,1.48040771484375,2.518637084960938
7.592999999999961,9.187948608398438,0.8632720947265625,3.724346923828125
7.602999999999952,11.770138549804688,0.4972076416015625,7.375421142578125
7.612999999999999,9.294866943359375,1.2857116699218751,8.573654174804688
7.6229999999999905,7.292428588867188,0.8725433349609376,8.697918701171876
7.633999999999958,7.273138427734375,-0.3452789306640625,8.25977783203125
7.644000000000005,7.232464599609376,-1.0878753662109375,6.143692016601563
7.653999999999996,7.036721801757813,-0.4861419677734375,3.444265747070313
7.663999999999987,7.553817749023438,0.0076263427734375,2.493963623046876
7.673999999999978,8.097979736328126,-0.9392364501953124,3.923678588867188
7.683999999999969,7.171752929687501,-1.1150909423828126,5.711682128906251
7.69399999999996,6.247470092773438,0.2594451904296875,7.4771057128906255
7.703999999999951,7.623800659179688,0.5743682861328125,7.786346435546876
7.713999999999999,8.996392822265626,0.16568603515625,6.677236938476563
7.723999999999989,9.391915893554687,0.6283508300781251,6.241040039062501
7.7339999999999804,7.464096069335938,0.394476318359375,5.660241699218751
7.743999999999971,6.044100952148438,0.3732421875,7.161434936523438
7.753999999999955,4.690200805664063,0.7956817626953125,7.592996215820313
7.763999999999953,5.346514892578125,0.7998687744140626,7.032235717773438
7.774000000000001,7.482638549804688,0.3049041748046875,5.986080932617188
7.784999999999968,9.542349243164065,0.027813720703125,5.708242797851563
7.794999999999959,9.762765502929687,0.2093505859375,5.659942626953125
7.80499999999995,8.425613403320312,-0.2495758056640625,6.194833374023438
7.814999999999998,6.990216064453126,-0.5852844238281251,7.2871948242187505
7.824999999999989,6.641049194335938,-0.2621368408203125,6.954327392578126
7.8349999999999795,6.757537841796876,-0.3982147216796875,5.259185791015625
7.84499999999997,6.934738159179688,-0.1230682373046875,4.5511322021484375
7.854999999999961,7.132723999023438,-0.35589599609375,4.81566162109375
7.864999999999959,5.389132690429688,-0.96959228515625,4.354641723632813
7.875,4.284957885742188,-0.5839385986328125,5.925967407226563
7.884999999999991,9.050973510742187,0.9224884033203126,8.443408203125001
7.894999999999982,14.873013305664063,1.4371917724609375,9.301895141601562
7.904999999999973,11.667706298828126,0.2595947265625,6.484036254882813
7.914999999999964,5.14404296875,0.2738006591796875,7.705596923828126
7.924999999999954,3.16298828125,0.6590057373046876,9.924563598632814
7.935000000000002,3.888687133789063,1.10238037109375,5.795870971679688
7.944999999999993,6.494204711914063,1.9614654541015624,1.5194366455078123
7.95599999999996,11.021261596679688,0.045458984375,3.2909912109375004
7.965999999999951,12.677972412109376,-0.6676788330078125,8.050277709960938
7.975999999999999,8.321984863281251,0.808392333984375,9.654949951171876
7.98599999999999,5.637960815429688,0.4308135986328125,8.979495239257814
7.995999999999981,6.589907836914063,-0.8934783935546876,8.001229858398439
8.005999999999972,7.990762329101563,-1.009219360351563,5.7937774658203125
8.015999999999956,7.574005126953126,0.7684661865234376,2.494561767578125
8.025999999999954,7.603912353515626,1.0376312255859377,1.842135620117188
8.036000000000001,7.908367919921876,-0.0949554443359375,4.638760375976563
8.045999999999985,6.952981567382813,-0.7864105224609376,6.843222045898438
8.057999999999986,6.122457885742188,-0.4634124755859375,7.469329833984376
8.065999999999981,7.770794677734376,-0.1739105224609375,7.31710205078125
8.076999999999998,9.797756958007811,-0.229986572265625,6.589309692382813
8.086999999999989,9.490310668945312,-0.203070068359375,5.966790771484376
8.09699999999998,6.680227661132813,0.24942626953125,6.213375854492188
8.106999999999971,5.140155029296875,0.6802398681640626,7.502377319335938
8.116999999999962,4.954730224609375,0.3108856201171875,7.599276733398438
8.12699999999996,5.893667602539063,0.397467041015625,6.798809814453126
8.137,8.261871337890625,0.5825927734375,5.7170654296875005
8.146999999999991,10.049127197265626,0.2211639404296875,4.655209350585938
8.157999999999959,9.727923583984376,0.5015441894531251,6.109747314453125
8.16699999999998,7.357177734375001,0.6032287597656251,7.194931030273438
8.176999999999964,6.564486694335938,0.0686370849609375,7.140350341796876
8.186999999999955,6.747518920898438,-0.4807586669921875,5.999539184570313
8.197000000000003,7.269400024414063,-0.29368896484375,5.550482177734375
8.206999999999994,7.157247924804688,0.01375732421875,4.870989990234375
8.216999999999992,6.910513305664063,0.0533843994140625,4.727285766601563
8.227999999999952,5.05252685546875,-0.103778076171875,5.346813964843751
8.238,3.835302734375,0.0330474853515625,6.512448120117188
8.24799999999999,8.978598022460938,0.13218994140625,7.462750244140626
8.257999999999981,14.417825317382814,0.536236572265625,7.576248168945313
8.267999999999972,11.880795288085938,0.43245849609375,6.304144287109375
8.277999999999963,6.935784912109376,-0.45638427734375,8.634365844726563
8.287999999999954,3.931753540039063,-0.091815185546875,10.895950317382812
8.298000000000002,3.3955169677734376,0.4684967041015625,6.773388671875001
8.307999999999986,5.988922119140625,0.887646484375,2.5087677001953126
8.31799999999999,10.244869995117188,0.45518798828125,3.44112548828125
8.327999999999982,12.242523193359377,-0.5256195068359375,5.893817138671875
8.337999999999965,8.757733154296876,0.6597534179687501,6.948495483398438
8.347999999999956,6.471774291992188,0.3892425537109375,8.784500122070312
8.35899999999998,6.281414794921876,-1.00787353515625,9.706390380859377
8.368999999999971,7.759130859375,-0.75665283203125,7.279867553710938
8.378999999999955,7.971023559570313,0.2675201416015625,2.724996948242188
8.388999999999953,8.355032348632813,0.32957763671875,1.4192474365234375
8.399000000000001,8.230169677734375,0.0252716064453125,4.448251342773438
8.408999999999992,5.8749755859375,0.20635986328125,5.680429077148438
8.41899999999999,5.66861572265625,1.0561737060546876,6.7099853515625005
8.42899999999998,6.851147460937501,0.4975067138671875,7.447796630859376
8.438999999999965,9.5703125,0.189910888671875,8.135812377929689
8.448999999999955,9.420028686523438,0.29129638671875,6.592300415039063
8.459000000000003,7.616024780273438,0.0399261474609375,6.506915283203125
8.468999999999994,5.833554077148438,0.303857421875,8.192935180664064
8.478999999999992,4.972076416015625,-0.1030303955078125,7.822982788085938
8.488999999999976,5.621212768554688,-0.1918548583984375,5.724691772460938
8.498999999999967,8.035623168945314,0.227593994140625,4.802801513671875
8.509999999999991,9.760671997070313,-0.1804901123046875,4.077700805664063
8.519999999999982,9.72822265625,-0.0805999755859375,5.1727539062500005
8.529999999999973,7.747317504882813,0.15013427734375,7.079489135742188
8.539999999999964,6.647329711914063,0.193499755859375,8.271292114257813
8.549999999999955,6.680526733398438,-0.088226318359375,7.028048706054688
8.560000000000002,6.679330444335938,-0.08912353515625,5.167819213867188
8.569999999999993,5.822637939453125,0.5046844482421875,4.042858886718751
8.579999999999991,3.8728363037109377,0.0961517333984375,3.5256134033203126
8.589999999999982,6.676937866210938,-0.03050537109375,5.745626831054688
8.599999999999966,13.237536621093753,1.0980438232421876,9.23953857421875
8.61099999999999,12.739431762695313,0.612799072265625,7.623501586914063
8.620000000000005,8.631375122070313,-0.131591796875,8.437725830078126
8.629999999999995,4.878317260742188,-0.605621337890625,10.884136962890626
8.640999999999956,3.654214477539063,-0.2811279296875,7.879956054687501
8.650999999999954,4.460662841796875,1.1599517822265626,1.945315551757813
8.661000000000001,8.530886840820314,-0.00538330078125,2.3030059814453128
8.670999999999985,11.676379394531253,-0.931011962890625,6.0285491943359375
8.68099999999999,9.8897216796875,0.436346435546875,7.524508666992188
8.690999999999981,7.018328857421875,0.90738525390625,8.348901367187501
8.700999999999965,7.021618652343751,0.1395172119140625,10.128680419921876
8.710999999999956,8.300900268554688,-0.3648681640625,8.241983032226564
8.721000000000004,7.676586914062501,0.7236053466796876,3.1682220458984376
8.730999999999995,7.597781372070313,1.7024688720703127,1.7251983642578126
8.740999999999985,7.540658569335938,0.4729827880859375,4.1693664550781255
8.750999999999976,6.782061767578125,-0.26497802734375,5.55078125
8.760999999999967,5.73680419921875,-0.271258544921875,5.6393066406250005
8.770999999999958,7.156350708007813,-0.5710784912109376,7.136911010742188
8.78199999999999,9.028692626953124,-0.9024505615234376,7.921377563476563
8.79199999999998,9.862057495117188,-0.253912353515625,6.9312988281250005
8.801999999999964,7.781112670898438,-0.4035980224609375,5.995202636718751
8.811999999999955,6.417941284179688,0.109161376953125,7.854684448242188
8.822000000000003,5.319000244140625,0.1903594970703125,7.424917602539063
8.831999999999994,5.400796508789063,-0.034393310546875,6.124551391601563
8.841999999999992,6.641049194335938,0.9319091796875,5.888583374023438
8.851999999999975,8.914596557617188,0.5084228515625,5.288644409179688
8.861999999999966,9.65823974609375,0.7798309326171876,4.7126312255859375
8.871999999999957,8.856427001953126,0.9613677978515626,6.651516723632813
8.882000000000005,7.1310791015625,0.7702606201171875,7.608099365234375
8.891999999999996,7.142892456054688,0.08433837890625,7.114331054687501
8.901999999999987,6.912457275390626,-0.45758056640625,5.81097412109375
8.911999999999978,6.854736328125001,0.002392578125,5.780319213867188
8.921999999999969,6.155804443359376,-0.0801513671875,4.4255218505859375
8.93199999999996,5.1597442626953125,-0.097198486328125,4.088018798828125
8.94299999999999,4.868896484375,-0.296978759765625,5.922079467773438
8.952999999999982,9.11990966796875,-0.558966064453125,7.360317993164063
8.962999999999965,14.075088500976564,0.457879638671875,8.116970825195313
8.972999999999956,11.091244506835938,0.152227783203125,6.8789611816406255
8.983000000000004,6.475064086914063,-0.483599853515625,9.684259033203126
8.992999999999995,3.728683471679688,0.38101806640625,9.901535034179688
9.002999999999986,4.261929321289063,-0.1351806640625,4.94486083984375
9.012999999999977,6.491363525390626,0.720166015625,2.1256561279296875
9.022999999999968,9.767999267578126,0.658856201171875,4.470681762695313
9.03299999999996,11.118609619140626,0.11005859375,6.698770141601563
9.04299999999995,8.88184814453125,0.892431640625,8.164822387695313
9.052999999999995,7.368392944335938,0.366064453125,9.5595458984375
9.062999999999988,7.457666015625,-0.1649383544921875,8.648422241210938
9.074999999999989,7.614828491210938,-0.5760131835937501,5.440274047851563
9.084000000000003,6.936383056640626,-0.1662841796875,2.955731201171876
9.093999999999994,7.983734130859376,0.2812774658203125,3.085379028320313
9.103999999999992,8.015884399414062,-0.8167663574218751,3.314169311523438
9.113999999999976,6.508859252929688,-0.649884033203125,5.3810577392578125
9.123999999999969,5.905331420898438,1.1665313720703123,8.078240966796876
9.133999999999958,7.651315307617188,0.3808685302734375,7.828067016601563
9.144000000000004,9.391915893554687,0.24344482421875,6.401043701171876
9.153999999999996,9.3992431640625,0.691754150390625,6.426016235351563
9.163999999999987,7.423422241210938,0.118133544921875,6.345266723632813
9.174999999999956,5.887985229492188,0.2684173583984375,7.389328002929688
9.183999999999967,4.471578979492188,0.46116943359375,7.824777221679688
9.19399999999996,5.255148315429688,0.4179534912109375,6.747817993164063
9.20399999999995,7.779019165039063,0.1200775146484375,5.5092102050781255
9.214,9.784597778320313,0.0168975830078125,4.946356201171875
9.22399999999999,9.786242675781253,0.2166778564453125,5.721551513671876
9.234999999999957,8.181420898437501,-0.229388427734375,6.494503784179688
9.245000000000005,6.996795654296876,-0.290399169921875,7.325326538085938
9.254999999999995,6.629385375976563,-0.240155029296875,7.346859741210938
9.264999999999986,6.3833984375,-0.0940582275390625,5.140005493164063
9.274999999999975,6.798959350585938,0.393878173828125,3.885397338867188
9.284999999999968,5.84805908203125,-0.1780975341796875,3.7041595458984378
9.29499999999996,3.973922729492188,-0.477020263671875,4.80968017578125
9.30499999999995,8.011398315429688,0.6395660400390626,7.775430297851563
9.314999999999998,14.11561279296875,1.0643981933593751,9.44156188964844
9.324999999999989,12.971212768554688,0.365167236328125,8.357873535156251
9.33499999999998,6.6190673828125,-0.39896240234375,8.367593383789064
9.34499999999997,3.3774230957031253,-0.340643310546875,9.479244995117188
9.35499999999996,3.5082672119140628,0.5339935302734375,6.144140625
9.36499999999996,5.685064697265625,1.1445495605468752,1.6262054443359375
9.375999999999976,9.909759521484377,0.49765625,2.148834228515625
9.385999999999967,12.65957946777344,-0.7973266601562501,6.779818725585938
9.395999999999958,9.024655151367188,0.4430755615234375,9.553564453125
9.405999999999947,6.277377319335938,1.265972900390625,10.215411376953126
9.415999999999997,6.491363525390626,-0.454290771484375,8.624795532226564
9.425999999999988,8.34710693359375,-0.8421875000000001,6.093447875976563
9.43599999999998,7.845413208007813,1.0189392089843752,2.9184967041015626
9.44599999999997,7.312316894531251,1.26328125,1.4376403808593752
9.45599999999996,7.388430786132813,0.235968017578125,3.967941284179688
9.465999999999951,6.964196777343751,-0.344830322265625,6.871932983398438
9.476,5.982492065429688,-0.4155609130859375,6.989617919921876
9.48599999999999,7.606005859375,-0.3715972900390625,7.12509765625
9.496999999999955,9.758279418945314,-0.5283111572265625,7.461703491210938
9.505999999999972,9.56836853027344,-0.5490966796875001,6.250311279296875
9.516999999999996,7.380654907226563,0.064898681640625,6.011203002929688
9.526999999999989,5.2689056396484375,-0.070880126953125,6.965841674804688
9.536999999999978,5.163333129882813,0.31402587890625,8.209234619140625
9.546999999999969,5.35638427734375,0.6838287353515625,6.457269287109376
9.55699999999996,7.51927490234375,0.59036865234375,5.156005859375
9.56699999999995,9.840524291992187,0.5483489990234376,5.32049560546875
9.576999999999998,9.984378051757814,0.51141357421875,5.807534790039063
9.586999999999987,7.899395751953126,0.9476104736328126,6.626843261718751
9.59699999999998,6.7787719726562505,0.4370941162109375,7.573855590820313
9.606999999999973,6.73271484375,-0.3114837646484375,6.89122314453125
9.616999999999962,7.008309936523438,-0.0931610107421875,5.555416870117188
9.62699999999996,6.9028869628906255,-0.042169189453125,4.6344238281250005
9.637,7.064086914062501,-0.203369140625,4.841531372070313
9.646999999999991,5.85284423828125,-0.322998046875,4.876223754882813
9.65699999999999,4.068280029296876,-0.5423675537109376,5.724392700195313
9.66799999999995,7.317401123046875,-0.2974273681640625,7.795767211914063
9.677999999999995,13.797100830078126,0.2256500244140625,8.492007446289064
9.687999999999988,12.462042236328124,0.4948150634765625,6.118869018554688
9.69799999999998,7.827468872070313,-0.10228271484375,7.658941650390625
9.70799999999997,3.6275970458984377,0.27574462890625,10.013388061523438
9.71799999999996,3.807638549804688,0.6329864501953125,7.533181762695313
9.727999999999952,5.442965698242188,1.1011840820312502,2.584881591796876
9.738,9.767401123046875,0.5097686767578126,3.750216674804688
9.74799999999999,12.162969970703124,0.1126007080078125,7.1840148925781255
9.75799999999998,9.2676513671875,0.6866699218750001,7.255343627929688
9.767999999999972,7.2139221191406255,0.5857330322265626,8.71197509765625
9.777999999999963,6.589459228515626,-0.7149322509765625,8.854632568359376
9.787999999999954,7.167715454101563,-1.0543792724609375,6.504373168945313
9.798999999999978,7.240090942382813,-0.153424072265625,3.3011596679687503
9.808999999999967,8.258731079101564,-0.0243743896484375,1.959371948242188
9.81899999999996,8.347406005859376,-0.5314514160156251,3.724197387695313
9.82899999999995,6.931747436523438,-0.2763427734375,5.713925170898438
9.839,5.617623901367188,0.8629730224609375,7.031188964843751
9.84899999999999,7.468582153320313,0.5800506591796876,8.233758544921876
9.85899999999998,8.609991455078125,0.4146636962890625,6.951486206054688
9.868999999999971,9.440365600585938,0.5754150390625,6.624301147460938
9.878999999999955,7.623352050781251,0.2522674560546875,6.133074951171875
9.888999999999951,6.1088500976562505,0.2358184814453125,7.348205566406251
9.899,4.65416259765625,0.5477508544921875,7.910162353515625
9.908999999999992,5.337692260742188,0.267071533203125,6.572561645507813
9.91899999999999,7.862161254882813,-0.1724151611328125,5.452536010742188
9.92899999999998,9.865347290039065,0.04486083984375,4.811923217773438
9.939999999999998,9.7700927734375,-0.1840789794921875,5.249166870117188
9.949999999999989,7.948294067382813,-0.1703216552734375,6.880007934570313
9.95999999999998,6.847109985351563,-0.0227294921875,7.6819702148437505
9.96999999999997,6.510354614257813,-0.2211639404296875,6.881054687500001
9.97999999999996,6.9372802734375005,-0.103179931640625,5.6357177734375
9.98999999999996,7.084124755859375,0.3928314208984375,4.4658966064453125
10.0,6.833651733398438,0.08792724609375,4.285107421875001
10.009999999999993,4.245928955078125,-0.1772003173828125,4.6356201171875
10.019999999999982,4.1523193359375,0.043365478515625,6.305191040039063
10.029999999999973,11.869879150390624,1.1177825927734375,9.026898193359376
10.039999999999964,15.046774291992188,0.8110839843750001,8.20953369140625
10.050999999999988,10.463192749023438,0.2824737548828125,7.204052734375001
10.060000000000002,4.780670166015625,-0.3464752197265625,8.835342407226562
10.069999999999991,2.6617431640625,-0.753662109375,9.074450683593753
10.079999999999991,3.7067016601562495,1.2137847900390626,4.5207763671875005
10.090999999999951,6.884194946289063,0.9075347900390626,0.8943756103515625
10.101,12.242373657226564,-0.8133270263671876,3.819900512695313
10.11099999999999,12.325067138671876,-0.180938720703125,8.587112426757812
10.12099999999998,7.403833007812499,0.7017730712890625,9.645977783203126
10.130999999999972,5.739047241210938,0.438739013671875,9.821981811523438
10.140999999999956,7.409814453125,-1.012359619140625,8.680123901367189
10.150999999999954,8.085568237304688,-0.18662109375,4.750314331054688
10.161,7.611239624023438,1.8198547363281248,1.5213806152343752
10.170999999999983,7.279119873046875,0.6821838378906251,1.4525939941406252
10.18099999999999,7.790383911132813,-0.03828125,5.400198364257813
10.19099999999998,6.210385131835938,-0.19678955078125,6.420932006835938
10.200999999999963,5.992810058593751,-0.3778778076171875,6.612188720703125
10.210999999999956,8.733358764648438,-0.435150146484375,8.412454223632814
10.22199999999998,9.966583251953123,-0.36785888671875,7.497293090820313
10.231999999999973,9.160733032226563,-0.007476806640625,5.924920654296876
10.241999999999962,6.34093017578125,0.2450897216796875,6.242385864257813
10.25199999999996,5.236306762695313,0.0240753173828125,8.337985229492189
10.262,4.473074340820313,0.2603424072265625,7.337588500976563
10.271999999999991,5.977557373046875,0.4182525634765625,5.568576049804688
10.28199999999999,8.583822631835938,0.2815765380859375,4.940075683593751
10.29199999999998,10.57803649902344,0.45518798828125,5.301654052734375
10.301999999999964,9.266903686523438,0.84876708984375,5.693737792968751
10.311999999999957,7.431646728515625,0.7523162841796875,7.26805419921875
10.322000000000005,6.644937133789063,0.040673828125,8.102764892578126
10.331999999999994,6.728677368164063,-0.331072998046875,6.188253784179688
10.341999999999992,6.797463989257813,0.0474029541015625,4.5212249755859375
10.351999999999975,6.250311279296875,0.126806640625,3.671560668945313
10.363,5.580239868164063,0.463861083984375,4.518383789062501
10.37299999999999,4.7660156250000005,-0.2699127197265625,5.300906372070313
10.38299999999998,9.704595947265624,-0.432757568359375,7.963845825195313
10.392999999999972,13.028186035156253,0.37982177734375,9.616818237304688
10.402999999999963,10.269244384765626,-0.3695037841796875,7.675689697265626
10.412999999999954,6.433642578125,-0.4427764892578125,9.140246582031253
10.423000000000002,4.586273193359375,-0.1571624755859375,8.94644775390625
10.432999999999986,4.6931915283203125,0.3186614990234375,4.262677001953126
10.44299999999999,7.230670166015625,1.0144531250000002,2.3771759033203126
10.452999999999982,10.174288940429689,0.4185516357421875,4.956524658203126
10.462999999999964,10.679122924804688,0.3034088134765625,7.493853759765625
10.474999999999966,8.304339599609376,0.9335540771484376,7.780514526367188
10.483000000000004,7.45946044921875,0.2250518798828125,8.748760986328126
10.492999999999997,6.979449462890625,-0.3853546142578125,8.476904296875
10.502999999999986,7.449142456054688,-0.319110107421875,5.554818725585938
10.513999999999951,7.4181884765625,-0.115142822265625,2.9409271240234376
10.524,8.037567138671875,-0.229388427734375,3.0363311767578125
10.533999999999992,7.475161743164063,-0.509918212890625,4.459616088867188
10.54399999999999,6.518878173828125,-0.069683837890625,5.9373321533203125
10.55399999999998,6.370089721679688,0.730633544921875,7.063638305664063
10.563999999999965,7.849002075195313,0.29368896484375,7.517181396484376
10.574999999999989,9.259127807617189,0.3541015625,6.724191284179688
10.584000000000003,8.818893432617188,0.3270355224609375,6.275881958007813
10.593999999999994,7.038815307617188,0.4029998779296875,7.0712646484375
10.603999999999992,5.631082153320313,0.3265869140625,7.280615234375
10.613999999999976,5.312271118164063,0.248828125,7.204949951171876
10.623999999999969,6.1686645507812505,0.286212158203125,6.475213623046876
10.633999999999958,7.981790161132813,0.134283447265625,5.547042846679688
10.644000000000004,9.511096191406253,0.2775390625,4.813568115234375
10.654999999999973,9.47864685058594,-0.162396240234375,5.5679779052734375
10.664999999999964,7.804440307617188,-0.3225494384765625,6.984683227539063
10.674999999999956,6.890026855468751,0.050244140625,7.346261596679688
10.685000000000002,6.816754150390626,-0.225201416015625,6.564187622070313
10.694999999999991,6.666470336914063,-0.238360595703125,5.777926635742188
10.704999999999991,6.882550048828126,0.4678985595703125,5.028302001953126
10.714999999999982,6.108551025390625,-0.120526123046875,3.777880859375
10.724999999999966,4.2386016845703125,0.0566741943359375,4.703359985351563
10.734999999999957,5.780618286132813,0.3336151123046875,6.4901672363281255
10.745000000000005,13.163815307617188,0.8680572509765626,8.667712402343751
10.754999999999995,14.067312622070313,1.0783050537109375,8.099923706054689
10.764999999999986,8.649020385742189,0.2452392578125,8.047885131835939
10.774999999999975,3.9653991699218754,-0.2392578125,9.881198120117189
10.784999999999968,3.207998657226563,-0.3102874755859375,8.573205566406251
10.795999999999983,4.578497314453125,0.99112548828125,3.0279571533203127
10.80599999999999,8.812313842773438,0.0973480224609375,0.9111236572265624
10.81599999999998,12.719992065429688,-1.4799591064453126,5.193838500976563
10.825999999999963,10.971466064453123,-0.2319305419921875,8.779266357421875
10.835999999999956,6.390576171875001,0.8237945556640626,9.315353393554688
10.846000000000004,5.977706909179688,0.052337646484375,9.450384521484375
10.855999999999996,7.526004028320313,-0.87568359375,7.790982055664063
10.865999999999984,7.733261108398438,0.5562744140625,4.123907470703125
10.875999999999976,7.634866333007813,2.0170928955078127,1.2312805175781252
10.885999999999967,7.876666259765625,0.7959808349609375,2.381063842773438
10.895999999999958,7.300054931640625,-0.0539825439453125,6.11363525390625
10.905999999999947,5.4921630859375,0.083441162109375,7.197772216796875
10.915999999999997,6.9037841796875,0.1428070068359375,7.23515625
10.926999999999964,8.88065185546875,-0.44501953125,7.087265014648438
10.93599999999998,10.462445068359376,-0.5740692138671876,7.211080932617188
10.947000000000005,7.947396850585938,-0.46356201171875,5.825628662109375
10.956999999999994,6.136962890625001,-0.0901702880859375,6.7907348632812505
10.966999999999992,4.834353637695313,-0.1212738037109375,8.063885498046876
10.976999999999975,4.913906860351563,-0.248529052734375,7.3918701171875005
10.986999999999966,6.808230590820313,0.6563140869140626,5.5794921875000005
10.996999999999955,9.44769287109375,0.4029998779296875,4.264172363281251
11.007000000000003,10.4041259765625,0.388494873046875,5.132080078125
11.016999999999996,8.697918701171876,1.0352386474609376,6.729873657226563
11.026999999999989,6.813015747070313,0.7565032958984376,7.445553588867188
11.036999999999978,6.437380981445313,0.190509033203125,7.374972534179688
11.046999999999969,6.856530761718751,0.12740478515625,6.368743896484376
11.05699999999996,6.979898071289063,0.2358184814453125,4.690499877929688
11.06699999999995,6.644338989257813,0.3234466552734375,3.709991455078125
11.076999999999998,5.562594604492188,0.0393280029296875,4.4418212890625
11.087999999999964,4.2894439697265625,-0.4637115478515625,5.719757080078125
11.097999999999956,9.158489990234376,-0.5674896240234375,8.19876708984375
11.108000000000004,13.393054199218753,0.084039306640625,8.8417724609375
11.117999999999997,11.198162841796876,0.0500946044921875,7.179528808593751
11.127999999999986,6.7817626953125005,-0.7113433837890626,8.089007568359376
11.137999999999977,4.4035400390625,-0.3040069580078125,9.236398315429687
11.147999999999968,4.328921508789063,0.2165283203125,5.278027343750001
11.15799999999996,6.687405395507813,0.6057708740234375,2.3560913085937503
11.16799999999995,9.986920166015626,0.57840576171875,5.527603149414063
11.177999999999995,11.097225952148438,0.3662139892578125,8.580084228515625
11.187999999999988,8.280264282226563,1.6677764892578126,7.840179443359376
11.19799999999998,7.401589965820313,1.0998382568359375,7.567874145507813
11.20799999999997,7.258633422851563,-0.7591949462890626,7.765411376953126
11.21799999999996,7.1122375488281255,-0.4843475341796875,6.142794799804688
11.228999999999992,6.894662475585938,0.5682373046875,3.249868774414063
11.238999999999976,8.039660644531251,-0.275445556640625,2.238555908203125
11.248999999999969,8.131326293945314,-0.920843505859375,4.96519775390625
11.258999999999958,7.115975952148438,0.04127197265625,6.867446899414063
11.269000000000004,6.0834289550781255,0.3093902587890625,6.241488647460938
11.278999999999996,7.976107788085938,0.0011962890625,7.2961669921875005
11.288999999999987,9.08701171875,-0.13338623046875,7.192089843750001
11.298999999999978,8.636309814453126,-0.014056396484375,5.942266845703125
11.308999999999967,6.87626953125,0.356494140625,6.084475708007813
11.31899999999996,5.816357421875001,0.2906982421875,7.632473754882813
11.32899999999995,5.444610595703125,0.7810272216796875,8.04444580078125
11.339,5.9996887207031255,0.5655456542968751,6.134271240234376
11.34899999999999,8.00137939453125,0.459075927734375,5.679531860351563
11.359999999999957,9.766354370117188,0.426177978515625,5.584576416015626
11.370000000000005,9.321334838867188,-0.0892730712890625,5.295971679687501
11.379999999999995,7.6700073242187505,0.063702392578125,6.580487060546876
11.389999999999986,6.642544555664063,0.15491943359375,7.327569580078125
11.399999999999975,6.8236328125000005,-0.340643310546875,6.609945678710938
11.409999999999968,6.689349365234375,-0.34752197265625,5.168118286132813
11.41999999999996,7.057656860351563,-0.1626953125,4.82403564453125
11.42999999999995,6.460409545898438,-0.65616455078125,4.341482543945313
11.439999999999998,4.3197998046875,-1.092510986328125,5.0606018066406255
11.449999999999989,6.396557617187501,0.2069580078125,7.315756225585938
11.45999999999998,13.25772399902344,1.3301239013671875,9.54444274902344
11.46999999999997,12.770086669921875,0.2702117919921875,6.516934204101563
11.47999999999996,8.014389038085938,0.7180725097656251,7.664324951171875
11.491999999999962,4.155758666992188,0.0405242919921875,9.775924682617188
11.500999999999976,3.6458404541015614,0.5450592041015625,7.456768798828126
11.510999999999967,5.513397216796875,1.76990966796875,2.8084381103515628
11.520999999999958,8.522662353515626,0.2579498291015625,2.11922607421875
11.530999999999947,12.267047119140626,-0.261688232421875,6.58018798828125
11.540999999999997,9.954769897460938,0.7408020019531251,8.259179687500001
11.550999999999988,6.653311157226563,0.634930419921875,8.365499877929688
11.56099999999998,6.391622924804688,-0.0985443115234375,9.717306518554688
11.57099999999997,7.828067016601563,-1.1270538330078126,7.495498657226563
11.58099999999996,7.885937500000001,0.2501739501953125,3.5469970703125004
11.591999999999992,7.524807739257813,1.1550170898437502,1.851556396484375
11.601,7.558303833007813,-0.140863037109375,3.830218505859375
11.61099999999999,7.277474975585938,-0.664837646484375,5.954379272460938
11.62099999999998,5.884097290039063,-0.63223876953125,6.047091674804688
11.630999999999972,7.403683471679688,-0.4472625732421875,7.162780761718751
11.640999999999956,9.033926391601565,-0.3931304931640625,7.230969238281251
11.651999999999989,10.060791015625,-0.28651123046875,6.679779052734376
11.661999999999978,7.367196655273438,0.218621826171875,6.063241577148438
11.671999999999969,6.138607788085938,0.799420166015625,7.919433593750001
11.68199999999996,4.896710205078126,0.6416595458984375,7.475311279296876
11.69199999999995,5.503677368164063,0.4481597900390625,6.74527587890625
11.701999999999998,6.921878051757813,0.7759429931640626,5.680728149414063
11.711999999999987,9.35318603515625,0.401953125,5.012152099609375
11.72199999999998,9.767251586914064,0.411224365234375,5.262326049804688
11.731999999999973,8.281161499023439,0.5991912841796876,6.618768310546876
11.741999999999962,7.166668701171876,0.357989501953125,7.664324951171875
11.75199999999996,6.816903686523438,-0.6521270751953125,6.446652221679688
11.762,7.059600830078126,-0.462664794921875,5.708990478515625
11.771999999999991,6.466091918945313,-0.1873687744140625,4.512103271484375
11.78199999999999,5.694036865234375,-0.2866607666015625,3.8610229492187504
11.79299999999995,4.174002075195313,-0.1607513427734375,4.657452392578126
11.802999999999995,7.201211547851563,-0.40135498046875,6.918438720703126
11.812999999999988,13.324267578125,0.4414306640625,9.00506591796875
11.82299999999998,12.43766784667969,0.631939697265625,7.902835083007813
11.83299999999997,7.998388671875,-0.13218994140625,8.452679443359376
11.84299999999996,4.406979370117188,0.1326385498046875,10.198065185546875
11.852999999999952,3.9996429443359376,0.1472930908203125,6.960009765625
11.863,5.538818359375,1.055126953125,2.2102935791015628
11.87299999999999,8.582028198242188,1.200177001953125,3.1791381835937504
11.88299999999998,11.552264404296876,0.0204864501953125,6.298910522460938
11.892999999999972,9.634463500976564,0.5151519775390625,7.402487182617188
11.902999999999963,7.52525634765625,0.6735107421875001,8.795565795898439
11.912999999999954,7.0898071289062505,-0.76263427734375,8.883044433593751
11.923000000000002,7.57908935546875,-1.0972961425781251,7.460507202148438
11.933999999999967,7.199716186523438,-0.0749176025390625,4.40533447265625
11.944999999999991,7.551425170898438,0.1505828857421875,2.171713256835938
11.95399999999995,8.035623168945314,-0.381915283203125,3.414059448242188
11.964,6.884045410156251,-0.4125701904296875,5.446554565429688
11.97399999999999,5.860470581054688,0.5830413818359376,6.876568603515626
11.98399999999998,6.732565307617188,0.8348602294921875,7.044198608398438
11.993999999999971,9.2341552734375,0.322998046875,7.198968505859376
12.003999999999955,9.596331787109376,0.153125,6.758734130859375
12.013999999999951,8.008108520507813,0.6113037109375,6.672601318359376
12.024,6.049334716796875,0.6380706787109376,7.009506225585938
12.033999999999992,5.3571319580078125,-0.102581787109375,7.6086975097656255
12.04399999999999,5.430853271484375,0.1810882568359375,6.801651000976563
12.05399999999998,7.104461669921876,0.1230682373046875,5.3421783447265625
12.063999999999965,8.975607299804688,-0.0865814208984375,4.626797485351563
12.074999999999989,9.917834472656253,-0.0650482177734375,5.55496826171875
12.08499999999998,8.573953247070314,-0.1152923583984375,6.649124145507813
12.09499999999997,7.057208251953125,-0.1963409423828125,7.133920288085938
12.10499999999996,6.875671386718751,0.01495361328125,7.428656005859375
12.11499999999996,6.881652832031251,-0.2133880615234375,6.303546142578125
12.125,6.760528564453126,0.0946563720703125,4.955178833007813
12.134999999999993,6.367248535156251,0.3828125,4.323687744140625
12.144999999999982,4.533636474609375,0.0417205810546875,4.14573974609375
12.154999999999973,4.48070068359375,0.179443359375,5.858676147460938
12.164999999999964,10.89161376953125,0.8411407470703126,8.436380004882814
12.174999999999956,15.013427734375002,0.9356475830078126,8.087362670898438
12.185000000000002,11.329904174804687,0.2097991943359375,7.025656127929688
12.194999999999991,4.991366577148438,-0.7119415283203125,8.805584716796876
12.204999999999991,2.491571044921875,-0.677099609375,9.83349609375
12.214999999999982,3.1605957031250003,0.989630126953125,4.6972290039062505
12.224999999999966,6.896008300781251,0.8632720947265625,0.8112335205078126
12.23599999999999,11.4760009765625,-0.581695556640625,3.711935424804688
12.24599999999998,12.527239990234376,-0.253912353515625,9.0475341796875
12.255999999999972,8.024856567382812,0.707305908203125,9.624893188476562
12.265999999999956,6.2389465332031255,0.5372833251953125,9.791177368164064
12.275999999999954,7.113433837890626,-0.8635711669921876,8.618963623046875
12.286,7.883245849609375,-0.2572021484375,4.879513549804688
12.295999999999983,7.517630004882813,1.636822509765625,1.2688140869140625
12.30599999999999,7.476058959960938,0.83560791015625,1.081146240234375
12.31599999999998,7.850048828125001,0.093609619140625,5.157052612304688
12.325999999999963,6.487026977539063,-0.1042266845703125,6.75723876953125
12.335999999999956,6.0927001953125,-0.32359619140625,7.223342895507813
12.346000000000004,8.493801879882813,-0.45877685546875,8.36624755859375
12.355999999999996,9.852038574218753,-0.4696929931640625,7.2139221191406255
12.366999999999962,9.442010498046876,-0.3194091796875,5.86600341796875
12.37699999999996,6.411810302734375,0.039776611328125,5.8595733642578125
12.387,4.959963989257813,0.2349212646484375,7.596435546875001
12.396999999999991,4.672406005859376,0.1123016357421875,7.470077514648438
12.40699999999999,5.661886596679688,0.1882659912109375,6.18541259765625
12.41699999999998,8.329760742187501,0.6697723388671876,5.906976318359376
12.426999999999964,10.28614196777344,0.614593505859375,5.1249023437500005
12.436999999999957,9.936077880859376,0.4867401123046875,5.951239013671875
12.447000000000005,7.524658203125001,0.9126190185546876,7.341326904296875
12.456999999999994,6.552523803710938,0.332867431640625,7.405776977539063
12.466999999999992,6.651217651367188,-0.3327178955078125,5.942266845703125
12.476999999999975,6.955822753906251,-0.103778076171875,5.218362426757813
12.486999999999966,6.697872924804688,0.114544677734375,4.236807250976563
12.496999999999955,6.442764282226563,0.0805999755859375,4.117776489257813
12.507000000000003,4.524365234375001,-0.54072265625,5.30614013671875
12.517999999999972,6.289788818359376,-0.46416015625,7.6834655761718755
12.527999999999963,13.218545532226564,0.1721160888671875,9.1647705078125
12.537999999999954,12.611279296875,-0.0025421142578125,6.658544921875
12.548000000000002,8.021716308593751,-0.010467529296875,7.526751708984375
12.557999999999986,3.886444091796875,0.1583587646484375,9.635809326171875
12.56799999999999,3.782217407226563,0.153424072265625,7.574752807617188
12.577999999999982,5.794076538085938,1.18970947265625,2.8308685302734378
12.587999999999964,8.758331298828125,0.3135772705078125,3.073416137695313
12.597999999999956,11.716156005859377,0.18243408203125,7.231417846679688
12.608000000000004,9.738690185546876,0.557769775390625,8.242730712890626
12.617999999999997,7.083078002929688,0.576910400390625,8.410360717773438
12.627999999999986,7.042703247070313,0.4179534912109375,8.590103149414062
12.637999999999977,7.479049682617188,-1.0648468017578123,6.371435546875
12.649,7.54619140625,-0.2355194091796875,3.643447875976563
12.65799999999996,7.925863647460938,0.5953033447265625,2.333212280273438
12.66899999999999,7.967285156250001,-0.7496246337890625,2.799615478515625
12.67899999999998,7.576397705078126,-0.4732818603515625,5.839385986328125
12.688999999999965,5.769403076171876,0.1878173828125,7.534078979492188
12.698999999999955,6.480148315429688,0.916058349609375,7.730419921875001
12.709000000000003,9.008505249023438,0.43006591796875,7.035525512695313
12.718999999999994,9.686203002929688,-0.2507720947265625,6.4079223632812505
12.728999999999992,8.039810180664062,0.487786865234375,6.49046630859375
12.738999999999976,5.8142639160156255,0.3309234619140625,6.827072143554688
12.748999999999969,4.8976074218750005,0.0506927490234375,7.714419555664063
12.762,5.30853271484375,0.5598632812500001,7.868292236328125
12.769000000000004,6.88583984375,0.2465850830078125,5.4019927978515625
12.778999999999996,9.714764404296876,0.276043701171875,4.608404541015625
12.788999999999987,10.2270751953125,-0.037982177734375,5.16617431640625
12.799999999999956,8.594439697265626,-0.2583984375,6.484933471679688
12.810000000000002,6.767108154296875,-0.01435546875,7.320242309570313
12.819999999999991,6.399847412109375,-0.33795166015625,7.162930297851563
12.829999999999991,6.59573974609375,-0.2008270263671875,5.899948120117188
12.839999999999982,6.795370483398438,0.0082244873046875,4.199423217773438
12.849999999999966,5.547341918945313,-0.176751708984375,3.384152221679688
12.859999999999957,4.5765533447265625,-0.6657348632812501,4.981497192382813
12.870000000000005,9.099423217773438,0.30804443359375,8.549578857421876
12.879999999999995,13.169647216796877,0.9748260498046876,9.324923706054689
12.891999999999996,11.343960571289063,0.1634429931640625,7.187155151367188
12.899999999999975,6.703555297851563,0.0142059326171875,8.557205200195312
12.909999999999968,4.227536010742188,0.2968292236328125,9.239089965820312
12.91999999999996,3.598287963867188,0.98394775390625,4.603768920898438
12.92999999999995,5.6165771484375,1.4361450195312502,2.142404174804688
12.94099999999998,9.971218872070311,0.1511810302734375,4.381558227539063
12.950999999999963,11.874963378906251,-0.3889434814453125,7.3009521484375
12.960999999999956,8.829360961914062,0.944769287109375,8.612832641601564
12.971000000000004,6.942813110351563,0.6181823730468751,9.635360717773438
12.980999999999996,7.137509155273438,-0.4167572021484375,9.143087768554688
12.991999999999962,8.040408325195314,-0.462066650390625,5.612838745117188
13.000999999999976,7.427908325195313,0.6240142822265625,1.8623229980468752
13.010999999999967,7.680175781250001,0.6631927490234375,2.1521240234375
13.020999999999958,7.602416992187501,-0.1882659912109375,4.6887054443359375
13.030999999999947,6.5155883789062505,-0.6181823730468751,5.629885864257813
13.040999999999997,6.5140930175781255,-0.3997100830078125,6.874325561523438
13.051999999999964,7.850646972656251,-0.7053619384765626,7.634716796875001
13.06099999999998,9.71790466308594,-0.4750762939453125,7.5378173828125
13.072000000000005,9.157293701171875,-0.0174957275390625,6.1238037109375005
13.081999999999994,7.198519897460938,0.07596435546875,6.489419555664063
13.091999999999992,5.397656250000001,0.3542510986328125,7.636810302734376
13.101999999999975,4.8629150390625,0.5214324951171876,7.583126831054688
13.111999999999966,5.349356079101563,0.6781463623046875,6.259881591796876
13.121999999999955,7.5608459472656255,0.8990112304687501,5.7578887939453125
13.132000000000003,9.86744079589844,0.437542724609375,5.164828491210938
13.141999999999996,9.936825561523438,0.3964202880859375,5.331112670898438
13.151999999999989,8.105606079101562,0.6984832763671875,6.981692504882813
13.161999999999978,6.729125976562501,0.2237060546875,7.596435546875001
13.171999999999969,6.897055053710938,-0.50244140625,6.683966064453125
13.18199999999996,6.917990112304688,-0.4915252685546875,5.151519775390625
13.19199999999995,6.890325927734375,-0.0237762451171875,4.406979370117188
13.201999999999998,6.463848876953126,-0.4882354736328125,4.021774291992188
13.211999999999987,4.730725097656251,-0.6326873779296875,4.808932495117188
13.222999999999956,5.6141845703125,-0.4113739013671875,7.244427490234376
13.233000000000004,11.480636596679688,0.2232574462890625,8.78494873046875
13.242999999999997,12.975848388671876,0.7902984619140626,7.889675903320313
13.252999999999986,9.175537109375,0.302960205078125,7.147378540039063
13.262999999999977,4.9937591552734375,0.35709228515625,9.4447021484375
13.272999999999968,4.035980224609375,0.4607208251953125,7.75853271484375
13.28299999999996,5.387637329101563,0.5085723876953125,3.2012695312500004
13.29299999999995,8.016632080078125,0.6892120361328126,3.8317138671875
13.302999999999995,10.76600341796875,0.6189300537109376,6.795370483398438
13.312999999999988,9.896450805664063,0.46475830078125,7.085321044921876
13.32299999999998,8.009603881835938,0.4689453125,7.974313354492188
13.33299999999997,7.404580688476563,-0.256903076171875,8.827716064453126
13.34299999999996,7.094442749023438,-1.0140045166015623,6.753500366210938
13.352999999999952,7.511648559570313,-0.352606201171875,4.211087036132813
13.363,7.859020996093751,0.028411865234375,3.306393432617188
13.373999999999969,7.833450317382813,-0.4813568115234375,3.5618011474609377
13.383999999999958,7.473367309570313,-0.0767120361328125,5.038769531250001
13.394000000000004,6.356631469726563,0.0949554443359375,6.297564697265625
13.403999999999996,6.2972656250000005,0.957928466796875,7.566229248046875
13.413999999999987,8.332601928710938,0.4768707275390625,7.400393676757813
13.423999999999978,9.1767333984375,0.0626556396484375,5.726635742187501
13.433999999999967,8.845809936523438,0.423785400390625,6.717611694335938
13.44399999999996,6.080288696289063,0.3997100830078125,7.00546875
13.45399999999995,5.442666625976563,0.20396728515625,8.067922973632813
13.464,5.135968017578126,0.33974609375,7.546640014648438
13.47399999999999,6.840081787109376,0.266473388671875,5.953182983398438
13.48399999999998,9.005813598632812,-0.1607513427734375,4.6972290039062505
13.495000000000005,10.140194702148438,-0.1559661865234375,4.745230102539063
13.503999999999955,8.717807006835939,0.040972900390625,6.192440795898438
13.514999999999986,6.933392333984376,-0.1818359375,7.1693603515625
13.524999999999975,6.576150512695313,-0.146246337890625,7.289138793945313
13.534999999999968,7.0180297851562505,0.0423187255859375,6.647329711914063
13.54499999999996,7.194332885742188,-0.0414215087890625,5.0117034912109375
13.55499999999995,7.374523925781251,0.1383209228515625,4.383950805664063
13.564999999999998,6.290237426757813,-0.09869384765625,4.784857177734375
13.574999999999989,3.1655303955078127,-0.3832611083984375,5.112789916992188
13.58499999999998,6.135617065429688,0.57122802734375,7.603762817382813
13.59499999999997,13.362997436523438,1.327880859375,8.817996215820314
13.60499999999996,14.2011474609375,0.5719757080078125,6.921578979492188
13.61499999999996,8.60430908203125,-0.2069580078125,7.319195556640626
13.625,4.163983154296876,-0.8505615234375,9.878506469726563
13.634999999999993,2.822494506835937,0.1885650634765625,8.516680908203126
13.644999999999982,4.161590576171875,1.09759521484375,2.8782714843750004
13.655999999999947,8.826519775390626,0.183929443359375,1.9047912597656247
13.665999999999997,12.87730407714844,-0.5190399169921875,5.831011962890625
13.675999999999988,10.572354125976563,0.7547088623046876,7.636959838867188
13.68599999999998,6.7907348632812505,1.1485870361328123,8.818594360351563
13.69599999999997,6.1417480468750005,-0.17884521484375,10.193878173828123
13.70599999999996,7.295867919921876,-0.7986724853515625,7.9810424804687505
13.715999999999951,7.518228149414063,0.4175048828125,3.02720947265625
13.726,7.901638793945313,1.543511962890625,1.2643280029296875
13.73599999999999,7.827618408203126,0.2875579833984375,3.4943603515625004
13.74599999999998,7.103564453125,-0.1736114501953125,6.072662353515625
13.755999999999972,6.045147705078126,-0.1984344482421875,6.287844848632813
13.765999999999956,7.1095458984375,-0.7798309326171876,7.299307250976563
13.775999999999954,9.227725219726564,-0.467449951171875,8.464193725585938
13.786,9.433636474609376,-0.7542602539062501,6.6705078125
13.796999999999969,7.9325927734375,0.1487884521484375,5.97366943359375
13.80699999999996,6.082531738281251,0.2165283203125,6.771743774414063
13.81699999999995,5.198324584960938,-0.1164886474609375,7.727130126953125
13.826999999999998,5.042208862304688,0.6410614013671876,6.8954101562500005
13.836999999999987,6.954177856445313,0.6836791992187501,5.560800170898438
13.84699999999998,9.361111450195311,0.4329071044921875,4.7974182128906255
13.856999999999973,10.281954956054689,0.3766815185546875,5.743832397460938
13.866999999999962,8.248114013671875,0.99591064453125,6.490316772460938
13.87699999999996,7.069619750976563,0.8359069824218751,7.517929077148438
13.887,6.581683349609375,-0.2872589111328125,6.888082885742188
13.896999999999991,6.9462524414062505,-0.3925323486328125,5.8917236328125
13.908999999999992,6.871932983398438,-0.0572723388671875,4.633526611328126
13.91699999999998,5.99998779296875,-0.6113037109375,3.5106597900390626
13.927999999999995,4.744631958007813,-0.666632080078125,4.7485198974609375
13.937999999999988,5.2433349609375,-0.9218902587890626,6.485382080078126
13.94799999999998,12.060537719726565,-0.2211639404296875,9.078488159179688
13.95799999999997,13.814895629882814,0.308941650390625,8.415444946289064
13.96799999999996,9.619061279296876,-0.0611602783203125,7.007562255859376
13.977999999999952,4.831961059570313,0.320904541015625,9.73584899902344
13.988,2.870046997070313,0.8429351806640626,8.342022705078126
13.99799999999999,4.71636962890625,1.5707275390625002,3.1637359619140626
14.008999999999958,8.175888061523438,1.182830810546875,2.083038330078125
14.017999999999972,11.39749450683594,0.7357177734375,6.214572143554688
14.027999999999963,10.51941833496094,1.4123687744140625,8.4888671875
14.037999999999954,7.711727905273438,1.0768096923828123,8.12998046875
14.048000000000002,7.837338256835938,-0.0512908935546875,9.135760498046876
14.057999999999986,6.773687744140625,-0.9655548095703126,7.055264282226563
14.06799999999999,6.996197509765626,-0.6868194580078125,4.250265502929688
14.07899999999995,7.060198974609375,-0.0037384033203125,2.4776641845703127
14.089,8.209832763671876,-1.0252197265625,3.330917358398438
14.09899999999999,7.49654541015625,-1.3627227783203126,4.66612548828125
14.10899999999998,6.450988769531251,-0.6231170654296876,6.557757568359375
14.118999999999971,7.177734375000001,0.2284912109375,8.184710693359376
14.128999999999955,8.505316162109375,0.177349853515625,7.866348266601563
14.138999999999951,9.080581665039062,0.5618072509765626,6.356930541992188
14.149,8.317050170898439,0.5534332275390625,5.8630126953125
14.158999999999992,6.649871826171876,0.8540008544921875,6.839782714843751
14.16899999999999,5.244381713867188,0.8773284912109376,7.2028564453125
14.17899999999998,4.8512512207031255,0.9568817138671876,6.548635864257813
14.188999999999965,6.871334838867188,0.7364654541015625,6.489569091796875
14.199999999999989,8.741134643554688,-0.020037841796875,5.7338134765625
14.20999999999998,9.708334350585938,0.526068115234375,5.564389038085938
14.218999999999994,8.963644409179688,0.022430419921875,6.0988311767578125
14.22999999999996,7.6574462890625,-0.8545989990234376,6.983187866210938
14.23999999999996,6.912158203125,-0.8227478027343751,7.246072387695313
14.25,6.505718994140626,-0.5118621826171875,5.922079467773438
14.259999999999993,6.862213134765626,-0.45638427734375,5.091705322265625
14.269999999999982,6.991262817382813,-0.4801605224609375,4.8557373046875005
14.279999999999973,6.321340942382813,-0.5314514160156251,4.445709228515625
14.289999999999964,3.71627197265625,-0.6717163085937501,4.255200195312501
14.299999999999956,5.637213134765625,0.0186920166015625,6.4557739257812505
14.310000000000002,13.925103759765626,1.820004272460937,10.208831787109377
14.319999999999991,15.505551147460938,1.068585205078125,8.838333129882812
14.329999999999991,8.52296142578125,0.1568634033203125,6.709088134765626
14.339999999999982,3.063247680664063,0.2591461181640625,9.46204833984375
14.349999999999966,1.7314788818359377,1.158306884765625,8.916390991210939
14.359999999999957,3.904537963867188,2.045504760742188,2.77120361328125
14.37099999999998,9.006112670898439,0.8240936279296875,0.0873291015625
14.380999999999972,13.606292724609377,-1.0196868896484377,3.997998046875
14.390999999999956,11.739483642578126,0.2950347900390625,11.1888916015625
14.400999999999954,6.1686645507812505,1.0017425537109377,10.23245849609375
14.411,5.1911468505859375,-0.52457275390625,9.323577880859377
14.420999999999983,7.718606567382813,-1.4255279541015626,7.59703369140625
14.43099999999999,7.999734497070313,-0.3255401611328125,3.748123168945313
14.44099999999998,7.231716918945313,1.7157775878906252,0.61907958984375
14.450999999999963,7.48458251953125,0.5052825927734376,1.779779052734375
14.460999999999956,7.710531616210938,-0.9872375488281252,6.381155395507813
14.471000000000004,6.0998779296875005,-0.5809478759765625,7.797561645507813
14.480999999999996,6.355136108398438,0.0695343017578125,6.875970458984376
14.490999999999984,9.733605957031251,-0.409429931640625,7.794271850585938
14.500999999999976,10.394406127929688,-0.157012939453125,7.136611938476563
14.512,8.33753662109375,0.1553680419921875,5.7339630126953125
14.521999999999991,5.358029174804688,0.3183624267578125,5.603717041015625
14.53199999999999,4.985235595703125,0.21533203125,8.646328735351563
14.54199999999998,4.422232055664063,0.2890533447265625,7.893563842773438
14.551999999999964,6.592898559570313,0.8194580078125001,5.216567993164063
14.561999999999957,9.631173706054687,0.34393310546875,4.253704833984376
14.572000000000005,10.95621337890625,0.17286376953125,5.785104370117188
14.581999999999994,8.742181396484376,0.618780517578125,7.082180786132813
14.591999999999992,6.498092651367188,0.6778472900390625,7.062442016601563
14.601999999999975,6.685760498046876,-0.3587371826171875,7.32547607421875
14.611999999999966,6.76920166015625,-0.708203125,6.183468627929688
14.621999999999955,7.017581176757813,0.31761474609375,4.484588623046875
14.632000000000003,6.565533447265626,0.078057861328125,3.1523712158203128
14.641999999999996,5.884396362304688,-0.3665130615234375,4.4060821533203125
14.652999999999963,4.628741455078125,-0.5495452880859375,5.966790771484376
14.662999999999954,8.624945068359375,-0.5416198730468751,8.13177490234375
14.673000000000002,13.00171813964844,0.8665618896484376,9.476403808593751
14.682999999999986,11.569909667968751,0.7017730712890625,7.813113403320313
14.69299999999999,7.008609008789063,-0.465057373046875,7.895507812500001
14.702999999999982,3.670513916015625,0.524871826171875,8.707040405273439
14.712999999999964,4.108355712890625,0.9455169677734376,5.4508911132812505
14.722999999999956,6.58018798828125,0.6751556396484375,2.3224456787109378
14.733000000000004,10.339675903320312,0.3102874755859375,5.5986328125
14.742999999999997,11.204293823242187,-0.007177734375,7.717111206054688
14.752999999999986,8.988766479492188,0.4460662841796875,7.5138916015625
14.762999999999977,7.758084106445313,0.25421142578125,8.699264526367188
14.772999999999968,6.543103027343751,-0.5495452880859375,8.102615356445312
14.78299999999996,6.7123779296875,-0.5897705078125001,5.5201263427734375
14.79399999999999,7.141546630859375,-0.0961517333984375,2.9400299072265628
14.80399999999998,8.384341430664064,-0.12919921875,2.8646636962890626
14.813999999999965,7.926312255859376,-0.392681884765625,4.261630249023438
14.823999999999955,6.5209716796875,-0.040673828125,6.016436767578125
14.834000000000003,6.539215087890626,0.9063385009765624,7.596435546875001
14.843999999999994,7.678680419921876,0.5471527099609376,7.501779174804688
14.853999999999992,9.139947509765626,0.3799713134765625,6.764266967773438
14.863999999999976,8.782107543945314,0.63223876953125,5.92222900390625
14.873999999999969,7.387832641601563,0.3156707763671875,6.440371704101563
14.883999999999958,5.647531127929688,0.0312530517578125,7.2139221191406255
14.894999999999982,4.879812622070313,0.192901611328125,7.760476684570313
14.903999999999996,5.79063720703125,0.374737548828125,6.677386474609375
14.913999999999987,8.292974853515625,-0.1245635986328125,5.56334228515625
14.923999999999978,9.784298706054688,-0.1870697021484375,5.072714233398438
14.935000000000002,9.683212280273438,0.0360382080078125,5.677886962890625
14.944999999999991,7.83629150390625,-0.2983245849609375,6.606356811523438
14.954999999999991,6.469082641601563,-0.1661346435546875,7.3963562011718755
14.964999999999982,6.573458862304688,0.2474822998046875,7.089956665039063
14.974999999999966,6.654058837890625,-0.18243408203125,5.0191802978515625
14.984999999999957,7.32188720703125,0.4352996826171875,4.402792358398438
14.995000000000005,6.264218139648438,0.4224395751953125,3.84666748046875
15.004999999999995,4.01773681640625,0.1894622802734375,4.510009765625
15.014999999999986,6.073110961914063,0.29129638671875,6.808978271484375
15.024999999999975,13.448831176757814,1.060061645507813,10.154849243164064
15.034999999999968,14.35487060546875,1.003237915039063,9.186154174804688
15.04499999999996,8.452828979492189,-0.56046142578125,7.165472412109375
15.05499999999995,3.1091552734375,-1.2302337646484376,8.482586669921876
15.064999999999998,2.515646362304688,-0.2178741455078125,7.715914916992188
15.074999999999989,4.912710571289063,0.8798706054687501,2.535983276367188
15.085999999999956,8.800051879882814,0.1712188720703125,0.425579833984375
15.096000000000004,13.005755615234376,-0.8157196044921876,7.109844970703126
15.105999999999996,11.132067871093753,0.308941650390625,10.971615600585938
15.115999999999984,6.9277099609375,0.808392333984375,9.716409301757814
15.125999999999976,6.362762451171876,0.010467529296875,8.600122070312501
15.135999999999967,7.164724731445313,-0.8456268310546876,6.586767578125
15.145999999999958,7.353439331054688,0.4879364013671875,3.6322326660156254
15.155999999999947,6.8080810546875,1.8247894287109376,1.059912109375
15.165999999999997,7.502078247070313,0.70521240234375,2.5213287353515628
15.175999999999988,7.748812866210938,0.2675201416015625,6.624749755859376
15.18599999999998,6.569720458984375,-0.222808837890625,7.301849365234376
15.19599999999997,7.217361450195313,-0.3342132568359375,7.027749633789063
15.20599999999996,9.694577026367188,-0.7262969970703126,7.888928222656251
15.215999999999951,9.5475830078125,-0.6231170654296876,6.346014404296875
15.226999999999975,7.892965698242188,0.0707305908203125,5.685214233398438
15.236999999999966,5.184866333007813,0.0940582275390625,5.872882080078125
15.246999999999955,5.104116821289063,-0.0823944091796875,8.028146362304689
15.257000000000003,4.977310180664063,0.3336151123046875,7.538565063476563
15.266999999999996,6.781015014648438,0.4586273193359375,5.55736083984375
15.276999999999989,9.678726196289062,0.3584381103515625,5.7140747070312505
15.287999999999954,10.416387939453124,0.3566436767578125,6.135018920898438
15.296999999999969,8.425613403320312,0.8732910156250001,6.582879638671876
15.30699999999996,6.700564575195313,1.0968475341796875,7.032235717773438
15.31699999999995,6.520523071289063,-0.0967498779296875,6.6561523437500005
15.326999999999998,6.963449096679688,-0.1356292724609375,5.566183471679688
15.336999999999987,7.109695434570313,0.137872314453125,4.066934204101563
15.34699999999998,7.0736572265625,-0.1021331787109375,3.9733245849609378
15.356999999999973,6.152066040039063,0.031103515625,5.223297119140625
15.367999999999997,3.8919769287109376,-0.2624359130859375,5.543304443359375
15.377999999999986,7.691989135742188,-0.53653564453125,7.583874511718751
15.387999999999977,13.690631103515626,0.1290496826171875,9.949386596679688
15.397999999999968,12.302487182617188,0.299371337890625,7.727728271484375
15.409999999999968,7.476208496093751,-0.3692047119140625,6.859970092773438
15.41799999999995,3.271102905273438,-0.2534637451171875,8.702105712890626
15.427999999999995,3.426620483398438,0.396868896484375,7.802944946289063
15.437999999999988,5.536276245117188,1.2701599121093752,2.56484375
15.44799999999998,9.941909790039062,0.0478515625,2.8091857910156253
15.45799999999997,12.625186157226564,-0.1242645263671875,8.329312133789063
15.46799999999996,10.213766479492188,0.9081329345703124,9.1647705078125
15.477999999999952,7.232015991210938,0.6772491455078126,7.673297119140625
15.488,6.7653137207031255,-0.074169921875,7.894012451171876
15.49799999999999,6.136065673828125,-0.9076843261718752,6.89481201171875
15.509999999999993,6.526504516601563,0.207257080078125,3.91365966796875
15.519000000000004,7.957864379882813,0.5444610595703125,1.2882537841796875
15.528999999999996,8.399594116210938,-0.7093994140625001,2.941525268554688
15.538999999999987,7.560995483398438,-0.145947265625,6.897802734375
15.548999999999978,5.932247924804688,0.433056640625,7.316653442382813
15.558999999999967,7.485479736328125,0.430963134765625,7.323532104492188
15.56899999999996,9.01089782714844,0.2600433349609375,7.27822265625
15.57899999999995,9.204098510742188,0.0533843994140625,6.403884887695313
15.589,7.559051513671876,0.12022705078125,5.727084350585938
15.59899999999999,5.74517822265625,0.109161376953125,6.717611694335938
15.609999999999957,4.892971801757813,0.2154815673828125,8.013940429687501
15.618999999999971,5.4012451171875,0.432757568359375,7.118069458007813
15.628999999999955,7.550976562500001,0.2543609619140625,5.761776733398438
15.638999999999951,9.723587036132812,0.45399169921875,5.445507812500001
15.649,9.97705078125,0.1449005126953125,5.429208374023438
15.659999999999968,8.185757446289063,-0.1514801025390625,6.477157592773438
15.66999999999996,6.68785400390625,0.228790283203125,7.244577026367188
15.67999999999995,6.389230346679688,-0.119927978515625,6.619216918945313
15.689999999999998,6.808679199218751,-0.3545501708984375,5.226736450195313
15.699999999999989,6.899447631835938,0.00478515625,4.309481811523438
15.70999999999998,6.18541259765625,-0.1221710205078125,3.7505157470703128
15.71999999999997,4.611096191406251,-0.83680419921875,4.12540283203125
15.72999999999996,6.800753784179688,-0.235968017578125,7.0030761718750005
15.73999999999996,12.698458862304689,1.0323974609375002,10.997036743164063
15.75,13.19925537109375,0.222509765625,9.075048828125
15.759999999999993,8.071212768554688,-0.39716796875,7.371981811523438
15.769999999999982,3.740496826171875,0.0572723388671875,8.567074584960938
15.779999999999973,3.15281982421875,0.8264862060546876,6.742135620117188
15.789999999999964,5.504724121093751,2.062103271484375,2.3382965087890626
15.799999999999956,8.983981323242189,0.7902984619140626,1.2610382080078126
15.81099999999998,12.460098266601564,-0.377728271484375,7.203454589843751
15.822000000000005,10.617364501953126,1.218719482421875,10.344610595703124
15.83099999999996,6.934140014648438,0.8258880615234375,9.220098876953124
15.840999999999951,6.196926879882813,-0.2083038330078125,8.476306152343751
15.851,7.2767272949218755,-0.8516082763671876,7.192538452148438
15.86099999999999,7.020123291015626,0.1757049560546875,3.782516479492188
15.87099999999998,6.9958984375,1.1817840576171876,1.6507293701171877
15.880999999999972,7.502825927734375,-0.34931640625,3.5513336181640627
15.890999999999956,7.843917846679688,-0.95643310546875,6.340182495117188
15.900999999999954,6.837240600585938,-0.7409515380859375,6.4874755859375
15.911,7.725634765625,-1.0036865234375,6.749761962890625
15.920999999999983,8.700909423828126,-0.1712188720703125,7.349102783203126
15.93099999999999,9.995742797851562,-0.07476806640625,6.863858032226563
15.94099999999998,7.056460571289063,-0.076263427734375,4.7316223144531255
15.951999999999998,6.218161010742188,0.9945648193359377,7.199417114257813
15.961999999999987,4.967739868164063,0.551788330078125,7.459310913085938
15.97199999999998,5.648129272460938,0.31761474609375,7.200613403320313
15.981999999999973,6.701611328125001,1.32130126953125,6.603216552734375
15.991999999999962,8.822183227539064,0.6365753173828126,5.645587158203125
16.00199999999996,10.02310791015625,0.497357177734375,5.993258666992188
16.012,8.563336181640626,0.6830810546875,6.279769897460938
16.02199999999999,7.101470947265626,0.332568359375,6.665423583984375
16.03199999999999,6.916943359375001,-0.5471527099609376,6.20634765625
16.04199999999998,6.962850952148438,-0.8928802490234375,5.794973754882813
16.051999999999964,6.641946411132813,-0.1087127685546875,5.022320556640626
16.061999999999955,6.568673706054688,-0.0767120361328125,4.0733642578125
16.072000000000003,5.675344848632813,-0.1435546875,4.269854736328125
16.081999999999994,4.860073852539063,-0.0225799560546875,5.477508544921875
16.09299999999996,9.069216918945314,-0.514105224609375,7.182369995117188
16.102999999999952,13.216751098632814,1.2239532470703125,10.189990234375
16.113,11.400634765625,0.6999786376953125,8.453277587890625
16.12299999999999,6.194235229492188,-0.5112640380859376,7.6658203125
16.13299999999998,3.1954376220703127,0.2723052978515625,8.735153198242188
16.142999999999972,4.096841430664063,0.4197479248046875,5.858526611328125
16.152999999999963,7.263867187500001,0.5351898193359376,2.589666748046876
16.162999999999954,10.864697265625,0.0838897705078125,4.805194091796875
16.173000000000002,11.863150024414065,-0.4275238037109375,8.241683959960938
16.182999999999986,9.180023193359377,0.440533447265625,8.915493774414063
16.19299999999999,7.04075927734375,0.2474822998046875,7.941116333007813
16.20299999999998,6.072811889648438,-0.460870361328125,7.023263549804688
16.212999999999965,6.477606201171875,-0.6987823486328125,5.689849853515625
16.22399999999999,7.185061645507813,-0.193499755859375,3.387442016601563
16.23399999999998,8.255889892578125,0.4044952392578125,2.2407989501953125
16.24399999999997,8.175289916992188,-0.1649383544921875,4.075607299804688
16.253999999999955,6.907821655273438,0.0826934814453125,7.073358154296876
16.263999999999953,6.535626220703126,0.8357574462890626,8.052670288085938
16.274,7.221548461914063,0.63822021484375,6.829464721679688
16.283999999999992,9.142041015625,0.6593048095703126,6.564038085937501
16.29399999999999,9.065628051757812,0.48988037109375,5.754299926757813
16.30399999999998,7.272390747070313,0.1105072021484375,5.601324462890625
16.313999999999965,5.39227294921875,0.2660247802734375,7.431198120117188
16.323999999999955,4.769903564453125,0.180938720703125,8.321536254882814
16.334000000000003,6.042007446289063,0.0746185302734375,7.042254638671875
16.34499999999997,8.410061645507813,-0.17705078125,5.558706665039063
16.353999999999992,9.996041870117187,-0.198583984375,5.152416992187501
16.363999999999976,9.735101318359376,-0.121722412109375,5.446554565429688
16.375,7.547686767578125,-0.2666229248046875,6.314312744140626
16.38499999999999,6.170309448242188,0.0838897705078125,7.438824462890626
16.394999999999982,6.313864135742188,0.1523773193359375,6.839334106445313
16.404999999999973,7.083078002929688,-0.0671417236328125,5.078695678710938
16.414999999999964,7.4780029296875,0.5176940917968751,4.6647796630859375
16.426999999999964,7.016683959960938,-0.0369354248046875,4.457672119140625
16.435000000000002,4.702761840820313,-0.351409912109375,4.226788330078126
16.444999999999993,3.880612182617188,-0.158209228515625,4.7854553222656255
16.45499999999999,10.42506103515625,0.8571411132812501,8.716909790039063
16.464999999999982,15.122140502929687,1.2919921875,11.392410278320312
16.474999999999966,11.861355590820311,0.3623260498046875,8.210131835937501
16.484999999999957,4.927365112304688,-0.515301513671875,6.370687866210938
16.495000000000005,2.5881713867187504,-0.5734710693359375,8.999832153320312
16.504999999999995,3.4197418212890627,1.265972900390625,6.736752319335938
16.515999999999956,7.1334716796875,0.9778167724609376,0.665435791015625
16.526999999999987,12.530679321289064,-1.14185791015625,1.756900024414063
16.536,12.826013183593751,-0.3270355224609375,10.064678955078126
16.545999999999985,8.213870239257814,1.44093017578125,10.55426025390625
16.55599999999999,4.882803344726563,0.5520874023437501,7.730569458007813
16.56599999999998,6.151318359375001,-0.9060394287109376,7.742233276367188
16.575999999999965,7.508059692382813,0.1777984619140625,6.642245483398438
16.585999999999956,7.124948120117188,1.57431640625,2.3381469726562503
16.596000000000004,7.32786865234375,1.3178619384765626,0.310137939453125
16.605999999999995,8.147326660156251,-0.1251617431640625,5.6023712158203125
16.615999999999985,6.844717407226563,-0.8396453857421876,7.605856323242188
16.62699999999996,6.486578369140625,-0.7180725097656251,6.669311523437501
16.635999999999967,8.103811645507813,-0.500946044921875,7.068572998046876
16.645999999999958,10.050772094726565,-0.5455078125,7.743728637695313
16.65599999999995,8.84954833984375,-0.5538818359375001,5.756692504882813
16.66699999999998,6.74228515625,-0.18004150390625,5.7160186767578125
16.676999999999964,4.880410766601563,0.4403839111328125,7.784252929687501
16.686999999999955,4.9705810546875,0.3659149169921875,8.242282104492189
16.697000000000003,6.239694213867188,0.503338623046875,5.47720947265625
16.706999999999994,9.168209838867188,0.650482177734375,4.773043823242188
