time,ax,ay,az,timestamp
0.0,8.472567749023439,0.30924072265625,3.6424011230468754,1706366123151.0
0.0100000000000051,8.535073852539064,0.6630432128906251,4.2520599365234375,1706366123161.0
0.019999999999996,8.828463745117189,0.5323486328125,4.88145751953125,1706366123171.0
0.0300000000000011,8.9494384765625,-0.006280517578125,4.339987182617188,1706366123181.0
0.0400000000000062,8.901138305664062,-1.1441009521484375,4.86351318359375,1706366123191.0
0.0499999999999971,8.631375122070313,-1.1953918457031252,4.263873291015625,1706366123201.0
0.0600000000000022,8.761172485351564,-0.5205352783203125,2.9962554931640626,1706366123211.0
0.0720000000000027,9.604705810546877,-0.232379150390625,3.4137603759765627,1706366123223.0
0.081000000000003,9.74197998046875,0.3707000732421875,3.6450927734375,1706366123232.0
0.0910000000000081,9.240286254882813,0.6676788330078125,3.9688385009765614,1706366123242.0
0.100999999999999,8.86689453125,0.569732666015625,4.7111358642578125,1706366123252.0
0.1110000000000042,8.195028686523438,0.9643585205078126,4.030148315429688,1706366123262.0
0.1210000000000093,8.457315063476564,0.488983154296875,3.5202301025390628,1706366123272.0
0.1310000000000002,9.5332275390625,-0.246435546875,4.146636962890625,1706366123282.0
0.1410000000000053,10.14737243652344,0.5576202392578126,2.581442260742188,1706366123292.0
0.1509999999999962,9.9327880859375,0.5088714599609375,2.457028198242188,1706366123302.0
0.1610000000000013,9.280810546875,-0.303857421875,4.234564208984375,1706366123312.0
0.171999999999997,8.326470947265626,0.13458251953125,3.548492431640625,1706366123323.0
0.1809999999999973,8.389126586914063,-0.0782073974609375,4.1144866943359375,1706366123332.0
0.1920000000000072,9.057702636718751,-0.516796875,5.098883056640625,1706366123343.0
0.2010000000000076,9.54459228515625,0.040673828125,3.647335815429688,1706366123352.0
0.2120000000000033,9.53980712890625,-0.435150146484375,3.721505737304688,1706366123363.0
0.2220000000000084,9.407467651367188,-0.7657745361328125,3.8157135009765626,1706366123373.0
0.2319999999999993,8.846707153320313,0.1655364990234375,2.5756103515625,1706366123383.0
0.2420000000000044,8.75205078125,0.155816650390625,3.3896850585937504,1706366123393.0
0.2520000000000095,8.991607666015625,0.1218719482421875,4.451989746093751,1706366123403.0
0.2620000000000004,9.227127075195312,1.2338226318359375,3.712234497070313,1706366123413.0
0.2720000000000055,9.325970458984376,1.2511688232421876,4.155609130859375,1706366123423.0
0.2819999999999965,9.302044677734376,1.152774047851563,4.140057373046876,1706366123433.0
0.2920000000000016,8.860314941406251,1.0762115478515626,3.2562988281250003,1706366123443.0
0.3020000000000067,8.725881958007813,-0.2190704345703125,3.998745727539063,1706366123453.0
0.3119999999999976,8.657693481445314,-0.472833251953125,3.9845397949218753,1706366123463.0
0.3220000000000027,8.672048950195313,-0.130694580078125,3.3013092041015626,1706366123473.0
0.3320000000000078,8.896353149414063,-1.3489654541015623,4.450045776367188,1706366123483.0
0.3419999999999987,8.472119140625,-1.4623138427734377,4.564739990234376,1706366123493.0
0.3520000000000038,9.381298828125,-0.5782562255859376,4.1095520019531255,1706366123503.0
0.3629999999999995,9.472216796875,-0.7539611816406251,5.324533081054688,1706366123514.0
0.3730000000000046,8.998635864257814,-0.491375732421875,4.243685913085938,1706366123524.0
0.3829999999999955,8.911904907226564,-0.141461181640625,3.079397583007813,1706366123534.0
0.3930000000000007,9.90332946777344,0.1051239013671875,2.9081787109375004,1706366123544.0
0.4030000000000058,9.70010986328125,1.005780029296875,2.248126220703125,1706366123554.0
0.4129999999999967,9.67080078125,1.4871368408203125,3.646438598632813,1706366123564.0
0.4230000000000018,9.175088500976564,1.687664794921875,4.242938232421875,1706366123574.0
0.4330000000000069,8.340377807617188,1.7690124511718752,3.576605224609376,1706366123584.0
0.4429999999999978,7.861563110351563,0.5389282226562501,4.584628295898438,1706366123594.0
0.4530000000000029,8.679226684570313,-0.079254150390625,4.440325927734375,1706366123604.0
0.463000000000008,9.409710693359376,-0.0488983154296875,3.4943603515625004,1706366123614.0
0.472999999999999,10.208831787109377,-1.155615234375,4.0916076660156255,1706366123624.0
0.4830000000000041,9.998135375976563,-1.6025787353515626,3.349908447265625,1706366123634.0
0.4939999999999998,9.043646240234375,-1.295281982421875,2.6132934570312503,1706366123645.0
0.5040000000000049,8.286993408203125,-1.5233245849609376,4.131832885742188,1706366123655.0
0.5139999999999958,8.529092407226564,-0.5344421386718751,4.288845825195313,1706366123665.0
0.5240000000000009,9.236846923828123,0.5656951904296875,3.888388061523438,1706366123675.0
0.534000000000006,9.679473876953123,0.4510009765625,4.84317626953125,1706366123685.0
0.5439999999999969,9.238043212890624,1.0800994873046876,4.15411376953125,1706366123695.0
0.554000000000002,8.420230102539064,1.4515472412109376,3.392526245117188,1706366123705.0
0.5640000000000072,8.330957031250001,1.098492431640625,3.6024749755859378,1706366123715.0
0.5739999999999981,8.737994384765626,1.582391357421875,2.732772827148437,1706366123725.0
0.5840000000000032,9.584518432617188,1.137371826171875,2.95244140625,1706366123735.0
0.5940000000000083,9.847702026367188,0.1694244384765625,4.690350341796876,1706366123745.0
0.6039999999999992,9.355130004882811,0.3883453369140625,4.211685180664063,1706366123755.0
0.6140000000000043,8.289385986328126,-0.3318206787109375,4.336996459960938,1706366123765.0
0.6240000000000094,8.218356323242189,-1.1719146728515626,4.729827880859375,1706366123775.0
0.6340000000000003,8.740536499023438,-0.859234619140625,3.446209716796876,1706366123785.0
0.644999999999996,9.72523193359375,-0.9817047119140626,3.601876831054688,1706366123796.0
0.6550000000000011,10.060043334960938,-0.5722747802734376,3.7289825439453126,1706366123806.0
0.6650000000000063,9.637902832031251,0.250921630859375,2.7374084472656253,1706366123816.0
0.6749999999999972,8.588159179687501,-0.249127197265625,3.721954345703125,1706366123826.0
0.6850000000000023,8.265161132812501,0.05323486328125,3.858779907226563,1706366123836.0
0.6950000000000074,6.552374267578125,0.7828216552734376,3.306991577148438,1706366123846.0
0.7049999999999983,8.918783569335938,1.1309417724609376,5.255596923828126,1706366123856.0
0.7150000000000034,12.93128662109375,2.68865966796875,5.010357666015626,1706366123866.0
0.7250000000000085,10.515530395507811,1.471734619140625,2.9397308349609377,1706366123876.0
0.7349999999999994,7.55635986328125,-1.820751953125,3.9800537109375,1706366123886.0
0.7450000000000045,6.913952636718751,-0.384307861328125,2.9901245117187503,1706366123896.0
0.7550000000000097,7.681820678710938,0.69205322265625,1.5795501708984376,1706366123906.0
0.7650000000000006,10.778713989257811,-1.90987548828125,5.929257202148438,1706366123916.0
0.7759999999999962,11.821578979492188,-1.0845855712890626,5.800506591796875,1706366123927.0
0.7849999999999966,9.726278686523438,-0.0073272705078125,2.491571044921875,1706366123936.0
0.7960000000000065,7.7531494140625,-1.69215087890625,4.871438598632813,1706366123947.0
0.8059999999999974,7.015936279296875,-1.0404724121093751,3.57271728515625,1706366123957.0
0.8160000000000025,8.898895263671875,-0.4059906005859375,2.2551544189453128,1706366123967.0
0.8260000000000076,10.910305786132811,-0.6672302246093751,4.889981079101563,1706366123977.0
0.8359999999999985,11.171694946289064,1.38590087890625,2.9744232177734378,1706366123987.0
0.8460000000000036,8.900540161132813,1.3304229736328126,3.125604248046875,1706366123997.0
0.8560000000000088,7.3215881347656255,-0.042169189453125,5.631979370117188,1706366124007.0
0.8659999999999997,6.9507385253906255,1.5592132568359376,3.866107177734375,1706366124017.0
0.8760000000000048,8.500082397460938,2.14195556640625,3.086724853515625,1706366124027.0
0.8859999999999957,10.640093994140626,0.6545196533203126,3.9254730224609378,1706366124037.0
0.8960000000000008,11.089599609375,0.690557861328125,2.511309814453125,1706366124047.0
0.906000000000006,9.335989379882813,0.033197021484375,3.3403381347656254,1706366124057.0
0.9159999999999968,7.869638061523438,-0.5911163330078125,4.3736328125,1706366124067.0
0.9270000000000068,7.475610351562499,0.311334228515625,3.6121948242187503,1706366124078.0
0.9369999999999976,8.782406616210938,-0.5815460205078126,4.530197143554688,1706366124088.0
0.9470000000000028,10.1241943359375,-1.582391357421875,5.114285278320313,1706366124098.0
0.9570000000000078,9.971517944335938,0.180938720703125,3.9449127197265614,1706366124108.0
0.9669999999999987,8.918185424804689,0.289501953125,3.848013305664063,1706366124118.0
0.977000000000004,8.342620849609375,-0.5819946289062501,3.426171875,1706366124128.0
0.987000000000009,8.808126831054688,0.1595550537109375,2.3741851806640626,1706366124138.0
0.997,9.354232788085938,0.1598541259765625,3.492416381835938,1706366124148.0
1.007000000000005,9.715960693359376,0.5145538330078125,4.167572021484375,1706366124158.0
1.016999999999996,9.229968261718753,1.5035858154296875,4.366305541992188,1706366124168.0
1.027000000000001,8.780313110351564,0.311932373046875,4.8860931396484375,1706366124178.0
1.037000000000006,8.207888793945314,-0.35469970703125,4.193142700195313,1706366124188.0
1.046999999999997,8.486175537109375,0.399560546875,3.315664672851563,1706366124198.0
1.0570000000000022,8.450585937500001,-0.091217041015625,3.369497680664063,1706366124208.0
1.0670000000000073,8.002725219726564,-0.2115936279296875,2.531048583984376,1706366124218.0
1.078000000000003,10.037911987304687,0.037982177734375,3.563595581054688,1706366124229.0
1.088000000000008,12.029434204101562,0.16807861328125,4.4430175781250005,1706366124239.0
1.097999999999999,9.761270141601564,-0.2842681884765625,3.5961944580078127,1706366124249.0
1.1090000000000089,7.864105224609376,-0.95045166015625,5.5032287597656255,1706366124260.0
1.1180000000000092,7.265960693359376,0.5987426757812501,4.892672729492188,1706366124269.0
1.128,8.25977783203125,1.0219299316406252,2.912216186523437,1706366124279.0
1.1380000000000052,10.036566162109375,-0.564947509765625,4.4818969726562505,1706366124289.0
1.147999999999996,10.909857177734375,-0.2624359130859375,3.517987060546876,1706366124299.0
1.1580000000000013,9.742129516601564,0.426776123046875,2.0960479736328126,1706366124309.0
1.1680000000000064,8.605953979492188,0.3841583251953125,3.928912353515625,1706366124319.0
1.1779999999999973,8.213720703125,0.2930908203125,4.232919311523438,1706366124329.0
1.1880000000000024,8.630029296875001,-0.7831207275390626,4.042111206054688,1706366124339.0
1.1980000000000075,9.322531127929688,-1.223504638671875,4.787698364257813,1706366124349.0
1.2079999999999984,9.619509887695314,0.551788330078125,3.661691284179688,1706366124359.0
1.2190000000000083,9.206790161132814,0.6123504638671875,3.0761077880859378,1706366124370.0
1.2289999999999992,9.117218017578123,-0.76981201171875,4.35509033203125,1706366124380.0
1.2390000000000043,8.934933471679688,-0.2380615234375,3.9893249511718754,1706366124390.0
1.2490000000000094,8.7388916015625,0.2977264404296875,3.190353393554688,1706366124400.0
1.2590000000000003,8.870034790039064,0.6249114990234376,3.483294677734375,1706366124410.0
1.2690000000000057,9.104507446289062,1.2436920166015626,3.278729248046876,1706366124420.0
1.2789999999999964,9.321035766601565,0.4299163818359375,3.9099212646484376,1706366124430.0
1.2890000000000017,9.06473083496094,0.58438720703125,4.4418212890625,1706366124440.0
1.2990000000000066,8.915942382812501,1.7353668212890627,3.7397491455078127,1706366124450.0
1.3089999999999975,8.628683471679688,0.4798614501953125,4.2101898193359375,1706366124460.0
1.3190000000000026,8.83280029296875,-0.6802398681640626,4.140655517578125,1706366124470.0
1.3290000000000075,9.050674438476562,-0.372344970703125,3.387442016601563,1706366124480.0
1.3389999999999986,9.435281372070314,-0.8048034667968751,3.628045654296875,1706366124490.0
1.3490000000000038,9.509002685546877,-0.9078338623046877,3.658999633789063,1706366124500.0
1.3599999999999994,9.541452026367187,-0.5924621582031251,3.6682708740234378,1706366124511.0
1.3700000000000043,8.931494140625,-1.2436920166015626,4.910617065429688,1706366124521.0
1.3800000000000097,8.538064575195314,-0.4035980224609375,4.065289306640626,1706366124531.0
1.3900000000000006,8.440267944335938,0.954638671875,3.4895751953125003,1706366124541.0
1.4000000000000057,9.154153442382814,0.3648681640625,3.970932006835938,1706366124551.0
1.4099999999999966,9.212173461914062,0.4797119140625,2.83101806640625,1706366124561.0
1.4200000000000017,7.269699096679688,1.10238037109375,2.780026245117188,1706366124571.0
1.4300000000000068,8.359667968750001,1.37274169921875,4.2528076171875,1706366124581.0
1.4399999999999975,12.362152099609377,2.997750854492188,3.639859008789063,1706366124591.0
1.4500000000000028,10.916287231445311,1.4013031005859375,3.441574096679688,1706366124601.0
1.460000000000008,7.533929443359375,-2.3655120849609377,6.731518554687501,1706366124611.0
1.4710000000000036,6.771893310546876,-0.4472625732421875,4.5406646728515625,1706366124622.0
1.480000000000004,7.709185791015625,0.5345916748046875,1.233074951171875,1706366124631.0
1.490000000000009,11.582022094726565,-3.6767944335937504,4.4310546875000005,1706366124641.0
1.5,11.928796386718751,-2.8586822509765626,4.448699951171875,1706366124651.0
1.5109999999999957,9.487469482421876,0.14176025390625,2.458822631835938,1706366124662.0
1.5210000000000008,7.478152465820313,-0.29010009765625,5.5814361572265625,1706366124672.0
1.531000000000006,7.067227172851563,0.45758056640625,4.3612213134765625,1706366124682.0
1.5409999999999968,8.48109130859375,0.493170166015625,2.7169219970703127,1706366124692.0
1.551000000000002,10.587756347656253,1.0917633056640623,5.244680786132813,1706366124702.0
1.561000000000007,10.425808715820311,4.2025634765625,2.4926177978515627,1706366124712.0
1.5720000000000027,9.255239868164065,2.61688232421875,1.5711761474609376,1706366124723.0
1.581000000000003,8.04324951171875,-0.94566650390625,5.379263305664063,1706366124732.0
1.5910000000000082,7.6101928710937505,0.3946258544921875,3.405685424804688,1706366124742.0
1.600999999999999,7.965341186523438,0.9473114013671876,2.959918212890625,1706366124752.0
1.612000000000009,10.218701171875,-1.033145141601563,5.520574951171875,1706366124763.0
1.621000000000009,11.169601440429688,-1.6215698242187502,3.6854675292968753,1706366124772.0
1.632000000000005,9.919479370117188,-2.6418548583984376,3.725094604492188,1706366124783.0
1.6410000000000051,7.874423217773438,-2.2916412353515625,5.062246704101563,1706366124792.0
1.6509999999999962,7.119863891601563,0.4460662841796875,2.8873931884765627,1706366124802.0
1.662000000000006,8.64617919921875,-0.4649078369140625,3.277532958984376,1706366124813.0
1.671999999999997,10.640841674804689,-1.1446990966796875,4.540365600585938,1706366124823.0
1.6820000000000022,10.611532592773438,2.22091064453125,3.063546752929688,1706366124833.0
1.6920000000000073,8.864053344726564,2.9488525390625,3.941323852539063,1706366124843.0
1.7019999999999982,7.688699340820313,1.4362945556640625,4.683023071289063,1706366124853.0
1.7120000000000033,7.704101562500001,1.38350830078125,3.398208618164063,1706366124863.0
1.7220000000000084,8.792575073242189,0.7262969970703126,3.541912841796876,1706366124873.0
1.731999999999999,9.78983154296875,0.6925018310546875,3.207101440429688,1706366124883.0
1.7420000000000044,10.363751220703126,0.9112731933593752,3.270803833007813,1706366124893.0
1.7520000000000095,9.649118041992187,-1.6513275146484376,4.3701934814453125,1706366124903.0
1.7620000000000005,7.530041503906251,-2.4906738281250003,3.534884643554688,1706366124913.0
1.7720000000000056,6.3720336914062505,-0.7647277832031251,3.798666381835938,1706366124923.0
1.7819999999999965,10.283450317382814,-0.5411712646484376,5.189352416992188,1706366124933.0
1.7930000000000064,11.689837646484376,-0.7452880859375001,4.007717895507813,1706366124944.0
1.8029999999999973,10.454818725585938,-1.1844757080078123,3.8556396484375,1706366124954.0
1.8130000000000024,8.565280151367189,-0.5630035400390625,4.581936645507813,1706366124964.0
1.8230000000000075,7.015637207031251,2.68865966796875,1.974176025390625,1706366124974.0
1.8329999999999984,7.501779174804688,1.819406127929688,3.4243774414062504,1706366124984.0
1.8430000000000035,10.681216430664064,-0.390289306640625,5.828619384765625,1706366124994.0
1.8530000000000089,10.455715942382811,1.460968017578125,3.075958251953125,1706366125004.0
1.8629999999999995,9.663174438476563,1.9228851318359377,3.19588623046875,1706366125014.0
1.8730000000000049,8.056109619140626,0.424981689453125,4.848410034179688,1706366125024.0
1.882999999999996,7.901040649414063,-0.5585174560546875,2.9229827880859376,1706366125034.0
1.893000000000001,9.231912231445314,-2.199676513671875,3.5332397460937504,1706366125044.0
1.9030000000000056,10.5596435546875,-1.537530517578125,4.988525390625,1706366125054.0
1.9129999999999967,9.697418212890623,0.0668426513671875,2.7107910156250004,1706366125064.0
1.9230000000000016,8.811865234375,-1.2951324462890623,4.204806518554688,1706366125074.0
1.9339999999999973,8.066726684570312,-1.6629913330078123,5.7892913818359375,1706366125085.0
1.9440000000000024,8.326620483398438,0.4355987548828125,2.805746459960938,1706366125095.0
1.954000000000008,9.3561767578125,1.1264556884765626,3.315814208984375,1706366125105.0
1.9639999999999984,10.383340454101564,1.454388427734375,4.061849975585938,1706366125115.0
1.974000000000004,9.595883178710938,1.5049316406250002,2.5150482177734377,1706366125125.0
1.9840000000000089,8.236300659179689,0.8629730224609375,3.919790649414063,1706366125135.0
1.994,7.905825805664063,1.5874755859375,4.16966552734375,1706366125145.0
2.004000000000005,8.480044555664064,1.663140869140625,3.1516235351562503,1706366125155.0
2.013999999999996,9.77607421875,-0.447412109375,4.282415771484375,1706366125165.0
2.024000000000001,10.1241943359375,-0.9691436767578124,4.650274658203125,1706366125175.0
2.034000000000006,9.147424316406251,-0.429766845703125,3.81676025390625,1706366125185.0
2.043999999999997,8.14613037109375,-1.1771484375,3.8849487304687504,1706366125195.0
2.054000000000002,8.704946899414063,-1.45050048828125,3.3790679931640626,1706366125205.0
2.064000000000007,9.301745605468753,-1.4183502197265625,3.587969970703125,1706366125215.0
2.075000000000003,9.925311279296876,-0.8441314697265626,3.973175048828125,1706366125226.0
2.085000000000008,9.553564453125,0.86072998046875,4.1922454833984375,1706366125236.0
2.094999999999999,8.947494506835938,1.1061187744140626,4.332809448242188,1706366125246.0
2.105000000000004,8.186654663085939,0.122918701171875,3.875677490234376,1706366125256.0
2.115000000000009,8.19757080078125,1.1240631103515626,3.2746917724609377,1706366125266.0
2.125,7.269549560546875,1.97626953125,2.910421752929688,1706366125276.0
2.135000000000005,8.376416015625,1.5937561035156251,2.7867553710937503,1706366125286.0
2.144999999999996,12.93412780761719,2.042962646484375,4.307687377929688,1706366125296.0
2.155000000000001,11.59607849121094,1.2498229980468751,4.1155334472656255,1706366125306.0
2.1650000000000063,7.222595214843751,-1.9306610107421875,4.966543579101563,1706366125316.0
2.174999999999997,6.359921264648438,-1.277935791015625,5.15899658203125,1706366125326.0
2.1850000000000023,7.461553955078125,-0.371746826171875,2.438934326171875,1706366125336.0
2.1950000000000074,11.023355102539064,-3.6827758789062495,3.704608154296875,1706366125346.0
2.2049999999999983,12.53651123046875,-2.9848907470703128,5.500238037109376,1706366125356.0
2.216000000000008,9.7581298828125,0.6282012939453125,2.3981109619140626,1706366125367.0
2.225999999999999,7.716812133789063,-0.3650177001953125,3.800460815429688,1706366125377.0
2.236000000000004,6.815109252929688,0.0681884765625,5.289093017578125,1706366125387.0
2.2460000000000093,8.476754760742189,1.523773193359375,2.4866363525390627,1706366125397.0
2.256,9.911404418945311,1.747927856445313,4.628292846679688,1706366125407.0
2.2660000000000053,10.508203125,3.5915588378906254,3.810479736328125,1706366125417.0
2.275999999999996,9.516778564453126,2.824288940429688,1.62515869140625,1706366125427.0
2.2860000000000014,8.508306884765625,-0.42109375,4.449896240234375,1706366125437.0
2.2960000000000065,7.69871826171875,-0.0058319091796875,3.84188232421875,1706366125447.0
2.3059999999999974,8.474212646484375,0.560760498046875,3.242391967773438,1706366125457.0
2.3160000000000025,9.557452392578126,-1.6848236083984376,5.336944580078125,1706366125467.0
2.326000000000008,10.440762329101563,-2.3667083740234376,3.796572875976562,1706366125477.0
2.3359999999999985,9.505264282226562,-2.04326171875,3.712234497070313,1706366125487.0
2.346000000000004,8.682516479492188,-1.7536102294921876,4.660443115234376,1706366125497.0
2.3560000000000088,8.329312133789063,-0.158209228515625,2.780325317382813,1706366125507.0
2.3670000000000044,9.182864379882814,-0.0581695556640625,3.7654693603515614,1706366125518.0
2.377000000000009,9.441412353515624,-0.5100677490234375,4.636965942382813,1706366125528.0
2.388000000000005,9.337335205078126,2.1449462890625,2.531198120117188,1706366125539.0
2.3970000000000056,8.579934692382814,3.2222045898437504,4.087420654296875,1706366125548.0
2.4069999999999965,8.663226318359376,1.5915130615234376,4.430905151367188,1706366125558.0
2.4170000000000016,8.809173583984375,1.3673583984375002,3.152520751953125,1706366125568.0
2.4270000000000067,9.245071411132812,0.9867889404296876,4.312023925781251,1706366125578.0
2.4369999999999976,9.190939331054688,0.0945068359375,3.723748779296875,1706366125588.0
2.4470000000000027,8.833547973632813,0.002691650390625,2.7569976806640626,1706366125598.0
2.457000000000008,9.15579833984375,-1.7516662597656252,4.167572021484375,1706366125608.0
2.4669999999999987,9.308026123046876,-2.5821899414062504,4.201068115234375,1706366125618.0
2.477000000000004,8.163177490234375,-0.2549591064453125,3.044256591796876,1706366125628.0
2.4879999999999995,7.991210937500001,-0.150732421875,4.40653076171875,1706366125639.0
2.4980000000000047,10.400387573242188,-0.98634033203125,5.287298583984375,1706366125649.0
2.507999999999996,10.724282836914064,0.6464447021484375,3.5978393554687504,1706366125659.0
2.5180000000000007,9.288287353515626,0.524871826171875,3.05233154296875,1706366125669.0
2.528000000000006,8.122952270507813,0.1963409423828125,4.531094360351563,1706366125679.0
2.5379999999999967,7.781860351562501,2.218966674804688,2.443869018554688,1706366125689.0
2.548000000000002,9.07071228027344,0.64420166015625,3.5496887207031254,1706366125699.0
2.558000000000007,10.300646972656253,-0.2974273681640625,6.049334716796875,1706366125709.0
2.567999999999998,9.561639404296876,1.1859710693359375,2.793783569335938,1706366125719.0
2.578000000000003,9.064132690429688,-0.2699127197265625,3.3926757812500004,1706366125729.0
2.588999999999998,8.520269775390625,-1.2233551025390623,5.3031494140625,1706366125740.0
2.597999999999999,8.755340576171875,-0.42528076171875,2.30943603515625,1706366125749.0
2.608000000000004,9.461151123046877,-1.5308013916015626,3.9446136474609377,1706366125759.0
2.618000000000009,9.976751708984375,-1.0937072753906252,5.301504516601563,1706366125769.0
2.628,9.174191284179688,0.2642303466796875,2.332464599609376,1706366125779.0
2.638000000000005,8.82203369140625,-0.5459564208984375,4.418194580078126,1706366125789.0
2.649000000000001,8.511895751953126,0.075067138671875,5.072265625,1706366125800.0
2.659000000000006,8.645132446289063,1.4570800781250002,2.439083862304688,1706366125810.0
2.668999999999997,8.979943847656251,0.7093994140625001,4.329519653320313,1706366125820.0
2.679000000000002,9.676333618164064,1.108062744140625,3.6708129882812495,1706366125830.0
2.689000000000007,9.460552978515626,1.6529724121093752,1.882510375976563,1706366125840.0
2.698999999999998,9.04095458984375,0.509918212890625,4.482794189453125,1706366125850.0
2.709000000000003,8.745172119140626,0.3348114013671875,4.20196533203125,1706366125860.0
2.7190000000000083,8.669058227539063,0.1795928955078125,3.631784057617188,1706366125870.0
2.728999999999999,8.726779174804689,-1.0643981933593751,5.01962890625,1706366125880.0
2.7390000000000043,9.054412841796877,-0.5818450927734375,3.492117309570313,1706366125890.0
2.749000000000009,9.251651000976564,-0.2157806396484375,3.42318115234375,1706366125900.0
2.7590000000000003,9.629827880859375,-1.245486450195313,4.177890014648438,1706366125910.0
2.769000000000005,9.774130249023438,-0.6352294921875,3.35140380859375,1706366125920.0
2.7789999999999964,8.908016967773438,0.0937591552734375,3.980352783203125,1706366125930.0
2.7900000000000063,8.398397827148438,-0.1410125732421875,3.920538330078125,1706366125941.0
2.799999999999997,8.296713256835938,0.8220001220703126,3.838442993164063,1706366125951.0
2.8100000000000023,9.051571655273438,1.1251098632812502,4.352847290039063,1706366125961.0
2.8200000000000074,9.763961791992188,0.567938232421875,3.498248291015625,1706366125971.0
2.8299999999999983,9.539657592773438,1.2113922119140623,3.1979797363281253,1706366125981.0
2.8400000000000034,7.284951782226563,0.6877166748046876,3.4735748291015627,1706366125991.0
2.8500000000000085,7.382748413085938,-0.04306640625,3.4014984130859376,1706366126001.0
2.8599999999999994,11.194424438476563,1.3645172119140625,4.446307373046875,1706366126011.0
2.8700000000000045,11.313455200195314,1.1267547607421875,3.311477661132813,1706366126021.0
2.8800000000000097,8.954821777343751,-1.6333831787109376,4.712481689453125,1706366126031.0
2.890000000000001,8.086166381835938,-1.0292572021484376,5.303448486328126,1706366126041.0
2.9000000000000057,7.230520629882813,-0.43126220703125,2.750418090820313,1706366126051.0
2.9099999999999966,9.15460205078125,-2.485739135742188,3.9274169921875,1706366126061.0
2.9200000000000017,10.787088012695314,-1.2746459960937502,4.637115478515625,1706366126071.0
2.930000000000007,10.367788696289065,0.399859619140625,2.571124267578125,1706366126081.0
2.9410000000000025,9.439767456054687,-0.0982452392578125,4.332061767578125,1706366126092.0
2.951000000000008,8.023660278320314,0.70999755859375,4.780819702148438,1706366126102.0
2.9609999999999985,7.776776123046876,0.8208038330078126,2.8030548095703125,1706366126112.0
2.971000000000004,8.829211425781251,0.6524261474609375,4.658499145507813,1706366126122.0
2.9810000000000088,9.672894287109376,2.4985992431640627,3.242691040039063,1706366126132.0
2.991,9.976303100585938,1.7655731201171876,1.97626953125,1706366126142.0
3.0010000000000048,9.592892456054688,-0.390887451171875,4.8382415771484375,1706366126152.0
3.010999999999996,8.549429321289063,0.1993316650390625,3.748870849609376,1706366126162.0
3.021000000000001,8.068521118164064,0.1287506103515625,3.867153930664063,1706366126172.0
3.031000000000006,8.385537719726564,-1.119876098632813,5.3716369628906255,1706366126182.0
3.040999999999997,9.659286499023438,-1.1455963134765623,2.959320068359375,1706366126192.0
3.0520000000000067,9.96314392089844,-1.547549438476563,3.707150268554688,1706366126203.0
3.061000000000007,9.7389892578125,-1.15740966796875,4.156655883789063,1706366126212.0
3.0720000000000027,8.633020019531251,0.563153076171875,2.61448974609375,1706366126223.0
3.082000000000008,8.486773681640626,0.112750244140625,4.380511474609375,1706366126233.0
3.0919999999999987,8.836090087890625,-0.377728271484375,4.427166748046876,1706366126243.0
3.102000000000004,9.421374511718753,1.511810302734375,3.10018310546875,1706366126253.0
3.112000000000009,9.24552001953125,1.85963134765625,4.491766357421875,1706366126263.0
3.122,9.193780517578126,0.9491058349609376,3.912911987304688,1706366126273.0
3.132000000000005,8.391818237304689,0.9166564941406252,3.3153656005859378,1706366126283.0
3.141999999999996,8.590701293945314,0.1742095947265625,4.135122680664063,1706366126293.0
3.152000000000001,9.027496337890623,-0.031103515625,3.2986175537109377,1706366126303.0
3.162000000000006,9.748410034179688,0.4998992919921875,3.27244873046875,1706366126313.0
3.171999999999997,9.837982177734377,-1.0334442138671875,4.445858764648438,1706366126323.0
3.182000000000002,9.251950073242188,-1.7307312011718752,4.022073364257813,1706366126333.0
3.1920000000000077,7.924368286132813,-0.4092803955078125,3.632980346679688,1706366126343.0
3.201999999999998,7.25010986328125,-0.0889739990234375,3.4453125000000004,1706366126353.0
3.213000000000008,8.288339233398439,-0.2038177490234375,4.270602416992188,1706366126364.0
3.222999999999999,11.763259887695312,0.908880615234375,4.6404052734375005,1706366126374.0
3.233000000000004,11.270837402343751,0.9794616699218752,3.616531372070313,1706366126384.0
3.243000000000009,8.792874145507813,-0.27095947265625,3.793731689453125,1706366126394.0
3.253,7.291232299804688,0.3069976806640625,3.5259124755859377,1706366126404.0
3.263000000000005,7.072760009765625,1.1473907470703126,2.84896240234375,1706366126414.0
3.272999999999996,9.243127441406251,0.05562744140625,4.389782714843751,1706366126424.0
3.2830000000000013,11.281005859375,0.23148193359375,4.7495666503906255,1706366126434.0
3.2930000000000064,10.61646728515625,0.1556671142578125,3.4242279052734377,1706366126444.0
3.3029999999999973,8.751452636718751,-1.0548278808593752,4.583132934570313,1706366126454.0
3.3130000000000024,7.285549926757813,-0.2624359130859375,3.892724609375,1706366126464.0
3.3230000000000075,7.78544921875,-0.1550689697265625,2.6529205322265628,1706366126474.0
3.3329999999999984,9.911404418945311,-1.3314697265625002,4.3024536132812505,1706366126484.0
3.3430000000000035,11.067767333984376,0.010467529296875,3.6275970458984377,1706366126494.0
3.3530000000000086,10.147222900390624,0.68009033203125,3.429461669921875,1706366126504.0
3.3640000000000043,8.268002319335938,-0.2444915771484375,5.167071533203125,1706366126515.0
3.374000000000009,7.3488037109375,0.3946258544921875,3.8185546875,1706366126525.0
3.3840000000000003,7.750308227539063,0.4523468017578125,3.4626586914062503,1706366126535.0
3.394000000000005,9.579583740234376,0.294287109375,3.907977294921875,1706366126545.0
3.4039999999999964,10.844958496093753,1.651776123046875,2.3447265625,1706366126555.0
3.414000000000001,10.306329345703126,0.9405822753906252,3.2951782226562503,1706366126565.0
3.4240000000000066,8.575747680664064,-0.569134521484375,4.799511718750001,1706366126575.0
3.433999999999997,7.439572143554688,0.2842681884765625,3.852349853515625,1706366126585.0
3.4440000000000026,7.737298583984375,0.2035186767578125,4.198077392578125,1706366126595.0
3.454000000000008,9.302194213867187,-0.720166015625,4.239349365234375,1706366126605.0
3.463999999999998,10.257281494140626,-0.1443023681640625,3.388787841796875,1706366126615.0
3.474000000000004,10.13974609375,-0.3413909912109375,3.825881958007813,1706366126625.0
3.484000000000009,9.274978637695312,-0.6467437744140625,3.782666015625,1706366126635.0
3.494,8.4123046875,0.18123779296875,3.2610839843750004,1706366126645.0
3.5050000000000097,8.357275390625,-0.3279327392578125,4.0916076660156255,1706366126656.0
3.515000000000001,8.787939453125,-0.5314514160156251,4.524215698242188,1706366126666.0
3.5250000000000057,9.117218017578123,0.9903778076171876,3.9606140136718753,1706366126676.0
3.5349999999999966,9.482833862304688,0.9824523925781252,3.848312377929688,1706366126686.0
3.5450000000000017,9.511245727539062,0.417803955078125,3.5810913085937504,1706366126696.0
3.555000000000007,8.979495239257814,0.6353790283203126,2.9949096679687504,1706366126706.0
3.5649999999999977,7.245922851562501,0.12142333984375,3.0325927734375,1706366126716.0
3.575000000000003,7.246221923828125,0.1209747314453125,3.713580322265625,1706366126726.0
3.585000000000008,11.801840209960938,1.5820922851562502,4.339987182617188,1706366126736.0
3.594999999999999,11.842962646484375,1.0146026611328125,3.6841217041015626,1706366126746.0
3.605000000000004,8.729022216796876,-1.6410095214843752,5.459414672851563,1706366126756.0
3.615000000000009,7.135714721679688,-0.935797119140625,5.411264038085938,1706366126766.0
3.625,7.039114379882813,0.404345703125,2.135226440429688,1706366126776.0
3.635000000000005,9.530535888671876,-2.207003784179688,3.623858642578125,1706366126786.0
3.646000000000001,11.696865844726563,-1.7401519775390626,4.452587890625001,1706366126797.0
3.656000000000006,10.3754150390625,0.694744873046875,2.467794799804688,1706366126807.0
3.665999999999997,8.915643310546876,0.466253662109375,4.097140502929688,1706366126817.0
3.676000000000002,7.509704589843751,0.48330078125,4.879812622070313,1706366126827.0
3.686000000000007,7.883694458007813,0.453094482421875,3.396713256835938,1706366126837.0
3.695999999999998,9.117666625976565,0.380718994140625,4.7450805664062505,1706366126847.0
3.706000000000003,9.978097534179687,2.4734771728515628,3.770553588867188,1706366126857.0
3.716000000000008,9.724185180664064,1.9288665771484377,1.7613861083984377,1706366126867.0
3.725999999999999,9.282305908203126,-0.9550872802734376,4.220956420898438,1706366126877.0
3.736000000000004,8.604757690429688,-0.2875579833984375,3.925024414062501,1706366126887.0
3.746000000000009,8.237347412109376,0.667828369140625,3.308187866210938,1706366126897.0
3.756,8.778070068359376,-0.7600921630859375,5.17454833984375,1706366126907.0
3.766000000000005,9.792224121093753,-1.3364044189453126,3.9698852539062495,1706366126917.0
3.775999999999996,9.619659423828123,-1.56654052734375,3.610400390625,1706366126927.0
3.7879999999999967,9.086563110351562,-1.0196868896484377,4.118673706054688,1706366126939.0
3.796999999999997,8.649020385742189,1.0486968994140626,2.7287353515625004,1706366126948.0
3.807000000000002,8.827117919921875,0.3545501708984375,3.6332794189453126,1706366126958.0
3.8170000000000073,9.398794555664065,-0.963909912109375,4.808483886718751,1706366126968.0
3.826999999999998,9.171200561523438,1.25909423828125,3.494061279296876,1706366126978.0
3.8370000000000033,8.710479736328125,2.3483154296875,3.661840820312501,1706366126988.0
3.847000000000008,8.498287963867188,0.9559844970703124,4.393670654296876,1706366126998.0
3.8569999999999993,8.911904907226564,0.6814361572265626,3.218316650390625,1706366127008.0
3.867000000000005,9.412103271484376,0.127703857421875,3.751113891601563,1706366127018.0
3.8770000000000095,9.63551025390625,-0.039178466796875,3.688009643554688,1706366127028.0
3.888000000000005,9.225183105468751,0.51260986328125,3.1015289306640628,1706366127039.0
3.8970000000000056,8.829061889648438,-1.1448486328125,4.579244995117188,1706366127048.0
3.906999999999997,7.816104125976563,-1.8807159423828128,4.08353271484375,1706366127058.0
3.9170000000000016,7.235455322265626,0.2572021484375,3.1582031250000004,1706366127068.0
3.927000000000007,10.014733886718751,0.5752655029296876,4.687509155273438,1706366127078.0
3.9380000000000015,11.889617919921877,0.0231781005859375,4.428213500976563,1706366127089.0
3.948000000000008,10.170101928710938,-0.3168670654296875,2.9093750000000003,1706366127099.0
3.9579999999999984,8.416641235351562,-0.9184509277343752,4.495953369140626,1706366127109.0
3.968000000000004,6.872531127929688,1.185821533203125,3.210989379882813,1706366127119.0
3.9780000000000086,7.610791015625001,1.62635498046875,2.7013702392578125,1706366127129.0
3.988,10.639645385742188,-0.7928405761718751,5.821591186523438,1706366127139.0
3.9980000000000047,11.247360229492188,0.1640411376953125,4.194338989257813,1706366127149.0
4.007999999999996,9.559246826171876,1.0824920654296877,2.8975616455078126,1706366127159.0
4.018000000000001,7.964144897460938,-0.1810882568359375,4.945309448242188,1706366127169.0
4.028000000000006,7.403384399414063,-0.524273681640625,3.326580810546876,1706366127179.0
4.037999999999997,8.769247436523438,-1.209597778320313,2.3961669921875,1706366127189.0
4.048000000000002,10.574746704101564,-0.999798583984375,4.639508056640626,1706366127199.0
4.058000000000007,10.453921508789064,1.0189392089843752,3.209793090820313,1706366127209.0
4.067999999999998,9.373074340820311,0.3168670654296875,3.556268310546875,1706366127219.0
4.079000000000008,8.111737060546876,-1.338348388671875,6.446652221679688,1706366127230.0
4.088999999999999,7.6116882324218755,0.290399169921875,3.448751831054688,1706366127240.0
4.099000000000004,8.169009399414064,1.1937469482421876,2.590414428710938,1706366127250.0
4.109000000000009,10.001126098632811,0.5837890625000001,4.104318237304688,1706366127260.0
4.119,10.622000122070313,0.9200958251953124,2.35848388671875,1706366127270.0
4.129000000000005,9.781756591796876,0.43365478515625,3.513351440429688,1706366127280.0
4.138999999999996,8.436978149414063,0.2696136474609375,4.943814086914063,1706366127290.0
4.149000000000001,7.533929443359375,1.0135559082031251,3.6563079833984378,1706366127300.0
4.159000000000006,8.092446899414064,-0.34512939453125,4.364511108398438,1706366127310.0
4.168999999999997,9.68934326171875,-1.161297607421875,4.45318603515625,1706366127320.0
4.179000000000002,10.010696411132812,0.2657257080078125,2.9661987304687503,1706366127330.0
4.189000000000007,9.663772583007812,-0.0453094482421875,3.494061279296876,1706366127340.0
4.198999999999998,9.17972412109375,-0.79971923828125,4.030895996093751,1706366127350.0
4.210000000000008,8.545840454101564,-0.3087921142578125,3.603970336914063,1706366127361.0
4.219999999999999,8.323480224609376,-0.42109375,4.240994262695313,1706366127371.0
4.230000000000004,8.805136108398438,0.4143646240234375,4.294229125976563,1706366127381.0
4.240000000000009,9.294866943359375,1.2761413574218752,3.834854125976563,1706366127391.0
4.25,9.556106567382812,-0.000299072265625,3.8836029052734378,1706366127401.0
4.260000000000005,9.39969177246094,0.284417724609375,3.2148773193359377,1706366127411.0
4.269999999999996,7.474563598632813,1.469940185546875,2.342184448242188,1706366127421.0
4.280000000000001,6.760079956054688,0.7313812255859375,3.0937530517578127,1706366127431.0
4.290000000000006,11.824420166015626,0.6649871826171876,4.8605224609375,1706366127441.0
4.299999999999997,12.305776977539065,1.7260955810546876,4.428961181640625,1706366127451.0
4.310000000000002,8.119961547851563,-0.756353759765625,4.963702392578125,1706366127461.0
4.320000000000007,6.726583862304688,-1.5077728271484376,5.760281372070313,1706366127471.0
4.329999999999998,7.265512084960938,0.2223602294921875,2.362969970703125,1706366127481.0
4.340000000000003,10.124493408203126,-2.835205078125,2.4894775390625004,1706366127491.0
4.3500000000000085,12.370227050781253,-3.007620239257813,5.113537597656251,1706366127501.0
4.361000000000004,9.994845581054689,1.1464935302734376,2.2458831787109377,1706366127512.0
4.371000000000009,8.216113281250001,-0.369952392578125,3.6424011230468754,1706366127522.0
4.381,7.310821533203126,-0.5449096679687501,6.360220336914063,1706366127532.0
4.391000000000005,7.930200195312499,1.5693817138671875,2.8299713134765625,1706366127542.0
4.400999999999996,9.571209716796876,0.905889892578125,4.611544799804688,1706366127552.0
4.411000000000001,10.53212890625,2.2991180419921875,4.9354400634765625,1706366127562.0
4.421000000000007,9.639547729492188,2.7676147460937504,0.7762420654296875,1706366127572.0
4.430999999999997,8.687750244140625,-0.7574005126953125,3.586175537109375,1706366127582.0
4.4410000000000025,7.984631347656251,-0.2331268310546875,4.127346801757813,1706366127592.0
4.451000000000008,8.238244628906251,1.39547119140625,2.1262542724609377,1706366127602.0
4.460999999999999,9.611285400390626,-1.0576690673828126,5.673849487304688,1706366127612.0
4.471000000000004,10.493099975585938,-1.5167449951171876,5.271298217773438,1706366127622.0
4.481000000000009,9.413748168945313,-1.1037261962890623,3.246878051757813,1706366127632.0
4.492000000000004,8.084371948242188,-1.921240234375,5.249765014648438,1706366127643.0
4.501000000000005,7.969976806640625,-0.2726043701171875,2.917599487304688,1706366127652.0
4.510999999999996,9.161331176757812,0.5103668212890625,2.15391845703125,1706366127662.0
4.522000000000006,10.314553833007814,-0.8317199707031251,4.3846984863281255,1706366127673.0
4.5319999999999965,10.366891479492187,1.18612060546875,2.95662841796875,1706366127683.0
4.542000000000002,8.740536499023438,2.528805541992188,4.172955322265626,1706366127693.0
4.552000000000007,7.623501586914063,0.8717956542968751,5.357281494140626,1706366127703.0
4.561999999999998,7.722494506835938,1.069482421875,3.4059844970703126,1706366127713.0
4.572000000000003,8.865249633789062,1.2166259765625,3.8836029052734378,1706366127723.0
4.582000000000008,10.073651123046876,0.01016845703125,3.5852783203125003,1706366127733.0
4.591999999999999,10.333245849609376,0.436944580078125,2.6331817626953127,1706366127743.0
4.602000000000004,9.508255004882812,-0.493768310546875,3.9591186523437503,1706366127753.0
4.612000000000009,8.503970336914064,-2.3009124755859376,4.128094482421876,1706366127763.0
4.622,7.460955810546875,-0.8079437255859375,3.5078186035156254,1706366127773.0
4.632000000000005,7.3365417480468755,0.0777587890625,3.9206878662109377,1706366127783.0
4.641999999999996,9.19228515625,-0.7648773193359375,4.674798583984376,1706366127793.0
4.652000000000001,12.0526123046875,0.7108947753906251,4.69244384765625,1706366127803.0
4.662999999999997,10.83523864746094,1.0492950439453126,3.399703979492188,1706366127814.0
4.673000000000002,8.649618530273438,-0.7268951416015625,3.702066040039063,1706366127824.0
4.683000000000007,7.136611938476563,0.7953826904296876,3.256149291992188,1706366127834.0
4.692999999999998,7.370785522460938,1.3914337158203125,2.4660003662109378,1706366127844.0
4.703000000000003,9.492105102539064,-0.4894317626953125,5.18411865234375,1706366127854.0
4.713000000000008,10.653552246093753,0.648388671875,5.066134643554688,1706366127864.0
4.722999999999999,10.3251708984375,0.6443511962890626,3.070425415039063,1706366127874.0
4.733000000000004,9.04200134277344,-0.9666015625,5.049237060546876,1706366127884.0
4.743000000000009,7.760028076171875,-0.179443359375,3.524566650390625,1706366127894.0
4.753,8.249011230468751,-0.4741790771484375,1.97626953125,1706366127904.0
4.763000000000005,9.536666870117188,-1.62635498046875,4.612142944335938,1706366127914.0
4.772999999999996,10.400238037109377,-0.049346923828125,3.17674560546875,1706366127924.0
4.784000000000006,10.093988037109376,0.5205352783203125,3.2399993896484376,1706366127935.0
4.793000000000006,8.674740600585938,-0.2978759765625,6.228927612304688,1706366127944.0
4.805000000000007,7.831954956054688,0.4840484619140625,3.9507446289062496,1706366127956.0
4.814000000000007,8.02650146484375,0.576910400390625,3.72823486328125,1706366127965.0
4.823999999999998,8.98712158203125,0.1105072021484375,4.393521118164063,1706366127975.0
4.834000000000003,10.035369873046877,1.316217041015625,1.461865234375,1706366127985.0
4.844000000000008,10.089202880859377,1.0639495849609375,2.8449249267578125,1706366127995.0
4.853999999999999,9.419580078125,-0.0291595458984375,4.135272216796875,1706366128005.0
4.864000000000004,8.332452392578126,0.4777679443359375,3.504827880859376,1706366128015.0
4.874000000000009,8.00137939453125,0.0506927490234375,5.473171997070313,1706366128025.0
4.884,8.621954345703125,-0.7079040527343751,4.91973876953125,1706366128035.0
4.8940000000000055,9.251651000976564,-0.027215576171875,3.3848999023437503,1706366128045.0
4.905000000000001,9.642987060546876,-0.4278228759765625,3.810629272460938,1706366128056.0
4.9140000000000015,9.7138671875,-0.8963195800781251,3.157455444335938,1706366128065.0
4.924000000000007,9.217257690429689,0.0889739990234375,2.949151611328125,1706366128075.0
4.935000000000002,8.94764404296875,-0.173162841796875,4.096243286132813,1706366128086.0
4.945000000000007,8.618515014648438,-0.2301361083984375,4.338043212890625,1706366128096.0
4.954999999999998,8.493951416015626,0.93729248046875,4.26297607421875,1706366128106.0
4.965000000000003,9.001177978515626,0.569134521484375,4.318603515625,1706366128116.0
4.9750000000000085,9.488665771484376,0.481207275390625,3.547296142578125,1706366128126.0
4.984999999999999,9.511395263671876,1.0489959716796875,2.9422729492187503,1706366128136.0
4.9950000000000045,8.481689453125,0.142059326171875,3.251513671875,1706366128146.0
5.00500000000001,6.934439086914063,-0.0705810546875,3.4865844726562503,1706366128156.0
5.015000000000001,9.240435791015626,0.729437255859375,4.162786865234375,1706366128166.0
5.025000000000006,12.046331787109375,0.9574798583984376,4.285556030273438,1706366128176.0
5.034999999999997,9.671249389648438,-0.04844970703125,4.16727294921875,1706366128186.0
5.045000000000002,8.033380126953126,-1.2161773681640626,5.2793731689453125,1706366128196.0
5.055000000000007,7.78843994140625,-0.2645294189453125,3.481948852539063,1706366128206.0
5.064999999999998,8.4278564453125,-0.6105560302734375,2.563348388671875,1706366128216.0
5.076000000000008,10.63441162109375,-1.9774658203125,4.446307373046875,1706366128227.0
5.085999999999999,10.56083984375,-0.4773193359375,4.074560546875,1706366128237.0
5.096000000000004,8.994598388671875,0.6267059326171875,3.0648925781250003,1706366128247.0
5.106000000000009,8.240936279296875,0.217425537109375,4.860971069335938,1706366128257.0
5.116,7.990164184570313,0.542816162109375,4.173403930664063,1706366128267.0
5.126000000000005,9.223239135742189,0.4376922607421875,3.2533081054687503,1706366128277.0
5.135999999999996,10.034173583984376,1.0935577392578126,4.393222045898438,1706366128287.0
5.146000000000001,9.665267944335938,1.999447631835937,2.497702026367188,1706366128297.0
5.156000000000006,8.748611450195312,0.3366058349609375,2.6230133056640628,1706366128307.0
5.165999999999997,8.415744018554689,-0.5274139404296876,4.7914367675781255,1706366128317.0
5.176000000000002,8.3512939453125,0.450701904296875,3.899752807617188,1706366128327.0
5.186000000000007,9.20230407714844,0.1248626708984375,4.0841308593750005,1706366128337.0
5.195999999999998,9.903030395507812,-0.75067138671875,5.025311279296876,1706366128347.0
5.207000000000008,9.642837524414062,-1.1771484375,3.4541351318359377,1706366128358.0
5.216000000000008,8.659039306640626,-1.38590087890625,3.504827880859376,1706366128367.0
5.227000000000004,8.422473144531251,-0.1828826904296875,3.670962524414063,1706366128378.0
5.237000000000009,8.79212646484375,0.5896209716796875,2.625106811523437,1706366128388.0
5.247,9.802093505859377,-0.3135772705078125,3.9322021484375,1706366128398.0
5.257000000000005,9.900936889648438,0.121124267578125,4.6124420166015625,1706366128408.0
5.266999999999996,9.015533447265623,1.5692321777343752,3.894369506835938,1706366128418.0
5.277000000000001,7.830609130859376,1.3151702880859375,4.4240264892578125,1706366128428.0
5.287000000000006,8.121606445312501,0.6500335693359376,3.791937255859376,1706366128438.0
5.296999999999997,9.106002807617188,0.439935302734375,3.246578979492188,1706366128448.0
5.307000000000002,9.98004150390625,0.1700225830078125,3.733169555664063,1706366128458.0
5.317000000000007,9.9758544921875,0.46954345703125,3.1429504394531254,1706366128468.0
5.326999999999998,9.284548950195314,-0.03648681640625,3.8127227783203126,1706366128478.0
5.337000000000003,8.414547729492188,-1.6064666748046876,4.5526275634765625,1706366128488.0
5.347000000000008,8.216561889648439,-1.0489959716796875,3.4454620361328128,1706366128498.0
5.356999999999999,7.445852661132813,0.392681884765625,3.677392578125,1706366128508.0
5.367000000000004,8.5845703125,0.032000732421875,4.1488800048828125,1706366128518.0
5.378,11.81619567871094,0.242547607421875,4.37064208984375,1706366128529.0
5.388000000000005,11.221490478515626,0.8273834228515625,3.958071899414063,1706366128539.0
5.397999999999996,8.130279541015625,-0.5528350830078126,3.44710693359375,1706366128549.0
5.408000000000001,7.069918823242188,0.150732421875,4.0975891113281255,1706366128559.0
5.418000000000006,7.60301513671875,1.78665771484375,2.9576751708984377,1706366128569.0
5.427999999999997,9.715512084960938,-0.22191162109375,4.077999877929688,1706366128579.0
5.438000000000002,11.226873779296875,-0.327783203125,5.2853546142578125,1706366128589.0
5.448000000000008,10.293768310546875,0.81287841796875,3.0058258056640628,1706366128599.0
5.457999999999998,8.625692749023438,-0.73272705078125,3.8740325927734376,1706366128609.0
5.468000000000004,7.755093383789063,-0.6602020263671875,4.593899536132813,1706366128619.0
5.478000000000009,8.174691772460939,-0.265576171875,2.5057769775390626,1706366128629.0
5.488,9.516329956054689,-1.456781005859375,4.150225830078125,1706366128639.0
5.498000000000005,10.444500732421876,-0.0288604736328125,4.427764892578125,1706366128649.0
5.509,9.837832641601564,1.1017822265625,2.59893798828125,1706366128660.0
5.518000000000001,8.856427001953126,-0.4047943115234375,4.90538330078125,1706366128669.0
5.528999999999996,8.084371948242188,0.15252685546875,4.701416015625,1706366128680.0
5.5390000000000015,8.108746337890626,1.112847900390625,2.557366943359375,1706366128690.0
5.549000000000007,8.842819213867188,0.0961517333984375,4.364361572265626,1706366128700.0
5.5589999999999975,10.054660034179689,0.8885437011718751,2.995208740234375,1706366128710.0
5.569000000000003,9.973611450195314,1.189111328125,2.464654541015625,1706366128720.0
5.579000000000008,9.111236572265623,-0.241351318359375,5.067929077148438,1706366128730.0
5.588999999999999,8.361611938476564,0.2878570556640625,3.8252838134765614,1706366128740.0
5.599000000000004,8.254992675781251,0.275146484375,3.8788177490234377,1706366128750.0
5.609000000000009,8.776425170898438,-1.1336334228515623,4.9215332031250005,1706366128760.0
5.619,9.384588623046875,-0.2899505615234375,3.278878784179688,1706366128770.0
5.629000000000005,9.629229736328126,0.1577606201171875,3.434844970703125,1706366128780.0
5.638999999999996,9.605154418945313,-0.7014739990234375,3.965698242187501,1706366128790.0
5.649000000000001,9.174191284179688,-0.0442626953125,3.030050659179688,1706366128800.0
5.659999999999997,8.68505859375,0.1114044189453125,4.3939697265625,1706366128811.0
5.670000000000002,8.438922119140626,-0.12381591796875,4.536029052734375,1706366128821.0
5.680000000000007,8.694927978515626,1.0205841064453125,3.5674835205078126,1706366128831.0
5.689999999999998,9.3119140625,0.7213623046875001,4.296771240234375,1706366128841.0
5.700000000000003,9.706390380859377,0.08433837890625,3.27843017578125,1706366128851.0
5.710000000000008,9.019570922851564,0.9129180908203126,2.668771362304688,1706366128861.0
5.719999999999999,7.222445678710938,0.5145538330078125,3.386395263671876,1706366128871.0
5.730000000000004,7.667614746093751,-0.040673828125,3.56673583984375,1706366128881.0
5.740000000000009,11.907711791992188,1.20406494140625,5.108901977539063,1706366128891.0
5.75,11.00271911621094,1.1411102294921875,3.836050415039063,1706366128901.0
5.760000000000005,8.304489135742188,-1.50074462890625,4.898355102539063,1706366128911.0
5.769999999999996,7.736700439453125,-0.76981201171875,4.650125122070313,1706366128921.0
5.780000000000001,7.604660034179688,-0.241949462890625,1.892529296875,1706366128931.0
5.790000000000006,9.7629150390625,-2.758493041992188,4.1862640380859375,1706366128941.0
5.799999999999997,11.151956176757814,-0.960919189453125,4.786053466796876,1706366128951.0
5.811000000000007,9.86639404296875,0.931011962890625,2.370147705078125,1706366128962.0
5.820999999999998,8.6934326171875,-0.4400848388671875,4.933346557617188,1706366128972.0
5.831000000000003,7.71068115234375,0.453692626953125,4.9574218750000005,1706366128982.0
5.841000000000008,8.324526977539064,1.104922485351563,2.267864990234376,1706366128992.0
5.850999999999999,9.84830017089844,0.7315307617187501,4.744332885742188,1706366129002.0
5.861000000000004,10.245767211914064,2.176348876953125,3.3371978759765626,1706366129012.0
5.871000000000009,9.464889526367188,1.0812957763671875,1.825387573242188,1706366129022.0
5.881,8.274432373046876,-1.1002868652343751,5.522967529296875,1706366129032.0
5.891000000000005,7.868292236328125,0.4469635009765625,3.833358764648438,1706366129042.0
5.900999999999996,8.435482788085938,0.564947509765625,2.977413940429688,1706366129052.0
5.912000000000006,10.005612182617188,-1.4270233154296876,5.27384033203125,1706366129063.0
5.921999999999997,10.603756713867188,-0.9326568603515626,3.187063598632813,1706366129073.0
5.932000000000002,9.37830810546875,-0.8578887939453126,3.320001220703125,1706366129083.0
5.942000000000007,8.240039062500001,-0.9793121337890626,4.605264282226563,1706366129093.0
5.951999999999998,7.931845092773438,0.6762023925781251,2.77239990234375,1706366129103.0
5.962000000000003,8.842221069335938,0.1027313232421875,3.899603271484376,1706366129113.0
5.972000000000008,9.938470458984376,-0.4690948486328125,4.970730590820313,1706366129123.0
5.981999999999999,10.000079345703126,1.8937255859375,3.2301300048828128,1706366129133.0
5.992000000000004,8.788088989257814,1.6514770507812502,4.372586059570313,1706366129143.0
6.0020000000000095,8.117868041992189,0.13458251953125,4.144543457031251,1706366129153.0
6.0120000000000005,8.129830932617189,0.8365051269531251,2.618527221679688,1706366129163.0
6.022000000000006,9.077740478515626,0.3288299560546875,3.691000366210938,1706366129173.0
6.0319999999999965,10.026547241210938,-0.2579498291015625,3.5034820556640627,1706366129183.0
6.042000000000002,10.03985595703125,0.578106689453125,3.492266845703125,1706366129193.0
6.052000000000007,9.238790893554688,-0.9194976806640626,4.924224853515625,1706366129203.0
6.061999999999998,8.292526245117188,-1.6812347412109376,4.389035034179688,1706366129213.0
6.072000000000003,7.624847412109376,-0.0203369140625,3.535333251953125,1706366129223.0
6.082000000000008,7.456021118164063,0.076263427734375,3.161492919921875,1706366129233.0
6.093000000000004,8.44400634765625,0.0100189208984375,2.9053375244140627,1706366129244.0
6.103000000000009,12.848294067382811,1.4291168212890626,4.139010620117188,1706366129254.0
6.113,12.028387451171875,1.167279052734375,4.6906494140625,1706366129264.0
6.123000000000005,7.788739013671876,-0.8212524414062501,4.318603515625,1706366129274.0
6.132999999999996,6.377566528320313,-0.4804595947265625,4.562945556640625,1706366129284.0
6.143000000000001,6.886737060546875,1.2807769775390625,2.638714599609376,1706366129294.0
6.153000000000006,9.781457519531251,-0.2438934326171875,3.2316253662109378,1706366129304.0
6.162999999999997,12.032125854492188,-0.6120513916015625,5.312420654296876,1706366129314.0
6.173000000000002,10.82462158203125,0.0861328125,3.408676147460938,1706366129324.0
6.183000000000007,8.346060180664063,-0.8812164306640625,4.2025634765625,1706366129334.0
6.192999999999998,7.024609375000001,0.1149932861328125,4.1403564453125,1706366129344.0
6.204999999999998,7.348953247070313,0.4281219482421875,2.800811767578125,1706366129356.0
6.213000000000008,9.995443725585938,-1.283319091796875,4.405783081054688,1706366129364.0
6.224000000000004,11.43353271484375,0.2223602294921875,3.869546508789063,1706366129375.0
6.234000000000009,10.676730346679689,1.3908355712890623,2.655014038085937,1706366129385.0
6.244,8.459857177734376,-0.184527587890625,4.520327758789063,1706366129395.0
6.254000000000005,7.029095458984376,-0.1212738037109375,4.527804565429688,1706366129405.0
6.263999999999996,7.001132202148438,0.213836669921875,3.671710205078125,1706366129415.0
6.274000000000001,9.087310791015623,-0.1598541259765625,4.385446166992188,1706366129425.0
6.284000000000006,11.036215209960938,1.2475799560546876,2.6618927001953128,1706366129435.0
6.293999999999997,11.2152099609375,1.0428649902343752,2.6940429687500003,1706366129445.0
6.305000000000007,9.174490356445313,-0.723455810546875,4.801455688476563,1706366129456.0
6.314000000000007,7.3440185546875005,0.0728240966796875,3.7400482177734378,1706366129465.0
6.323999999999998,7.033282470703125,0.39776611328125,3.811227416992188,1706366129475.0
6.334000000000003,8.675637817382814,-0.6222198486328125,4.362716674804688,1706366129485.0
6.344000000000008,10.48352966308594,-0.0171966552734375,3.125604248046875,1706366129495.0
6.353999999999999,10.854080200195312,0.3928314208984375,4.191946411132813,1706366129505.0
6.364000000000004,9.558349609375,-0.2513702392578125,4.505972290039063,1706366129515.0
6.374000000000009,8.023211669921876,-0.01854248046875,3.246878051757813,1706366129525.0
6.385000000000005,7.524807739257813,-0.2824737548828125,4.21153564453125,1706366129536.0
6.394999999999996,8.3931640625,-0.4574310302734375,3.769805908203125,1706366129546.0
6.405000000000001,9.655697631835938,0.7647277832031251,3.022573852539063,1706366129556.0
6.415000000000006,10.57205505371094,0.9214416503906252,4.024914550781251,1706366129566.0
6.424999999999997,10.161279296875,0.0306549072265625,3.885247802734375,1706366129576.0
6.435000000000002,8.371481323242188,0.1541717529296875,3.8954162597656254,1706366129586.0
6.445000000000007,7.515835571289063,0.2561553955078125,4.009811401367188,1706366129596.0
6.454999999999998,6.517083740234376,0.1416107177734375,3.1972320556640628,1706366129606.0
6.465000000000003,7.449142456054688,0.3680084228515625,2.970236206054688,1706366129616.0
6.4750000000000085,13.368081665039064,0.8335144042968751,4.659695434570313,1706366129626.0
6.484999999999999,13.068560791015626,1.6031768798828123,4.124356079101563,1706366129636.0
6.4950000000000045,7.905227661132813,-0.7405029296875001,4.3238372802734375,1706366129646.0
6.506,6.281564331054688,-1.6516265869140627,5.2345123291015625,1706366129657.0
6.516000000000005,6.081036376953126,0.3300262451171875,2.2751922607421875,1706366129667.0
6.525999999999996,9.675286865234376,-1.7248992919921875,2.8513549804687504,1706366129677.0
6.536000000000001,12.711019897460938,-1.6344299316406252,5.611941528320313,1706366129687.0
6.546000000000007,11.39884033203125,1.2955810546875002,3.1338287353515626,1706366129697.0
6.555999999999997,8.548532104492189,-0.177349853515625,3.6235595703125,1706366129707.0
6.5660000000000025,6.586318969726563,-0.655865478515625,5.742337036132813,1706366129717.0
6.576000000000008,6.830810546875001,0.9232360839843752,2.60970458984375,1706366129727.0
6.585999999999999,9.35438232421875,0.3662139892578125,3.419143676757813,1706366129737.0
6.596000000000004,11.243023681640626,1.780825805664063,4.161441040039063,1706366129747.0
6.606000000000009,10.890567016601564,2.3170623779296875,1.5915130615234376,1706366129757.0
6.616,9.16163024902344,-0.6141448974609376,4.492514038085938,1706366129767.0
6.626000000000005,7.412356567382813,-0.1951446533203125,5.302401733398438,1706366129777.0
6.635999999999996,6.92412109375,0.9595733642578126,3.19588623046875,1706366129787.0
6.646000000000001,8.554962158203125,-1.196588134765625,4.922579956054688,1706366129797.0
6.656000000000006,10.707833862304687,-1.1970367431640625,3.786703491210938,1706366129807.0
6.667000000000002,10.788134765625,-0.3349609375,2.16707763671875,1706366129818.0
6.677000000000007,9.50750732421875,-1.03179931640625,4.3547912597656255,1706366129828.0
6.686999999999998,8.243029785156251,0.00657958984375,3.672607421875,1706366129838.0
6.697000000000003,8.027847290039062,0.3416900634765625,3.4584716796875004,1706366129848.0
6.707000000000008,8.553915405273438,-0.9984527587890626,5.239895629882813,1706366129858.0
6.716999999999999,9.419131469726564,0.9256286621093752,3.46505126953125,1706366129868.0
6.727000000000004,9.486572265625,2.3071929931640627,3.3105804443359377,1706366129878.0
6.737000000000009,9.428701782226565,0.5719757080078125,4.672555541992188,1706366129888.0
6.747,9.057553100585938,0.562255859375,3.157904052734376,1706366129898.0
6.757000000000005,8.747564697265625,0.7723541259765626,3.506622314453125,1706366129908.0
6.766999999999996,8.441314697265625,-0.3282318115234375,4.179684448242188,1706366129918.0
6.777000000000001,8.871530151367189,0.2097991943359375,3.1253051757812504,1706366129928.0
6.787000000000006,9.380850219726565,-0.294287109375,4.088018798828125,1706366129938.0
6.796999999999997,9.883889770507814,-1.4781646728515625,3.916201782226562,1706366129948.0
6.808000000000007,8.581130981445312,0.0674407958984375,3.149530029296875,1706366129959.0
6.817999999999998,7.084872436523438,0.6211730957031251,3.922930908203125,1706366129969.0
6.828000000000003,9.036917114257813,-0.4723846435546875,4.784259033203125,1706366129979.0
6.838000000000008,11.348446655273438,0.6802398681640626,4.631283569335938,1706366129989.0
6.847999999999999,9.848599243164063,0.4498046875,2.95184326171875,1706366129999.0
6.858000000000004,8.839828491210938,-1.2556549072265626,4.25938720703125,1706366130009.0
6.868000000000009,8.043997192382813,0.983349609375,3.289495849609376,1706366130019.0
6.879000000000005,8.112185668945314,1.031201171875,2.614190673828125,1706366130030.0
6.888000000000005,9.761569213867189,-1.1805877685546875,6.026605224609376,1706366130039.0
6.897999999999996,10.041799926757813,0.2906982421875,4.165328979492188,1706366130049.0
6.908000000000001,9.631921386718751,0.132489013671875,2.6092559814453127,1706366130059.0
6.918000000000006,8.778817749023439,-0.579901123046875,5.156753540039063,1706366130069.0
6.929000000000002,8.200860595703126,0.7559051513671875,2.7613342285156253,1706366130080.0
6.938000000000002,8.995046997070313,-0.5067779541015626,2.707052612304688,1706366130089.0
6.948999999999998,9.9710693359375,-1.2229064941406251,5.62913818359375,1706366130100.0
6.959000000000003,9.657342529296876,0.6711181640625,2.777334594726563,1706366130110.0
6.969000000000008,8.995794677734375,0.4427764892578125,3.3766754150390628,1706366130120.0
6.978999999999999,8.069717407226562,-0.483599853515625,6.058905029296875,1706366130130.0
6.989000000000004,8.266207885742189,0.485693359375,2.79393310546875,1706366130140.0
6.999000000000009,9.075347900390623,0.30924072265625,3.523370361328125,1706366130150.0
7.009,10.333395385742188,0.2818756103515625,4.204656982421875,1706366130160.0
7.0190000000000055,9.935330200195311,1.284515380859375,1.8228454589843752,1706366130170.0
7.028999999999996,8.807229614257814,0.097198486328125,4.429559326171876,1706366130180.0
7.0390000000000015,8.119512939453125,-0.539825439453125,4.971029663085938,1706366130190.0
7.049000000000007,7.877713012695313,0.8918334960937501,3.001638793945313,1706366130200.0
7.0589999999999975,8.809622192382813,0.0560760498046875,4.471429443359376,1706366130210.0
7.069000000000003,10.29227294921875,-0.5641998291015625,4.191049194335938,1706366130220.0
7.079000000000008,10.047332763671877,0.5223297119140625,3.2338684082031253,1706366130230.0
7.090000000000003,9.136358642578124,-0.356793212890625,4.04345703125,1706366130241.0
7.1000000000000085,8.405426025390625,-0.7023712158203126,3.5329406738281253,1706366130251.0
7.109999999999999,8.046539306640625,0.2887542724609375,3.208297729492188,1706366130261.0
7.121000000000009,8.959756469726564,-0.41690673828125,4.302603149414063,1706366130272.0
7.13000000000001,9.785943603515626,0.1158905029296875,4.433596801757813,1706366130281.0
7.140000000000001,9.864300537109376,1.3696014404296877,3.964950561523438,1706366130291.0
7.150000000000006,9.205743408203126,-0.0800018310546875,4.070822143554688,1706366130301.0
7.159999999999997,8.503970336914064,-0.3895416259765625,3.760684204101562,1706366130311.0
7.170000000000002,7.906723022460938,0.8070465087890626,2.7949798583984378,1706366130321.0
7.180000000000007,7.5503784179687505,0.0192901611328125,2.435943603515625,1706366130331.0
7.189999999999998,8.2747314453125,-0.0025421142578125,3.682925415039063,1706366130341.0
7.200000000000003,12.693075561523438,1.6146911621093751,4.974468994140626,1706366130351.0
7.2109999999999985,11.44609375,1.120025634765625,4.3054443359375005,1706366130362.0
7.219999999999999,7.408917236328126,-1.0309020996093752,5.312869262695313,1706366130371.0
7.231000000000009,6.4408203125000005,-0.4670013427734375,4.671060180664063,1706366130382.0
7.241,7.453628540039063,0.320904541015625,1.7676666259765623,1706366130392.0
7.251000000000005,10.3299560546875,-1.921090698242188,3.57750244140625,1706366130402.0
7.260999999999996,12.738235473632814,-1.02821044921875,4.409671020507813,1706366130412.0
7.271000000000001,10.159783935546876,0.6129486083984376,3.1969329833984377,1706366130422.0
7.281000000000006,8.138204956054688,-0.4445709228515625,4.33116455078125,1706366130432.0
7.290999999999997,6.587515258789063,-0.247332763671875,5.014993286132813,1706366130442.0
7.301000000000002,7.709036254882813,0.2406036376953125,3.3890869140625,1706366130452.0
7.311000000000007,10.056903076171876,0.2739501953125,3.692794799804688,1706366130462.0
7.322000000000003,11.266650390625,2.276388549804688,3.449050903320313,1706366130473.0
7.331000000000003,10.11402587890625,1.5502410888671876,2.367306518554688,1706366130482.0
7.341000000000008,8.494998168945314,-0.7502227783203126,4.44840087890625,1706366130492.0
7.350999999999999,7.051077270507813,0.389691162109375,4.4633544921875,1706366130502.0
7.361000000000004,7.4660400390625,0.8269348144531251,3.5196319580078126,1706366130512.0
7.371000000000009,9.405224609375,-0.608612060546875,4.526608276367188,1706366130522.0
7.382000000000005,11.036065673828126,-0.40015869140625,3.4155548095703128,1706366130533.0
7.391999999999996,10.4280517578125,-0.8178131103515626,3.2459808349609376,1706366130543.0
7.402000000000001,8.743377685546875,-1.01864013671875,4.218115234375,1706366130553.0
7.412000000000006,7.800851440429688,0.459075927734375,3.3213470458984378,1706366130563.0
7.421999999999997,8.151364135742188,-0.3357086181640625,4.081887817382813,1706366130573.0
7.432000000000002,9.441860961914063,-1.3055999755859375,4.701864624023438,1706366130583.0
7.442000000000007,9.680221557617188,0.95643310546875,3.4312561035156253,1706366130593.0
7.451999999999998,9.382345581054688,1.6760009765625,3.9148559570312496,1706366130603.0
7.462000000000003,8.74786376953125,0.5715270996093751,4.2145263671875,1706366130613.0
7.472000000000008,8.958111572265626,0.71478271484375,2.914010620117188,1706366130623.0
7.481999999999999,8.934933471679688,0.3709991455078125,3.8321624755859376,1706366130633.0
7.492000000000004,9.02301025390625,0.1613494873046875,3.793432617187501,1706366130643.0
7.5020000000000095,8.91773681640625,0.7820739746093751,3.350057983398438,1706366130653.0
7.513000000000005,9.366644287109375,-0.31881103515625,4.260882568359375,1706366130664.0
7.522999999999996,9.188546752929687,-1.3216003417968751,4.078747558593751,1706366130674.0
7.533000000000001,8.779415893554688,0.0514404296875,3.49495849609375,1706366130684.0
7.543000000000006,7.467535400390625,0.2259490966796875,3.686962890625,1706366130694.0
7.552999999999997,8.385836791992189,-0.5161987304687501,3.9712310791015626,1706366130704.0
7.563000000000002,11.52430114746094,0.3144744873046875,4.566983032226563,1706366130714.0
7.573000000000007,10.500726318359376,0.3031097412109375,3.538323974609375,1706366130724.0
7.582999999999998,8.3752197265625,-1.121820068359375,4.008465576171876,1706366130734.0
7.5930000000000035,8.334097290039063,0.4222900390625,3.84786376953125,1706366130744.0
7.603000000000009,7.956967163085938,1.4829498291015626,2.662191772460938,1706366130754.0
7.612999999999999,9.410159301757814,-0.485693359375,5.007516479492188,1706366130764.0
7.623000000000005,10.195672607421876,0.10228271484375,5.112490844726563,1706366130774.0
7.632999999999996,9.616070556640626,0.6392669677734375,2.7857086181640627,1706366130784.0
7.643000000000001,8.892465209960939,-0.330474853515625,4.0751586914062505,1706366130794.0
7.653000000000006,8.343368530273438,0.6104064941406251,3.611447143554688,1706366130804.0
7.6640000000000015,8.784201049804688,0.0641510009765625,2.595050048828125,1706366130815.0
7.674000000000007,9.78385009765625,-1.3693023681640626,4.964749145507813,1706366130825.0
7.683999999999997,9.96807861328125,0.0705810546875,3.591110229492188,1706366130835.0
7.694000000000003,9.11512451171875,0.31641845703125,3.1022766113281253,1706366130845.0
7.704000000000008,8.23585205078125,-0.612799072265625,5.3007568359375,1706366130855.0
7.713999999999999,8.293722534179688,0.3052032470703125,3.685317993164063,1706366130865.0
7.724000000000004,9.1240966796875,0.09151611328125,3.501239013671875,1706366130875.0
7.734000000000009,9.642239379882811,-0.1649383544921875,4.518682861328125,1706366130885.0
7.744,9.732708740234376,1.3005157470703126,2.201022338867188,1706366130895.0
7.756,8.92132568359375,0.6533233642578126,3.639111328125,1706366130907.0
7.763999999999996,8.35428466796875,-0.2092010498046875,4.831961059570313,1706366130915.0
7.774000000000001,8.394061279296876,0.97318115234375,2.816064453125,1706366130925.0
7.784000000000006,9.273483276367188,0.4649078369140625,4.087570190429688,1706366130935.0
7.793999999999997,9.845458984375,-0.372943115234375,4.4853363037109375,1706366130945.0
7.804000000000002,9.512142944335938,0.2788848876953125,3.283065795898438,1706366130955.0
7.814999999999998,8.784350585937501,-0.58857421875,4.713229370117188,1706366130966.0
7.825000000000003,8.302096557617189,-0.9677978515625,3.883154296875,1706366130976.0
7.835000000000008,8.432192993164064,0.0322998046875,2.9280670166015628,1706366130986.0
7.844999999999999,9.547882080078123,-0.4442718505859375,4.37841796875,1706366130996.0
7.855000000000004,10.161727905273438,-0.2355194091796875,3.782965087890626,1706366131006.0
7.865000000000009,9.625939941406251,0.8827117919921875,3.43394775390625,1706366131016.0
7.875,8.751602172851562,-0.0130096435546875,4.583282470703125,1706366131026.0
7.885000000000005,8.068222045898438,0.0336456298828125,3.4961547851562504,1706366131036.0
7.894999999999996,8.083624267578125,1.109857177734375,3.015695190429688,1706366131046.0
7.905000000000001,7.943359375000001,0.5715270996093751,3.5632965087890627,1706366131056.0
7.915999999999997,8.471820068359376,0.7711578369140626,3.211138916015625,1706366131067.0
7.926000000000002,12.01373291015625,1.5939056396484377,4.77080078125,1706366131077.0
7.935000000000002,11.824868774414064,1.0406219482421877,4.460513305664063,1706366131086.0
7.945999999999998,7.452731323242188,-0.8816650390625,3.9446136474609377,1706366131097.0
7.956000000000003,6.610693359375,-1.2353179931640623,4.802053833007813,1706366131107.0
7.966000000000008,7.529592895507813,-0.3775787353515625,2.663836669921875,1706366131117.0
7.975999999999999,10.492501831054687,-1.9104736328125,2.8592803955078128,1706366131127.0
7.986000000000004,11.984274291992188,-1.923483276367188,5.372982788085938,1706366131137.0
7.996000000000009,10.249356079101563,0.1789947509765625,3.8904815673828126,1706366131147.0
8.006,7.790533447265625,0.09510498046875,3.7007202148437504,1706366131157.0
8.016000000000005,7.096685791015625,-0.0898712158203125,4.998843383789063,1706366131167.0
8.025999999999996,7.985678100585938,0.6107055664062501,3.0134521484375,1706366131177.0
8.036000000000001,10.30902099609375,0.96959228515625,3.255999755859375,1706366131187.0
8.046000000000006,10.82327575683594,2.2632293701171875,3.843975830078125,1706366131197.0
8.055999999999997,10.101165771484377,2.014849853515625,2.4205413818359376,1706366131207.0
8.066000000000003,8.121905517578126,-0.3289794921875,4.3014068603515625,1706366131217.0
8.076000000000008,7.133023071289063,-0.1780975341796875,4.7435852050781255,1706366131227.0
8.085999999999999,7.680325317382813,0.5994903564453126,3.5290527343750004,1706366131237.0
8.097000000000008,9.72822265625,-0.5558258056640626,4.4419708251953125,1706366131248.0
8.107,11.166610717773438,-1.18970947265625,3.472528076171875,1706366131258.0
8.117000000000004,10.45377197265625,-1.2103454589843752,3.304000854492188,1706366131268.0
8.12700000000001,8.363406372070314,-1.2851135253906252,4.345071411132813,1706366131278.0
8.137,7.425216674804688,0.0001495361328125,3.3310668945312503,1706366131288.0
8.147000000000006,8.08033447265625,0.1792938232421875,3.91904296875,1706366131298.0
8.156999999999996,9.535919189453123,-0.420794677734375,4.579693603515626,1706366131308.0
8.167000000000002,10.240533447265626,1.1720642089843751,3.2924865722656254,1706366131318.0
8.177000000000007,9.772036743164064,2.2292846679687504,3.876425170898438,1706366131328.0
8.186999999999998,8.905474853515626,1.0159484863281252,4.161141967773438,1706366131338.0
8.197000000000003,8.046389770507814,0.56943359375,3.1535675048828127,1706366131348.0
8.207000000000008,8.371630859375001,0.2998199462890625,3.781021118164063,1706366131358.0
8.216999999999999,8.713320922851564,-0.1861724853515625,4.1144866943359375,1706366131368.0
8.227000000000004,9.56717224121094,0.4260284423828125,3.2271392822265628,1706366131378.0
8.238,9.936526489257814,-0.328680419921875,4.196432495117188,1706366131389.0
8.248000000000005,9.919927978515624,-1.6145416259765626,4.2879486083984375,1706366131399.0
8.257999999999996,8.576495361328126,-0.7560546875,3.4723785400390628,1706366131409.0
8.268,7.268951416015626,0.2519683837890625,3.650924682617188,1706366131419.0
8.278000000000006,6.451736450195313,0.265277099609375,3.3057952880859376,1706366131429.0
8.287999999999997,10.710076904296876,0.6237152099609375,3.56553955078125,1706366131439.0
8.298000000000002,12.875210571289063,1.2333740234375,4.985983276367188,1706366131449.0
8.308000000000007,10.129129028320314,0.581097412109375,3.6452423095703126,1706366131459.0
8.317999999999998,7.419833374023438,-0.9087310791015626,5.057760620117188,1706366131469.0
8.328000000000003,6.726583862304688,0.6253601074218751,3.568380737304688,1706366131479.0
8.338000000000008,7.559649658203125,0.3624755859375,1.981204223632813,1706366131489.0
8.347999999999999,10.650262451171876,-1.3109832763671876,5.339486694335938,1706366131499.0
8.359000000000009,11.537908935546875,-0.049945068359375,3.47581787109375,1706366131510.0
8.369,10.276870727539062,-0.3156707763671875,3.314169311523438,1706366131520.0
8.378,8.110391235351564,-0.7056610107421876,5.361767578125001,1706366131529.0
8.388999999999996,7.044497680664063,0.6156402587890626,3.351852416992188,1706366131540.0
8.399000000000001,8.031137084960939,-0.5508911132812501,3.6331298828125,1706366131550.0
8.409000000000006,10.217205810546876,-0.9027496337890626,4.784857177734375,1706366131560.0
8.418999999999997,10.74671325683594,1.1153900146484377,2.375531005859376,1706366131570.0
8.429000000000002,9.956564331054688,0.95224609375,3.12291259765625,1706366131580.0
8.439000000000007,8.400640869140625,0.074468994140625,4.897308349609375,1706366131590.0
8.448999999999998,7.410861206054688,0.3828125,3.725244140625,1706366131600.0
8.459000000000003,7.988519287109375,-0.1637420654296875,4.516888427734376,1706366131610.0
8.469000000000008,9.495843505859376,0.202471923828125,4.071868896484375,1706366131620.0
8.479,10.486819458007814,1.2631317138671876,2.002737426757813,1706366131630.0
8.489000000000004,9.894805908203123,-0.047552490234375,3.828424072265625,1706366131640.0
8.49900000000001,9.015084838867187,-0.552984619140625,3.9972503662109378,1706366131650.0
8.509,7.892367553710938,0.3865509033203125,3.7078979492187503,1706366131660.0
8.519999999999996,8.18560791015625,-0.2465850830078125,4.791586303710938,1706366131671.0
8.530000000000001,9.097479248046875,-0.372943115234375,4.084429931640625,1706366131681.0
8.540000000000006,9.712820434570313,0.4858428955078125,3.589764404296876,1706366131691.0
8.549999999999997,9.399990844726563,-0.1858734130859375,3.968389892578125,1706366131701.0
8.560000000000002,9.221893310546877,0.015252685546875,3.4584716796875004,1706366131711.0
8.570000000000007,8.928204345703126,0.6778472900390625,3.181082153320313,1706366131721.0
8.579999999999998,9.199313354492189,-0.181536865234375,3.7200103759765626,1706366131731.0
8.590000000000003,8.848501586914063,-0.0608612060546875,4.3941192626953125,1706366131741.0
8.600000000000009,9.003720092773438,0.6702209472656251,4.276135253906251,1706366131751.0
8.61,8.880053710937501,-0.069384765625,4.051980590820313,1706366131761.0
8.623000000000005,8.942410278320313,-0.013458251953125,3.720159912109376,1706366131774.0
8.63000000000001,9.032879638671876,0.322998046875,3.406732177734375,1706366131781.0
8.64,8.641842651367188,0.05263671875,3.065939331054688,1706366131791.0
8.650999999999996,7.26207275390625,0.30325927734375,3.300860595703125,1706366131802.0
8.661000000000001,10.366741943359376,0.6204254150390626,4.100729370117188,1706366131812.0
8.671000000000006,12.182110595703126,1.3552459716796876,4.20555419921875,1706366131822.0
8.680999999999997,8.70240478515625,0.6075653076171875,3.8888366699218753,1706366131832.0
8.691000000000003,7.540658569335938,-1.1807373046875,5.63272705078125,1706366131842.0
8.701000000000008,7.583425903320313,0.00299072265625,3.833059692382813,1706366131852.0
8.710999999999999,8.887680053710938,-0.9778167724609376,2.2665191650390626,1706366131862.0
8.722000000000008,11.146572875976563,-2.369699096679688,4.9459075927734375,1706366131873.0
8.731000000000009,10.523156738281251,0.1745086669921875,3.592605590820313,1706366131882.0
8.741,8.812463378906251,0.2086029052734375,2.204611206054688,1706366131892.0
8.751000000000005,8.256787109375,-0.8723937988281251,5.636315917968751,1706366131902.0
8.760999999999996,7.997491455078125,0.576910400390625,3.855490112304688,1706366131912.0
8.771,9.146527099609376,0.5073760986328125,3.160147094726563,1706366131922.0
8.781000000000006,9.877459716796876,1.1297454833984375,5.622708129882813,1706366131932.0
8.792000000000002,9.589602661132814,2.321249389648438,2.3050994873046875,1706366131943.0
8.801000000000002,8.88663330078125,-0.000299072265625,2.5138519287109378,1706366131952.0
8.811000000000007,8.631375122070313,-0.375634765625,5.095892333984375,1706366131962.0
8.822000000000003,8.382098388671876,1.3030578613281252,2.62764892578125,1706366131973.0
8.832000000000008,9.132321166992188,-0.0468048095703125,3.821694946289063,1706366131983.0
8.841999999999999,9.732708740234376,-1.0836883544921876,5.536874389648438,1706366131993.0
8.852000000000004,9.736746215820313,-0.7005767822265625,2.9739746093750004,1706366132003.0
8.862000000000009,8.62464599609375,-1.2825714111328126,4.235311889648438,1706366132013.0
8.872,8.429650878906251,-0.2875579833984375,4.025213623046875,1706366132023.0
8.882000000000005,8.87347412109375,0.500946044921875,2.5759094238281253,1706366132033.0
8.891999999999996,9.5427978515625,-0.817364501953125,4.547991943359375,1706366132043.0
8.902000000000001,9.8,0.0509918212890625,3.863265991210938,1706366132053.0
8.912000000000006,9.121853637695311,1.826583862304688,3.3357025146484376,1706366132063.0
8.921999999999997,8.236151123046875,0.8864501953125,4.680032348632813,1706366132073.0
8.932000000000002,8.36505126953125,0.5316009521484375,3.397311401367188,1706366132083.0
8.942999999999998,8.880502319335939,0.9057403564453126,3.883004760742188,1706366132094.0
8.951999999999998,9.382345581054688,0.2193695068359375,4.0785980224609375,1706366132103.0
8.963000000000008,9.902731323242188,0.6268554687500001,2.630490112304688,1706366132114.0
8.972999999999999,9.538162231445312,0.268865966796875,4.175946044921876,1706366132124.0
8.983000000000004,9.010000610351565,-1.645196533203125,4.408773803710938,1706366132134.0
8.99300000000001,8.336788940429688,-0.9939666748046876,3.2891967773437503,1706366132144.0
9.003,7.574154663085938,0.2746978759765625,4.223049926757813,1706366132154.0
9.013000000000003,7.487423706054688,-0.2166778564453125,3.5184356689453127,1706366132164.0
9.022999999999996,10.336685180664062,0.261090087890625,3.8185546875,1706366132174.0
9.033,12.53396911621094,1.033294677734375,4.821044921875,1706366132184.0
9.043000000000006,9.928451538085938,0.1425079345703125,3.1617919921875,1706366132194.0
9.052999999999995,7.195828247070313,-0.7686157226562501,4.320098876953125,1706366132204.0
9.063000000000002,7.0927978515625005,0.656463623046875,3.654663085937501,1706366132214.0
9.073000000000008,8.037866210937501,0.7236053466796876,2.4357940673828127,1706366132224.0
9.082999999999998,10.630523681640623,-0.282025146484375,5.0460968017578125,1706366132234.0
9.093000000000004,11.365643310546876,0.317913818359375,4.609152221679688,1706366132244.0
9.104,9.8287109375,-0.320904541015625,3.626251220703125,1706366132255.0
9.114000000000004,7.774383544921876,-0.7367645263671876,4.6707611083984375,1706366132265.0
9.12400000000001,7.09818115234375,0.3840087890625,2.958273315429688,1706366132275.0
9.134,8.458062744140626,-0.5917144775390626,2.914010620117188,1706366132285.0
9.144000000000004,10.5524658203125,-1.1363250732421877,4.622760009765625,1706366132295.0
9.153999999999996,11.26126708984375,0.796728515625,2.893673706054688,1706366132305.0
9.164,9.649865722656251,0.7463348388671875,3.807937622070313,1706366132315.0
9.174000000000008,7.610940551757813,-0.349615478515625,5.3773193359375,1706366132325.0
9.183999999999996,6.990365600585938,0.245538330078125,3.7699554443359378,1706366132335.0
9.194000000000004,8.261123657226562,0.1257598876953125,4.147534179687501,1706366132345.0
9.204000000000008,10.244122314453126,0.4194488525390625,3.1414550781250004,1706366132355.0
9.214,11.1649658203125,1.5563720703125,1.887744140625,1706366132365.0
9.225000000000009,9.852786254882814,0.1972381591796875,4.1439453125000005,1706366132376.0
9.234000000000009,8.265908813476564,-0.702520751953125,4.435540771484376,1706366132385.0
9.245000000000005,7.096237182617188,0.503936767578125,4.135571289062501,1706366132396.0
9.25500000000001,8.088409423828125,0.084637451171875,4.592105102539063,1706366132406.0
9.265,9.595883178710938,-0.5653961181640625,3.5568664550781253,1706366132416.0
9.275000000000006,10.683160400390626,0.259295654296875,3.382955932617188,1706366132426.0
9.284999999999997,9.934732055664064,-0.1888641357421875,4.140206909179688,1706366132436.0
9.295000000000002,8.8226318359375,-0.193798828125,3.3988067626953127,1706366132446.0
9.305000000000009,7.738345336914063,0.3123809814453125,3.583334350585938,1706366132456.0
9.314999999999998,8.39495849609375,-0.4484588623046875,4.325930786132813,1706366132466.0
9.325000000000005,8.875567626953126,0.05443115234375,4.060803222656251,1706366132476.0
9.335000000000008,9.898992919921875,1.2583465576171875,3.743338012695313,1706366132486.0
9.345,9.9758544921875,0.335858154296875,4.106710815429688,1706366132496.0
9.355000000000004,9.600967407226562,-0.10946044921875,3.277682495117188,1706366132506.0
9.365000000000007,7.753897094726563,0.1027313232421875,3.118426513671875,1706366132516.0
9.375,6.244180297851563,-0.1027313232421875,3.450396728515625,1706366132526.0
9.385999999999996,8.496493530273439,0.492572021484375,4.214974975585938,1706366132537.0
9.396,12.956408691406253,1.5230255126953125,4.427017211914063,1706366132547.0
9.406000000000006,10.975802612304689,0.309539794921875,3.9159027099609376,1706366132557.0
9.415999999999997,8.46015625,-1.203167724609375,5.235858154296875,1706366132567.0
9.426000000000002,6.84935302734375,0.4266265869140625,3.3460205078125003,1706366132577.0
9.436000000000009,6.949841308593751,-0.4270751953125,2.600881958007813,1706366132587.0
9.445999999999998,10.1828125,-2.612994384765625,4.9179443359375,1706366132597.0
9.456000000000005,11.582171630859376,-0.1374237060546875,3.558660888671876,1706366132607.0
9.466000000000008,10.491604614257811,0.90439453125,2.775689697265625,1706366132617.0
9.476,8.735452270507814,-0.3330169677734375,5.542855834960938,1706366132627.0
9.486000000000004,7.1693603515625,0.1108062744140625,4.020278930664063,1706366132637.0
9.49600000000001,7.795468139648438,-0.17705078125,3.458023071289063,1706366132647.0
9.506,9.440664672851565,0.6575103759765626,4.587918090820313,1706366132657.0
9.516000000000004,10.181018066406253,2.5806945800781254,1.9723815917968752,1706366132667.0
9.527,10.202252197265626,0.581695556640625,2.883355712890625,1706366132678.0
9.537000000000006,9.2843994140625,-0.761138916015625,5.106808471679688,1706366132688.0
9.546999999999995,7.917489624023438,0.9263763427734376,3.3301696777343754,1706366132698.0
9.557000000000002,7.620510864257813,0.4065887451171875,4.272845458984375,1706366132708.0
9.567000000000007,9.0283935546875,-0.9341522216796876,5.057461547851563,1706366132718.0
9.576999999999998,10.05166931152344,-0.7669708251953126,2.967694091796876,1706366132728.0
9.587000000000003,10.12479248046875,-1.0539306640625,3.3735351562500004,1706366132738.0
9.597000000000008,9.279315185546876,-0.2441925048828125,3.930258178710938,1706366132748.0
9.607,8.428005981445313,0.7920928955078126,2.955731201171876,1706366132758.0
9.617000000000004,8.416491699218751,-0.7609893798828126,4.6571533203125,1706366132768.0
9.62700000000001,8.98951416015625,-0.6630432128906251,4.793829345703125,1706366132778.0
9.638999999999996,9.107498168945312,1.6477386474609377,3.145492553710938,1706366132790.0
9.647000000000006,9.139498901367189,1.3319183349609376,3.801806640625,1706366132798.0
9.656999999999996,9.342120361328126,0.39656982421875,3.904837036132813,1706366132808.0
9.668000000000006,9.20364990234375,0.5716766357421875,3.205307006835938,1706366132819.0
9.677999999999995,8.835491943359376,0.1090118408203125,4.044503784179688,1706366132829.0
9.688000000000002,8.651113891601563,0.453094482421875,3.7832641601562496,1706366132839.0
9.698000000000008,8.905474853515626,0.410028076171875,3.657952880859375,1706366132849.0
9.707999999999998,9.216061401367188,-1.226495361328125,4.32757568359375,1706366132859.0
9.718000000000004,9.501824951171876,-0.831121826171875,3.655410766601563,1706366132869.0
9.728000000000009,8.368341064453126,0.7606903076171876,3.1088562011718754,1706366132879.0
9.739000000000004,7.510452270507813,0.3218017578125,3.2772338867187503,1706366132890.0
9.748000000000005,9.446496582031251,-0.189910888671875,4.578347778320313,1706366132899.0
9.757999999999996,12.211270141601563,0.5606109619140626,4.93289794921875,1706366132909.0
9.768,9.399392700195314,0.0514404296875,3.4209381103515626,1706366132919.0
9.778000000000006,7.479498291015625,-0.9770690917968752,4.653713989257813,1706366132929.0
9.787999999999997,7.604360961914063,0.6418090820312501,3.560455322265625,1706366132939.0
9.798000000000002,8.982635498046875,0.633734130859375,2.1287963867187503,1706366132949.0
9.808000000000009,10.654150390625,-0.8982635498046876,5.07645263671875,1706366132959.0
9.819000000000004,10.666711425781251,0.23267822265625,4.3492584228515625,1706366132970.0
9.829000000000008,8.621804809570314,-0.0420196533203125,2.992666625976563,1706366132980.0
9.839,8.061642456054688,-0.5115631103515625,4.726388549804688,1706366132990.0
9.849000000000004,8.001678466796875,0.7898498535156251,3.558810424804688,1706366133000.0
9.859000000000009,9.340774536132812,-0.2154815673828125,3.255850219726563,1706366133010.0
9.869,10.476950073242188,-0.8496643066406251,5.267709350585938,1706366133020.0
9.879000000000003,10.236795043945314,0.7940368652343751,3.183175659179688,1706366133030.0
9.888999999999996,8.496792602539063,0.1864715576171875,2.653070068359375,1706366133040.0
9.899,7.722793579101563,-0.581097412109375,4.8382415771484375,1706366133050.0
9.909000000000006,8.154055786132814,0.4810577392578125,3.2791778564453127,1706366133060.0
9.918999999999995,9.46548767089844,0.0394775390625,3.7979187011718754,1706366133070.0
9.929000000000002,10.401583862304689,0.091217041015625,4.4863830566406255,1706366133080.0
9.939000000000007,10.03985595703125,1.2553558349609375,2.9011505126953128,1706366133090.0
9.948999999999998,8.306283569335939,-0.093011474609375,4.28690185546875,1706366133100.0
9.960000000000008,7.640548706054688,-0.5359375000000001,4.369146728515625,1706366133111.0
9.97,8.3225830078125,0.8429351806640626,2.97935791015625,1706366133121.0
9.980000000000004,9.610986328125,0.1574615478515625,3.8486114501953126,1706366133131.0
9.990000000000007,10.446145629882814,-0.1742095947265625,3.631784057617188,1706366133141.0
10.0,9.728970336914063,0.6099578857421876,3.809283447265625,1706366133151.0
10.010000000000003,8.473165893554688,-0.325689697265625,4.637265014648438,1706366133161.0
10.019999999999996,7.773037719726563,-0.4559356689453125,3.5649414062500004,1706366133171.0
10.03,8.542251586914062,0.3055023193359375,3.54161376953125,1706366133181.0
10.040000000000006,9.559396362304687,-0.362176513671875,4.2121337890625,1706366133191.0
10.049999999999995,10.177578735351563,0.1158905029296875,3.362319946289063,1706366133201.0
10.060000000000002,9.475207519531253,0.7916442871093751,4.155010986328126,1706366133211.0
10.070000000000007,8.785995483398438,-0.3219512939453125,4.320996093750001,1706366133221.0
10.079999999999998,8.158242797851564,-0.1846771240234375,3.0545745849609376,1706366133231.0
10.090000000000003,8.182318115234375,0.6313415527343751,3.36336669921875,1706366133241.0
10.101,7.34342041015625,0.140264892578125,3.406732177734375,1706366133252.0
10.111000000000004,9.2197998046875,0.7138854980468751,3.4731262207031253,1706366133262.0
10.12100000000001,12.714010620117188,1.767816162109375,5.017535400390625,1706366133272.0
10.131,10.950979614257813,0.9464141845703126,3.72105712890625,1706366133282.0
10.141000000000004,7.379010009765626,-0.988134765625,4.790689086914063,1706366133292.0
10.150999999999996,6.7219482421875005,-0.3638214111328125,4.386492919921875,1706366133302.0
10.161,7.334896850585938,-0.6041259765625,2.4203918457031253,1706366133312.0
10.171000000000006,10.493997192382814,-2.352801513671875,4.1248046875,1706366133322.0
10.180999999999996,12.070556640625,-0.7322784423828126,4.228732299804688,1706366133332.0
10.191000000000004,10.366891479492187,0.5079742431640626,3.1561096191406253,1706366133342.0
10.201000000000008,8.259030151367188,-0.6123504638671875,4.753753662109375,1706366133352.0
10.211,6.976907348632813,-0.22191162109375,4.443615722656251,1706366133362.0
10.221000000000004,7.779019165039063,0.302362060546875,3.020480346679688,1706366133372.0
10.231000000000009,9.700558471679688,0.8387481689453126,4.125552368164063,1706366133382.0
10.242000000000004,10.863949584960938,2.583087158203125,2.966049194335937,1706366133393.0
10.251000000000005,10.262515258789064,1.4045928955078126,3.0964447021484376,1706366133402.0
10.262,8.811267089843751,-0.582891845703125,4.895065307617188,1706366133413.0
10.272000000000006,7.234558105468751,0.4768707275390625,3.718814086914063,1706366133423.0
10.281999999999996,7.462451171875,0.4834503173828125,3.7469268798828126,1706366133433.0
10.292000000000002,9.15445251464844,-0.9936676025390626,4.390231323242188,1706366133443.0
10.302000000000008,10.952474975585938,-0.7645782470703125,2.681631469726563,1706366133453.0
10.311999999999998,10.682113647460938,-0.9111236572265624,3.4752197265625004,1706366133463.0
10.322000000000005,9.199462890625,-0.8423370361328125,4.36107177734375,1706366133473.0
10.332000000000008,7.385589599609376,0.232379150390625,3.815414428710938,1706366133483.0
10.342,7.852291870117188,-0.3506622314453125,4.743435668945313,1706366133493.0
10.352000000000004,8.87347412109375,-0.6153411865234375,4.550234985351563,1706366133503.0
10.362000000000007,10.050622558593751,1.415509033203125,2.6873138427734378,1706366133513.0
10.372,9.940863037109375,1.66702880859375,3.790591430664063,1706366133523.0
10.382999999999996,9.488217163085938,0.7322784423828126,3.678588867187501,1706366133534.0
10.393,8.398547363281251,0.7134368896484375,2.9445159912109378,1706366133544.0
10.403000000000006,8.177981567382814,0.157611083984375,4.399652099609376,1706366133554.0
10.412999999999997,8.398248291015626,0.1502838134765625,3.898257446289063,1706366133564.0
10.423000000000002,9.291278076171876,0.58319091796875,3.569876098632813,1706366133574.0
10.433000000000009,10.019668579101562,-0.751568603515625,4.566235351562501,1706366133584.0
10.442999999999998,9.960452270507814,-1.057070922851563,3.738702392578125,1706366133594.0
10.453000000000005,8.525204467773438,-0.133685302734375,3.2878509521484376,1706366133604.0
10.463000000000008,7.043450927734376,-0.2667724609375,3.672906494140625,1706366133614.0
10.473,7.322784423828126,-0.2917449951171875,3.739151000976563,1706366133624.0
10.483000000000004,11.273529052734377,0.5864807128906251,4.036877441406251,1706366133634.0
10.49300000000001,11.78150329589844,0.7614379882812501,4.2400970458984375,1706366133644.0
10.503,9.13306884765625,-0.1287506103515625,3.903790283203125,1706366133654.0
10.513000000000003,7.899844360351563,-0.0922637939453125,4.258340454101563,1706366133664.0
10.524,7.316204833984376,1.164886474609375,3.273794555664063,1706366133675.0
10.534000000000006,8.773135375976564,0.3775787353515625,3.352899169921875,1706366133685.0
10.543999999999995,10.494146728515624,-0.7089508056640625,5.178585815429688,1706366133695.0
10.554000000000002,10.269094848632813,-0.193499755859375,3.635671997070313,1706366133705.0
10.564000000000007,9.227725219726564,-0.0758148193359375,3.5449035644531253,1706366133715.0
10.573999999999998,8.259329223632813,0.322998046875,4.197927856445313,1706366133725.0
10.584000000000003,8.242880249023438,-0.1514801025390625,3.1777923583984378,1706366133735.0
10.594000000000008,9.60425720214844,-1.283319091796875,4.288397216796875,1706366133745.0
10.604,10.074249267578123,-0.3506622314453125,4.060354614257813,1706366133755.0
10.614000000000004,9.476254272460938,0.7831207275390626,2.599237060546875,1706366133765.0
10.62400000000001,8.501876831054688,0.2938385009765625,3.975567626953125,1706366133775.0
10.634,8.328414916992188,0.009869384765625,4.553524780273438,1706366133785.0
10.644000000000004,8.689694213867188,0.13458251953125,3.9034912109375,1706366133795.0
10.653999999999996,9.481637573242187,0.4855438232421875,4.331015014648438,1706366133805.0
10.665000000000006,9.70728759765625,1.047052001953125,3.3991058349609378,1706366133816.0
10.674999999999995,9.22742614746094,0.4502532958984375,2.9801055908203127,1706366133826.0
10.685000000000002,8.507559204101563,-0.4290191650390625,4.0291015625,1706366133836.0
10.695000000000007,8.520718383789063,0.184228515625,3.324935913085938,1706366133846.0
10.704999999999998,9.058001708984376,0.503338623046875,3.4065826416015628,1706366133856.0
10.715000000000003,9.646875,-0.1670318603515625,4.454531860351563,1706366133866.0
10.725000000000009,9.6265380859375,-0.2247528076171875,4.350155639648438,1706366133876.0
10.735,8.675787353515625,-0.1619476318359375,4.3058929443359375,1706366133886.0
10.745000000000005,8.265460205078126,-0.3620269775390625,3.97646484375,1706366133896.0
10.75500000000001,8.751303100585938,-0.0109161376953125,3.3222442626953126,1706366133906.0
10.765,9.658389282226564,0.0602630615234375,3.328973388671875,1706366133916.0
10.775000000000006,9.792224121093753,-0.1009368896484375,3.732122802734376,1706366133926.0
10.784999999999997,9.404626464843751,0.60233154296875,4.006671142578125,1706366133936.0
10.795000000000002,8.530288696289062,0.4125701904296875,4.203012084960938,1706366133946.0
10.805000000000009,8.394061279296876,-0.2077056884765625,3.914108276367188,1706366133956.0
10.816000000000004,8.622851562500001,0.3527557373046875,3.3938720703125003,1706366133967.0
10.826000000000008,8.43802490234375,0.6376220703125001,3.0952484130859377,1706366133977.0
10.836,7.826571655273438,0.26497802734375,3.3072906494140626,1706366133987.0
10.846000000000004,10.895352172851563,0.7976257324218751,4.770501708984376,1706366133997.0
10.856000000000009,11.940460205078123,1.376629638671875,4.133029174804688,1706366134007.0
10.866,8.493951416015626,-0.2208648681640625,3.7412445068359377,1706366134017.0
10.876000000000005,6.856979370117188,-1.1530731201171875,5.44730224609375,1706366134027.0
10.885999999999996,7.546490478515626,0.2296875,2.86810302734375,1706366134037.0
10.896,9.276174926757813,-1.2972259521484375,2.6478363037109376,1706366134047.0
10.906000000000006,11.953619384765624,-1.9599700927734376,4.980450439453126,1706366134057.0
10.915999999999997,10.821331787109376,0.3985137939453125,3.6681213378906254,1706366134067.0
10.926000000000002,8.508157348632814,0.076861572265625,3.478659057617188,1706366134077.0
10.936000000000009,7.1107421875000005,-0.6398651123046876,5.40184326171875,1706366134087.0
10.947000000000005,7.397103881835938,0.3790740966796875,3.4300598144531254,1706366134098.0
10.957000000000008,9.396551513671875,0.34034423828125,3.325982666015625,1706366134108.0
10.967,11.12234802246094,1.6763000488281252,4.322491455078126,1706366134118.0
10.977000000000004,10.708432006835938,2.46734619140625,2.10546875,1706366134128.0
10.987000000000007,8.782556152343751,-0.3309234619140625,3.740347290039063,1706366134138.0
10.997,7.264315795898438,-0.6210235595703125,4.816110229492188,1706366134148.0
11.007000000000003,7.018478393554688,1.0678375244140623,3.241793823242188,1706366134158.0
11.016999999999996,8.9661865234375,-0.1819854736328125,4.3906799316406255,1706366134168.0
11.027,11.13984375,-0.7645782470703125,4.0950469970703125,1706366134178.0
11.039,11.120254516601562,-0.5565734863281251,3.1088562011718754,1706366134190.0
11.046999999999995,8.927905273437501,-1.5025390625,4.49266357421875,1706366134198.0
11.057000000000002,7.275979614257813,-0.292791748046875,3.855340576171875,1706366134208.0
11.067000000000007,7.375570678710938,0.5490966796875001,3.203512573242188,1706366134218.0
11.076999999999998,9.371279907226564,-0.9434234619140626,4.198825073242188,1706366134228.0
11.087000000000003,10.531979370117188,0.2941375732421875,3.496902465820313,1706366134238.0
11.097000000000008,10.38064880371094,2.116085815429688,3.532492065429688,1706366134248.0
11.108000000000004,8.749957275390626,0.9196472167968752,4.840933227539063,1706366134259.0
11.11800000000001,7.773934936523438,0.5194885253906251,3.5510345458984376,1706366134269.0
11.128,7.709484863281251,0.5830413818359376,3.657952880859375,1706366134279.0
11.138999999999996,8.933139038085939,-0.0183929443359375,4.0138488769531255,1706366134290.0
11.147999999999996,10.05286560058594,0.6865203857421875,2.85494384765625,1706366134299.0
11.158,10.485025024414064,0.2636322021484375,3.910519409179688,1706366134309.0
11.168000000000006,9.545938110351564,-1.519586181640625,4.4729248046875005,1706366134319.0
11.177999999999995,8.133569335937501,-0.8121307373046875,3.3850494384765626,1706366134329.0
11.188000000000002,6.535028076171876,0.3162689208984375,3.664981079101562,1706366134339.0
11.198000000000008,7.243679809570313,-0.20755615234375,3.686514282226563,1706366134349.0
11.207999999999998,11.575592041015623,0.1112548828125,4.356884765625001,1706366134359.0
11.218000000000004,12.606643676757814,1.1458953857421876,4.512402343750001,1706366134369.0
11.228000000000009,9.338381958007814,-0.1822845458984375,3.557614135742188,1706366134379.0
11.239000000000004,7.152313232421876,-0.6830810546875,4.409521484375,1706366134390.0
11.24900000000001,6.488522338867188,1.19329833984375,2.774493408203125,1706366134400.0
11.259,8.34351806640625,0.0705810546875,3.1785400390625003,1706366134410.0
11.269000000000004,11.090945434570314,-0.45638427734375,5.639904785156251,1706366134420.0
11.278999999999996,11.575891113281251,0.9565826416015626,3.2444854736328126,1706366134430.0
11.289,9.968826293945312,-0.23447265625,3.659896850585938,1706366134440.0
11.299000000000008,7.697372436523438,-0.7572509765625001,4.9765625,1706366134450.0
11.308999999999996,7.027600097656251,0.1054229736328125,2.530450439453125,1706366134460.0
11.319000000000004,8.310769653320314,-1.140811157226563,4.155160522460938,1706366134470.0
11.329000000000008,10.505062866210938,-0.6600524902343751,4.4753173828125,1706366134480.0
11.339,10.825070190429688,1.0881744384765626,2.307342529296875,1706366134490.0
11.349000000000004,9.955218505859376,0.095703125,4.354641723632813,1706366134500.0
11.359000000000009,8.218954467773438,-0.2576507568359375,4.9349914550781255,1706366134510.0
11.370000000000005,7.23575439453125,0.6830810546875,3.1785400390625003,1706366134521.0
11.38000000000001,8.021267700195313,0.04366455078125,4.356884765625001,1706366134531.0
11.388999999999996,9.7234375,0.504833984375,3.4079284667968754,1706366134540.0
11.400000000000006,10.492501831054687,1.4243316650390625,2.0603088378906254,1706366134551.0
11.409999999999997,10.13017578125,0.076263427734375,4.415802001953125,1706366134561.0
11.420000000000002,8.728573608398438,-0.042767333984375,4.381109619140625,1706366134571.0
11.430000000000009,7.713671875,0.575115966796875,3.5172393798828128,1706366134581.0
11.439999999999998,8.005865478515625,-0.6950439453125,5.023367309570313,1706366134591.0
11.450000000000005,9.139498901367189,-0.4294677734375,3.743338012695313,1706366134601.0
11.460000000000008,9.855776977539064,0.3563446044921875,2.923880004882813,1706366134611.0
11.47,10.056155395507814,-0.5686859130859375,4.1873107910156255,1706366134621.0
11.480000000000004,9.513937377929688,-0.1742095947265625,3.4542846679687504,1706366134631.0
11.490000000000007,8.583523559570313,0.277239990234375,3.532791137695313,1706366134641.0
11.5,8.170953369140626,-0.488385009765625,4.6583496093750005,1706366134651.0
11.510000000000003,8.3823974609375,0.334063720703125,3.974819946289063,1706366134661.0
11.519999999999996,9.219650268554688,0.8130279541015626,3.933248901367188,1706366134671.0
11.53,10.004116821289063,0.126507568359375,3.8776214599609378,1706366134681.0
11.540999999999997,9.757083129882814,0.7176239013671876,3.0590606689453126,1706366134692.0
11.551000000000002,8.243328857421876,0.5223297119140625,3.116781616210938,1706366134702.0
11.561000000000009,6.255993652343751,-0.5040863037109375,3.23955078125,1706366134712.0
11.570999999999998,8.761471557617188,0.456085205078125,4.344772338867188,1706366134722.0
11.581000000000005,12.874014282226565,1.8442291259765624,4.342230224609375,1706366134732.0
11.592,10.358816528320313,0.2026214599609375,3.964501953125,1706366134743.0
11.601,8.044595336914064,-1.4841461181640625,5.708242797851563,1706366134752.0
11.611000000000004,7.242782592773438,0.136676025390625,3.4916687011718754,1706366134762.0
11.62100000000001,7.41280517578125,-0.43544921875,2.2246490478515626,1706366134772.0
11.631,10.44599609375,-2.224349975585937,4.769454956054688,1706366134782.0
11.641000000000004,11.220144653320313,-0.2833709716796875,4.110150146484376,1706366134792.0
11.650999999999996,10.037911987304687,0.5997894287109375,2.493365478515625,1706366134802.0
11.661,8.848800659179688,-0.12919921875,4.93887939453125,1706366134812.0
11.671000000000006,7.631576538085938,0.3072967529296875,4.009512329101563,1706366134822.0
11.682000000000002,8.264712524414064,-0.1949951171875,3.5215759277343754,1706366134833.0
11.692000000000007,9.338980102539065,0.689361572265625,4.922430419921875,1706366134843.0
11.701999999999998,9.50810546875,2.397213745117188,2.553030395507813,1706366134853.0
11.712000000000003,9.38907470703125,0.5609100341796875,2.9789093017578128,1706366134863.0
11.722000000000008,9.301895141601562,-0.4508514404296875,4.611395263671875,1706366134873.0
11.732,8.757284545898438,0.7961303710937501,3.4290130615234378,1706366134883.0
11.742000000000004,8.561990356445314,0.2667724609375,3.961959838867188,1706366134893.0
11.75200000000001,9.031982421875,-0.5495452880859375,4.424325561523438,1706366134903.0
11.762,9.287838745117188,-0.93131103515625,3.187811279296876,1706366134913.0
11.772000000000006,9.222940063476564,-1.6097564697265627,4.055270385742188,1706366134923.0
11.781999999999996,9.172994995117188,-0.17705078125,3.9997924804687504,1706366134933.0
11.792000000000002,9.2556884765625,0.99232177734375,2.9721801757812503,1706366134943.0
11.802000000000008,9.152658081054687,-0.7454376220703125,4.746127319335938,1706366134953.0
11.811999999999998,9.024954223632813,-0.7499237060546875,4.4146057128906255,1706366134963.0
11.822000000000005,8.562289428710939,1.346722412109375,3.38729248046875,1706366134973.0
11.832999999999998,8.455520629882812,1.346124267578125,3.965997314453125,1706366134984.0
11.843000000000004,9.25867919921875,0.8194580078125001,2.9781616210937503,1706366134994.0
11.853000000000009,9.7772705078125,0.664837646484375,3.4418731689453126,1706366135004.0
11.863,9.518423461914065,0.0186920166015625,4.39696044921875,1706366135014.0
11.873000000000005,8.797659301757813,0.6326873779296875,3.63671875,1706366135024.0
11.882999999999996,8.25439453125,0.5653961181640625,4.063793945312501,1706366135034.0
11.893,8.74427490234375,-1.380218505859375,4.1451416015625,1706366135044.0
11.903000000000006,9.36036376953125,-1.1774475097656252,3.581689453125,1706366135054.0
11.912999999999997,9.175537109375,0.43843994140625,3.4082275390625,1706366135064.0
11.923000000000002,8.026351928710938,0.1447509765625,3.1251556396484377,1706366135074.0
11.933000000000009,8.751602172851562,-0.3081939697265625,4.230078125,1706366135084.0
11.942999999999998,11.538955688476562,0.298773193359375,4.968637084960938,1706366135094.0
11.953000000000005,9.726428222656253,0.325091552734375,3.5031829833984376,1706366135104.0
11.964,7.859320068359375,-0.4335052490234375,4.264321899414063,1706366135115.0
11.974000000000004,8.178579711914063,0.5304046630859376,3.8936218261718754,1706366135125.0
11.984000000000009,8.525802612304688,0.9571807861328124,2.487384033203125,1706366135135.0
11.994,9.733456420898438,-0.361279296875,4.672555541992188,1706366135145.0
12.004000000000003,10.41788330078125,0.2465850830078125,4.62425537109375,1706366135155.0
12.013999999999996,9.03497314453125,0.3566436767578125,3.076406860351563,1706366135165.0
12.024,8.5235595703125,-0.5393768310546876,4.177590942382813,1706366135175.0
12.034000000000006,8.454324340820314,0.3458770751953125,3.797320556640625,1706366135185.0
12.043999999999995,9.35184020996094,0.0160003662109375,2.9077301025390625,1706366135195.0
12.055000000000009,10.1720458984375,-1.224551391601563,4.643395996093751,1706366135206.0
12.064000000000007,9.888226318359376,-0.2093505859375,4.08233642578125,1706366135215.0
12.073999999999998,8.424716186523439,0.100189208984375,3.2826171875,1706366135225.0
12.084000000000003,7.693783569335938,-0.29010009765625,4.678536987304688,1706366135235.0
12.094000000000008,8.3453125,0.5558258056640626,3.637765502929688,1706366135245.0
12.105000000000004,9.890469360351563,0.2157806396484375,3.528305053710938,1706366135256.0
12.115000000000007,10.495193481445312,0.164788818359375,3.9671936035156254,1706366135266.0
12.125,9.86878662109375,1.4449676513671876,2.673406982421876,1706366135276.0
12.135000000000003,8.106652832031251,0.5342926025390625,3.855789184570313,1706366135286.0
12.144999999999996,7.470526123046875,-0.3790740966796875,4.31082763671875,1706366135296.0
12.155,8.352041625976563,0.5211334228515625,3.513351440429688,1706366135306.0
12.165000000000006,10.000228881835938,0.32000732421875,4.239947509765625,1706366135316.0
12.174999999999995,10.394406127929688,-0.1057220458984375,3.94356689453125,1706366135326.0
12.185000000000002,9.657492065429688,0.141162109375,3.706851196289063,1706366135336.0
12.195000000000007,8.209683227539063,-0.8324676513671876,4.600180053710938,1706366135346.0
12.204999999999998,7.734008789062501,-0.8097381591796876,3.4364898681640628,1706366135356.0
12.215000000000003,8.594439697265626,0.2441925048828125,2.985040283203125,1706366135366.0
12.225000000000009,10.04568786621094,-0.1867706298828125,4.018484497070313,1706366135376.0
12.235,10.261767578125,-0.0201873779296875,3.813470458984375,1706366135386.0
12.24600000000001,9.41763610839844,0.8812164306640625,4.303201293945313,1706366135397.0
12.256,8.3441162109375,0.272454833984375,4.563543701171875,1706366135407.0
12.266000000000004,7.757635498046875,0.132489013671875,3.337945556640625,1706366135417.0
12.275999999999996,8.296414184570313,0.6045745849609375,3.1007812500000003,1706366135427.0
12.286,8.398995971679689,0.2570526123046875,3.2102416992187504,1706366135437.0
12.296000000000006,9.252099609375,0.5733215332031251,3.238204956054688,1706366135447.0
12.305999999999996,12.138894653320314,1.42178955078125,4.909271240234375,1706366135457.0
12.316000000000004,10.382742309570313,0.6041259765625,4.258190917968751,1706366135467.0
12.326000000000008,7.1406494140625005,-1.3809661865234375,4.5282531738281255,1706366135477.0
12.336,7.089208984375,-0.3928314208984375,4.531842041015626,1706366135487.0
12.346000000000004,8.228973388671875,0.23865966796875,2.15511474609375,1706366135497.0
12.356000000000009,10.736843872070311,-2.057467651367188,3.810479736328125,1706366135507.0
12.366,11.641387939453123,-1.1959899902343751,5.2409423828125,1706366135517.0
12.376000000000005,9.690838623046876,0.6672302246093751,2.8375976562500003,1706366135527.0
12.385999999999996,7.702157592773438,-0.1449005126953125,4.094000244140625,1706366135537.0
12.397000000000006,7.052124023437501,-0.07596435546875,4.981497192382813,1706366135548.0
12.406999999999996,8.481838989257813,0.480908203125,2.995806884765625,1706366135558.0
12.417000000000002,10.437921142578126,0.7170257568359375,4.0262603759765625,1706366135568.0
12.427000000000008,11.048626708984376,2.250070190429688,3.1457916259765626,1706366135578.0
12.436999999999998,9.70489501953125,1.35958251953125,2.5397216796875,1706366135588.0
12.447000000000005,7.893414306640626,-0.9214416503906252,4.964599609375,1706366135598.0
12.457000000000008,7.076049804687501,0.0758148193359375,4.226040649414063,1706366135608.0
12.467,7.847805786132813,0.6878662109375,3.603970336914063,1706366135618.0
12.477000000000004,9.9926025390625,-0.6602020263671875,4.306640625,1706366135628.0
12.487000000000007,11.39166259765625,-0.723455810546875,3.0231719970703126,1706366135638.0
12.497,10.39978942871094,-0.97437744140625,3.747525024414063,1706366135648.0
12.507000000000003,8.190542602539063,-0.9893310546875,4.431802368164063,1706366135658.0
12.516999999999996,7.069619750976563,0.3596343994140625,3.058462524414063,1706366135668.0
12.527,8.00018310546875,-0.170770263671875,4.2097412109375005,1706366135678.0
12.537999999999997,9.768597412109376,-0.7428955078125,4.4300079345703125,1706366135689.0
12.548000000000002,10.588952636718751,1.5017913818359376,3.0369293212890627,1706366135699.0
12.558000000000009,9.947592163085938,1.9339508056640624,4.301705932617188,1706366135709.0
12.567999999999998,8.566775512695314,0.4047943115234375,4.328472900390626,1706366135719.0
12.578000000000005,7.638455200195313,0.3671112060546875,3.02960205078125,1706366135729.0
12.588000000000008,8.077194213867188,0.2165283203125,4.002783203125,1706366135739.0
12.598,9.159237670898438,0.16568603515625,3.502734375,1706366135749.0
12.608000000000004,10.175634765625,0.7427459716796876,2.7881011962890625,1706366135759.0
12.61800000000001,10.449285888671875,-0.6123504638671875,4.733416748046875,1706366135769.0
12.628,9.334344482421876,-1.4084808349609377,4.4419708251953125,1706366135779.0
12.638000000000003,7.638455200195313,-0.1018341064453125,3.337945556640625,1706366135789.0
12.647999999999996,6.5724121093750005,0.0704315185546875,3.985586547851563,1706366135799.0
12.658,7.6119873046875,-0.2474822998046875,3.40404052734375,1706366135809.0
12.668000000000006,11.803933715820314,0.6458465576171876,3.8516021728515626,1706366135819.0
12.679000000000002,13.016372680664064,1.3014129638671876,4.37841796875,1706366135830.0
12.689000000000007,8.962896728515625,-0.021533203125,3.7040100097656254,1706366135840.0
12.698999999999998,6.677835083007813,-0.8764312744140625,4.682125854492188,1706366135850.0
12.709000000000003,6.508560180664063,0.707305908203125,3.378768920898438,1706366135860.0
12.719000000000008,8.672198486328126,0.5232269287109376,2.7000244140625003,1706366135870.0
12.729,11.455963134765623,-0.466851806640625,5.063592529296876,1706366135880.0
12.739000000000004,11.555703735351564,0.143255615234375,3.892724609375,1706366135890.0
12.74900000000001,9.34241943359375,-0.4511505126953125,3.6782897949218754,1706366135900.0
12.759,7.491610717773438,-0.3279327392578125,4.465298461914063,1706366135910.0
12.769000000000004,6.79552001953125,0.3566436767578125,2.9071319580078128,1706366135920.0
12.778999999999996,8.788537597656251,-0.9902282714843752,3.906631469726563,1706366135930.0
12.789,10.96279296875,-0.706707763671875,4.634722900390625,1706366135940.0
12.799000000000008,11.10694580078125,1.2149810791015625,2.71856689453125,1706366135950.0
12.808999999999996,9.487918090820314,0.5800506591796876,3.5573150634765627,1706366135960.0
12.820000000000007,7.753298950195313,-0.4305145263671875,4.945309448242188,1706366135971.0
12.829999999999998,7.017282104492188,-0.1075164794921875,3.93638916015625,1706366135981.0
12.840000000000003,8.258132934570312,0.01435546875,4.065737915039063,1706366135991.0
12.850000000000009,9.93876953125,0.8167663574218751,3.480453491210938,1706366136001.0
12.86,10.858117675781251,1.42178955078125,2.1754516601562504,1706366136011.0
12.870000000000005,10.00635986328125,-0.1221710205078125,4.10985107421875,1706366136021.0
12.88000000000001,8.624047851562501,-0.324493408203125,4.522122192382813,1706366136031.0
12.89,7.464694213867188,0.7632324218750001,3.4046386718750004,1706366136041.0
12.900000000000006,7.922872924804688,-0.1535736083984375,4.53692626953125,1706366136051.0
12.909999999999997,9.362606811523438,-0.5755645751953126,3.747525024414063,1706366136061.0
12.920000000000002,10.185952758789064,0.13099365234375,3.420339965820313,1706366136071.0
12.930000000000009,10.009649658203124,-0.128302001953125,4.343276977539063,1706366136081.0
12.939999999999998,9.234454345703126,0.016448974609375,3.663784790039063,1706366136091.0
12.950000000000005,8.299554443359376,0.026019287109375,3.662887573242188,1706366136101.0
12.961,8.184411621093751,-0.7612884521484375,4.311276245117188,1706366136112.0
12.971000000000004,8.681170654296876,0.209051513671875,3.741842651367188,1706366136122.0
12.981000000000009,9.442160034179688,1.0863800048828125,3.4122650146484377,1706366136132.0
12.991,10.110736083984376,0.148638916015625,3.78984375,1706366136142.0
13.001000000000005,9.668258666992188,0.155816650390625,3.6578033447265614,1706366136152.0
13.010999999999996,7.900143432617188,0.6776977539062501,3.181829833984376,1706366136162.0
13.021,5.832806396484376,0.2583984375,3.424676513671875,1706366136172.0
13.031000000000006,9.490908813476564,0.609808349609375,4.789044189453126,1706366136182.0
13.040999999999997,12.780853271484377,1.5738677978515627,4.206002807617188,1706366136192.0
13.051000000000002,10.282852172851562,-0.0586181640625,3.771600341796875,1706366136202.0
13.061000000000009,8.335443115234376,-1.2538604736328125,5.434442138671876,1706366136212.0
13.070999999999998,7.041806030273438,0.4499542236328125,2.624957275390625,1706366136222.0
13.081000000000005,7.4202819824218755,-1.4766693115234375,2.6989776611328127,1706366136232.0
13.092,10.649215698242188,-2.808587646484375,5.693289184570313,1706366136243.0
13.101,11.244219970703126,0.6017333984375001,3.031097412109375,1706366136252.0
13.112000000000007,9.941162109375,0.5733215332031251,3.0067230224609376,1706366136263.0
13.122,8.473614501953126,-0.7316802978515625,5.962902832031251,1706366136273.0
13.132000000000003,7.331307983398438,0.54371337890625,3.3988067626953127,1706366136283.0
13.141999999999996,8.12698974609375,0.227593994140625,3.3400390625000003,1706366136293.0
13.152,9.753494262695312,1.2764404296875,4.633078002929688,1706366136303.0
13.162000000000006,10.177578735351563,2.728436279296876,1.667178344726563,1706366136313.0
13.171999999999995,9.757531738281251,-0.0773101806640625,3.4454620361328128,1706366136323.0
13.182000000000002,8.887680053710938,-0.55567626953125,5.3047943115234375,1706366136333.0
13.192000000000007,7.926312255859376,1.4811553955078125,2.8204010009765628,1706366136343.0
13.201999999999998,8.3034423828125,-0.2277435302734375,4.4298583984375,1706366136353.0
13.212000000000003,9.548779296875,-1.4700897216796875,5.111294555664063,1706366136363.0
13.222000000000008,9.980938720703126,-0.7759429931640626,2.6177795410156253,1706366136373.0
13.232,9.190789794921876,-1.32489013671875,4.07156982421875,1706366136383.0
13.242000000000004,8.84954833984375,-0.13338623046875,3.7950775146484377,1706366136393.0
13.253,8.842520141601563,0.7134368896484375,2.799765014648438,1706366136404.0
13.263000000000003,9.300698852539064,-1.0189392089843752,4.918542480468751,1706366136414.0
13.272999999999996,9.36978454589844,0.10228271484375,3.9824462890625,1706366136424.0
13.283,8.74188232421875,2.1018798828125003,3.2862060546875003,1706366136434.0
13.293000000000006,8.354135131835939,0.8048034667968751,4.561151123046876,1706366136444.0
13.302999999999995,8.943307495117189,0.6314910888671875,3.3177581787109376,1706366136454.0
13.313000000000002,9.413299560546877,1.0382293701171876,3.4312561035156253,1706366136464.0
13.323000000000008,9.507806396484376,0.1027313232421875,4.162936401367188,1706366136474.0
13.332999999999998,9.145181274414064,0.469244384765625,3.259738159179688,1706366136484.0
13.343000000000004,8.756536865234375,-0.06519775390625,4.2052551269531255,1706366136494.0
13.353000000000009,8.807827758789063,-1.7631805419921875,4.1633850097656255,1706366136504.0
13.363,8.905026245117188,-0.5984436035156251,3.069976806640625,1706366136514.0
13.373000000000005,8.268600463867188,0.4152618408203125,3.4732757568359376,1706366136524.0
13.382999999999996,8.084072875976563,-0.5516387939453126,3.906182861328125,1706366136534.0
13.394000000000004,10.668505859375,0.2163787841796875,4.747772216796875,1706366136545.0
13.403999999999996,11.035916137695311,1.1511291503906251,4.397259521484376,1706366136555.0
13.412999999999997,8.633917236328125,-0.359185791015625,3.4297607421875003,1706366136564.0
13.424000000000008,7.834048461914063,-0.3093902587890625,4.232321166992188,1706366136575.0
13.433999999999996,8.158392333984375,1.3767791748046876,3.0010406494140627,1706366136585.0
13.444000000000004,9.153256225585938,0.3255401611328125,3.193344116210938,1706366136595.0
13.456000000000005,10.502371215820313,-0.2349212646484375,5.397805786132813,1706366136607.0
13.464,10.033126831054688,0.3961212158203125,3.404339599609376,1706366136615.0
13.474000000000004,8.911605834960938,-0.6776977539062501,3.668719482421875,1706366136625.0
13.484000000000009,7.9900146484375005,-0.3539520263671875,4.6356201171875,1706366136635.0
13.494,8.345162963867189,0.3258392333984375,2.6856689453125,1706366136645.0
13.504000000000003,9.681716918945312,-1.1820831298828125,4.138562011718751,1706366136655.0
13.513999999999996,10.4113037109375,-0.5534332275390625,4.506719970703125,1706366136665.0
13.524,9.58511657714844,0.7734008789062501,2.709893798828125,1706366136675.0
13.534000000000006,8.48109130859375,-0.074169921875,4.446456909179688,1706366136685.0
13.545000000000002,7.832403564453125,-0.00478515625,4.517486572265625,1706366136696.0
13.555000000000009,8.254693603515626,0.6539215087890625,3.2012695312500004,1706366136706.0
13.564999999999998,9.5906494140625,0.3237457275390625,4.123757934570313,1706366136716.0
13.575000000000005,10.347152709960938,1.131838989257813,2.874383544921875,1706366136726.0
13.585000000000008,9.928302001953126,1.1342315673828125,2.698080444335938,1706366136736.0
13.595,8.728424072265625,-0.47373046875,5.096640014648438,1706366136746.0
13.605000000000004,7.953826904296876,-0.1529754638671875,3.894369506835938,1706366136756.0
13.615000000000007,7.867843627929688,0.4151123046875,3.743338012695313,1706366136766.0
13.625,8.92969970703125,-0.6253601074218751,4.794577026367188,1706366136776.0
13.635000000000003,9.990060424804687,-0.223406982421875,3.1701660156250004,1706366136786.0
13.644999999999996,10.29107666015625,0.17286376953125,3.620718383789063,1706366136796.0
13.655,9.419580078125,-0.6612487792968751,4.319949340820313,1706366136806.0
13.665000000000006,8.567523193359376,-0.063104248046875,2.940179443359375,1706366136816.0
13.676000000000002,7.875619506835938,0.1505828857421875,3.934146118164063,1706366136827.0
13.686000000000009,8.608197021484376,-0.319110107421875,4.464102172851563,1706366136837.0
13.695999999999998,9.249108886718751,0.8855529785156251,3.634475708007813,1706366136847.0
13.706000000000005,10.108343505859375,1.0883239746093751,4.102224731445313,1706366136857.0
13.716000000000008,9.814056396484377,-0.092413330078125,4.2565460205078125,1706366136867.0
13.726,8.809323120117188,0.3147735595703125,3.1737548828125,1706366136877.0
13.736000000000004,7.25968017578125,0.3732421875,2.8434295654296875,1706366136887.0
13.74600000000001,6.237152099609376,-0.1099090576171875,3.0246673583984376,1706366136897.0
13.759,9.654800415039062,0.6273040771484375,3.703561401367188,1706366136910.0
13.766000000000004,14.317935180664064,1.5559234619140627,4.8365966796875,1706366136917.0
13.777,10.58955078125,0.30206298828125,4.603619384765626,1706366136928.0
13.786,6.861465454101563,-1.643701171875,5.7175140380859375,1706366136937.0
13.796000000000006,5.7828613281250005,-0.2926422119140625,3.6277465820312496,1706366136947.0
