time,ax,ay,az
0.0,9.161032104492188,2.553329467773437,2.4550842285156254
0.0099999999999909,9.984527587890623,3.4671447753906253,4.422531127929688
0.0199999999999818,7.886535644531251,3.7213562011718753,5.7134765625
0.0299999999999727,6.467437744140626,2.4864868164062504,6.552972412109376
0.0399999999999636,7.825375366210938,0.9622650146484376,4.913458251953125
0.0499999999999545,11.290277099609376,-1.188214111328125,-0.2343231201171875
0.0600000000000022,11.175582885742188,-2.412017822265625,0.7343719482421875
0.0699999999999931,9.974508666992188,-2.7552032470703125,5.977706909179688
0.0809999999999604,8.838034057617188,-2.924777221679688,5.604763793945313
0.0909999999999513,8.168112182617188,-1.9870361328125,3.7910400390625
0.100999999999999,7.849151611328126,-1.245486450195313,5.013198852539063
0.11099999999999,8.184112548828125,0.1640411376953125,6.423025512695313
0.1209999999999809,9.98243408203125,2.2035644531250003,4.679583740234375
0.1309999999999718,10.34072265625,3.404190063476563,0.026019287109375
0.1409999999999627,10.535418701171876,3.0829864501953126,1.2610382080078126
0.1509999999999536,7.713522338867188,2.3399414062500004,3.0177886962890628
0.1610000000000013,8.21072998046875,2.3435302734375,3.731076049804688
0.1709999999999922,8.136111450195314,1.3568908691406252,3.942221069335938
0.1809999999999831,9.820187377929688,-0.5073760986328125,5.771945190429688
0.190999999999974,10.0045654296875,-1.9693908691406248,4.562496948242188
0.2009999999999649,8.900988769531251,-2.4834960937500004,4.226788330078126
0.2129999999999654,8.454922485351563,-2.8494110107421875,5.4064788818359375
0.22199999999998,8.503073120117188,-2.246481323242188,3.0713226318359377
0.2319999999999709,9.677978515625,-0.8827117919921875,2.058663940429688
0.2419999999999618,10.347451782226564,-0.29608154296875,3.094500732421875
0.2519999999999527,9.521563720703126,1.0376312255859377,5.313467407226563
0.2620000000000004,8.91654052734375,2.7001739501953126,3.659298706054688
0.2719999999999913,7.792776489257813,3.230279541015625,3.8759765625
0.2819999999999822,8.690142822265626,2.34771728515625,3.868499755859376
0.2919999999999731,8.553167724609375,2.167227172851563,3.428265380859376
0.3019999999999641,10.142138671875,2.073019409179688,1.7884521484375002
0.3129999999999882,9.53382568359375,1.0772583007812502,2.966647338867188
0.3220000000000027,9.856375122070313,0.1209747314453125,3.993212890625
0.3319999999999936,8.512493896484376,-1.1122497558593751,3.737954711914063
0.3419999999999916,8.261123657226562,-1.8950714111328129,5.269055175781251
0.3519999999999754,7.7432800292968755,-2.470785522460938,5.652316284179688
0.3619999999999663,6.840081787109376,-1.41640625,3.3280761718750003
0.3729999999999904,12.052313232421875,-0.9591247558593752,2.906982421875
0.3829999999999813,12.111679077148438,-0.119329833984375,5.889031982421876
0.3929999999999722,8.687002563476563,1.152774047851563,4.521524047851563
0.4029999999999631,7.623202514648438,1.451397705078125,1.2012237548828126
0.412999999999954,8.474063110351564,2.8483642578125004,2.356988525390625
0.4230000000000018,6.917092895507813,2.3354553222656254,2.699725341796875
0.4329999999999927,9.376214599609376,1.5400726318359377,7.326373291015625
0.4429999999999836,11.34485778808594,1.3097869873046877,6.039614868164063
0.4529999999999745,10.19656982421875,0.1724151611328125,1.2735992431640626
0.4629999999999654,8.778518676757812,-1.134829711914063,2.908926391601563
0.4729999999999563,6.528149414062501,-1.85364990234375,5.177389526367188
0.4829999999999472,8.357275390625,-1.956979370117188,3.2115875244140626
0.4939999999999713,10.567868041992188,-1.3912841796875002,2.342333984375
0.5029999999999859,11.616864013671876,-0.8602813720703125,4.541561889648438
0.5139999999999532,9.892263793945313,-0.5809478759765625,4.110598754882813
0.5240000000000009,7.298709106445313,0.3228485107421875,5.575753784179688
0.5339999999999918,7.1855102539062505,0.5241241455078125,5.1851654052734375
0.5439999999999827,7.93917236328125,1.5242218017578126,2.679986572265625
0.5539999999999736,10.270590209960938,2.9663482666015626,2.1811340332031253
0.5639999999999645,10.540802001953123,2.439532470703125,1.6179809570312502
0.5739999999999554,10.280758666992188,2.074813842773437,4.151123046875
0.5839999999999463,8.095587158203125,1.6623931884765626,3.757843017578125
0.5939999999999941,7.406674194335938,0.7928405761718751,3.873733520507813
0.6039999999999921,7.734307861328125,-0.22908935546875,5.440423583984376
0.6139999999999759,9.3155029296875,-0.9843963623046876,5.1637817382812505
0.6239999999999668,10.73609619140625,-1.5143524169921876,3.210989379882813
0.6349999999999909,10.44300537109375,-1.4844451904296876,3.512603759765625
0.6439999999999486,9.44171142578125,-1.6042236328125,3.4183959960937504
0.6549999999999727,8.206094360351564,-1.0439117431640623,2.799615478515625
0.6649999999999636,8.164523315429689,-0.1347320556640625,4.111795043945313
0.6749999999999545,8.883044433593751,0.6675292968750001,4.646984863281251
0.6850000000000023,9.566873168945314,2.3961669921875,4.922879028320313
0.6949999999999932,9.799401855468751,2.7372589111328125,3.0607055664062504
0.7049999999999841,8.338134765625,2.0271118164062503,3.648681640625
0.714999999999975,6.9567199707031255,0.6536224365234375,2.8380462646484377
0.7249999999999659,5.781515502929688,0.0366363525390625,2.241995239257813
0.7349999999999568,13.02384948730469,1.7763397216796877,4.140954589843751
0.7449999999999477,14.045779418945314,1.2046630859375,4.094747924804688
0.7549999999999955,10.448388671875,-1.5020904541015625,4.321145629882813
0.7649999999999864,4.875775146484376,-3.0162933349609378,6.266461181640626
0.7749999999999773,4.573114013671876,-1.462762451171875,4.672555541992188
0.7860000000000014,7.646978759765625,-1.5358856201171875,3.157305908203125
0.7959999999999923,13.029232788085938,-1.5420166015625,3.0832855224609377
0.8059999999999832,14.13236083984375,0.60113525390625,4.121664428710938
0.8159999999999741,10.371377563476564,1.3779754638671875,1.8089385986328128
0.825999999999965,6.462503051757813,0.6428558349609376,5.017385864257813
0.8359999999999559,4.583282470703125,1.5068756103515626,5.348458862304688
0.8459999999999468,7.280615234375,2.8331115722656253,3.6332794189453126
0.8559999999999945,11.076739501953126,2.678790283203125,2.119525146484375
0.8659999999999854,12.419125366210938,2.4606170654296875,3.3258331298828128
0.8759999999999764,10.758377075195312,1.2990203857421876,3.214129638671875
0.8859999999999673,7.483535766601563,-0.3880462646484375,4.142300415039063
0.8959999999999582,6.195880126953125,-0.8538513183593751,4.525411987304688
0.9059999999999492,7.359271240234375,-1.3838073730468752,3.409872436523438
0.9159999999999968,10.696469116210938,-2.3209503173828128,4.529898071289063
0.926999999999964,11.950479125976564,-2.045355224609376,2.8527008056640626
0.936999999999955,10.750302124023438,-0.6398651123046876,3.6503265380859378
0.9470000000000028,8.049978637695313,-0.5027404785156251,4.9683380126953125
0.9569999999999936,6.486428833007813,-0.2860626220703125,5.290139770507813
0.9669999999999916,7.438375854492188,1.194644165039063,3.3165618896484377
0.9769999999999754,9.202154541015624,2.099337768554688,3.906930541992188
0.9869999999999663,11.3707275390625,2.404840087890625,2.4751220703125
0.9969999999999573,10.248757934570314,3.2359619140625004,2.3430816650390627
1.0069999999999482,9.282904052734375,1.956231689453125,3.469985961914063
1.016999999999996,6.819296264648438,-0.00418701171875,5.391674804687501
1.0269999999999868,7.794869995117188,0.332269287109375,3.8611724853515614
1.0369999999999775,8.4828857421875,-0.1643402099609375,3.265719604492188
1.0469999999999686,10.8730712890625,-1.6254577636718752,4.984786987304688
1.0569999999999595,9.367691040039062,-1.9022491455078123,3.337347412109376
1.0669999999999504,7.531387329101563,-1.32728271484375,2.001242065429688
1.0779999999999743,10.006509399414064,-1.5502410888671876,5.402590942382813
1.0879999999999654,12.64163513183594,-0.051141357421875,6.052325439453125
1.0979999999999563,9.46085205078125,1.3420867919921875,2.907431030273438
1.1079999999999472,5.952883911132813,0.875982666015625,3.5398193359375
1.117999999999995,6.381304931640625,1.0349395751953123,4.895065307617188
1.127999999999986,7.978948974609375,2.3963165283203125,1.7501708984375002
1.1379999999999768,11.351437377929688,2.87109375,2.214031982421876
1.1479999999999675,12.623840332031252,1.7127868652343752,6.091204833984375
1.1579999999999586,10.146026611328123,0.42767333984375,4.435540771484376
1.1679999999999495,7.691390991210938,-0.402252197265625,2.404541015625
1.1779999999999973,5.484536743164063,-1.134381103515625,4.509710693359375
1.1879999999999882,7.962200927734376,-1.8591827392578129,5.043853759765625
1.197999999999979,10.8587158203125,-1.7012725830078126,2.337997436523437
1.2089999999999463,12.982727050781252,-1.0972961425781251,2.693743896484375
1.218999999999994,10.315151977539063,-0.8438323974609375,4.160693359375
1.2299999999999611,7.283456420898438,0.0121124267578125,5.985482788085938
1.238999999999976,5.516387939453125,0.5834899902343751,4.594497680664063
1.2489999999999668,7.622006225585938,1.1929992675781251,4.125701904296875
1.2589999999999577,10.6792724609375,2.0271118164062503,2.762530517578125
1.2689999999999486,11.794363403320313,2.7857086181640627,0.8205047607421876
1.2789999999999964,10.762115478515623,2.471234130859376,1.8834075927734373
1.2889999999999873,7.461404418945313,1.053033447265625,5.372235107421876
1.2989999999999782,6.871783447265625,0.11783447265625,5.32647705078125
1.308999999999969,7.047039794921876,0.0485992431640625,3.684420776367188
1.31899999999996,9.956564331054688,-0.530853271484375,4.9170471191406255
1.329999999999984,10.94365234375,-1.6380187988281252,4.71397705078125
1.3389999999999986,10.7438720703125,-1.236663818359375,3.1683715820312504
1.349999999999966,8.805136108398438,-1.36197509765625,3.110052490234376
1.3599999999999568,7.933789062500001,-1.2975250244140626,4.09130859375
1.3699999999999477,7.817599487304688,-0.075067138671875,3.51170654296875
1.3799999999999957,9.349148559570311,1.0966979980468752,3.037228393554688
1.3899999999999864,10.179971313476564,1.3510589599609375,4.987179565429688
1.3999999999999773,9.891217041015626,1.99600830078125,4.417147827148438
1.4099999999999682,8.757434082031251,2.437887573242188,2.992218017578125
1.419999999999959,7.230520629882813,1.4288177490234375,3.3430297851562503
1.42999999999995,4.159347534179688,0.7787841796875,3.8859954833984376
1.4399999999999975,10.233804321289064,1.2589447021484377,2.51220703125
1.4499999999999886,16.22272644042969,1.4600708007812502,3.811227416992188
1.4599999999999795,13.539749145507814,-0.7313812255859375,3.8909301757812496
1.4699999999999704,5.557659912109376,-3.527706909179688,4.327426147460938
1.4799999999999611,2.805596923828125,-2.478262329101563,7.084124755859375
1.4899999999999525,5.191595458984375,-1.5037353515625,3.065939331054688
1.5009999999999764,12.28349609375,-0.4711883544921875,2.928216552734375
1.5109999999999673,15.48955078125,1.2058593750000002,5.078396606445313
1.5209999999999582,12.717001342773438,1.6028778076171877,2.762680053710937
1.530999999999949,7.283306884765626,0.6545196533203126,2.883355712890625
1.5409999999999968,3.1037719726562503,1.2332244873046876,4.711883544921875
1.5509999999999875,4.958468627929688,1.5305023193359375,3.43394775390625
1.5609999999999786,10.322927856445313,1.7757415771484375,2.220013427734376
1.5709999999999695,14.977838134765626,2.43504638671875,3.5390716552734376
1.5809999999999604,12.26016845703125,1.7889007568359376,2.7910919189453125
1.5909999999999511,8.21551513671875,-0.458477783203125,5.941220092773438
1.600999999999999,4.016241455078125,-1.5412689208984376,5.853292846679688
1.61099999999999,5.565585327148438,-1.5167449951171876,3.667074584960938
1.620999999999981,9.866693115234376,-1.9810546875,3.886892700195313
1.6319999999999482,13.616162109375,-1.5907653808593751,1.7380584716796876
1.641999999999996,12.851284790039063,0.0294586181640625,0.2400054931640625
1.6519999999999868,8.900390625,0.32479248046875,5.713925170898438
1.6619999999999775,5.345318603515626,-0.5184417724609376,7.864254760742188
1.6719999999999686,5.324981689453125,1.17176513671875,4.393222045898438
1.6819999999999595,7.83629150390625,1.9909240722656247,3.7001220703125
1.6919999999999504,11.824569702148438,1.988232421875,3.111846923828125
1.7019999999999982,12.115567016601563,2.2890991210937504,2.0244201660156254
1.711999999999989,10.689889526367187,2.180535888671875,0.8409912109375001
1.72199999999998,6.858474731445313,0.0847869873046875,5.621063232421875
1.731999999999971,6.9253173828125005,-0.4342529296875,5.1144348144531255
1.7419999999999618,7.039562988281251,-0.23387451171875,3.545950317382813
1.7519999999999527,10.47635192871094,-1.5693817138671875,5.6064086914062505
1.7620000000000005,10.93094177246094,-1.874435424804688,6.084326171875
1.7729999999999675,10.481585693359376,-0.31881103515625,2.422784423828125
1.7829999999999586,8.494549560546876,-0.8145233154296876,2.7791290283203125
1.7929999999999495,7.295419311523438,-0.9797607421875,4.8397369384765625
1.8029999999999973,6.459213256835938,0.8738891601562501,2.0179901123046875
1.812999999999988,6.792379760742188,2.14434814453125,1.460369873046875
1.822999999999979,14.195315551757814,1.7770874023437502,7.313662719726563
1.83299999999997,14.737234497070313,3.175848388671876,5.761328125
1.842999999999961,7.721597290039063,2.5089172363281254,3.2877014160156253
1.852999999999952,3.1235107421875004,-0.4725341796875,4.128842163085938
1.8629999999999995,4.2206573486328125,-0.25540771484375,4.883999633789063
1.8729999999999905,9.172097778320314,-0.5229278564453126,-0.1350311279296875
1.8829999999999807,15.160421752929688,-1.5776062011718752,2.4884307861328128
1.8929999999999725,14.519509887695314,-0.6436035156250001,7.476507568359375
1.9029999999999632,9.310418701171876,-1.2866088867187502,3.373236083984376
1.9139999999999875,4.985235595703125,-1.6736083984375,5.832058715820313
1.9239999999999784,2.8573364257812504,-1.3218994140625,6.732864379882813
1.933999999999969,8.145233154296875,0.5591156005859376,3.529501342773438
1.94399999999996,12.972409057617188,1.8360046386718751,0.8650665283203126
1.9539999999999509,14.83218994140625,2.1108520507812503,0.299371337890625
1.9639999999999984,10.86768798828125,1.7583953857421877,2.859579467773438
1.973999999999989,5.356832885742188,0.7720550537109375,6.611740112304688
1.9839999999999804,3.6902526855468754,0.43963623046875,4.8083343505859375
1.993999999999972,6.3534912109375,1.012060546875,3.9024444580078126
2.0039999999999623,11.799896240234377,0.9543395996093752,5.912060546875001
2.013999999999953,13.358062744140629,0.01435546875,1.4502014160156251
2.024000000000001,11.555853271484375,0.25660400390625,1.54141845703125
2.033999999999992,7.424319458007813,-1.4581268310546875,6.233413696289063
2.044999999999959,5.477508544921875,-2.270257568359375,5.398403930664063
2.05499999999995,6.947149658203125,-0.7722045898437501,3.384750366210938
2.0649999999999977,9.421224975585938,0.116339111328125,5.2569427490234375
2.0749999999999886,11.9521240234375,0.06998291015625,5.107556152343751
2.0849999999999795,10.806976318359377,1.8382476806640624,2.4087280273437504
2.0949999999999704,8.9972900390625,1.4114715576171877,3.257644653320313
2.1049999999999613,6.786846923828126,-0.0414215087890625,4.786203002929688
2.1149999999999523,6.837539672851563,1.7809753417968752,3.5689788818359376
2.125,8.823529052734376,2.2412475585937504,1.555474853515625
2.134999999999991,10.80069580078125,0.142657470703125,5.474667358398438
2.144999999999982,11.143133544921875,0.040374755859375,4.5376739501953125
2.1549999999999727,6.4438110351562505,0.3840087890625,1.68258056640625
2.164999999999964,5.847012329101563,-0.9965087890625,5.511602783203125
2.1749999999999545,11.518020629882812,-0.7925415039062501,7.4540771484375
2.1850000000000023,13.375558471679687,0.2343231201171875,2.53074951171875
2.194999999999993,9.329409790039064,-1.971783447265625,2.1307403564453127
2.2059999999999604,6.072811889648438,-1.91585693359375,6.683367919921875
2.215999999999952,5.851348876953125,0.4496551513671875,2.1619934082031254
2.225999999999999,8.734405517578125,1.415509033203125,2.448355102539063
2.23599999999999,12.164016723632812,0.9503021240234376,7.087115478515625
2.245999999999981,11.332296752929688,2.2645751953125,4.790090942382813
2.255999999999972,9.572854614257814,2.4100738525390626,2.6403594970703126
2.2659999999999627,5.989968872070313,0.216827392578125,2.5101135253906253
2.2759999999999536,6.302499389648438,0.5896209716796875,6.2015625000000005
2.2860000000000014,9.111386108398438,0.331072998046875,1.6792907714843752
2.2959999999999923,11.7870361328125,-0.1951446533203125,2.500543212890625
2.305999999999983,11.937319946289064,-0.210546875,4.954431152343751
2.315999999999974,8.388677978515625,-0.8439819335937501,5.52984619140625
2.325999999999965,6.830661010742188,-1.1415588378906252,5.8426757812500005
2.336999999999989,6.082531738281251,-1.0367340087890626,3.646438598632813
2.34699999999998,9.296661376953123,-0.2708099365234375,3.855490112304688
2.356999999999971,11.427850341796876,0.029010009765625,1.8687530517578128
2.366999999999962,11.858364868164063,1.0884735107421877,1.039126586914063
2.3769999999999527,9.042599487304688,1.3788726806640623,4.2121337890625
2.3870000000000005,6.678134155273438,0.6148925781250001,7.048983764648438
2.396999999999992,6.447998046875001,1.0355377197265625,4.8691955566406255
2.4069999999999823,8.094839477539063,1.79862060546875,4.387240600585938
2.416999999999973,10.505960083007814,0.57960205078125,5.336346435546876
2.426999999999964,10.832546997070311,-0.0011962890625,2.8704956054687503
2.436999999999955,9.945648193359377,0.5366851806640626,1.045556640625
2.446999999999996,8.366696166992188,-0.8945251464843751,3.4035919189453128
2.4569999999999936,7.874423217773438,-1.4629119873046876,5.130584716796875
2.466999999999992,8.624047851562501,-0.11065673828125,3.4465087890625004
2.477999999999952,9.171200561523438,-0.2118927001953125,5.6183715820312505
2.4879999999999995,9.849197387695312,-0.9437225341796877,6.958065795898438
2.4979999999999905,8.918035888671875,0.6850250244140625,3.508865356445313
2.5079999999999814,8.7628173828125,1.1031280517578126,1.8005645751953123
2.517999999999965,8.162280273437501,0.0797027587890625,4.041812133789063
2.527999999999963,8.899194335937501,1.1331848144531251,3.068780517578125
2.537999999999954,6.59813232421875,1.8298736572265624,0.0650482177734375
2.548000000000002,7.823580932617188,1.0189392089843752,4.867251586914063
2.558,16.910742187500002,0.7119415283203125,8.148223876953125
2.5679999999999907,11.279660034179688,1.8726409912109376,4.6961822509765625
2.5779999999999745,5.060751342773438,-1.0518371582031252,4.564739990234376
2.587999999999965,3.291290283203125,-2.04864501953125,7.65086669921875
2.5979999999999563,6.710733032226563,-0.01435546875,1.1810363769531251
2.6079999999999472,12.095080566406253,-0.9915740966796877,-1.5170440673828125
2.618999999999972,15.387268066406252,-0.9500030517578124,2.918197631835937
2.6289999999999623,11.24990234375,-0.3422882080078125,7.748962402343751
2.638999999999953,8.18201904296875,1.044061279296875,3.904986572265625
2.649000000000001,3.197531127929688,-0.1191802978515625,5.422479248046876
2.658999999999992,4.639657592773438,0.2639312744140625,7.826422119140625
2.6689999999999827,10.224234008789065,1.989129638671875,2.6983795166015625
2.6789999999999736,13.639041137695314,2.351605224609376,0.7891021728515626
2.6889999999999645,13.750146484375,1.1750549316406251,0.306549072265625
2.6989999999999554,8.468231201171875,0.3443817138671875,4.775436401367188
2.7089999999999463,5.010507202148438,-0.0016448974609375,5.5603515625
2.718999999999994,5.123406982421876,-0.911572265625,4.561749267578126
2.731999999999971,8.158541870117189,-0.6691741943359375,7.016085815429688
2.738999999999976,12.889117431640626,-0.5474517822265625,3.523818969726563
2.75,11.830850219726564,0.047552490234375,0.7739990234375
2.759999999999991,9.78564453125,-0.113946533203125,5.771047973632813
2.769999999999982,5.9048828125,-1.5191375732421877,5.723345947265625
2.7799999999999656,6.6071044921875,0.3880462646484375,2.23466796875
2.789999999999964,8.0869140625,1.8549957275390627,3.129193115234376
2.7999999999999545,11.388970947265626,0.5446105957031251,5.221502685546875
2.809999999999995,11.155844116210938,1.2765899658203126,4.008016967773438
2.819999999999993,9.68934326171875,2.002288818359375,3.230429077148438
2.8309999999999604,7.255642700195313,-0.0465057373046875,5.182623291015625
2.839999999999975,6.266461181640626,-0.0512908935546875,5.3596740722656255
2.849999999999966,8.3441162109375,0.7182220458984375,1.5686340332031252
2.859999999999957,10.22034606933594,-0.6072662353515625,3.85264892578125
2.869999999999948,11.519815063476564,-0.91815185546875,5.88873291015625
2.8799999999999955,10.27298278808594,0.057122802734375,1.690057373046875
2.8899999999999864,7.247268676757813,-0.1469940185546875,3.5320434570312504
2.8999999999999773,3.1637359619140626,-1.8324157714843752,6.294274902343751
2.9110000000000014,8.733358764648438,0.270660400390625,4.513449096679688
2.921,16.168145751953126,2.752362060546876,3.556716918945313
2.9309999999999903,13.1149169921875,1.0089202880859376,3.439181518554688
2.940999999999974,7.156350708007813,-0.9646575927734377,5.098733520507813
2.950999999999965,2.6312377929687503,-0.25301513671875,4.831661987304688
2.960999999999956,4.9107666015625,0.6267059326171875,3.2808227539062504
2.970999999999947,10.71695556640625,0.7726531982421876,1.3130767822265623
2.9809999999999945,14.989501953125002,2.2198638916015625,5.516836547851563
2.990999999999985,13.0383544921875,0.6914550781250001,4.610647583007813
3.0009999999999764,7.799804687500001,-1.1310913085937502,4.686761474609376
3.010999999999968,4.331314086914063,-0.5926116943359375,5.8849945068359375
3.020999999999958,3.8246856689453126,-0.1422088623046875,2.548992919921876
3.0319999999999823,10.329656982421875,-0.3928314208984375,3.718963623046875
3.041999999999973,13.805474853515626,-0.355596923828125,2.156610107421875
3.051999999999964,13.878598022460938,0.6655853271484375,3.0409667968750003
3.061999999999955,8.468978881835938,0.4729827880859375,5.228231811523438
3.071999999999996,4.254452514648438,0.2050140380859375,5.736355590820313
3.0819999999999936,4.349557495117188,0.608612060546875,5.412609863281251
3.091999999999992,8.446548461914062,0.2109954833984375,3.546249389648438
3.1019999999999754,13.198208618164063,0.7476806640625,2.0923095703125
3.1119999999999663,13.214807128906251,1.657757568359375,0.095404052734375
3.1219999999999573,9.698165893554688,0.810186767578125,4.9937591552734375
3.131999999999948,6.077896118164063,-1.24234619140625,6.566580200195313
3.141999999999996,4.8868408203125,-0.5513397216796876,5.731869506835938
3.152999999999963,7.56114501953125,0.2684173583984375,4.865008544921875
3.1619999999999777,10.553512573242188,-0.1487884521484375,4.377819824218751
3.1719999999999686,12.739431762695313,0.2328277587890625,2.6923980712890625
3.183,10.413397216796875,0.1640411376953125,2.5699279785156253
3.1929999999999907,8.705545043945314,-0.71298828125,3.820797729492188
3.2029999999999745,5.896658325195313,0.1990325927734375,3.876275634765625
3.212999999999965,7.38887939453125,1.272552490234375,3.471331787109375
3.2229999999999563,9.165966796875,0.1897613525390625,5.3031494140625
3.2329999999999472,11.191732788085938,0.5730224609375001,6.066082763671876
3.242999999999995,10.493249511718751,1.4167053222656252,2.8869445800781253
3.252999999999986,7.958163452148438,0.6591552734375,3.572418212890625
3.262999999999977,3.774291992187501,-0.378326416015625,3.5785491943359378
3.272999999999968,6.861764526367188,-0.0695343017578125,1.983447265625
3.2829999999999586,16.974893188476564,0.44322509765625,5.205950927734375
3.292999999999949,14.728112792968751,0.8507110595703126,5.4646484375
3.3039999999999736,6.171804809570313,0.2983245849609375,3.4646026611328127
3.3139999999999645,2.971282958984375,-0.9920227050781252,6.348855590820313
3.3239999999999554,3.1921478271484376,-1.6154388427734376,5.3885345458984375
3.3339999999999463,10.929895019531251,-0.1263580322265625,0.6525756835937501
3.343999999999994,15.300238037109375,1.2761413574218752,3.629241943359376
3.353999999999992,14.635101318359377,0.2932403564453125,5.419937133789063
3.363999999999976,8.802593994140626,-0.51141357421875,2.4404296875
3.373999999999967,4.043307495117188,0.5426666259765626,5.057461547851563
3.384999999999991,2.3400909423828127,0.3557464599609375,5.758187866210938
3.3939999999999486,8.254095458984375,0.8348602294921875,4.44122314453125
3.4039999999999964,14.394049072265624,1.316217041015625,1.72684326171875
3.413999999999988,14.39674072265625,0.55447998046875,1.9466613769531247
3.423999999999978,10.057052612304688,0.3600830078125,5.218661499023438
3.433999999999969,4.333108520507813,0.304754638671875,4.36346435546875
3.44399999999996,4.149029541015626,-0.35230712890625,4.6134887695312505
3.454999999999991,7.677185058593751,-1.1674285888671876,5.141949462890626
3.463999999999998,12.032424926757812,0.0130096435546875,3.620867919921875
3.474999999999966,13.665359497070314,1.2407012939453126,0.826336669921875
3.484999999999957,10.270889282226562,0.647491455078125,4.980001831054688
3.494999999999948,6.74527587890625,-1.2320281982421877,6.9462524414062505
3.5049999999999955,5.05791015625,-0.42049560546875,4.150823974609375
3.5149999999999864,7.10416259765625,1.1505310058593752,3.5736145019531254
3.5249999999999773,10.13540954589844,0.6341827392578125,3.575857543945313
3.534999999999968,12.468472290039063,0.8149719238281251,3.5553710937500003
3.544999999999959,11.33782958984375,0.8124298095703125,2.398858642578125
3.55499999999995,8.355331420898438,0.0705810546875,4.787997436523438
3.5649999999999977,6.05740966796875,0.1170867919921875,5.262625122070313
3.5749999999999886,6.182870483398438,0.6554168701171875,4.001437377929688
3.5849999999999795,9.584817504882814,-0.3327178955078125,4.08233642578125
3.5949999999999704,10.903726196289064,-0.6039764404296876,5.012451171875
3.6059999999999945,11.694473266601562,0.6356781005859375,2.284613037109376
3.6159999999999854,6.653311157226563,0.341839599609375,1.6229156494140626
3.625999999999976,4.77618408203125,-0.8542999267578125,5.197427368164063
3.6359999999999673,12.087155151367188,0.17525634765625,6.677386474609375
3.645999999999958,13.748052978515624,2.0120086669921875,4.1212158203125
3.655999999999949,8.811715698242189,-0.1963409423828125,3.0369293212890627
3.665999999999997,5.6457366943359375,-1.408929443359375,6.0687744140625
3.675999999999988,5.315411376953126,0.178546142578125,3.2579437255859376
3.685999999999978,8.365499877929688,0.6268554687500001,0.8883941650390625
3.6959999999999695,12.869528198242188,1.3479187011718752,5.957669067382813
3.70599999999996,12.298599243164064,1.6175323486328126,5.631680297851563
3.7159999999999513,10.245468139648438,0.1260589599609375,2.758493041992188
3.725999999999999,6.256591796875001,-0.962713623046875,3.879116821289063
3.7369999999999663,4.412213134765626,0.1490875244140625,6.133673095703125
3.748999999999967,8.398098754882813,0.3049041748046875,3.0147979736328128
3.756999999999948,11.43592529296875,0.088824462890625,1.9180999755859376
3.766999999999996,13.960842895507811,0.016748046875,4.365557861328125
3.776999999999987,9.4279541015625,-0.449505615234375,4.171759033203125
3.7869999999999777,6.672900390625,0.6163879394531251,5.721401977539063
3.7969999999999686,4.573114013671876,0.5970977783203125,3.385348510742188
3.80699999999996,7.975509643554688,-0.313128662109375,4.715921020507813
3.8169999999999504,11.59144287109375,-0.1209747314453125,3.548941040039063
3.826999999999998,12.745114135742188,1.166680908203125,-0.020037841796875
3.836999999999989,10.030584716796875,1.537530517578125,3.758291625976563
3.8489999999999895,6.69981689453125,-0.4625152587890625,7.964294433593751
3.856999999999971,5.8666015625000005,-0.6602020263671875,5.257092285156251
3.866999999999962,7.356280517578125,0.5465545654296875,4.08951416015625
3.8769999999999456,10.01697692871094,0.31282958984375,4.984188842773438
3.887999999999977,11.92999267578125,0.2576507568359375,2.057916259765625
3.897999999999968,10.516278076171876,0.6631927490234375,2.040121459960938
3.907999999999959,9.13905029296875,-0.90439453125,4.1200195312500005
3.9179999999999495,6.421829223632813,-0.5879760742187501,5.265765380859375
3.9289999999999736,7.349700927734376,1.44033203125,3.542062377929688
3.937999999999988,8.580233764648439,0.4128692626953125,4.706350708007813
3.948999999999955,10.975204467773438,-0.465057373046875,6.606057739257813
3.95799999999997,10.441360473632812,0.6926513671875001,2.8857482910156254
3.967999999999961,8.533129882812501,1.1581573486328125,1.4853424072265626
3.977999999999952,4.368847656250001,-0.4586273193359375,3.002536010742188
3.988,7.889077758789063,-0.410028076171875,3.969586181640625
3.9979999999999913,16.06361999511719,1.3600311279296875,5.265167236328125
4.008999999999958,11.650808715820313,1.2825714111328126,6.066680908203125
4.018999999999949,6.496896362304688,-0.244940185546875,5.4921630859375
4.028999999999996,4.044952392578125,-0.153424072265625,3.2017181396484378
4.038999999999987,5.326177978515625,-0.021234130859375,2.886495971679688
4.048999999999978,10.821630859375,-1.042266845703125,2.8227935791015626
4.058999999999969,15.1115234375,0.5824432373046875,5.472424316406251
4.06899999999996,13.249200439453126,0.6184814453125,3.604568481445313
4.078999999999951,8.136560058593751,-0.861029052734375,2.8075408935546875
4.088999999999999,3.4536865234375003,-0.06878662109375,7.436282348632813
4.0989999999999895,3.773544311523438,0.2223602294921875,4.179983520507813
4.1089999999999804,9.816748046875,0.5178436279296875,3.5523803710937503
4.118999999999971,14.397338867187502,0.9634613037109376,1.826583862304688
4.128999999999962,13.56277770996094,1.419097900390625,2.2491729736328128
4.138999999999953,8.883941650390625,0.7792327880859375,4.19359130859375
4.149000000000001,3.90648193359375,-0.0973480224609375,5.803048706054688
4.159999999999968,5.0949951171875005,-0.1691253662109375,5.146435546875001
4.169999999999959,8.226730346679688,-0.1903594970703125,3.867303466796875
4.17999999999995,13.103103637695314,0.24464111328125,2.937936401367188
4.189999999999998,12.262112426757811,0.8704498291015625,2.0914123535156253
4.199999999999989,9.817495727539065,0.0593658447265625,5.707046508789063
4.20999999999998,6.054718017578125,-1.5977935791015627,5.6946350097656255
4.21999999999997,5.861517333984375,-0.1160400390625,3.635073852539063
4.229999999999961,7.629931640625,0.9199462890625,3.7998626708984378
4.239999999999945,10.844061279296875,0.1830322265625,4.105215454101563
4.25,12.268093872070311,0.7434936523437501,3.2210083007812504
4.259999999999991,10.696319580078123,1.0522857666015626,3.3173095703125
4.269999999999982,7.794122314453125,0.0327484130859375,4.94127197265625
4.279999999999966,5.770001220703126,0.335858154296875,4.622610473632813
4.289999999999964,6.864605712890626,0.8344116210937501,3.804498291015625
4.2999999999999545,9.99140625,-0.4795623779296875,4.3821563720703125
4.310999999999979,11.317492675781253,0.110955810546875,4.3956146240234375
4.3209999999999695,11.515628051757814,1.14783935546875,1.8279296875
4.33099999999996,6.784005737304688,-0.26318359375,3.4029937744140626
4.340999999999951,2.3913818359375,-1.9279693603515624,4.285107421875001
4.350999999999999,10.271038818359376,0.277239990234375,4.480551147460938
4.36099999999999,16.851077270507815,2.985189819335938,4.988674926757813
4.370999999999981,13.391110229492188,0.5824432373046875,5.101574707031251
4.380999999999972,4.6214141845703125,-2.062252807617188,5.660391235351563
4.390999999999963,1.3555450439453125,-1.239505004882813,5.7369537353515625
4.400999999999954,5.542706298828126,0.46236572265625,0.8979644775390626
4.411000000000001,13.542590332031253,1.110903930664063,0.13218994140625
4.420999999999999,16.250390625,2.32738037109375,5.026507568359375
4.43099999999999,12.187942504882812,1.314422607421875,6.572711181640625
4.440999999999974,5.897555541992188,-1.2278411865234375,4.453036499023438
4.451999999999998,2.644247436523438,0.19140625,6.018679809570313
4.461999999999989,4.466793823242188,0.66693115234375,3.383255004882813
4.47199999999998,11.478543090820311,-0.578704833984375,3.0040313720703127
4.481999999999971,15.804623413085938,0.195294189453125,2.8209991455078125
4.491999999999962,13.030578613281252,0.5644989013671875,1.3654144287109375
4.501999999999946,7.667614746093751,-0.36666259765625,6.43065185546875
4.5120000000000005,2.7079498291015627,-0.406439208984375,5.731121826171876
4.521999999999991,4.903887939453125,0.4103271484375,4.385894775390625
4.531999999999982,9.761569213867189,-0.3832611083984375,4.0078674316406255
4.541999999999973,14.129519653320314,0.3817657470703125,3.085678100585938
4.551999999999964,13.018316650390624,1.999148559570313,-0.762335205078125
4.561999999999955,8.305984497070312,0.8994598388671876,5.492312622070313
4.572999999999979,5.07286376953125,-1.4300140380859376,7.904479980468751
4.581999999999994,4.796820068359375,0.218023681640625,3.9154541015625
4.592999999999961,8.7101806640625,1.389041137695313,4.105514526367188
4.602999999999952,11.91324462890625,-0.2284912109375,4.4059326171875
4.613,12.683953857421876,0.587078857421875,2.983395385742188
4.622999999999991,9.6696044921875,0.5333953857421876,2.4311584472656254
4.632999999999981,7.017282104492188,-1.2407012939453126,5.142098999023438
4.642999999999965,6.1167755126953125,-0.247332763671875,4.165628051757813
4.652999999999963,7.640399169921875,1.176699829101563,3.001788330078125
4.662999999999954,10.676730346679689,-0.4912261962890625,5.065835571289063
4.673000000000002,11.438467407226565,-0.1451995849609375,5.952584838867188
4.683,10.00576171875,1.5334930419921875,2.14315185546875
4.692999999999991,5.799459838867188,0.275445556640625,2.2663696289062503
4.702999999999975,3.4948089599609378,-0.9661529541015624,4.233517456054688
4.712999999999965,12.02569580078125,0.6969879150390625,3.868798828125
4.722999999999956,16.605389404296876,2.543609619140625,5.577847290039063
4.7339999999999804,10.303189086914063,0.8794219970703125,5.759533691406251
4.743999999999971,4.501336669921876,-0.7574005126953125,4.296023559570313
4.753999999999962,3.3138702392578128,-0.23447265625,4.325033569335938
4.763999999999953,6.2090393066406255,-0.6296966552734375,1.855294799804688
4.774000000000001,14.638391113281251,-0.2815765380859375,3.6337280273437504
4.783999999999992,14.645269775390624,0.7303344726562501,5.0007873535156255
4.793999999999983,11.835186767578126,-0.454290771484375,3.428115844726563
4.803999999999974,5.491415405273438,-1.078005981445313,4.526309204101563
4.8139999999999645,2.485888671875,0.2325286865234375,6.234909057617188
4.823999999999955,5.868695068359376,0.2083038330078125,4.144543457031251
4.833999999999946,12.352731323242187,0.5341430664062501,2.4238311767578127
4.843999999999994,15.218591308593751,1.6674774169921875,2.4495513916015628
4.853999999999992,11.668603515625,1.1484375,2.73411865234375
4.864999999999945,6.428558349609376,0.2699127197265625,6.046343994140625
4.875,3.388787841796875,0.1670318603515625,5.155856323242188
4.884999999999991,6.128738403320313,0.1081146240234375,3.869995117187501
4.894999999999982,10.86170654296875,-0.0797027587890625,4.01055908203125
4.904999999999966,13.238732910156251,0.5221801757812501,1.708001708984375
4.914999999999964,12.239382934570314,0.8604309082031251,2.935992431640625
4.9249999999999545,7.509704589843751,-0.9422271728515624,6.555065917968751
4.934999999999995,5.716317749023438,-1.3006652832031251,5.424124145507813
4.944999999999993,5.674447631835938,0.4876373291015625,3.2809722900390628
4.954999999999991,9.270941162109375,0.4652069091796875,4.835549926757813
4.964999999999975,11.904571533203123,-0.10587158203125,3.35140380859375
4.974999999999966,11.98382568359375,1.35001220703125,2.823092651367188
4.984999999999957,9.577938842773438,0.6452484130859375,3.374581909179688
4.994999999999948,6.430053710937501,-0.17406005859375,5.319149780273438
5.004999999999996,6.133074951171875,1.0276123046875,4.205105590820313
5.015999999999963,7.936630249023438,0.5280120849609375,3.897360229492188
5.025999999999954,11.145974731445314,-0.3605316162109375,5.048489379882813
5.036000000000001,11.280108642578126,0.6440521240234376,3.06309814453125
5.045999999999999,7.843618774414063,0.42528076171875,0.988134765625
5.05599999999999,4.578347778320313,-1.79024658203125,4.3612213134765625
5.065999999999974,11.611929321289065,0.3724945068359375,7.0533203125
5.075999999999965,14.326458740234376,1.6085601806640626,4.088916015625
5.085999999999956,9.120657348632813,-1.0137054443359377,4.332659912109375
5.095999999999947,5.2355590820312505,-2.0631500244140626,7.162631225585938
5.1059999999999945,4.405633544921876,0.508123779296875,1.0543792724609375
5.1159999999999854,8.575747680664064,1.7144317626953127,2.676995849609375
5.126999999999946,13.752090454101564,0.307745361328125,3.079397583007813
5.1370000000000005,13.278659057617189,2.6312377929687503,6.379959106445313
5.146999999999991,9.744970703125,1.4321075439453126,2.46734619140625
5.156999999999982,5.131631469726563,-0.7141845703125,4.885943603515625
5.166999999999973,4.5458984375,0.6622955322265626,6.8550354003906255
5.176999999999964,7.3485046386718755,-0.0659454345703125,2.5708251953125
5.186999999999955,13.506552124023438,-0.70401611328125,3.320748901367188
5.196999999999996,12.76365661621094,0.461468505859375,1.8659118652343751
5.206999999999994,10.513287353515626,0.1054229736328125,3.733468627929688
5.216999999999992,5.840731811523438,-1.2987213134765625,6.153262329101563
5.226999999999975,5.129388427734376,-0.353802490234375,5.2911865234375
5.236999999999966,7.625445556640625,0.454290771484375,3.3730865478515626
5.246999999999957,11.399737548828126,-0.0497955322265625,4.161141967773438
5.256999999999948,12.513931274414064,0.8571411132812501,1.5690826416015626
5.267999999999965,10.163671875,1.589419555664063,2.3888397216796875
5.277999999999963,6.969879150390626,-0.009271240234375,7.163827514648438
5.287999999999954,5.8954620361328125,-0.2582489013671875,5.026208496093751
5.298000000000002,7.434338378906251,1.4913238525390626,3.0303497314453125
5.308,10.15948486328125,0.2618377685546875,5.19189453125
5.317999999999991,11.269342041015626,-0.4897308349609375,4.286752319335938
5.327999999999975,10.969821166992189,1.0666412353515626,1.4745758056640623
5.337999999999965,8.077493286132814,-0.13458251953125,4.0231201171875
5.349999999999966,7.598678588867188,-1.64429931640625,5.525210571289063
5.357999999999947,7.019226074218751,0.3201568603515625,3.5993347167968754
5.367999999999995,9.223089599609375,0.5945556640625,3.8969116210937504
5.377999999999986,10.211373901367187,-0.7556060791015625,5.741290283203125
5.387999999999977,10.622000122070313,1.0107147216796877,3.885696411132813
5.397999999999968,9.1025634765625,1.2432434082031252,1.5158477783203126
5.408999999999992,7.409814453125,-0.340045166015625,5.190399169921875
5.4179999999999495,4.832559204101563,-0.189013671875,3.2951782226562503
5.428999999999974,7.261923217773438,1.122866821289063,1.4970062255859375
5.4389999999999645,16.29450378417969,0.8765808105468751,7.040011596679688
5.449999999999989,14.442648315429688,1.0974456787109377,6.624600219726563
5.458999999999946,6.322537231445313,0.5133575439453125,2.8124755859375004
5.468999999999994,2.865560913085938,-0.8973663330078125,5.018133544921875
5.478999999999992,3.8095825195312494,-0.2905487060546875,4.354641723632813
5.488999999999976,11.221041870117189,0.146844482421875,-0.2008270263671875
5.498999999999967,15.581515502929689,-0.2974273681640625,4.427017211914063
5.508999999999958,14.047125244140624,-0.15611572265625,6.834249877929688
5.518999999999949,8.237646484375,0.0937591552734375,2.394671630859375
5.528999999999996,3.022723388671875,0.3050537109375,5.804544067382813
5.538999999999987,3.564642333984376,-0.8824127197265625,6.133822631835938
5.548999999999978,9.582424926757811,0.2045654296875,3.556716918945313
5.558999999999969,14.50380859375,1.402947998046875,0.8196075439453125
5.569999999999993,13.894598388671875,1.42657470703125,1.619775390625
5.579999999999991,9.142041015625,0.7645782470703125,5.141949462890626
5.589999999999975,3.861322021484375,-0.2432952880859375,5.979052734375
5.599999999999966,4.710238647460938,-0.3457275390625,5.145687866210938
5.609999999999957,8.064633178710938,0.469244384765625,3.392526245117188
5.619999999999948,12.646270751953129,0.90738525390625,3.488079833984376
5.629999999999996,13.23320007324219,0.283221435546875,1.3133758544921876
5.639999999999986,9.999481201171877,0.0973480224609375,4.785006713867188
5.649999999999977,6.302200317382813,-1.05692138671875,6.528298950195313
5.659999999999968,4.97117919921875,-0.4693939208984375,4.2719482421875
5.669999999999959,7.587164306640625,0.8306732177734376,3.646588134765625
5.67999999999995,11.0022705078125,-0.178546142578125,4.352398681640626
5.689999999999998,12.434228515625,-0.0306549072265625,4.221405029296875
5.699999999999989,10.5285400390625,1.1929992675781251,2.2886505126953125
5.710999999999956,7.664175415039063,0.63702392578125,3.9399780273437504
5.720999999999947,6.117523193359375,-0.3375030517578125,4.927365112304688
5.7309999999999945,7.083526611328126,0.53653564453125,3.977960205078125
5.7409999999999854,10.15455017089844,0.6889129638671876,3.4720794677734377
5.750999999999976,10.93408203125,0.49287109375,5.4289093017578125
5.760999999999967,11.029336547851564,0.8125793457031251,3.338095092773438
5.770999999999958,7.426113891601563,0.2615386962890625,2.8293731689453128
5.780999999999949,2.9869842529296875,-0.369952392578125,4.223049926757813
5.790999999999997,8.1060546875,0.2606414794921875,3.2196624755859378
5.800999999999988,16.934817504882815,1.8831085205078129,4.553076171875
5.810999999999979,15.17417907714844,0.3545501708984375,4.783660888671875
5.8209999999999695,5.6859619140625,-2.3335113525390625,5.313616943359375
5.83099999999996,1.8511077880859377,-1.7573486328125,6.872082519531251
5.840999999999951,4.1249542236328125,-1.0693328857421875,2.369100952148438
5.851999999999975,11.136703491210938,0.1939483642578125,1.660748291015625
5.861999999999966,16.221380615234377,1.9178009033203127,3.161492919921875
5.871999999999957,13.614666748046876,2.2324249267578127,5.2594848632812505
5.881999999999948,8.078988647460939,-0.2349212646484375,4.675396728515626
5.891999999999996,3.0619018554687503,-0.171966552734375,5.317953491210938
5.901999999999987,3.5138000488281254,0.6890625,4.109103393554688
5.911999999999978,8.809771728515626,1.4382385253906251,2.6234619140625
5.921999999999969,15.38652038574219,0.6338836669921876,3.945361328125
5.93199999999996,14.013180541992188,0.1380218505859375,1.6842254638671876
5.94199999999995,9.610836791992188,-0.4571319580078125,5.051629638671876
5.951999999999998,3.480902099609376,-0.6960906982421875,5.698822021484375
5.961999999999989,3.792086791992188,-0.3404937744140625,4.487429809570313
5.972999999999956,8.470025634765626,-1.148736572265625,4.365856933593751
5.981999999999971,13.385427856445313,-0.6078643798828125,3.17794189453125
5.992999999999995,14.086752319335938,1.4614166259765626,0.1435546875
6.002999999999986,9.6121826171875,1.7141326904296876,4.430157470703126
6.012999999999977,5.32049560546875,-0.6525756835937501,8.024707031250001
6.022999999999968,4.561749267578126,-0.0453094482421875,4.946206665039063
6.032999999999959,7.087863159179688,1.9768676757812504,3.968389892578125
6.0429999999999495,11.62000427246094,1.0947540283203123,3.1746520996093754
6.052999999999997,12.704141235351564,1.08443603515625,2.769110107421876
6.062999999999988,11.38807373046875,0.7487274169921876,2.0523834228515625
6.072999999999979,7.39964599609375,-1.4008544921875,5.105612182617188
6.08299999999997,6.141448974609376,-0.8514587402343751,5.135968017578126
6.092999999999961,6.173748779296876,0.805401611328125,3.311029052734375
6.102999999999952,9.965536499023438,-0.7720550537109375,5.1742492675781255
6.113,11.494094848632812,-1.475323486328125,6.301602172851563
6.122999999999991,11.310614013671875,0.8218505859375,2.518038940429688
6.133999999999958,8.175439453125001,0.7479797363281251,1.9391845703125
6.143999999999949,3.0532287597656254,0.083441162109375,3.9144073486328126
6.153999999999996,7.270745849609375,0.6790435791015625,2.854644775390625
6.163999999999987,15.80537109375,1.4008544921875,5.129537963867188
6.173999999999978,14.193670654296875,2.3110809326171875,7.441366577148438
6.183999999999969,6.64359130859375,1.0654449462890625,2.138815307617188
6.19399999999996,3.8522003173828128,-0.008074951171875,5.112490844726563
6.203999999999951,3.8670043945312496,-1.6943939208984375,5.132528686523438
6.213999999999999,10.16651306152344,-0.8022613525390626,1.3905364990234377
6.2239999999999895,15.546224975585938,0.6732116699218751,3.873733520507813
6.2339999999999804,13.952468872070314,-0.8357574462890626,4.1212158203125
6.243999999999971,9.5416015625,-1.832565307617188,4.52017822265625
6.253999999999962,3.055471801757813,-0.588873291015625,4.734912109375
6.264999999999986,3.2280364990234376,-0.0478515625,6.539663696289063
6.274999999999977,8.44400634765625,0.2308837890625,3.583782958984376
6.284999999999968,14.34769287109375,1.7465820312500002,2.113543701171875
6.294999999999959,14.638391113281251,1.5418670654296875,1.3338623046875
6.30499999999995,9.376663208007812,1.3096374511718751,4.0591583251953125
6.314999999999998,4.802951049804688,1.5372314453125002,5.625848388671876
6.324999999999989,3.6092041015625,0.49705810546875,3.647335815429688
6.33499999999998,7.989865112304688,-0.206658935546875,5.889031982421876
6.34499999999997,11.61536865234375,0.372943115234375,3.271102905273438
6.354999999999961,13.762857055664064,1.020733642578125,1.3624237060546875
6.366999999999962,10.186550903320311,-0.3177642822265625,4.924972534179688
6.375,6.8619140625,-2.28670654296875,7.045843505859375
6.384999999999991,5.541510009765625,-1.478762817382813,3.4496490478515627
6.394999999999982,7.015936279296875,0.363671875,3.7593383789062496
6.405999999999949,10.377059936523438,-0.168377685546875,4.009512329101563
6.415999999999997,12.422564697265626,0.4774688720703125,3.439779663085938
6.425999999999988,11.295510864257814,1.2058593750000002,3.3057952880859376
6.435999999999979,7.976257324218751,0.497357177734375,4.3283233642578125
6.4459999999999695,5.7816650390625,1.227392578125,5.541360473632813
6.45599999999996,6.470877075195313,1.7171234130859376,2.8742340087890628
6.466999999999992,9.22757568359375,0.5640502929687501,3.8610229492187504
6.475999999999999,12.304879760742187,0.1233673095703125,4.867401123046875
6.48599999999999,10.805630493164063,0.9942657470703126,2.6940429687500003
6.495999999999981,8.965289306640626,0.4015045166015625,2.7909423828125
6.505999999999972,1.7760406494140626,-0.9987518310546876,5.135968017578126
6.515999999999963,6.951486206054688,-0.6823333740234375,3.5688293457031253
6.525999999999954,16.19715576171875,0.426776123046875,5.220904541015625
6.536000000000001,15.872064208984376,0.6694732666015626,4.572964477539063
6.545999999999999,7.089059448242188,-1.23157958984375,4.231274414062501
6.55699999999996,2.7827178955078127,-1.7585449218750002,5.833853149414063
6.56699999999995,3.5570159912109376,-1.5828399658203127,4.149029541015626
6.576999999999998,9.68096923828125,0.745587158203125,0.8598327636718751
6.586999999999989,15.645965576171877,2.977413940429688,4.57879638671875
6.59699999999998,13.732351684570313,2.3243896484375,4.1922454833984375
6.606999999999971,9.450384521484375,-0.0554779052734375,4.539019775390625
6.616999999999962,3.866107177734375,-0.5718261718750001,5.12908935546875
6.626999999999946,2.7456329345703128,0.7123901367187501,4.876223754882813
6.6370000000000005,8.71795654296875,1.20645751953125,2.653219604492188
6.646999999999991,13.599713134765626,-0.142059326171875,2.255303955078125
6.656999999999982,15.391455078125,-0.6602020263671875,3.6696166992187504
6.666999999999973,9.667062377929687,-0.572125244140625,3.694439697265625
6.676999999999964,4.81925048828125,0.256005859375,6.375921630859375
6.687999999999988,3.404190063476563,-0.7153808593750001,4.606759643554688
6.696999999999996,7.77169189453125,-1.145745849609375,4.950094604492188
6.70799999999997,12.544436645507814,-0.1051239013671875,2.7569976806640626
6.717999999999961,13.525094604492187,1.701123046875,0.3887939453125
6.727999999999952,10.629776000976562,2.398260498046876,4.229928588867188
6.738,6.105560302734375,-0.1757049560546875,6.636264038085938
6.747999999999991,5.268157958984375,-0.44442138671875,5.586819458007813
6.757999999999981,6.4363342285156255,1.4582763671875,4.2408447265625
6.767999999999965,10.460650634765626,1.3331146240234375,3.372189331054688
6.777999999999963,12.18824157714844,0.6446502685546875,2.7430908203125
6.787999999999954,11.700604248046876,-0.0258697509765625,3.108108520507813
6.798000000000002,8.731863403320313,-1.49835205078125,4.1787872314453125
6.808,6.075653076171875,-0.5767608642578126,5.09080810546875
6.817999999999991,6.45218505859375,0.4643096923828125,3.507070922851563
6.828999999999951,8.928204345703126,-0.747381591796875,4.865307617187501
6.837999999999965,11.541348266601563,-1.0315002441406251,6.08013916015625
6.8489999999999895,11.127880859375,0.6525756835937501,2.2384063720703127
6.8589999999999804,7.536172485351563,1.619775390625,2.239154052734375
6.868999999999971,3.454733276367188,-0.06220703125,3.21263427734375
6.878999999999962,9.817645263671876,0.105572509765625,5.1141357421875
6.888999999999953,16.443740844726562,2.1540679931640625,5.457769775390625
6.899000000000001,10.275076293945313,2.1151885986328125,4.104766845703125
6.908999999999992,5.886639404296876,0.508123779296875,4.545449829101563
6.918999999999983,3.263327026367188,-0.219818115234375,4.045849609375001
6.928999999999974,6.8969055175781255,-0.8471221923828126,4.005026245117188
6.9389999999999645,12.6962158203125,-1.3540496826171875,2.423980712890625
6.948999999999955,14.528482055664064,0.5944061279296875,5.9946044921875
6.958999999999946,11.688342285156253,-0.7986724853515625,3.2341674804687504
6.96999999999997,6.9576171875,-1.711590576171875,3.758291625976563
6.978999999999992,3.743338012695313,-0.46116943359375,6.348706054687501
6.989999999999945,5.689401245117188,0.1706207275390625,3.0900146484375
7.0,11.089749145507811,1.045108032226563,4.187161254882813
7.009999999999991,14.072994995117188,1.6386169433593751,1.3927795410156252
7.019999999999982,11.892459106445314,1.6061676025390623,3.3771240234375
7.029999999999966,7.061096191406251,0.983349609375,5.770599365234375
7.039999999999964,4.150524902343751,0.850262451171875,4.6812286376953125
7.0499999999999545,6.706695556640626,0.8021118164062501,3.586325073242188
7.059999999999995,9.541152954101562,-0.2415008544921875,4.624703979492188
7.069999999999993,13.302883911132811,-0.07476806640625,2.355792236328125
7.079999999999991,11.189938354492188,0.59635009765625,2.2138824462890625
7.089999999999975,8.436380004882814,-0.9239837646484376,6.489868164062501
7.099999999999966,5.9099670410156255,-2.153170776367188,5.689700317382813
7.109999999999957,6.850848388671875,-0.2883056640625,3.791488647460938
7.120999999999981,8.837435913085939,0.1574615478515625,4.142001342773438
7.130999999999972,11.382241821289064,-0.100787353515625,4.168469238281251
7.140999999999963,11.378054809570314,1.2137847900390626,2.252462768554688
7.150999999999954,9.556106567382812,1.1094085693359377,3.3031036376953127
7.161000000000001,7.505218505859376,0.149835205078125,4.965646362304688
7.170999999999999,6.222946166992188,1.520782470703125,4.627694702148438
7.18099999999999,8.073306274414064,1.7477783203125,3.707000732421875
7.190999999999974,10.169503784179687,-0.2489776611328125,4.9204864501953125
7.200999999999965,10.8802490234375,0.2782867431640625,4.440026855468751
7.210999999999956,10.107894897460938,0.637921142578125,1.3210021972656252
7.220999999999947,4.330715942382813,-0.3635223388671875,2.8842529296875004
7.230999999999994,5.956472778320313,-0.8282806396484376,4.1307861328125
7.2409999999999854,15.2490966796875,0.5145538330078125,5.271746826171875
7.251999999999946,14.965426635742189,0.7390075683593751,6.129486083984376
7.262,7.09459228515625,-1.6665802001953127,5.164678955078125
7.271999999999991,3.32149658203125,-1.40264892578125,5.786450195312501
7.281999999999982,3.961959838867188,-0.8459259033203126,2.415158081054688
7.291999999999973,10.32816162109375,0.0503936767578125,1.5957000732421875
7.301999999999964,15.550711059570313,1.93140869140625,3.013601684570313
7.311999999999955,13.112823486328129,3.0231719970703126,4.361968994140625
7.321999999999996,9.174041748046877,0.05323486328125,5.410665893554688
7.331999999999994,3.2882995605468754,-0.81885986328125,4.942318725585938
7.341999999999992,3.964053344726562,0.579901123046875,6.194683837890626
7.351999999999975,7.974163818359376,1.305300903320313,2.1860687255859377
7.361999999999966,14.404815673828129,0.5193389892578125,3.072219848632813
7.371999999999957,14.642578125000002,-0.342437744140625,1.3106842041015625
7.381999999999948,9.824224853515624,-0.9724334716796876,3.9579223632812495
7.392999999999965,4.704257202148438,-0.3419891357421875,6.441717529296875
7.402999999999963,3.6594482421875,-0.0291595458984375,4.098336791992188
7.412999999999954,8.091250610351564,-0.865216064453125,5.412908935546875
7.423000000000002,12.508248901367187,-0.8363555908203125,4.092654418945313
7.433,13.168899536132814,1.4641082763671875,0.899908447265625
7.442999999999991,10.104455566406251,2.290145874023437,3.68935546875
7.4529999999999745,5.972622680664063,-0.2794830322265625,6.615179443359375
7.462999999999965,5.739495849609376,-0.3004180908203125,4.104168701171876
7.472999999999956,7.064086914062501,1.5430633544921877,3.322991943359375
7.482999999999947,11.126834106445314,0.9740783691406252,4.010409545898438
7.492999999999995,11.592340087890626,1.0011444091796875,3.5993347167968754
7.502999999999986,11.357418823242188,0.7787841796875,3.1655303955078127
7.512999999999977,7.62454833984375,-1.7071044921875,5.40543212890625
7.522999999999968,6.314462280273438,-1.030154418945313,5.418591308593751
7.532999999999959,6.618618774414063,0.8064483642578125,2.264425659179688
7.542999999999949,9.907217407226565,-0.46416015625,3.962857055664063
7.553999999999974,11.812008666992188,-1.4635101318359376,5.7519073486328125
7.5639999999999645,10.325918579101565,0.5997894287109375,2.2603881835937503
7.573999999999955,5.6093994140625005,1.03897705078125,1.454986572265625
7.583999999999946,6.201263427734376,-0.078656005859375,5.612091064453125
7.593999999999994,13.18833923339844,1.302459716796875,6.800604248046875
7.603999999999992,12.3014404296875,2.093505859375,3.895864868164063
7.613999999999976,7.511798095703125,0.4723846435546875,4.317108154296875
7.623999999999967,6.0569610595703125,0.4415802001953125,3.8556396484375
7.633999999999958,5.361618041992188,1.0403228759765626,2.42547607421875
7.643999999999949,10.529885864257814,-1.039126586914063,3.4838928222656254
7.653999999999996,12.895846557617189,-1.02821044921875,5.951986694335938
7.665999999999997,12.588699340820314,0.3907379150390625,3.988278198242188
7.674999999999954,8.455221557617188,-0.9036468505859376,2.5863769531250003
7.684999999999995,5.64110107421875,-1.0578186035156252,6.364706420898438
7.694999999999993,5.05133056640625,-0.5819946289062501,4.991665649414063
7.704999999999991,9.39371032714844,-0.0641510009765625,3.079397583007813
7.714999999999975,12.515875244140624,0.99112548828125,2.5660400390625
7.724999999999966,12.138146972656251,1.8243408203125,2.3640167236328127
7.734999999999957,9.256585693359376,1.21602783203125,4.750613403320313
7.744999999999948,5.566033935546876,0.2260986328125,5.311074829101563
7.7549999999999955,6.03946533203125,0.8554962158203125,4.312322998046875
7.766999999999996,8.304190063476563,0.99232177734375,3.6098022460937504
7.774999999999977,11.210873413085938,0.2702117919921875,3.3657592773437504
7.784999999999968,11.962142944335938,0.3575408935546875,2.6405090332031254
7.794999999999959,9.6193603515625,-0.1066192626953125,5.195932006835938
7.80499999999995,7.313064575195313,-1.4572296142578125,5.712429809570313
7.814999999999998,6.248367309570313,-0.6063690185546875,3.689205932617188
7.825999999999965,8.18800048828125,-0.1099090576171875,4.115234375
7.835999999999956,10.185653686523438,-0.9559844970703124,4.512103271484375
7.845999999999947,11.387924194335938,0.4077850341796875,3.483294677734375
7.855999999999994,10.221392822265626,1.439883422851563,2.254107666015625
7.8659999999999854,8.2244873046875,0.429766845703125,5.033535766601563
7.875999999999976,7.0449462890625005,0.2062103271484375,4.7265380859375
7.885999999999967,7.1813232421875,1.5020904541015625,3.586474609375
7.895999999999958,9.623696899414064,0.981854248046875,4.37901611328125
7.905999999999949,10.195523071289063,0.442626953125,4.6164794921875005
7.915999999999997,10.605999755859376,1.0098175048828126,2.213433837890625
7.925999999999988,5.599380493164063,-0.2860626220703125,2.4660003662109378
7.935999999999979,6.229077148437501,-1.0853332519531251,4.9349914550781255
7.9459999999999695,13.309613037109376,0.6963897705078126,5.380459594726563
7.956999999999994,14.078826904296877,0.7708587646484376,4.753305053710938
7.966999999999992,8.068072509765626,-2.648434448242188,5.210287475585938
7.976999999999975,4.818353271484376,-1.885501098632813,5.256643676757813
7.986999999999966,4.51658935546875,0.8134765625000001,2.1213195800781253
7.996999999999957,9.228173828125,0.3470733642578125,1.9824005126953128
8.006999999999948,14.428741455078129,1.3085906982421875,6.021221923828126
8.016999999999996,12.905715942382814,2.608209228515625,3.8593780517578127
8.026999999999987,9.071609497070312,0.9506011962890626,3.458322143554688
8.036999999999978,4.602423095703125,-0.094207763671875,5.167370605468751
8.046999999999969,3.959716796875,1.089968872070313,5.121612548828125
8.05699999999996,9.41778564453125,0.029608154296875,2.550189208984375
8.06699999999995,12.90078125,-0.4050933837890625,2.708099365234375
8.076999999999998,14.117706298828129,0.69085693359375,3.2099426269531253
8.087999999999965,8.632571411132814,-0.4774688720703125,3.773544311523438
8.09699999999998,5.358776855468751,-1.230084228515625,7.716513061523438
8.107999999999947,4.5159912109375,-0.8967681884765626,4.247723388671876
8.117999999999995,8.755639648437501,-0.0243743896484375,3.1972320556640628
8.127999999999986,12.454116821289064,-0.176153564453125,3.209793090820313
8.137999999999977,12.92395935058594,0.9945648193359377,0.8698516845703126
8.147999999999968,9.762316894531253,1.5337921142578126,4.079345703125
8.157999999999959,5.919537353515626,-0.2859130859375,7.088760375976563
8.16799999999995,5.553323364257813,0.3177642822265625,5.2074462890625
8.177999999999997,7.395758056640625,1.9018005371093751,3.520379638671875
8.187999999999988,10.750451660156251,0.6467437744140625,4.9634033203125005
8.197999999999979,12.150259399414065,0.0791046142578125,2.8556915283203126
8.20799999999997,10.283749389648438,1.020733642578125,2.2623321533203127
8.217999999999961,8.592196655273439,-0.79493408203125,3.7098419189453127
8.227999999999952,6.365902709960938,-1.304254150390625,4.883999633789063
8.238999999999976,7.6834655761718755,0.4245330810546875,3.716720581054688
8.24799999999999,9.106451416015624,-0.4218414306640625,4.976113891601563
8.258999999999958,11.089151000976564,-0.7923919677734376,6.360668945312501
8.268999999999949,9.684259033203126,0.7870086669921875,2.6796875
8.278999999999996,5.8426757812500005,0.9975555419921877,1.3218994140625
8.288999999999987,6.844119262695313,-0.423486328125,4.18760986328125
8.298999999999978,13.612722778320313,1.2182708740234376,6.1381591796875
8.308999999999969,13.7824462890625,2.534637451171875,4.352548217773438
8.31899999999996,6.708190917968751,0.3662139892578125,3.522024536132813
8.32899999999995,4.850054931640625,-0.0521881103515625,5.200119018554688
8.338999999999999,4.831661987304688,0.256903076171875,2.744586181640625
8.34899999999999,9.508404541015626,-0.5175445556640625,3.5920074462890628
8.35899999999998,14.281298828125,-0.5655456542968751,4.803997802734376
8.368999999999971,13.338174438476564,0.2394073486328125,4.16966552734375
8.378999999999962,9.448590087890626,-1.3178619384765626,3.623410034179688
8.389999999999986,4.456326293945313,-1.4401824951171875,4.775585937500001
8.399999999999977,4.367800903320313,0.280230712890625,6.144140625
8.409999999999968,8.556158447265625,-0.20516357421875,2.7030151367187503
8.419999999999959,13.43851318359375,0.774298095703125,3.439630126953125
8.42999999999995,13.287332153320314,1.7956298828125,1.218569946289063
8.439999999999998,9.300250244140626,1.3408905029296876,4.758090209960938
8.449999999999989,5.417843627929688,0.4053924560546875,6.453082275390625
8.45999999999998,4.715322875976563,0.530853271484375,3.5810913085937504
8.46999999999997,8.461203002929688,0.7520172119140626,4.186563110351563
8.479999999999961,11.151208496093751,0.2340240478515625,3.379367065429688
8.489999999999945,13.141085815429689,0.807196044921875,1.5287078857421876
8.5,9.775027465820314,0.532049560546875,3.6615417480468753
8.509999999999991,7.052124023437501,-1.6863189697265626,7.151266479492188
8.519999999999982,5.884844970703125,-1.3716949462890626,4.343875122070313
8.530999999999949,7.504171752929688,0.639715576171875,3.912313842773438
8.540999999999997,10.2653564453125,-0.517095947265625,4.574758911132813
8.550999999999988,11.645425415039064,-0.1568634033203125,3.9944091796875
8.560999999999979,10.685104370117188,1.2936370849609375,2.433102416992188
8.57099999999997,8.368789672851562,0.1706207275390625,3.735861206054688
8.58099999999996,6.750210571289063,0.2115936279296875,5.599081420898438
8.590999999999951,7.079489135742188,1.47442626953125,2.8538970947265625
8.600999999999999,8.435632324218751,0.872991943359375,3.6069610595703128
8.61099999999999,8.656646728515625,-0.1727142333984375,3.5948486328125004
8.620999999999981,9.444851684570311,1.2716552734375002,2.4286163330078128
8.630999999999972,15.430783081054688,2.0120086669921875,5.256195068359375
8.640999999999963,10.491455078125,-0.5719757080078125,7.018328857421875
8.650999999999954,4.492514038085938,-2.500094604492188,5.792132568359375
8.661000000000001,2.6835754394531253,-1.4437713623046875,3.3125244140625
8.671,7.826571655273438,-0.0873291015625,3.562399291992188
8.683,13.887420654296877,-0.7686157226562501,0.4248321533203125
8.69199999999995,15.564468383789064,1.9614654541015624,4.4992431640625
8.701999999999998,10.06363220214844,1.0089202880859376,6.403137207031251
8.712999999999965,5.987277221679688,-0.944769287109375,4.078448486328125
8.72199999999998,3.1595489501953127,0.7355682373046876,4.897457885742188
8.731999999999971,6.123056030273438,1.2312805175781252,3.239700317382813
8.741999999999962,12.148165893554689,0.7547088623046876,5.030096435546875
8.751999999999946,13.846746826171875,1.813723754882813,1.7008239746093752
8.762,11.725576782226565,1.4884826660156252,1.2806274414062502
8.771999999999991,7.100872802734376,-1.0923614501953125,6.718807983398438
8.783999999999992,4.027606201171875,-0.7787841796875,6.380557250976563
8.79299999999995,6.555364990234375,0.206060791015625,2.410223388671876
8.802999999999997,10.040304565429688,-1.027163696289063,4.737454223632813
8.812999999999988,13.407559204101563,-0.7659240722656251,4.3114257812500005
8.822999999999979,11.864645385742188,0.6637908935546876,-0.3363067626953125
8.83299999999997,8.038314819335938,-0.0165985107421875,5.942266845703125
8.842999999999961,5.058956909179688,-1.4361450195312502,7.304391479492188
8.852999999999952,6.253302001953125,1.0371826171875,3.278131103515625
8.863,9.111984252929688,1.7467315673828123,3.3177581787109376
8.87299999999999,11.972161865234376,0.317913818359375,5.157351684570313
8.883999999999958,11.906964111328126,1.6136444091796875,2.5264129638671875
8.892999999999965,8.580084228515625,1.6864685058593751,2.6759490966796875
8.902999999999963,7.124649047851563,-0.8067474365234376,4.882354736328125
8.912999999999954,6.160440063476563,-0.1399658203125,4.823287963867188
8.923000000000002,8.836688232421876,0.8936279296875,2.9410766601562504
8.933,10.808322143554689,-1.0012939453125,4.467691040039063
8.94299999999999,11.234948730468751,-0.6032287597656251,5.96649169921875
8.95399999999995,9.627883911132812,0.07117919921875,2.941525268554688
8.963999999999999,6.308331298828126,-0.7535125732421876,3.2398498535156253
8.97399999999999,2.3172119140625003,-1.6843750000000002,3.6202697753906254
8.98399999999998,10.561886596679688,-0.0210845947265625,3.84188232421875
8.993999999999971,18.34075622558593,2.4308593750000003,5.278475952148438
9.003999999999962,13.95291748046875,2.528805541992188,4.227536010742188
9.013999999999951,4.103121948242188,0.3386993408203125,4.73431396484375
9.024,0.9269744873046876,-0.3074462890625,6.4037353515625
9.033999999999992,3.3057952880859376,0.5387786865234375,2.215078735351563
9.04499999999996,13.642031860351564,1.06768798828125,-0.4350006103515625
9.05499999999995,17.302227783203126,0.557171630859375,6.16746826171875
9.063999999999965,14.478536987304688,0.310736083984375,5.248269653320313
9.073999999999955,6.053970336914063,-1.18253173828125,2.624508666992188
9.083999999999946,1.4910247802734375,-1.2490753173828126,8.385238647460938
9.09499999999997,3.1680725097656253,-1.7920410156250002,4.704257202148438
9.10499999999996,10.831948852539064,-0.207855224609375,2.4067840576171875
9.114999999999943,16.28927001953125,0.6672302246093751,1.36795654296875
9.125,14.660821533203126,1.2537109375000002,2.0244201660156254
9.134999999999993,8.178729248046876,0.9703399658203126,4.77977294921875
9.144999999999982,2.649630737304688,0.2585479736328125,6.197225952148438
9.154999999999966,3.625952148437501,0.7047637939453125,5.586221313476563
9.164999999999964,8.180673217773439,1.547998046875,3.873284912109375
9.174999999999956,13.6939208984375,1.6042236328125,2.6067138671875
9.184999999999995,14.212661743164064,1.182232666015625,0.7113433837890626
9.194999999999991,9.888973999023438,0.1772003173828125,5.644091796875
9.204999999999991,5.816806030273438,-1.92781982421875,5.903836059570313
9.214999999999977,4.224993896484375,-0.9446197509765626,4.00218505859375
9.224999999999966,7.560098266601563,-0.2400054931640625,4.540814208984376
9.23599999999999,10.873519897460938,-1.60841064453125,4.72952880859375
9.24599999999998,13.369577026367187,-0.2492767333984375,3.2658691406250004
9.255999999999972,11.042794799804687,1.0157989501953126,2.6285461425781254
9.265999999999964,7.886535644531251,-0.0590667724609375,4.825531005859375
9.275999999999954,5.328121948242188,0.1544708251953125,4.859326171875001
9.286,6.401492309570313,1.7425445556640626,3.3120758056640627
9.296,9.563433837890626,1.0204345703125002,3.8125732421875
9.30599999999999,10.673141479492188,1.2267944335937502,4.53692626953125
9.315999999999974,8.303890991210938,2.397662353515625,0.7243530273437501
9.325999999999963,10.6744873046875,1.3211517333984375,4.165179443359375
9.335999999999956,12.061883544921876,-0.31282958984375,8.380303955078126
9.345999999999949,8.225982666015625,-1.0413696289062502,3.260934448242188
9.355999999999996,5.158547973632813,-1.484744262695313,3.619970703125
9.365999999999984,6.793426513671876,-2.434896850585938,6.156552124023438
9.376999999999946,9.653903198242189,-1.4964080810546876,2.162591552734375
9.387,13.119851684570314,0.3026611328125,2.706903076171875
9.396999999999991,11.360409545898438,0.299072265625,6.251058959960938
9.406999999999982,9.150863647460938,0.3019134521484375,5.142098999023438
9.416999999999971,5.81695556640625,1.1819335937500002,1.6438507080078126
9.426999999999964,6.1285888671875,1.45648193359375,5.523565673828125
9.436999999999957,8.393463134765625,1.065594482421875,4.706350708007813
9.446999999999996,11.712268066406253,2.80828857421875,2.3688018798828128
9.456999999999994,12.213064575195313,1.8360046386718751,0.838299560546875
9.466999999999992,8.958111572265626,-0.711492919921875,5.677886962890625
9.476999999999975,6.73929443359375,-0.39178466796875,6.526803588867188
9.486999999999966,5.621661376953125,-0.2136871337890625,2.33037109375
9.496999999999955,9.028244018554688,-1.5113616943359376,4.925570678710938
9.50799999999998,11.18948974609375,-1.8789215087890627,4.686013793945313
9.517999999999963,11.911599731445314,-0.5793029785156251,1.4301635742187502
9.527999999999963,9.287091064453126,-0.247332763671875,3.7176177978515614
9.537999999999954,6.916793823242188,-0.4918243408203125,6.835147094726563
9.548000000000002,6.563739013671875,0.4906280517578125,4.486233520507813
9.558,8.301947021484375,1.6737579345703126,3.132931518554688
9.56799999999999,10.366891479492187,1.5843353271484375,4.78515625
9.577999999999976,10.79351806640625,1.983148193359375,3.368002319335938
9.59299999999996,9.506460571289065,2.1766479492187503,2.7543060302734377
9.597999999999956,8.343817138671875,0.251220703125,3.3654602050781253
9.607999999999947,7.165621948242188,-0.30086669921875,5.402142333984376
9.617999999999997,8.455221557617188,0.2009765625,3.5015380859375003
9.627999999999986,9.065029907226563,-0.471337890625,3.817657470703125
9.637999999999977,10.871575927734376,-1.4476593017578123,5.946902465820313
9.647999999999968,9.073553466796875,-1.4506500244140623,4.260583496093751
9.65799999999996,6.0689239501953125,-0.7629333496093751,1.3734893798828125
9.668999999999984,5.82652587890625,-0.9009552001953126,2.8090362548828125
9.678999999999974,15.358856201171877,0.389093017578125,7.454525756835938
9.688999999999965,14.3829833984375,2.159750366210938,4.613787841796875
9.698999999999955,7.012048339843751,1.7237030029296876,3.339141845703125
9.708999999999946,2.599386596679688,0.6222198486328125,5.720654296875001
9.718999999999994,3.733917236328125,1.1609985351562502,3.5269592285156253
9.728999999999992,10.454519653320313,1.5547271728515626,1.033294677734375
9.738999999999976,16.0147216796875,0.6000885009765625,3.438134765625
9.748999999999969,13.739379882812502,0.389990234375,7.235006713867188
9.758999999999958,8.84296875,-1.3120300292968752,2.5090667724609377
9.768999999999949,3.338394165039063,-1.3763305664062502,4.704556274414063
9.778999999999996,3.7518615722656254,-1.6146911621093751,6.850698852539063
9.789999999999964,8.57559814453125,-1.9503997802734376,3.5876708984375
9.799999999999956,14.838470458984377,0.035589599609375,2.5482452392578128
9.809999999999995,13.860354614257814,0.8145233154296876,0.6054718017578126
9.819999999999991,9.674240112304688,0.703717041015625,5.851797485351563
9.829999999999991,4.168768310546875,0.3354095458984375,5.63511962890625
9.839999999999977,4.127645874023438,1.2797302246093751,4.092803955078125
9.849999999999966,7.802645874023438,1.6117004394531251,4.252957153320313
9.859999999999957,12.328955078125,2.0619537353515627,3.6229614257812495
9.869999999999948,13.496533203125,2.3187072753906253,-0.19559326171875
9.879999999999995,10.130923461914064,1.164288330078125,4.287649536132813
9.889999999999986,6.289938354492188,-1.726544189453125,7.831057739257813
9.899999999999975,4.958468627929688,-1.1147918701171875,4.190301513671876
9.909999999999968,7.453329467773438,0.064300537109375,3.373385620117188
9.91999999999996,10.822677612304688,-1.9859893798828123,5.618521118164063
9.93099999999999,12.409255981445314,-1.5767089843750002,4.184320068359376
9.940999999999974,10.986419677734377,0.3249420166015625,1.5284088134765623
9.950999999999963,7.985379028320313,-0.4047943115234375,4.1110473632812505
9.960999999999956,6.503775024414063,-0.5462554931640625,5.487078857421875
9.970999999999949,6.7817626953125005,1.7664703369140626,3.073715209960938
9.980999999999996,9.529788208007814,1.7015716552734377,3.9292114257812494
9.990999999999984,10.7941162109375,1.078155517578125,5.979800415039063
10.000999999999976,10.70439453125,2.51519775390625,3.0541259765625
10.010999999999967,8.310470581054688,1.6112518310546875,1.6164855957031252
10.020999999999958,3.580343627929688,-0.6793426513671875,4.99749755859375
10.030999999999947,7.380505371093751,-0.29249267578125,4.073214721679688
10.040999999999997,14.80332946777344,1.516595458984375,2.9750213623046875
10.050999999999988,14.968716430664063,-0.17525634765625,5.512948608398438
10.06099999999998,7.4636474609375005,-3.04156494140625,5.217166137695313
10.07099999999997,4.05960693359375,-2.096945190429688,6.228628540039063
10.081999999999994,3.79403076171875,-1.708599853515625,2.91954345703125
10.091999999999992,10.116567993164065,-0.3781768798828125,3.146688842773438
10.101999999999975,14.39360046386719,1.490725708007813,4.178488159179688
10.111999999999966,13.615264892578129,2.0440093994140627,3.454583740234375
10.121999999999955,9.07744140625,0.6122009277343751,3.864312744140625
10.131999999999948,4.3761749267578125,0.5935089111328126,4.394866943359375
10.141999999999996,3.831564331054688,0.5970977783203125,4.425372314453125
10.151999999999989,8.281460571289063,1.50074462890625,2.142254638671876
10.161999999999978,13.6364990234375,2.2940338134765628,4.739099121093751
10.171999999999969,13.482028198242189,1.137371826171875,3.154464721679688
10.183999999999967,9.445748901367187,-0.8508605957031251,4.508065795898438
10.19199999999995,5.3103271484375005,-0.7932891845703126,5.425021362304688
10.202999999999976,4.477261352539063,-1.3166656494140625,4.430606079101563
10.212999999999964,8.769396972656251,-2.131488037109375,4.499392700195313
10.222999999999956,11.878701782226564,-1.302459716796875,3.1670257568359377
10.232999999999947,13.348342895507814,0.5161987304687501,1.5541290283203126
10.242999999999997,9.434533691406251,0.8725433349609376,4.722799682617188
10.252999999999986,6.636563110351563,-0.04844970703125,6.9492431640625005
10.262999999999977,5.101574707031251,0.581097412109375,4.519580078125
10.272999999999968,7.377963256835938,2.152572631835937,4.486831665039063
10.283999999999992,10.607046508789065,1.906884765625,2.9470581054687504
10.29299999999995,12.104202270507812,2.0099151611328128,2.0000457763671875
10.302999999999995,10.93213806152344,1.2142333984375,3.0906127929687504
10.312999999999988,7.921975708007813,-0.8228973388671875,4.997198486328125
10.32299999999998,6.404034423828126,-0.4294677734375,4.988076782226563
10.33299999999997,6.932495117187501,-0.19619140625,3.926519775390626
10.34299999999996,9.273184204101565,-1.5779052734375,5.3835998535156255
10.352999999999952,11.6853515625,-1.795330810546875,5.160043334960938
10.363999999999976,10.172943115234377,-0.399261474609375,2.457177734375
10.373999999999969,5.918490600585938,-0.9175537109375,1.7257965087890623
10.383999999999958,5.378665161132813,-1.7141326904296876,4.502084350585938
10.393999999999949,14.758020019531251,1.5628021240234375,5.942117309570313
10.403999999999996,14.14417419433594,3.4931640625000004,3.82274169921875
10.413999999999987,6.7985107421875,1.681085205078125,4.895962524414063
10.423999999999978,3.6993743896484377,0.6192291259765625,6.465493774414063
10.433999999999967,3.7535064697265614,1.5532318115234376,2.2111907958984376
10.44399999999996,10.634710693359375,1.509716796875,1.33206787109375
10.45399999999995,15.182852172851565,-0.224603271484375,4.749267578125
10.464,13.376156616210938,-0.0478515625,5.09918212890625
10.47399999999999,8.829660034179689,-1.1853729248046876,1.5481475830078126
10.484999999999957,4.00218505859375,-1.7151794433593752,6.957467651367188
10.494999999999948,3.9757171630859376,-2.0951507568359378,7.030142211914063
10.505999999999972,9.118115234375,-1.49715576171875,3.770404052734375
10.514999999999986,13.716799926757814,0.2809783935546875,1.8819122314453127
10.524999999999975,13.087701416015626,1.3130767822265623,1.959371948242188
10.534999999999968,9.659136962890626,1.051239013671875,4.359875488281251
10.54499999999996,5.068826293945313,0.8074951171875001,4.6288909912109375
10.55499999999995,5.09619140625,1.5874755859375,4.725192260742188
10.564999999999998,7.765560913085938,1.838546752929688,4.031045532226563
10.574999999999989,11.552713012695314,1.9035949707031248,4.234713745117188
10.58499999999998,12.432882690429688,1.2867584228515625,1.1758026123046876
10.59499999999997,9.917086791992189,0.121124267578125,5.759832763671875
10.60499999999996,6.887634277343751,-1.819256591796875,6.25479736328125
10.614999999999943,5.660092163085938,-1.2888519287109377,3.1922973632812504
10.625,8.173944091796876,-0.7524658203125001,3.524566650390625
10.635999999999967,10.402182006835938,-2.14913330078125,5.270101928710938
10.644999999999982,12.253738403320314,-0.9760223388671876,3.439630126953125
10.655999999999947,10.12344665527344,0.8391967773437501,2.8727386474609378
10.665999999999997,8.147625732421876,0.1451995849609375,5.10277099609375
10.675999999999988,6.220254516601563,0.095404052734375,5.297018432617188
10.68599999999998,7.154855346679688,2.1083099365234377,3.48897705078125
10.69599999999997,9.364251708984376,1.866061401367188,3.5933532714843754
10.70599999999996,10.839874267578123,1.4845947265625,4.620516967773438
10.715999999999951,9.3884765625,1.904342651367188,1.4778656005859376
10.726,5.185763549804688,0.0225799560546875,1.3995086669921877
10.73599999999999,10.324423217773438,-0.4840484619140625,7.635015869140625
10.74599999999998,14.171389770507814,0.719268798828125,4.942468261718751
10.755999999999972,10.306777954101562,-0.4846466064453125,3.038275146484376
10.765999999999964,4.370941162109375,-3.907977294921875,8.622552490234376
10.775999999999954,4.310079956054688,-2.301510620117188,5.508013916015625
10.787999999999954,9.02958984375,0.503338623046875,0.4451690673828125
10.796999999999969,13.364044189453129,0.1926025390625,0.7734008789062501
10.808,14.423208618164065,1.14425048828125,7.662530517578125
10.81699999999995,8.648422241210938,1.964306640625,2.110552978515625
10.826999999999998,6.146084594726563,1.1964385986328123,4.3308654785156255
10.836999999999987,3.980352783203125,0.410626220703125,5.758486938476563
10.84699999999998,7.304391479492188,1.1744567871093752,5.011404418945313
10.856999999999973,12.041546630859376,2.364614868164063,2.8380462646484377
10.866999999999962,13.038204956054688,1.328179931640625,2.2783325195312503
10.876999999999946,10.628878784179689,-0.4215423583984375,4.399951171875
10.887,6.767855834960938,-1.4534912109375,4.53453369140625
10.897999999999968,5.375973510742188,-1.2487762451171875,4.10386962890625
10.90799999999996,7.309027099609375,-1.3290771484375,4.382754516601563
10.91799999999995,10.935876464843751,-1.5930084228515626,5.1911468505859375
10.927999999999995,12.53052978515625,-0.5914154052734375,2.26756591796875
10.937999999999988,10.134362792968751,0.6344818115234375,3.397311401367188
10.94799999999998,7.423870849609376,0.2307342529296875,6.880157470703126
10.95799999999997,5.463153076171875,0.3892425537109375,5.1268463134765625
10.96799999999996,7.852740478515625,2.112945556640625,2.08812255859375
10.977999999999952,9.66900634765625,1.8956695556640624,4.071420288085938
10.988,11.839822387695314,1.209747314453125,4.234414672851563
10.99799999999999,10.197317504882813,1.905389404296875,1.9586242675781247
11.00799999999998,8.390472412109375,0.761138916015625,4.120916748046875
11.017999999999963,6.985430908203125,-1.4901275634765625,6.208889770507813
11.027999999999963,7.215118408203126,-0.5806488037109375,4.375875854492188
11.037999999999954,9.313409423828126,-0.436944580078125,3.1549133300781254
11.048000000000002,10.465884399414064,-1.9664001464843752,5.666671752929688
11.058,10.735498046875,-1.1879150390625002,4.411016845703125
11.06899999999996,7.929901123046876,-0.2543609619140625,0.7179229736328125
11.07899999999995,3.9568756103515614,-1.67420654296875,3.1145385742187504
11.089,9.508853149414064,-0.838299560546875,7.099227905273438
11.09899999999999,16.295401000976565,3.673056030273438,4.168618774414063
11.10899999999998,12.716851806640626,3.61279296875,4.571469116210938
11.118999999999971,3.96151123046875,0.0524871826171875,6.093447875976563
11.128999999999962,2.96859130859375,0.6305938720703126,5.896209716796875
11.138999999999951,4.516140747070313,1.1281005859375002,-0.137274169921875
11.149,13.511785888671875,1.9574279785156248,0.356793212890625
11.158999999999992,15.980029296875,-0.9045440673828126,3.11693115234375
11.168999999999984,12.26420593261719,-0.34034423828125,9.47760009765625
11.178999999999974,7.177285766601563,-0.8656646728515626,0.9826019287109377
11.188999999999965,2.0126068115234377,-2.661444091796876,9.305633544921877
11.200999999999963,5.007815551757813,-1.87757568359375,5.727084350585938
11.20999999999998,10.581027221679689,-1.1294464111328126,1.6365234375000002
11.21999999999997,15.368127441406251,0.7714569091796876,2.026812744140625
11.22999999999996,12.84635009765625,1.99002685546875,1.70291748046875
11.239999999999943,8.505316162109375,1.2257476806640626,5.041909790039063
11.25,3.1073608398437504,0.5920135498046876,6.267956542968751
11.259999999999993,4.780072021484376,1.6999267578125,5.160491943359375
11.269999999999982,8.62464599609375,2.1932464599609376,4.086822509765625
11.279999999999966,12.687692260742187,1.777835083007813,2.822494506835937
11.289999999999964,13.06766357421875,0.931011962890625,1.1790924072265625
11.301999999999964,9.395803833007813,-0.581695556640625,5.687008666992188
11.309999999999995,5.989071655273438,-2.1856201171875003,6.066680908203125
11.319999999999991,5.3892822265625,-1.3289276123046876,3.01644287109375
11.329999999999991,8.010501098632814,-1.03419189453125,5.450442504882813
11.340999999999951,11.469122314453124,-2.56663818359375,5.598333740234375
11.351,11.658435058593753,-0.2954833984375,3.0544250488281253
11.36099999999999,10.563082885742189,1.347171020507813,2.8186065673828127
11.37099999999998,7.011300659179688,-0.1760040283203125,5.343972778320313
11.380999999999972,6.756491088867188,0.494366455078125,4.279275512695313
11.390999999999964,6.822735595703126,2.462860107421875,2.4435699462890628
11.401999999999989,10.15469970703125,1.815667724609375,4.860073852539063
11.411,10.630822753906251,1.652224731445313,4.513150024414063
11.421,7.79501953125,2.4351959228515625,1.3175628662109375
11.43099999999999,6.302349853515626,0.393878173828125,3.762329101562501
11.440999999999974,12.241925048828126,-0.735418701171875,8.395556640625001
11.450999999999963,12.635205078125,-0.28770751953125,3.525314331054688
11.460999999999956,7.604660034179688,-2.0472991943359378,2.788400268554688
11.47199999999998,5.501882934570313,-3.698626708984375,8.154205322265625
11.481999999999973,6.070718383789063,-1.969241333007813,2.716473388671876
11.491999999999962,10.59254150390625,0.2429962158203125,1.9855407714843751
11.501999999999946,13.127627563476564,0.030206298828125,5.324832153320313
11.512,11.125936889648438,1.454388427734375,6.006118774414063
11.521999999999991,8.637506103515626,2.1401611328125,1.884005737304688
11.531999999999982,5.2041564941406255,1.1116516113281252,3.8276763916015626
11.541999999999971,5.786151123046875,1.3420867919921875,7.264614868164063
11.551999999999964,8.739041137695313,2.2976226806640625,2.0564208984375
11.561999999999957,12.7392822265625,2.049093627929688,2.51220703125
11.571999999999996,11.776718139648438,-0.075067138671875,3.488079833984376
11.581999999999994,9.021813964843751,-0.8380004882812501,5.8894805908203125
11.591999999999992,5.709588623046876,-1.175653076171875,4.069177246093751
11.601999999999975,5.974566650390625,-1.849313354492188,4.49864501953125
11.611999999999966,9.3119140625,-2.0360839843750003,5.033535766601563
11.62299999999999,11.509796142578123,-1.296328735351563,2.959469604492188
11.63299999999998,12.010443115234375,-0.1407135009765625,2.303305053710938
11.642999999999963,8.665020751953126,0.3742889404296875,5.67100830078125
11.652999999999963,6.566729736328125,0.3527557373046875,6.552523803710938
11.662999999999954,6.220852661132813,1.103875732421875,3.645989990234375
11.673000000000002,8.409014892578126,2.363119506835938,3.489276123046875
11.683,10.545886230468753,2.0434112548828125,4.052728271484376
11.69299999999999,10.894903564453124,1.991671752929688,3.001937866210937
11.702999999999976,9.961050415039065,1.475772094726563,2.5328430175781254
11.712999999999964,7.894760131835938,-0.3838592529296875,5.427713012695313
11.722999999999956,7.036721801757813,-0.9745269775390626,5.582632446289063
11.732999999999947,7.763467407226563,-0.6159393310546876,3.273944091796875
11.742999999999997,9.543994140625,-1.457827758789063,5.058956909179688
11.752999999999986,10.719198608398438,-2.324240112304688,5.7003173828125
11.762999999999977,9.952078247070313,-0.8949737548828126,2.818756103515625
11.774,6.964495849609375,-0.1149932861328125,1.85185546875
11.783999999999992,4.0470458984375,-0.7083526611328126,3.738403320312501
11.793999999999984,12.084313964843751,0.593359375,5.8740783691406255
11.803999999999974,15.5421875,3.3796661376953128,4.46275634765625
11.813999999999965,10.697515869140624,3.2160736083984376,5.168417358398438
11.823999999999955,3.5920074462890628,0.2875579833984375,5.390927124023438
11.833999999999946,2.943917846679688,0.644500732421875,5.192941284179688
11.843999999999994,6.7841552734375,0.7268951416015625,1.1460449218750002
11.853999999999992,14.240475463867188,-0.36427001953125,1.421939086914063
11.863999999999976,15.233395385742188,0.0943572998046875,6.567477416992188
11.873999999999969,11.686248779296877,-1.095501708984375,3.105865478515625
11.883999999999958,5.698971557617188,-2.248873901367188,5.83848876953125
11.893999999999949,2.283865356445313,-2.2349670410156253,7.208987426757813
11.904999999999966,5.899649047851563,-1.1174835205078126,4.294827270507813
11.914999999999964,11.841616821289064,0.143255615234375,2.2856597900390625
11.924999999999956,14.742767333984377,1.1309417724609376,2.121917724609375
11.934999999999995,12.639093017578126,1.6564117431640626,2.825186157226563
11.944999999999991,6.63760986328125,1.4171539306640626,5.06748046875
11.954999999999991,3.875827026367188,1.2691131591796876,5.683270263671876
11.964999999999977,4.9399261474609375,1.4665008544921876,4.036578369140625
11.974999999999966,10.056454467773438,1.3963684082031251,4.845867919921876
11.984999999999957,12.701300048828124,0.8305236816406251,1.8180603027343751
11.994999999999948,12.719692993164063,0.99112548828125,3.065939331054688
12.004999999999995,8.322882080078125,-0.8599822998046875,5.8175537109375
12.014999999999986,5.803796386718751,-2.3115295410156254,5.919088745117188
12.024999999999975,5.845516967773438,-1.4240325927734376,3.5854278564453126
12.034999999999968,8.416043090820313,-0.9867889404296876,4.822689819335938
12.04499999999996,11.827859497070314,-1.4222381591796875,4.105215454101563
12.05499999999995,11.843710327148438,0.43126220703125,2.8440277099609377
12.064999999999998,10.00994873046875,1.0814453125,3.676046752929688
12.074999999999989,7.037918090820313,-0.1646392822265625,5.361318969726563
12.085999999999956,5.977856445312501,1.2267944335937502,4.90299072265625
12.095999999999949,7.478152465820313,2.41351318359375,2.9047393798828125
12.105999999999996,9.872824096679688,1.2625335693359376,4.7504638671875
12.115999999999984,11.728717041015626,1.1853729248046876,4.302005004882813
12.125999999999976,8.234207153320312,1.8674072265625,1.3887420654296876
12.135999999999967,4.141253662109375,0.777288818359375,2.8365509033203127
12.145999999999958,11.301043701171876,-0.798223876953125,6.581683349609375
12.155999999999947,13.95695495605469,0.046954345703125,5.165127563476563
12.165999999999997,10.029837036132813,-1.5986907958984375,4.166973876953126
12.175999999999988,5.3227386474609375,-3.5688293457031253,7.237548828125001
12.18599999999998,5.112191772460938,-2.282220458984375,4.659994506835938
12.19599999999997,8.193084716796875,-0.9509002685546876,0.8764312744140625
12.20599999999996,12.88343505859375,0.053533935546875,4.237704467773438
12.216999999999992,12.401181030273438,1.7622833251953127,4.51898193359375
12.226999999999975,10.626336669921876,2.300164794921875,3.507070922851563
12.236999999999966,6.034680175781251,0.8115325927734376,4.415353393554688
12.246999999999955,4.86949462890625,1.3767791748046876,6.791333007812501
12.256999999999948,6.879559326171876,2.654714965820313,3.234616088867188
12.266999999999996,11.041598510742189,1.9257263183593751,2.351754760742188
12.276999999999989,13.032672119140626,0.0898712158203125,3.6527191162109376
12.286999999999978,10.859912109375,-0.708502197265625,3.984390258789063
12.296999999999969,7.165771484375001,-0.9320587158203124,4.4898223876953125
12.30699999999996,5.211782836914063,-1.5634002685546875,4.190151977539063
12.31699999999995,7.278970336914063,-2.1098052978515627,5.599081420898438
12.327999999999976,10.90821228027344,-2.2098449707031254,4.0736633300781255
12.337999999999964,12.0358642578125,-0.5677886962890626,2.425924682617188
12.347999999999956,10.549624633789064,1.01505126953125,3.93758544921875
12.357999999999947,6.882998657226563,0.7544097900390625,6.208590698242188
12.367999999999997,6.532186889648438,0.6051727294921876,5.027554321289063
12.377999999999986,6.880606079101563,1.8706970214843752,3.3687500000000004
12.387999999999977,10.148419189453126,2.65037841796875,3.980950927734375
12.397999999999968,10.81864013671875,2.19219970703125,2.7749420166015626
12.40799999999996,10.62603759765625,1.64071044921875,3.114089965820313
12.41799999999995,8.492306518554688,-0.3141754150390625,4.811026000976563
12.427999999999995,7.15201416015625,-1.221560668945313,5.6277923583984375
12.437999999999988,7.209735107421875,-0.4442718505859375,3.4657989501953126
12.44799999999998,8.950933837890625,-1.0175933837890625,4.16727294921875
12.45799999999997,10.720843505859376,-2.5760589599609376,6.024960327148438
12.46799999999996,10.5751953125,-1.6187286376953127,3.903192138671875
12.478999999999992,9.259426879882811,0.0765625,2.575460815429688
12.488999999999976,5.984884643554688,-0.1239654541015625,3.7819183349609378
12.498999999999969,3.270504760742188,0.0808990478515625,3.373236083984376
12.508999999999958,12.6579345703125,1.284814453125,4.0207275390625
12.518999999999949,16.83118896484375,3.468939208984376,6.978253173828126
12.528999999999996,10.572503662109376,3.176895141601563,4.523617553710938
12.538999999999987,3.18990478515625,0.5371337890625001,3.233718872070313
12.548999999999978,2.607012939453125,0.036785888671875,6.269302368164063
12.558999999999967,6.8131652832031255,-0.3820648193359375,1.4946136474609375
12.56899999999996,15.04617614746094,-0.4182525634765625,1.7263946533203127
12.579999999999991,15.231900024414063,-0.26796875,6.417044067382813
12.589,11.430093383789064,-1.81357421875,4.432699584960938
12.59899999999999,4.829119873046875,-2.1234130859375,5.055966186523438
12.609999999999957,2.017691040039063,-1.4222381591796875,6.571365356445313
12.619999999999948,6.50302734375,-1.1370727539062502,4.298117065429688
12.629999999999995,12.534118652343752,0.7333251953125001,2.1920501708984377
12.639999999999986,15.641778564453126,2.180685424804688,1.5825408935546876
12.649999999999975,11.696267700195314,1.8849029541015627,2.36566162109375
12.659999999999968,6.195281982421876,1.3050018310546876,6.6800781250000005
12.66999999999996,2.564993286132813,1.1122497558593751,5.407376098632813
12.67999999999995,5.277279663085938,1.38709716796875,3.979904174804688
12.689999999999998,10.754190063476564,0.9126190185546876,5.006021118164063
12.701999999999998,13.964132690429688,0.6006866455078126,1.615887451171875
12.70999999999998,12.608587646484375,0.54849853515625,2.272799682617188
12.71999999999997,7.519873046875,-1.7679656982421876,6.867446899414063
12.72999999999996,5.076602172851563,-2.866607666015625,6.184365844726563
12.739999999999943,5.8834991455078125,-1.131988525390625,2.5338897705078125
12.750999999999976,8.972766113281251,-0.5040863037109375,4.665228271484375
12.760999999999967,12.425555419921876,-1.1141937255859375,4.70560302734375
12.770999999999958,11.839074707031251,0.957928466796875,3.6184753417968754
12.780999999999947,9.852935791015623,1.4700897216796875,3.0231719970703126
12.790999999999997,5.822637939453125,0.322100830078125,5.3118225097656255
12.801999999999964,6.168365478515626,1.5152496337890626,4.835549926757813
12.81099999999998,7.173098754882813,2.387643432617188,2.2437896728515625
12.82099999999997,11.449234008789062,1.197186279296875,4.454681396484375
12.83099999999996,11.678472900390624,0.7188201904296876,4.813418579101563
12.840999999999951,9.692034912109376,1.1841766357421877,2.446859741210938
12.851,2.932403564453125,-0.114544677734375,3.2024658203125003
12.86099999999999,5.363711547851563,-0.8649169921875001,4.864260864257813
12.87099999999998,15.776062011718752,-0.2397064208984375,5.737252807617188
12.880999999999972,15.53904724121094,-0.354998779296875,4.043606567382813
12.890999999999964,7.9331909179687505,-2.3640167236328127,5.834152221679688
12.902999999999963,3.2385040283203126,-2.88006591796875,5.886190795898438
12.913999999999987,3.6936920166015614,-1.612896728515625,3.0445556640625
12.921999999999969,9.856674194335938,-0.378326416015625,1.86202392578125
12.93199999999996,14.245559692382814,2.3284271240234378,4.439279174804688
12.94199999999995,14.278607177734376,3.747525024414063,5.023965454101563
12.951999999999998,8.690591430664064,1.1644378662109376,3.216970825195313
12.961999999999987,4.802053833007813,-0.0468048095703125,6.461007690429688
12.97199999999998,2.277734375,0.7880554199218751,4.140954589843751
12.981999999999973,8.347705078125001,1.7075531005859377,1.825686645507813
12.991999999999962,13.1149169921875,1.51151123046875,3.0774536132812504
13.002999999999986,15.47220458984375,-0.86551513671875,3.979754638671875
13.012,10.47889404296875,-1.4796600341796875,4.317257690429688
13.022999999999968,4.652218627929688,-1.2611877441406252,5.3671508789062505
13.03299999999996,3.4363403320312504,-1.5061279296875,6.38878173828125
13.04299999999995,7.101470947265626,-2.086029052734375,4.650424194335938
13.052999999999995,12.1064453125,-1.056024169921875,3.28740234375
13.062999999999988,13.333538818359376,1.16458740234375,1.454837036132813
13.07299999999998,10.986868286132813,2.5189361572265625,4.657452392578126
13.08299999999997,6.877017211914063,1.0315002441406251,5.429058837890626
13.09299999999996,5.055667114257813,0.5866302490234375,4.4958038330078125
13.102999999999952,6.586917114257813,1.9544372558593752,4.41849365234375
13.113,9.255987548828124,1.971185302734375,4.218563842773438
13.12299999999999,12.021957397460938,1.4890808105468751,2.6289947509765628
13.13299999999998,11.573648071289064,0.5359375000000001,3.4901733398437504
13.142999999999963,9.381448364257814,-1.6952911376953126,5.387936401367188
13.152999999999963,6.30264892578125,-1.85185546875,4.611096191406251
13.162999999999954,6.152215576171876,-0.3736907958984375,3.880911254882813
13.173000000000002,8.555560302734376,-1.828228759765625,4.9179443359375
13.183999999999967,10.936773681640624,-2.1576568603515627,5.555267333984375
13.19399999999996,11.344110107421876,0.02452392578125,2.171713256835938
13.20399999999995,5.226287841796875,0.1218719482421875,0.8059997558593751
13.214,7.503424072265625,-0.46116943359375,6.981991577148438
13.22399999999999,14.218045043945311,2.290744018554688,5.6288391113281255
13.23399999999998,12.326412963867188,3.952239990234376,3.989175415039063
13.243999999999971,5.353842163085938,0.69384765625,4.368847656250001
13.253999999999962,4.543505859375,0.9501525878906252,6.8774658203125005
13.263999999999951,5.57171630859375,1.5945037841796876,-0.269464111328125
13.274,11.31390380859375,0.973779296875,1.9584747314453128
13.283999999999992,14.804077148437502,-1.6842254638671876,9.225332641601565
13.293999999999984,11.597723388671875,-0.6944458007812501,2.4944122314453128
13.30499999999995,7.958013916015625,-0.7014739990234375,2.64140625
13.314999999999998,3.5398193359375,-2.5509368896484377,6.419436645507813
13.324999999999989,5.6955322265625,-2.01873779296875,6.926962280273438
13.33499999999998,10.5476806640625,-0.6747070312500001,2.444915771484375
13.34499999999997,13.414736938476564,0.9002075195312501,2.3463714599609378
13.35499999999996,11.973806762695313,2.0136535644531253,4.124505615234376
13.364999999999943,7.539462280273438,1.5279602050781251,3.883154296875
13.375,5.357431030273438,0.7850646972656251,5.461209106445313
13.384999999999993,5.566183471679688,1.2167755126953126,3.565240478515625
13.394999999999982,9.673342895507814,2.2557525634765625,4.228732299804688
13.404999999999966,11.842514038085938,1.3764801025390625,2.328875732421875
13.414999999999964,11.695968627929688,0.3976165771484375,3.340936279296875
13.425999999999988,8.376565551757814,-1.00667724609375,6.775033569335938
13.434999999999995,5.803048706054688,-2.0588134765625004,6.455474853515626
13.444999999999991,6.65555419921875,-1.0244720458984375,2.675650024414063
13.454999999999991,9.212771606445314,-0.9196472167968752,3.948501586914063
13.465999999999951,11.431439208984376,-2.2304809570312503,4.94725341796875
13.476,11.4783935546875,-0.494964599609375,3.049041748046875
13.48599999999999,9.16163024902344,1.4416778564453123,3.069528198242188
13.49599999999998,7.121209716796876,0.19439697265625,5.408123779296876
13.505999999999972,6.281564331054688,0.7120910644531251,5.930154418945313
13.515999999999964,8.3871826171875,2.217620849609375,2.836251831054688
13.525999999999954,9.393112182617188,1.8916320800781248,4.736407470703125
13.536999999999978,11.3276611328125,1.3628723144531252,4.484140014648438
13.546,8.164373779296875,1.327880859375,0.7553070068359375
13.55599999999999,4.936337280273438,-0.2504730224609375,2.26158447265625
13.565999999999974,9.8059814453125,-1.0285095214843751,7.603912353515626
13.575999999999963,14.66276550292969,0.7434936523437501,5.332757568359376
13.585999999999956,10.659234619140626,-1.3627227783203126,3.777731323242188
13.59699999999998,5.497097778320313,-4.510159301757813,7.399496459960938
13.606999999999973,4.531243896484376,-2.046701049804688,4.9290100097656255
13.616999999999962,6.781015014648438,1.1183807373046877,0.133984375
13.626999999999946,12.860406494140626,0.3871490478515625,3.9742218017578126
13.637,14.015423583984376,1.5110626220703125,7.016235351562501
13.646999999999991,10.920773315429688,2.992666625976563,2.569329833984375
13.656999999999982,5.8935180664062505,1.37513427734375,2.875579833984375
13.666999999999971,3.448751831054688,1.1690734863281251,7.473367309570313
13.676999999999964,6.5125976562500005,1.7604888916015626,3.5770538330078128
13.686999999999957,11.572601318359377,0.8599822998046875,1.67958984375
13.696999999999996,14.291317749023438,-0.07357177734375,4.27135009765625
13.706999999999994,10.66192626953125,-0.2881561279296875,3.4315551757812504
13.716999999999992,7.199118041992188,-1.1530731201171875,5.4778076171875005
13.726999999999975,4.278228759765625,-2.680136108398438,5.110696411132813
13.738,6.912008666992188,-1.902099609375,5.193838500976563
13.74799999999999,10.6697021484375,-1.1189788818359376,3.254205322265625
13.75799999999998,12.401480102539065,-0.15791015625,2.4263732910156253
13.767999999999963,11.53506774902344,1.0349395751953123,3.533987426757813
13.777999999999963,7.362710571289063,0.644500732421875,6.307284545898438
13.787999999999954,6.064587402343751,0.4550384521484375,5.8251800537109375
13.798000000000002,5.997894287109375,2.3263336181640626,2.675799560546875
13.808,9.154153442382814,2.6850708007812503,4.625152587890625
13.819999999999991,11.144479370117187,0.9574798583984376,3.762329101562501
13.827999999999976,11.429495239257813,1.1811859130859377,2.764324951171876
13.837999999999964,9.475506591796876,0.5163482666015625,3.514398193359375
13.847999999999956,7.100125122070313,-1.4346496582031252,5.650521850585938
13.857999999999947,6.823931884765625,-1.36317138671875,4.270452880859375
13.867999999999997,7.948742675781251,-1.1022308349609375,4.328921508789063
13.877999999999986,10.326068115234376,-2.2192657470703128,6.062344360351563
13.888999999999951,10.172195434570312,-1.3703491210937502,3.644793701171875
13.899,6.815707397460938,0.0216827392578125,0.53533935546875
13.908999999999992,8.532681274414063,-0.9269744873046876,5.112042236328126
13.91999999999996,12.920520019531253,0.980657958984375,8.086764526367189
13.928999999999974,11.904721069335938,3.475070190429688,3.445611572265625
13.938999999999965,5.22239990234375,1.9788116455078129,2.284014892578125
13.948999999999955,5.438330078125,1.2218597412109375,7.008309936523438
13.958999999999946,5.433993530273438,2.4492523193359377,1.37513427734375
13.968999999999994,11.665463256835938,1.4901275634765625,2.4980010986328125
13.978999999999992,13.571749877929689,-0.9256286621093752,7.16038818359375
13.988999999999976,11.716754150390626,-1.0080230712890623,5.020675659179688
13.998999999999969,7.7794677734375,-1.3543487548828126,1.930361938476563
14.008999999999958,4.4633544921875,-2.505029296875,5.723345947265625
14.019999999999982,5.897854614257813,-2.4968048095703126,6.422128295898438
14.029999999999966,10.3993408203125,-1.1421569824218751,2.227191162109375
14.039999999999964,13.515374755859376,0.1446014404296875,2.8739349365234377
14.049999999999956,11.557049560546876,0.7554565429687501,3.97227783203125
14.059999999999995,7.757785034179688,1.5399230957031251,5.507864379882813
14.069999999999991,4.825381469726563,1.62037353515625,4.46634521484375
14.079999999999991,5.93658447265625,1.867257690429688,3.913360595703125
14.089999999999977,9.760223388671877,2.291342163085938,3.947454833984376
14.099999999999966,11.500674438476564,2.106365966796876,2.6665283203125
14.109999999999957,12.132464599609376,1.38948974609375,2.5159454345703125
14.119999999999948,7.996145629882813,-0.366363525390625,5.816806030273438
14.129999999999995,6.366500854492188,-1.9828491210937504,6.478353881835938
14.140999999999964,6.4602600097656255,-1.795779418945313,3.2598876953125004
14.150999999999954,9.07684326171875,-1.34761962890625,4.728182983398438
14.161,11.250799560546875,-2.2937347412109377,4.942318725585938
14.171,11.2582763671875,-1.0663421630859375,3.658251953125
14.18099999999999,9.344512939453123,0.165386962890625,2.8120269775390625
14.190999999999974,7.230670166015625,-0.1239654541015625,5.185614013671875
14.200999999999963,6.922625732421875,0.8115325927734376,4.914804077148438
14.210999999999956,8.021716308593751,2.5866760253906254,2.617181396484375
14.220999999999949,8.732461547851564,2.5041320800781253,3.894369506835938
14.230999999999996,6.465344238281251,1.848565673828125,2.885000610351563
14.240999999999984,12.535464477539064,3.158651733398438,3.7535064697265614
14.250999999999976,15.069354248046876,2.243939208984376,5.540762329101563
14.260999999999967,8.794369506835938,-2.03070068359375,6.755145263671875
14.270999999999958,2.6835754394531253,-4.002633666992188,5.759982299804688
14.280999999999947,3.5618011474609377,-1.8868469238281247,2.7851104736328125
14.290999999999997,9.504965209960938,-2.374484252929688,3.0852294921875
14.300999999999988,15.487756347656251,-2.424429321289063,2.5177398681640626
14.311999999999957,14.332888793945314,1.4291168212890626,6.028399658203125
14.321999999999996,8.753994750976563,0.520086669921875,4.608255004882813
14.331999999999994,4.421185302734376,-0.5321990966796876,5.663082885742188
14.341999999999992,3.756048583984376,1.3325164794921875,4.38798828125
14.351999999999975,7.019226074218751,1.5029876708984375,1.5828399658203127
14.361999999999966,13.118356323242187,1.9001556396484376,4.726687622070313
14.371999999999955,13.2752197265625,2.0972442626953125,1.3793212890625002
14.381999999999948,11.705239868164064,2.10008544921875,0.6700714111328125
14.391999999999996,5.292681884765625,-0.4326080322265625,9.011495971679688
14.401999999999989,4.2386016845703125,-0.317315673828125,6.694732666015626
14.411999999999978,6.237600708007813,-0.0952545166015625,4.276882934570313
14.421999999999969,11.322576904296875,-3.0173400878906254,5.361318969726563
14.43199999999996,13.643527221679689,-2.4938140869140626,3.045452880859376
14.44299999999999,11.086907958984376,-0.1544708251953125,1.55697021484375
14.451999999999998,7.026702880859376,-0.8175140380859376,6.843670654296876
14.462999999999964,5.0256103515625,-1.445416259765625,6.252853393554688
14.47399999999999,6.598880004882813,1.604373168945313,3.356488037109376
14.482999999999947,9.86744079589844,2.6524719238281254,4.22589111328125
14.492999999999997,11.591293334960938,2.1421051025390625,4.488027954101563
14.502999999999986,10.693328857421877,3.446060180664063,3.08223876953125
14.512999999999977,8.110092163085938,1.8639678955078127,3.791189575195313
14.522999999999968,7.124349975585938,-0.7587463378906251,4.977459716796876
14.53299999999996,6.507662963867188,0.3653167724609375,4.0501861572265625
14.54299999999995,9.481338500976562,-0.067291259765625,3.2936828613281253
14.552999999999995,10.36988220214844,-2.6538177490234376,5.685214233398438
14.562999999999988,10.7055908203125,-2.10726318359375,5.813366699218751
14.57299999999998,7.32607421875,-1.383059692382813,2.2099945068359377
14.583999999999946,3.453237915039063,-1.678094482421875,2.9609649658203128
14.593999999999994,10.98477478027344,-1.2671691894531252,6.0592041015625
14.603999999999992,16.50564880371094,1.6724121093750002,5.124154663085938
14.613999999999976,11.94180603027344,2.5116088867187503,5.429656982421875
14.623999999999969,3.1577545166015626,0.7119415283203125,4.572964477539063
14.633999999999958,2.0755615234375,0.5513397216796876,4.86949462890625
14.643999999999949,5.960061645507813,1.1091094970703126,0.688763427734375
14.653999999999996,13.83194274902344,2.1056182861328128,2.137469482421875
14.663999999999987,15.767089843750002,2.355792236328125,7.115676879882813
14.673999999999978,11.48736572265625,-0.068487548828125,5.83011474609375
14.683999999999967,6.347808837890626,-2.46016845703125,4.232919311523438
14.69399999999996,1.8629211425781247,-2.236163330078125,5.201763916015626
14.70399999999995,5.38330078125,-2.0751129150390626,5.637811279296876
14.714999999999977,11.2367431640625,-2.2802764892578127,2.9196929931640625
14.724999999999966,15.6989013671875,0.066693115234375,2.7725494384765628
14.734999999999957,12.828704833984377,0.951947021484375,2.6390136718750004
14.744999999999948,7.037319946289063,-0.012860107421875,6.204403686523438
14.754999999999995,2.79931640625,0.2785858154296875,6.094046020507813
14.764999999999986,4.433148193359376,0.881964111328125,2.495309448242188
14.774999999999975,10.053314208984377,1.5641479492187502,4.23486328125
14.784999999999968,13.11611328125,2.111749267578125,3.064593505859375
14.79499999999996,13.163815307617188,2.5748626708984377,2.428466796875
14.80499999999995,8.206842041015626,1.9424743652343752,5.767907714843751
14.814999999999998,5.203408813476563,-0.31043701171875,6.344369506835938
14.824999999999989,4.723995971679688,-2.537628173828125,5.3885345458984375
14.83499999999998,8.452230834960938,-0.896917724609375,3.6570556640625
14.84499999999997,12.290673828125,-3.094351196289063,6.100027465820313
14.85499999999996,11.981732177734376,-1.0229766845703123,2.9530395507812504
14.865999999999984,10.054959106445311,0.231182861328125,3.080145263671876
14.875,6.6669189453125,-1.4748748779296876,5.399899291992188
14.885999999999967,5.898153686523438,0.1126007080078125,5.371188354492188
14.895999999999958,7.346112060546876,2.368951416015625,2.1136932373046875
14.905999999999947,7.390673828125,1.8324157714843752,4.12181396484375
14.915999999999997,9.728521728515624,2.18203125,3.995904541015625
14.925999999999988,15.079821777343753,4.328173828125,4.874728393554688
14.93599999999998,12.743469238281252,1.619775390625,5.783908081054688
14.94599999999997,4.035830688476563,-3.24373779296875,5.7421875
14.95599999999996,2.8124755859375004,-1.9133148193359373,4.6475830078125
14.965999999999951,5.7409912109375005,-0.8279815673828126,1.126007080078125
14.976,12.827508544921876,-3.273944091796875,4.450942993164063
14.98599999999999,16.205230712890625,-1.4022003173828126,5.198324584960938
14.99599999999998,11.34366149902344,1.07366943359375,4.908224487304688
15.005999999999972,6.076550292968751,-1.7346191406250002,5.697476196289063
15.016999999999996,3.142352294921875,-0.8979644775390626,5.641848754882813
15.026999999999989,5.490518188476563,1.725048828125,3.542062377929688
15.036999999999978,10.94888610839844,2.195639038085938,2.428765869140625
15.046999999999969,14.146716308593753,2.625106811523437,4.545001220703125
15.05699999999996,12.08790283203125,3.474472045898438,0.526068115234375
15.06699999999995,7.50791015625,0.6521270751953125,5.7912353515625
15.076999999999998,3.890182495117188,-1.1076141357421876,7.777972412109375
15.086999999999987,4.957122802734375,0.3611297607421875,3.7415435791015614
15.09699999999998,10.09488525390625,-0.8457763671875,3.7273376464843753
15.106999999999973,12.697113037109377,-2.9781616210937503,4.802801513671875
15.116999999999962,13.16740417480469,-1.2884033203125,1.454388427734375
15.127999999999986,8.216262817382812,-0.6165374755859375,3.5905120849609378
15.137999999999977,5.462255859375,-2.452691650390625,7.96190185546875
15.147999999999968,5.451937866210938,-1.018341064453125,5.084677124023438
15.15799999999996,8.477651977539063,1.8220977783203127,4.012203979492188
15.16799999999995,11.388671875,1.0878753662109375,4.845718383789063
15.177999999999995,11.613125610351563,2.224200439453125,3.4865844726562503
15.187999999999988,9.2748291015625,3.3521514892578126,2.277883911132813
15.19799999999998,6.957766723632813,0.506329345703125,4.49266357421875
15.20799999999997,6.581683349609375,0.01973876953125,5.19608154296875
15.21799999999996,7.910162353515625,1.654766845703125,3.117080688476563
15.227999999999952,10.174588012695311,-0.1840789794921875,4.786502075195313
15.238,10.933334350585938,-2.22210693359375,6.552374267578125
15.24799999999999,9.482385253906251,-1.1180816650390626,4.162936401367188
15.25799999999998,7.797412109375,-1.6160369873046876,2.980255126953125
15.267999999999963,3.336300659179688,-2.66832275390625,3.366207885742188
15.277999999999963,7.694979858398438,-2.01275634765625,2.9555816650390625
15.287999999999954,16.57144470214844,1.1761016845703125,5.4947052001953125
15.298999999999978,15.964627075195311,2.526113891601563,7.772140502929688
15.308999999999967,6.048886108398438,0.9401336669921876,3.78087158203125
15.32099999999997,1.4316589355468752,-0.19320068359375,5.555715942382813
15.32899999999995,1.6493835449218752,0.0303558349609375,2.233172607421875
15.339,9.906918334960938,1.702618408203125,3.3747314453125004
15.34899999999999,17.740069580078128,2.875729370117188,1.0762115478515626
15.35899999999998,14.789871215820314,2.5863769531250003,6.912158203125
15.368999999999971,9.3920654296875,-1.1789428710937502,4.500738525390625
15.378999999999962,1.8274810791015623,-0.8001678466796875,3.26168212890625
15.388999999999951,3.1239593505859378,-2.421737670898437,6.362313842773438
15.399,7.666867065429688,-4.244732666015626,7.392169189453125
15.408999999999992,15.32386474609375,-0.20875244140625,0.27275390625
15.421,15.6031982421875,0.6467437744140625,1.69693603515625
15.42999999999995,9.695474243164064,0.0632537841796875,2.8084381103515628
15.439999999999998,4.27493896484375,-1.2511688232421876,6.397903442382813
15.449999999999989,2.9053375244140627,0.031103515625,4.642498779296876
15.45999999999998,7.550976562500001,1.326385498046875,4.033587646484375
15.46999999999997,12.284243774414064,2.6140411376953128,4.624105834960938
15.47999999999996,13.826708984375,2.722604370117188,1.8980621337890624
15.489999999999943,11.197415161132811,2.350408935546876,2.7889984130859378
15.5,5.9892211914062505,0.6963897705078126,5.900845336914063
15.509999999999993,4.861419677734375,-0.6796417236328125,3.818405151367188
15.520999999999958,6.030194091796876,-1.1310913085937502,4.6957336425781255
15.529999999999966,11.757278442382812,-2.757894897460938,5.0770507812500005
15.540999999999997,12.92530517578125,-2.2816223144531254,3.3579833984375003
15.549999999999956,11.801242065429689,0.0620574951171875,2.5714233398437503
15.559999999999995,7.795169067382813,-0.5969482421875001,3.9247253417968753
15.57099999999997,5.897705078125,-0.868206787109375,5.812319946289063
15.58099999999996,6.131430053710938,1.0827911376953123,3.642251586914063
15.590999999999951,9.4207763671875,1.7536102294921876,3.6080078125
15.601,11.78165283203125,1.6626922607421877,4.281219482421875
15.61099999999999,11.065972900390626,2.8154663085937504,2.080047607421875
15.62099999999998,6.626992797851563,1.3105346679687502,0.9700408935546876
15.630999999999972,4.980899047851563,-0.9739288330078124,5.058209228515626
15.640999999999964,12.088201904296875,1.146343994140625,6.307284545898438
15.650999999999954,13.383184814453124,1.0234252929687502,3.7078979492187503
15.661,8.951681518554688,-3.09599609375,5.451788330078125
15.671,6.958364868164063,-4.117776489257813,5.864508056640625
15.68099999999999,4.427017211914063,-0.4930206298828125,0.6030792236328125
15.690999999999974,9.31669921875,-0.6062194824218751,2.9004028320312503
15.700999999999963,13.024597167968752,-0.8142242431640626,4.848110961914063
15.710999999999956,13.422961425781253,1.8470703125,4.871289062500001
15.72199999999998,9.383392333984377,1.4494537353515626,2.18980712890625
15.731999999999973,5.538967895507813,0.6252105712890625,5.887686157226563
15.741999999999962,4.137216186523438,1.8741363525390624,5.05731201171875
15.751999999999946,8.480343627929688,1.988232421875,2.1322357177734377
15.762,12.87730407714844,0.7524658203125001,2.778680419921875
15.771999999999991,12.809713745117188,1.3066467285156251,2.540618896484375
15.781999999999982,10.09010009765625,0.4568328857421875,3.57451171875
15.791999999999971,5.8456665039062505,-1.85843505859375,5.236157226562501
15.801999999999964,5.80858154296875,-2.030999755859375,5.734262084960938
15.811999999999957,8.263665771484376,-1.6739074707031252,3.3736846923828128
15.821999999999996,11.2965576171875,-1.6510284423828123,3.6839721679687503
15.831999999999994,12.04468688964844,-0.4773193359375,1.832565307617188
15.84299999999996,10.031332397460938,0.2588470458984375,3.515744018554688
15.852999999999952,7.743728637695313,-0.5745178222656251,5.694784545898438
15.863,6.276031494140626,0.393280029296875,3.9209869384765614
15.87299999999999,7.721447753906251,2.6134429931640626,3.686663818359375
15.88299999999998,9.695623779296875,1.854248046875,4.7570434570312505
15.892999999999963,11.175732421875,1.1650360107421875,3.627447509765626
15.902999999999963,10.218402099609376,1.8723419189453123,2.0809448242187503
15.912999999999954,8.589654541015626,0.409130859375,4.419839477539063
15.923000000000002,7.614080810546875,-1.0515380859375,4.007717895507813
15.933,7.476507568359375,-0.3581390380859375,3.2583923339843754
15.94299999999999,9.836785888671876,-1.5221282958984377,4.373333740234376
15.952999999999976,10.255636596679688,-2.294183349609375,5.113836669921875
15.962999999999964,10.605551147460938,-0.4245330810546875,3.169268798828125
15.972999999999956,8.837286376953125,-0.460870361328125,2.9201416015625004
15.982999999999947,7.514340209960938,-1.3099365234375,5.269055175781251
15.993999999999971,4.153366088867188,-0.4661041259765625,2.1077117919921875
16.003999999999962,7.935882568359376,1.7908447265625,1.97567138671875
16.013999999999953,18.45694580078125,2.560507202148438,6.697125244140626
16.024,14.22671813964844,3.089715576171875,4.524664306640625
16.033999999999992,4.596292114257813,0.4203460693359375,3.4136108398437504
16.043999999999983,1.6157379150390627,-1.2015228271484375,6.721051025390626
16.053999999999974,4.104766845703125,0.6510803222656251,3.7744415283203128
16.063999999999965,12.706085205078129,0.96480712890625,-1.3806671142578126
16.073999999999955,17.032913208007812,-1.26328125,2.494711303710938
16.083999999999946,13.553057861328126,-1.5512878417968752,8.420529174804688
16.093999999999994,6.8678955078125,-0.8199066162109375,1.9765686035156247
16.103999999999992,2.704510498046876,-0.892431640625,6.145635986328125
16.113999999999976,3.805694580078125,-2.0798980712890627,6.15311279296875
16.125,11.543292236328126,-0.708203125,3.0062744140625
16.13499999999999,14.368927001953129,1.687066650390625,0.5100677490234375
16.144999999999982,13.6759765625,2.4667480468750003,1.3773773193359375
16.154999999999966,8.198168945312501,1.3884429931640625,5.160043334960938
16.164999999999964,4.069775390625001,0.3721954345703125,6.009857177734375
16.174999999999955,4.614984130859376,0.19140625,4.383502197265625
16.184999999999995,8.75025634765625,1.018341064453125,4.229928588867188
16.194999999999993,13.017718505859376,1.012060546875,2.924179077148437
16.20499999999999,13.109683227539064,0.419598388671875,-0.0231781005859375
16.214999999999975,9.996041870117187,-0.7270446777343751,5.191445922851563
16.224999999999966,5.776730346679688,-2.455682373046875,6.600823974609376
16.234999999999957,5.1503234863281255,-1.208251953125,3.706402587890625
16.244999999999948,8.302545166015626,-0.0291595458984375,3.3777221679687504
16.255999999999972,11.388223266601564,-1.3244415283203126,5.04833984375
16.264999999999986,12.868780517578124,-0.4302154541015625,3.33345947265625
16.275999999999954,9.904974365234375,1.6570098876953123,2.279229736328125
16.286,7.7432800292968755,0.8240936279296875,4.147833251953125
16.296,5.729327392578125,-0.0049346923828125,4.928262329101563
16.30599999999999,7.674942016601563,1.5551757812500002,3.267364501953125
16.315999999999974,9.931591796875,1.1880645751953125,3.11094970703125
16.325999999999965,11.665911865234376,0.8179626464843751,5.269354248046875
16.335999999999956,10.630523681640623,1.0543792724609375,2.550189208984375
16.345999999999947,7.879806518554688,-0.1867706298828125,2.8571868896484376
16.355999999999995,2.73651123046875,-1.9315582275390624,4.701116943359375
16.365999999999985,6.892269897460938,-1.3878448486328123,3.327777099609375
16.375999999999976,17.826651000976565,2.0257659912109376,3.826629638671875
16.385999999999967,15.62637634277344,-0.0091217041015625,4.883251953125001
16.395999999999958,6.8026977539062505,-3.262130737304688,5.44371337890625
16.40599999999995,2.126852416992188,-2.675650024414063,6.404034423828126
16.415999999999997,2.3729888916015627,0.7195678710937501,1.2012237548828126
16.426999999999964,11.4903564453125,0.6720153808593751,1.2415985107421876
16.437999999999988,16.427142333984378,2.457028198242188,3.9845397949218753
16.446999999999996,14.558987426757811,2.799765014648438,5.039218139648438
16.456999999999994,7.9182373046875005,0.463861083984375,3.551931762695313
16.46699999999999,2.5325439453125003,0.20157470703125,6.477755737304688
16.476999999999975,2.9370391845703128,0.8701507568359376,3.5685302734375
16.486999999999966,10.04568786621094,-0.5087219238281251,2.366259765625
16.496999999999957,15.252835083007811,-0.7995697021484376,3.062948608398438
16.506999999999948,14.304626464843752,0.3162689208984375,1.9984008789062504
16.516999999999996,9.636257934570311,-0.4768707275390625,4.096392822265625
16.526999999999987,3.2818695068359376,-1.822695922851563,6.581085205078126
16.537999999999954,4.442269897460938,-1.5493438720703123,5.200567626953125
16.54699999999997,8.126391601562501,-0.5073760986328125,2.9250762939453128
16.558,13.80323181152344,0.0414215087890625,2.9038421630859377
16.56799999999999,13.547674560546875,1.4651550292968751,0.264678955078125
16.577999999999975,10.079333496093753,2.2222564697265628,4.364361572265626
16.587999999999965,5.53941650390625,-0.5209838867187501,6.713125610351563
16.597999999999956,4.631283569335938,0.1117034912109375,4.918093872070313
16.607999999999947,7.258334350585938,2.023672485351563,3.669915771484375
16.617999999999995,11.401980590820314,0.406439208984375,3.5613525390625003
16.627999999999986,12.88328552246094,0.0019439697265625,3.161941528320313
16.637999999999977,11.0214111328125,0.5570220947265625,2.237509155273438
16.647999999999968,7.782009887695313,-1.232177734375,4.404138183593751
16.65799999999996,6.176739501953126,-1.648187255859375,4.6942382812500005
