time,ax,ay,az
0.0,9.477301025390624,-0.1831817626953125,3.208148193359375
0.0099999999999909,9.4303466796875,0.1806396484375,6.751406860351563
0.0199999999999818,7.764364624023438,1.0292572021484376,2.4253265380859377
0.0310000000000059,7.593594360351563,-0.1577606201171875,8.905923461914064
0.0399999999999636,8.2029541015625,-0.7200164794921875,3.2132324218750004
0.0499999999999545,9.780111694335938,-0.441729736328125,2.230181884765625
0.0600000000000022,10.760769653320311,-1.1180816650390626,2.8678039550781254
0.0699999999999931,9.219201660156251,-0.14893798828125,2.545553588867188
0.079999999999984,8.884689331054688,0.4230377197265625,4.067083740234375
0.0899999999999749,8.542401123046876,-0.4245330810546875,5.6636810302734375
0.0999999999999659,9.347802734375,0.3653167724609375,4.529299926757813
0.1099999999999568,8.965139770507813,1.4626129150390623,2.6565093994140625
0.1209999999999809,9.718801879882813,0.8973663330078125,2.7970733642578125
0.1309999999999718,9.166265869140624,0.280230712890625,3.63253173828125
0.1409999999999627,9.400738525390626,0.602032470703125,3.0234710693359377
0.1509999999999536,9.44410400390625,0.7044647216796875,2.1872650146484376
0.1610000000000013,9.499880981445314,-0.2465850830078125,3.7774322509765614
0.1709999999999922,8.653955078125001,-1.26387939453125,5.271746826171875
0.1809999999999831,8.609991455078125,-1.5029876708984375,4.993011474609375
0.190999999999974,8.283404541015626,-0.9177032470703126,4.89342041015625
0.2009999999999578,8.524606323242189,-0.148638916015625,4.42327880859375
0.2109999999999559,9.153256225585938,-0.0083740234375,3.997698974609375
0.2210000000000036,9.70594177246094,0.1155914306640625,3.085678100585938
0.2309999999999945,9.812710571289063,0.4773193359375,2.78795166015625
0.2409999999999925,8.888278198242189,1.0439117431640623,3.3657592773437504
0.2509999999999834,8.551821899414064,1.5466522216796876,3.634625244140625
0.2620000000000004,8.206393432617189,0.9651062011718752,3.9292114257812494
0.2719999999999913,7.427011108398438,-0.46116943359375,4.594497680664063
0.2819999999999822,9.189892578125,-0.6793426513671875,5.073013305664063
0.2919999999999731,10.201803588867188,0.6637908935546876,4.401296997070313
0.3019999999999641,8.788687133789063,0.2836700439453125,4.464849853515625
0.3119999999999621,9.371878051757813,-1.335208129882813,4.012203979492188
0.3220000000000027,10.32218017578125,-0.8988616943359375,2.8854492187500003
0.3319999999999936,8.6384033203125,-0.21234130859375,1.5613067626953123
0.3419999999999845,9.158639526367187,-1.06768798828125,5.363412475585938
0.3519999999999754,9.1264892578125,-0.6911560058593751,5.64349365234375
0.3619999999999663,8.859567260742189,0.5793029785156251,2.8150177001953125
0.3719999999999572,9.618014526367189,0.03050537109375,3.607110595703125
0.382000000000005,8.834295654296875,-0.6660339355468751,5.183221435546876
0.3919999999999959,9.152209472656253,0.6779968261718751,2.6499298095703128
0.4029999999999631,9.229071044921875,1.6858703613281252,1.1100067138671876
0.4139999999999944,9.261968994140624,0.4975067138671875,3.662738037109375
0.4230000000000018,9.173892211914064,-0.4152618408203125,4.518832397460938
0.4329999999999927,9.133966064453126,0.7301849365234375,4.0651397705078125
0.4429999999999836,8.720648193359375,0.8110839843750001,3.983343505859376
0.4529999999999745,8.758331298828125,-0.0351409912109375,4.72354736328125
0.4629999999999583,8.979943847656251,-0.0889739990234375,4.155758666992188
0.4729999999999563,9.339129638671876,-0.3034088134765625,3.191400146484375
0.4830000000000041,9.498086547851564,-0.5040863037109375,3.447406005859375
0.4929999999999879,9.332550048828123,-0.066693115234375,3.3062438964843754
0.502999999999993,9.483731079101563,0.28770751953125,2.7483245849609377
0.5139999999999532,9.051422119140623,0.046954345703125,3.789993286132813
0.5229999999999677,8.972915649414062,0.0261688232421875,4.995703125
0.5339999999999918,8.855230712890625,0.8803192138671876,4.006521606445313
0.5430000000000064,8.704946899414063,1.3737884521484376,3.600082397460938
0.5539999999999736,8.827117919921875,0.7218109130859376,3.7632263183593753
0.5639999999999645,9.301596069335938,-0.1440032958984375,4.22349853515625
0.5739999999999625,9.09119873046875,-0.35111083984375,3.670513916015625
0.5840000000000032,8.991009521484376,-0.33914794921875,3.3647125244140628
0.5939999999999941,8.908615112304688,-0.8511596679687501,4.101626586914063
0.6039999999999921,8.440267944335938,-1.4312103271484375,4.167123413085938
0.613999999999983,7.945751953125001,-1.3387969970703126,4.1668243408203125
0.6239999999999668,8.633468627929688,-0.5899200439453125,4.838839721679688
0.6339999999999577,9.991107177734376,0.1484893798828125,5.051779174804688
0.6440000000000055,9.857870483398438,-0.031402587890625,2.8435791015625003
0.6539999999999964,10.31485290527344,-0.22430419921875,2.4144104003906253
0.6639999999999944,9.180621337890626,1.0850341796875,3.8693969726562494
0.6739999999999782,7.306335449218751,2.6225646972656254,3.742141723632813
0.6839999999999691,8.273236083984376,2.268463134765625,5.452984619140626
0.6949999999999932,9.610089111328126,0.406439208984375,5.106509399414063
0.7049999999999841,10.26101989746094,-0.212939453125,3.0804443359375004
0.714999999999975,9.410906982421876,0.4529449462890625,3.007919311523437
0.7249999999999659,9.001925659179689,0.2534637451171875,2.7018188476562504
0.7349999999999568,8.4996337890625,-0.81885986328125,2.7013702392578125
0.7450000000000045,9.689492797851564,-1.873089599609375,3.635223388671875
0.7549999999999883,9.175985717773438,-1.4234344482421877,5.23197021484375
0.7649999999999935,8.898446655273439,0.5682373046875,4.706051635742188
0.7749999999999844,8.5845703125,1.2353179931640623,3.516940307617188
0.7849999999999682,8.672647094726564,-0.1239654541015625,3.7457305908203127
0.7949999999999591,9.318792724609375,-0.7095489501953125,4.237405395507813
0.8059999999999832,8.97037353515625,1.0175933837890625,2.943768310546876
0.8159999999999741,9.189593505859376,2.193844604492188,2.7988677978515626
0.8259999999999579,9.253594970703126,0.7292877197265626,4.0591583251953125
0.8359999999999559,9.200210571289062,-0.6627441406250001,5.087368774414063
0.8460000000000036,8.878259277343751,-0.4726837158203125,3.8940704345703128
0.8559999999999945,8.689843750000001,0.012860107421875,3.6003814697265626
0.8659999999999926,9.0331787109375,-0.1371246337890625,3.539669799804688
0.8759999999999835,9.710577392578124,-1.090118408203125,3.5274078369140627
0.8859999999999673,10.00635986328125,-1.6205230712890626,3.677392578125
0.8959999999999582,9.505114746093753,-0.8883941650390625,3.4919677734375
0.906000000000006,9.4375244140625,0.112451171875,2.912664794921876
0.9159999999999968,8.896054077148438,0.1806396484375,2.792587280273437
0.9259999999999948,8.971121215820313,-0.303857421875,4.242788696289063
0.9359999999999786,8.740536499023438,0.0204864501953125,4.660443115234376
0.9459999999999696,8.540606689453126,1.0798004150390623,4.779025268554688
0.9559999999999604,8.656198120117189,1.642803955078125,4.1010284423828125
0.9660000000000082,8.739190673828126,1.3888916015625,4.247872924804688
0.9769999999999754,8.9685791015625,0.8719451904296875,4.150225830078125
0.9869999999999663,9.091497802734375,0.461767578125,3.281570434570313
0.9969999999999573,9.503170776367188,0.302960205078125,2.648284912109375
1.007000000000005,8.964990234375001,0.11424560546875,2.9753204345703126
1.016999999999996,8.6802734375,-0.8275329589843751,3.896014404296875
1.026999999999994,8.025006103515626,-2.014401245117188,4.397857666015625
1.0369999999999848,9.396701049804689,-1.6505798339843751,5.338739013671876
1.0469999999999686,9.395654296875,0.30924072265625,3.9712310791015626
1.0569999999999595,9.02301025390625,1.5110626220703125,3.958670043945313
1.0670000000000073,8.446548461914062,0.9203948974609376,5.445657348632813
1.0769999999999982,9.593191528320313,-0.1197784423828125,4.693341064453126
1.086999999999989,10.222589111328126,-0.6844268798828126,2.824737548828125
1.09699999999998,10.431939697265626,0.1338348388671875,1.36197509765625
1.106999999999971,9.095684814453126,1.2143829345703123,2.2364624023437503
1.117999999999988,8.575747680664064,0.4936187744140625,3.475518798828125
1.127999999999993,9.32806396484375,-0.8477203369140626,5.11832275390625
1.137999999999984,8.799005126953126,-0.514404296875,5.343823242187501
1.1479999999999675,8.853436279296876,0.7849151611328126,5.025311279296876
1.1579999999999586,8.4781005859375,0.925927734375,3.5453521728515627
1.1680000000000064,8.774331665039064,-0.325689697265625,3.0891174316406254
1.1779999999999973,9.494497680664065,-1.202569580078125,2.843280029296875
1.1879999999999882,9.49375,-0.169873046875,2.4980010986328125
1.197999999999979,9.46668395996094,1.33804931640625,2.426971435546875
1.20799999999997,8.91773681640625,1.0850341796875,3.971530151367188
1.217999999999961,8.157644653320313,-0.484197998046875,6.190646362304688
1.2279999999999518,8.30164794921875,-1.0353881835937502,6.073410034179688
1.2379999999999995,8.369686889648438,0.118133544921875,5.197576904296875
1.2479999999999905,8.960354614257813,0.5984436035156251,3.625054931640625
1.2579999999999814,9.991555786132814,-0.384906005859375,2.238555908203125
1.2679999999999725,9.888824462890623,-1.26806640625,2.251116943359375
1.2789999999999964,9.631622314453123,-1.21602783203125,2.9741241455078127
1.2889999999999944,8.868988037109375,0.168975830078125,3.203662109375
1.2989999999999782,8.604458618164063,1.0277618408203126,4.128244018554688
1.308999999999969,8.91474609375,-0.041571044921875,5.431301879882813
1.31899999999996,9.184808349609376,-0.432159423828125,5.599380493164063
1.3290000000000075,9.22877197265625,0.8904876708984376,2.9321044921875004
1.3389999999999986,9.085665893554689,1.8488647460937504,1.2849639892578126
1.3489999999999895,8.030538940429688,1.4805572509765623,2.538226318359375
1.3589999999999804,8.317349243164063,1.0442108154296876,3.9665954589843753
1.3689999999999714,10.88922119140625,0.436346435546875,5.1791839599609375
1.3789999999999625,10.122998046875,-0.5745178222656251,5.022021484375
1.3889999999999532,8.480493164062501,-0.98035888671875,4.220059204101563
1.399000000000001,6.515139770507813,-0.9996490478515626,4.265219116210938
1.4099999999999682,8.055960083007813,-1.4593231201171877,4.815213012695313
1.4189999999999827,11.245266723632811,-1.8662109375,3.729730224609375
1.4300000000000068,11.862103271484376,-1.1300445556640626,2.7179687500000003
1.4399999999999975,10.412799072265626,-0.2788848876953125,3.075360107421876
1.4499999999999886,7.336990356445313,0.6074157714843751,3.755599975585938
1.4599999999999795,6.784005737304688,1.7918914794921876,4.6573028564453125
1.4699999999999704,8.487222290039064,1.5122589111328126,4.176394653320313
1.4799999999999611,10.458706665039063,1.2622344970703123,4.248171997070313
1.4899999999999525,10.556204223632813,1.5687835693359375,3.7774322509765614
1.5,9.343615722656253,1.1002868652343751,2.8411865234375
1.509999999999991,7.682418823242188,0.4448699951171875,3.373385620117188
1.5199999999999818,7.765411376953126,-0.6280517578125,3.181381225585938
1.5319999999999825,9.1552001953125,-1.4144622802734377,3.486135864257813
1.5409999999999968,10.213018798828124,-1.0146026611328125,3.840536499023438
1.5509999999999948,10.418032836914064,-0.4873382568359375,3.2577941894531253
1.5609999999999786,9.058450317382814,-0.682781982421875,4.6308349609375
1.5709999999999695,7.79561767578125,-1.4772674560546877,5.6756439208984375
1.5809999999999604,7.571313476562499,-0.6290985107421876,4.520028686523438
1.5910000000000082,8.441165161132814,1.188812255859375,3.810031127929688
1.600999999999999,10.280459594726564,1.5571197509765626,2.720211791992188
1.61099999999999,10.72413330078125,1.418948364257813,2.9923675537109378
1.620999999999981,9.438421630859375,1.1328857421875,3.2331207275390628
1.632000000000005,8.335293579101563,0.5176940917968751,4.197628784179688
1.6409999999999627,7.243530273437501,0.7408020019531251,4.2623779296875
1.6509999999999536,8.289236450195313,0.4637115478515625,3.860125732421875
1.6610000000000014,9.903927612304688,-0.8055511474609376,4.457373046875
1.6709999999999925,9.789382934570312,-1.0914642333984377,3.8131713867187504
1.6809999999999832,9.412551879882812,-0.9688446044921876,2.4861877441406253
1.690999999999974,7.303344726562501,-1.526614379882813,3.025714111328125
1.7019999999999982,6.901690673828125,-2.28192138671875,4.114187622070313
1.711999999999989,12.77158203125,-1.1871673583984377,4.18760986328125
1.72199999999998,14.462237548828126,1.4466125488281252,3.3751800537109378
1.731999999999971,8.637655639648438,1.61678466796875,3.260186767578125
1.7419999999999618,3.4768646240234378,-0.0581695556640625,7.255493164062501
1.7519999999999527,4.995404052734376,-0.03768310546875,6.176141357421876
1.7620000000000005,10.326666259765624,2.2203125000000004,2.741595458984375
1.7719999999999914,13.74939880371094,2.7881011962890625,2.051486206054688
1.7819999999999825,11.463888549804688,1.4973052978515626,3.662887573242188
1.7919999999999732,8.675338745117188,-0.1565643310546875,2.208648681640625
1.801999999999964,5.241241455078125,-0.1419097900390625,2.327230834960938
1.811999999999962,7.532733154296875,-0.9999481201171876,5.5320892333984375
1.822999999999979,10.576989746093751,-1.80220947265625,5.602520751953126
1.83299999999997,11.558245849609376,-0.7732513427734375,5.094845581054688
1.842999999999961,10.218551635742188,-0.587078857421875,3.708346557617188
1.852999999999952,8.050277709960938,-1.0851837158203126,3.8610229492187504
1.8629999999999995,6.747219848632813,-0.3306243896484375,3.0696777343750004
1.8729999999999905,8.451034545898438,0.07357177734375,1.4347991943359375
1.8829999999999807,9.930993652343751,0.9452178955078124,3.184072875976563
1.8929999999999725,11.494094848632812,1.5035858154296875,3.157156372070313
1.9029999999999632,9.936676025390623,1.7317779541015623,3.384152221679688
1.912999999999954,7.645034790039063,0.7319793701171875,6.216815185546875
1.9230000000000016,6.343621826171876,-0.2534637451171875,6.227880859375
1.9329999999999927,7.360617065429688,0.455487060546875,3.791937255859376
1.942999999999984,10.006658935546875,0.1245635986328125,2.38958740234375
1.9529999999999743,11.51248779296875,-1.1545684814453123,3.3490112304687503
1.9629999999999583,11.003765869140626,-0.9030487060546876,2.893972778320313
1.9729999999999563,8.902484130859376,-0.42767333984375,2.5623016357421875
1.9839999999999804,7.3703369140625,-0.6735107421875001,4.7809692382812505
1.993999999999972,7.345364379882813,-1.0771087646484376,5.318551635742188
2.0039999999999623,8.994747924804688,-0.1661346435546875,4.978506469726563
2.013999999999953,10.0954833984375,0.75186767578125,4.138711547851563
2.024000000000001,9.94654541015625,1.3224975585937502,3.034536743164063
2.033999999999992,9.17254638671875,1.40264892578125,1.965802001953125
2.0439999999999827,6.084176635742188,0.8312713623046876,1.911370849609375
2.0539999999999736,6.525009155273438,1.1989807128906251,4.01414794921875
2.0639999999999645,11.1386474609375,1.9804565429687504,4.784259033203125
2.0739999999999625,14.318084716796877,0.6902587890625,5.134472656250001
2.084000000000003,10.689440917968753,-2.36326904296875,4.876821899414063
2.093999999999994,5.654559326171875,-2.7136322021484376,5.103518676757813
2.103999999999992,4.818353271484376,-1.2003265380859376,4.873233032226563
2.1149999999999523,9.630575561523438,-1.3963684082031251,1.4167053222656252
2.125,13.052410888671876,-0.6270050048828125,2.564993286132813
2.134999999999991,12.935772705078126,-0.145648193359375,4.889382934570313
2.144999999999982,8.606253051757813,0.7751953125000001,3.9314544677734378
2.1549999999999727,5.077947998046875,1.880416870117188,3.5441558837890628
2.164999999999964,5.7960205078125,2.039373779296876,5.0710693359375005
2.1749999999999545,9.643884277343751,0.442626953125,3.904986572265625
2.1850000000000023,12.571652221679688,0.1347320556640625,3.292037963867188
2.194999999999993,11.71585693359375,1.5243713378906252,2.656658935546876
2.204999999999984,8.467633056640626,1.2771881103515623,2.080197143554688
2.214999999999975,6.195880126953125,-0.895123291015625,4.016690063476563
2.224999999999966,6.411959838867188,-2.172161865234376,5.358926391601563
2.234999999999957,9.841271972656251,-1.97806396484375,4.046298217773438
2.2450000000000045,11.131918334960938,-0.5824432373046875,3.6907012939453128
2.2549999999999883,11.159133911132812,0.7734008789062501,2.626901245117188
2.264999999999993,9.101068115234376,-0.5921630859375,4.396511840820313
2.2759999999999536,7.0763488769531255,-1.0352386474609376,6.0599517822265625
2.2860000000000014,6.895111083984376,0.3572418212890625,3.259738159179688
2.2959999999999923,9.163873291015626,2.4325042724609376,2.5415161132812503
2.305999999999983,10.447491455078126,1.40264892578125,3.4177978515625003
2.315999999999974,11.221041870117189,0.3264373779296875,3.51888427734375
2.325999999999958,9.171200561523438,0.7373626708984375,3.9082763671875
2.335999999999956,7.353439331054688,0.7961303710937501,4.2266387939453125
2.346000000000004,7.626342773437501,-0.021832275390625,3.9072296142578127
2.3559999999999945,8.747415161132814,-0.9141143798828124,4.164431762695313
2.365999999999993,10.129129028320314,-1.917501831054688,3.9613616943359378
2.3759999999999835,10.43702392578125,-1.012359619140625,3.5523803710937503
2.3870000000000005,8.849249267578125,0.1435546875,2.4770660400390625
2.396999999999992,7.268502807617188,-1.173260498046875,3.189157104492188
2.4069999999999823,7.2447265625,-1.819705200195313,6.111093139648438
2.416999999999973,10.481585693359376,-0.572125244140625,4.290939331054688
2.426999999999964,13.154693603515629,2.909075927734375,1.8692016601562504
2.436999999999962,9.005215454101563,2.4609161376953126,2.505328369140625
2.4470000000000027,5.6707092285156255,1.3242919921875,7.377066040039063
2.4569999999999936,7.392617797851563,0.7152313232421875,6.114532470703125
2.4669999999999845,9.630426025390626,0.6587066650390625,1.7817230224609375
2.4769999999999754,11.770138549804688,0.802410888671875,2.3305206298828125
2.4869999999999663,10.744769287109376,-0.636724853515625,3.708795166015625
2.4969999999999573,8.888876342773438,-2.02232666015625,3.691748046875
2.507000000000005,7.575500488281251,-1.639813232421875,3.142352294921875
2.516999999999996,8.030538940429688,-1.0513885498046875,5.036227416992188
2.526999999999994,9.303689575195314,-0.461767578125,5.036376953125
2.537999999999954,10.517474365234376,0.30086669921875,3.535931396484376
2.548000000000002,9.797158813476564,0.7499237060546875,4.058261108398438
2.5579999999999927,8.645730590820314,0.9051422119140624,3.26646728515625
2.567999999999984,7.961303710937501,1.53603515625,2.3580352783203127
2.5779999999999745,7.984481811523438,1.4485565185546876,2.5913116455078127
2.5879999999999583,9.745269775390623,0.224603271484375,3.5781005859375004
2.5979999999999563,10.071109008789064,0.508123779296875,4.010409545898438
2.608000000000004,9.714465332031253,0.34871826171875,3.7757873535156254
2.617999999999988,8.352191162109376,-1.0823425292968751,4.934542846679688
2.627999999999993,7.842721557617188,-1.4315093994140626,6.011053466796875
2.637999999999984,8.134317016601564,-1.3245910644531251,3.78984375
2.647999999999968,9.694277954101564,-0.8540008544921875,3.342431640625
2.6579999999999586,10.196868896484377,-0.5316009521484375,3.3962646484375
2.6680000000000064,10.351339721679688,-0.01734619140625,2.213433837890625
2.6779999999999973,9.244024658203124,0.56165771484375,3.0147979736328128
2.687999999999988,7.718307495117188,0.5124603271484376,4.385446166992188
2.6989999999999625,8.281161499023439,0.8870483398437501,5.260531616210938
2.709000000000003,8.3584716796875,1.57491455078125,4.172955322265626
2.718999999999994,9.460104370117188,1.25311279296875,3.6563079833984378
2.728999999999992,9.72268981933594,0.69324951171875,3.4945098876953127
2.738999999999983,7.596884155273438,0.7393066406250001,2.673406982421876
2.748999999999967,6.709686279296876,0.7668212890625,2.339791870117188
2.7589999999999577,10.8252197265625,0.350213623046875,5.067330932617188
2.769000000000005,12.759170532226564,-0.9435729980468752,4.805343627929688
2.7789999999999964,11.1003662109375,-2.5356842041015626,3.020330810546876
2.7889999999999944,7.148574829101563,-2.876177978515625,4.6667236328125
2.798999999999978,4.9339447021484375,-2.089617919921875,6.551925659179688
2.808999999999969,8.989364624023438,-0.7678680419921876,4.138562011718751
2.81899999999996,12.16910095214844,0.96719970703125,1.9800079345703123
2.829000000000008,12.401480102539065,0.9452178955078124,3.434097290039063
2.839999999999975,9.390420532226564,1.114044189453125,3.6720092773437503
2.849999999999966,5.753701782226563,2.261285400390625,3.045004272460938
2.859999999999957,6.848156738281251,2.318408203125,3.728533935546875
2.8700000000000045,8.960504150390626,1.0074249267578126,4.185067749023438
2.8799999999999883,11.21221923828125,0.256903076171875,4.568328857421875
2.889999999999993,11.4114013671875,-0.141162109375,3.1338287353515626
2.8999999999999844,8.907568359375,-0.48509521484375,3.653018188476562
2.909999999999968,7.102517700195313,-1.1554656982421876,3.6766448974609376
2.919999999999959,7.093096923828125,-1.9385864257812504,3.2076995849609378
2.930000000000007,9.144583129882813,-1.9644561767578128,4.08951416015625
2.9399999999999977,11.257379150390626,-1.0874267578125,3.147286987304688
2.9499999999999886,11.0190185546875,0.9846954345703126,2.978460693359376
2.9599999999999795,8.723638916015625,1.13348388671875,4.519131469726563
2.9699999999999704,7.42117919921875,-0.232977294921875,5.978753662109376
2.9809999999999945,6.852044677734376,0.7141845703125,5.360421752929688
2.990999999999993,8.506661987304689,2.241696166992188,2.806793212890625
3.0009999999999835,10.878903198242188,1.7503204345703127,1.8391448974609377
3.010999999999968,10.773779296875,1.247430419921875,2.639761352539063
3.020999999999958,9.734503173828124,-0.2483795166015625,3.33944091796875
3.0319999999999823,8.261273193359376,-0.7104461669921875,4.4681396484375
3.040999999999997,6.8370910644531255,-0.4179534912109375,4.754650878906251
3.050999999999995,8.407968139648439,-1.0424163818359375,4.377072143554688
3.060999999999978,10.125540161132813,-1.8659118652343751,4.12420654296875
3.070999999999969,10.248907470703124,-1.7225067138671877,3.6407562255859376
3.0809999999999604,9.198117065429688,-0.569732666015625,2.9244781494140626
3.091000000000008,6.003427124023438,-0.0124114990234375,2.917599487304688
3.100999999999999,9.084469604492188,0.06998291015625,5.160342407226563
3.11099999999999,12.241775512695312,1.1774475097656252,3.759487915039063
3.120999999999981,11.421270751953124,2.621966552734375,1.3873962402343751
3.1329999999999814,7.471871948242188,2.331866455078125,4.3368469238281255
3.141999999999996,5.922378540039063,0.4140655517578125,7.536770629882813
3.151999999999994,7.362860107421875,-0.0109161376953125,5.956173706054688
3.161999999999985,11.501870727539064,0.6377716064453125,1.6608978271484376
3.1719999999999686,12.1315673828125,-0.1619476318359375,2.642303466796875
3.1819999999999595,9.875067138671875,-1.6794403076171875,3.081341552734376
3.192000000000008,8.481689453125,-1.469342041015625,2.5219268798828125
3.201999999999998,7.38529052734375,-1.2439910888671877,3.6458404541015614
3.211999999999989,8.409164428710938,-1.3051513671875,5.852545166015625
3.22199999999998,9.954620361328123,-0.0070281982421875,5.246774291992188
3.233000000000004,9.876113891601562,1.3298248291015626,3.447406005859375
3.241999999999962,9.743923950195311,0.7624847412109376,4.145590209960938
3.2519999999999527,8.381201171875,0.8342620849609376,2.854644775390625
3.262999999999984,7.746719360351563,1.729534912109375,1.549493408203125
3.272999999999968,8.5594482421875,0.9760223388671876,2.501290893554688
3.2829999999999586,9.888226318359376,0.3194091796875,4.035382080078126
3.2930000000000064,10.24561767578125,0.6072662353515625,3.410919189453125
3.3029999999999973,9.570013427734375,-0.284417724609375,4.5257110595703125
3.312999999999988,8.01453857421875,-1.3546478271484377,6.591552734375001
3.322999999999979,7.219155883789063,-1.2927398681640625,5.5320892333984375
3.33299999999997,8.594888305664064,-1.0614074707031251,3.416900634765625
3.342999999999961,9.7521484375,-1.0165466308593751,2.9609649658203128
3.352999999999952,11.358914184570311,-0.3201568603515625,1.7272918701171875
3.3629999999999995,10.015032958984376,0.7261474609375,1.9471099853515623
3.3729999999999905,8.671899414062501,0.411224365234375,4.028353881835938
3.3829999999999814,7.780364990234376,0.3877471923828125,5.59384765625
3.3929999999999723,7.630978393554688,1.4651550292968751,5.097088623046876
3.402999999999963,8.558551025390626,1.329226684570313,4.149627685546875
3.4139999999999944,9.758428955078124,1.0196868896484377,3.96151123046875
3.423999999999978,9.728970336914063,0.9090301513671876,2.2590423583984376
3.433999999999969,7.836441040039063,0.71717529296875,1.768414306640625
3.44399999999996,6.868493652343751,1.124810791015625,2.704061889648438
3.454000000000008,9.919778442382814,0.4942169189453125,5.0401153564453125
3.463999999999998,13.5025146484375,-1.232177734375,5.679531860351563
3.473999999999989,11.00989685058594,-2.5847320556640625,3.5993347167968754
3.4839999999999804,6.182720947265626,-2.2566497802734378,4.4195404052734375
3.493999999999972,5.014395141601563,-1.8922302246093752,6.440371704101563
3.5039999999999623,9.763812255859376,-1.9076324462890624,4.6332275390625
3.513999999999953,13.051962280273438,-0.5570220947265625,1.53304443359375
3.524000000000001,12.666607666015626,1.1849243164062502,2.321099853515625
3.533999999999992,8.249459838867189,1.41162109375,4.550384521484375
3.5439999999999827,6.652713012695313,1.3444793701171875,3.1936431884765626
3.555000000000007,5.884396362304688,1.978662109375,4.080841064453125
3.5649999999999977,8.621954345703125,1.7266937255859376,4.74747314453125
3.5749999999999886,11.927749633789062,0.613995361328125,4.019381713867188
3.5849999999999795,11.202200317382813,1.1962890625,2.4549346923828126
3.5949999999999704,9.2915771484375,-0.149835205078125,3.1912506103515628
3.604999999999961,7.041058349609376,-1.376031494140625,4.244134521484376
3.614999999999952,6.493756103515626,-1.5167449951171876,3.1789886474609377
3.625,9.106301879882814,-2.0918609619140627,3.7576934814453127
3.634999999999991,11.126535034179687,-1.2451873779296876,4.057214355468751
3.644999999999982,10.982681274414062,0.813177490234375,3.173904418945313
3.6549999999999727,9.478945922851564,0.386102294921875,4.427615356445313
3.664999999999964,7.203454589843751,-0.5455078125,6.576449584960938
3.6749999999999545,6.630880737304688,0.665435791015625,4.26895751953125
3.6850000000000014,8.658740234375001,2.0577667236328128,2.2170227050781253
3.6959999999999695,10.808322143554689,1.3127777099609377,2.08453369140625
3.70599999999996,10.860659790039064,1.5577178955078126,2.793783569335938
3.716000000000008,10.199411010742187,0.478515625,3.5797454833984377
3.725999999999999,7.416094970703125,-0.2767913818359375,4.875027465820313
3.73599999999999,7.343121337890626,-0.60831298828125,5.382254028320313
3.745999999999981,7.7914306640625,-0.666632080078125,4.1873107910156255
3.755999999999972,9.780261230468753,-1.4264251708984377,3.873883056640625
3.7659999999999614,10.646673583984375,-1.5758117675781251,3.397161865234376
3.7759999999999536,10.091146850585938,-0.400457763671875,2.14434814453125
3.786999999999985,7.619165039062499,-0.3775787353515625,2.1199737548828126
3.795999999999992,5.639904785156251,-0.3847564697265625,4.428662109375001
3.805999999999983,9.340924072265626,0.6465942382812501,5.486630249023438
3.815999999999974,14.147613525390629,2.167227172851563,4.422381591796875
3.825999999999958,11.810064697265624,3.2939819335937504,2.4547851562500003
3.836999999999989,5.026806640625001,1.0612579345703126,4.421484375
3.84699999999998,4.2934814453125005,-0.6657348632812501,7.870535278320313
3.856999999999971,8.608346557617189,-0.757550048828125,2.9440673828125004
3.866999999999962,13.943347167968753,-0.045458984375,0.8453277587890625
3.8769999999999527,13.417727661132814,-0.453094482421875,4.2599853515625
3.887000000000001,9.012542724609377,-1.605419921875,4.350454711914063
3.896999999999992,5.878863525390625,-1.2912445068359375,3.0387237548828128
3.9069999999999823,5.9132568359375,-1.29617919921875,4.6822753906250005
3.916999999999973,9.252996826171875,-1.5491943359375002,5.799160766601563
3.926999999999964,12.065173339843753,1.0144531250000002,2.582937622070313
3.936999999999962,12.12738037109375,2.1920501708984377,2.258444213867188
3.9470000000000014,8.316152954101563,1.39786376953125,4.750314331054688
3.9569999999999936,7.068124389648438,0.2298370361328125,4.007269287109375
3.967999999999961,5.637811279296876,1.7963775634765626,2.4758697509765626
3.977999999999952,8.712573242187501,0.5157501220703126,3.1611938476562504
3.988,11.438616943359376,0.094805908203125,3.693841552734375
3.9979999999999913,11.922216796875,0.5441619873046876,2.128497314453125
4.007999999999981,9.654650878906253,-0.7750457763671875,3.997848510742188
4.017999999999972,6.512896728515625,-1.4615661621093752,7.664923095703125
4.027999999999963,5.812319946289063,-1.18612060546875,5.236456298828125
4.037999999999954,8.956765747070314,-1.1490356445312502,2.9783111572265626
4.0499999999999545,10.610934448242189,-0.7911956787109375,3.931005859375
4.057999999999993,12.311160278320314,-0.1670318603515625,1.6733093261718752
4.067999999999984,10.560540771484376,1.2320281982421877,1.887445068359375
4.077999999999975,7.0258056640625,1.0937072753906252,4.2146759033203125
4.087999999999958,7.071414184570313,0.1538726806640625,5.301953125000001
4.097999999999956,7.5757995605468755,1.4053405761718751,4.459616088867188
4.1089999999999804,9.267202758789065,1.2822723388671875,4.202114868164063
4.117999999999988,10.95008239746094,0.5935089111328126,4.420437622070313
4.128999999999962,9.789382934570312,0.7883544921875001,3.04156494140625
4.138999999999953,8.28729248046875,-0.2014251708984375,1.7112915039062502
4.149999999999984,5.535528564453125,-0.042767333984375,2.8682525634765628
4.158999999999992,6.912905883789063,1.1817840576171876,3.450546264648438
4.168999999999983,12.8445556640625,0.292791748046875,4.049139404296875
4.178999999999974,15.05155944824219,-1.2054107666015623,5.625250244140625
4.1889999999999645,9.536517333984376,-1.9853912353515624,5.43115234375
4.1989999999999625,3.9329498291015614,-2.099337768554688,5.6632324218750005
4.209000000000003,4.94366455078125,-1.2712066650390623,5.67998046875
4.218999999999994,10.327264404296876,-1.375732421875,1.8838562011718751
4.228999999999992,14.922360229492188,-0.43604736328125,0.7289886474609375
4.238999999999983,11.917282104492188,2.1130950927734378,3.3729370117187503
4.25,8.647225952148439,0.8704498291015625,4.793829345703125
4.258999999999958,4.888336181640625,1.10836181640625,4.264620971679688
4.269999999999982,5.445507812500001,1.477716064453125,5.741888427734375
4.279999999999973,9.028543090820314,1.1354278564453126,3.839190673828125
4.289999999999964,12.610531616210938,0.5476013183593751,2.9036926269531254
4.2999999999999545,12.214709472656253,0.0539825439453125,3.456228637695313
4.310000000000002,9.422869873046876,-0.43963623046875,1.19449462890625
4.319999999999993,6.218161010742188,-0.3602325439453125,3.650924682617188
4.329999999999984,5.733514404296876,-1.7111419677734376,5.267559814453126
4.339999999999975,9.261819458007814,-2.095599365234375,4.240994262695313
4.349999999999966,11.39749450683594,-0.29967041015625,3.642251586914063
4.359999999999957,11.590396118164064,0.9701904296875,3.2263916015625003
4.3700000000000045,9.007907104492189,0.7200164794921875,4.699472045898438
4.379999999999988,6.818698120117188,0.2732025146484375,5.29178466796875
4.3899999999999935,6.853689575195313,0.1801910400390625,4.2001708984375
4.399999999999984,8.55645751953125,1.3688537597656252,3.0698272705078127
4.411000000000001,10.8060791015625,1.969091796875,1.7015716552734377
4.420999999999992,11.5238525390625,0.8934783935546876,2.5984893798828126
4.430999999999983,9.6050048828125,-0.312530517578125,4.8820556640625
4.440999999999974,7.652212524414063,-0.55447998046875,4.81865234375
4.450999999999958,6.857577514648438,-0.3409423828125,4.689901733398438
4.460999999999956,7.969378662109375,-0.7319793701171875,4.305593872070313
4.471000000000004,10.174288940429689,-1.3519561767578123,3.4613128662109376
4.4809999999999945,10.993447875976564,-1.068585205078125,2.699575805664063
4.4909999999999926,9.3968505859375,-0.4622161865234375,2.3819610595703127
4.500999999999984,6.826025390625,-0.165087890625,3.2449340820312504
4.510999999999967,6.436782836914063,0.2636322021484375,5.176641845703125
4.520999999999958,12.372769165039063,0.9855926513671877,5.515640258789063
4.531000000000006,12.637747192382813,2.355343627929688,2.6704162597656254
4.540999999999997,8.00855712890625,2.1355255126953128,3.2343170166015627
4.551999999999964,5.1966796875000005,-0.4541412353515625,6.416445922851563
4.561999999999962,7.073358154296876,-0.46475830078125,5.163482666015625
4.572000000000003,11.166012573242188,0.8163177490234376,1.838546752929688
4.581999999999994,13.17398376464844,-0.181536865234375,3.351852416992188
4.5919999999999845,10.300347900390626,-1.41162109375,4.70799560546875
4.601999999999975,7.639501953125,-1.1807373046875,2.6535186767578125
4.611999999999966,6.961953735351563,-1.1641387939453125,3.6587005615234376
4.621999999999957,8.020370483398438,-1.304254150390625,5.401693725585938
4.632000000000005,10.551867675781253,0.1634429931640625,4.275387573242188
4.641999999999996,10.814303588867189,1.7383575439453127,2.5452545166015628
4.651999999999994,9.62818298339844,1.0697814941406252,4.2580413818359375
4.661999999999985,8.08033447265625,0.5423675537109376,4.239947509765625
4.671999999999969,7.059152221679688,1.4090789794921876,2.651873779296875
4.68199999999996,8.068670654296875,0.8843566894531251,2.832513427734375
4.692000000000007,10.1576904296875,0.1502838134765625,3.3149169921875004
4.702999999999975,10.810714721679688,0.54132080078125,2.998199462890625
4.712999999999958,9.86160888671875,-0.386102294921875,3.32030029296875
4.722999999999956,8.283853149414064,-1.5038848876953126,6.094793701171875
4.733000000000004,6.6705078125,-1.2278411865234375,6.027203369140626
4.742999999999988,8.331854248046875,-0.8436828613281251,3.910519409179688
4.752999999999993,9.568817138671877,-0.7270446777343751,3.807339477539063
4.762999999999984,11.029486083984375,-0.339447021484375,3.120071411132813
4.772999999999968,10.478594970703126,0.7177734375,1.5133056640625
4.782999999999959,8.612234497070313,1.0144531250000002,2.905636596679688
4.793000000000006,7.796066284179688,0.408233642578125,4.554721069335938
4.802999999999997,8.056707763671875,1.0059295654296876,5.248419189453125
4.812999999999988,8.765359497070314,1.386199951171875,4.4090728759765625
4.8239999999999625,9.600070190429689,0.8662628173828125,4.322640991210938
4.83299999999997,9.79461669921875,0.37623291015625,4.2052551269531255
4.843999999999994,8.472119140625,-0.0626556396484375,2.144796752929688
4.853999999999992,8.009753417968751,-0.117236328125,2.01156005859375
4.863999999999983,6.3585754394531255,0.3593353271484375,3.3318145751953128
4.873999999999967,9.235501098632811,0.4448699951171875,3.719711303710938
4.883999999999958,13.907608032226564,-0.4725341796875,4.0841308593750005
4.8940000000000055,12.173138427734376,-1.5188385009765626,5.7122802734375
4.903999999999996,7.109695434570313,-2.031298828125,6.111093139648438
4.913999999999994,4.4255218505859375,-1.8053497314453129,5.690747070312501
4.923999999999978,8.023211669921876,-0.7597930908203125,3.54161376953125
4.933999999999969,12.111978149414064,0.9674987792968752,1.4472106933593751
4.94399999999996,12.716552734375002,1.5669891357421877,3.0459014892578127
4.954000000000008,10.6385986328125,0.8825622558593751,2.93868408203125
4.963999999999999,7.387832641601563,0.8542999267578125,3.790591430664063
4.974999999999966,5.702261352539063,0.9108245849609377,5.007965087890625
4.984999999999957,7.0329833984375005,0.5064788818359376,5.027853393554688
4.9950000000000045,10.72278747558594,-0.1568634033203125,4.4537841796875
5.004999999999988,11.577536010742188,-0.0862823486328125,3.581689453125
5.0149999999999935,10.984475708007814,-0.1054229736328125,2.3176605224609377
5.024999999999984,8.130130004882814,-0.3910369873046875,1.9698394775390624
5.034999999999968,6.687255859375001,-1.151727294921875,4.4669433593750005
5.044999999999959,7.700363159179688,-1.4711364746093751,4.028204345703125
5.055000000000007,9.663323974609376,0.0895721435546875,3.768011474609376
5.064999999999998,11.016925048828126,1.0666412353515626,3.3868438720703127
5.074999999999989,10.357620239257812,0.9319091796875,4.207498168945313
5.08499999999998,7.846011352539063,0.542816162109375,5.566033935546876
5.09499999999997,7.064834594726563,0.1185821533203125,5.156005859375
5.104999999999961,7.996594238281251,0.690557861328125,3.480154418945313
5.114999999999952,9.446347045898438,1.3247406005859377,1.8866973876953128
5.125999999999984,11.384484863281251,0.5641998291015625,2.0188873291015628
5.135999999999967,10.232608032226564,-0.3766815185546875,3.710739135742188
5.145999999999958,8.7771728515625,-0.7070068359375,4.935140991210938
5.156000000000006,7.551126098632813,-0.6208740234375001,4.745379638671875
5.165999999999997,7.670455932617188,-0.4773193359375,4.7504638671875
5.175999999999995,8.9255126953125,-0.8586364746093751,4.156954956054688
5.185999999999979,10.315899658203126,-0.6452484130859375,3.4644531250000004
5.1959999999999695,10.030435180664064,0.0321502685546875,2.726492309570313
5.20599999999996,9.124395751953124,0.4804595947265625,2.0543273925781254
5.216000000000008,6.823483276367188,0.337353515625,3.3579833984375003
5.225999999999999,5.9276123046875,0.05562744140625,4.91734619140625
5.23599999999999,11.977096557617188,1.1430541992187502,5.157800292968751
5.245999999999981,13.37271728515625,2.9756195068359377,3.215475463867188
5.255999999999972,9.414047241210938,2.071673583984375,2.9297119140625
5.266999999999996,5.34442138671875,-1.3097869873046877,6.633572387695313
5.276999999999994,5.382852172851563,-1.6722625732421876,6.192440795898438
5.286999999999985,11.239285278320311,-1.251318359375,1.8053497314453129
5.296999999999969,13.33623046875,-0.38580322265625,2.063449096679688
5.30699999999996,11.251248168945311,-1.10537109375,4.789193725585938
5.317000000000007,8.349200439453126,-1.6540191650390623,3.181231689453125
5.326999999999998,6.0704193115234375,-0.6412109375,3.5749603271484376
5.336999999999989,6.958514404296875,0.1353302001953125,5.653811645507813
5.34699999999998,10.009051513671876,1.1503814697265626,4.171609497070313
5.356999999999971,11.504263305664065,2.4565795898437504,3.0423126220703125
5.366999999999962,10.551867675781253,1.6472900390625,3.1175292968750004
5.376999999999953,8.694180297851563,0.69803466796875,3.934744262695313
5.3870000000000005,6.102868652343751,1.3690032958984375,2.992218017578125
5.396999999999991,7.669110107421876,0.404046630859375,2.60791015625
5.406999999999982,9.651809692382812,-0.9465637207031252,4.133029174804688
5.418000000000006,11.35083923339844,-0.79971923828125,3.890631103515626
5.427999999999997,10.743423461914062,-0.85654296875,2.742791748046875
5.437999999999988,8.293124389648439,-1.4602203369140625,5.789889526367188
5.447999999999979,6.702059936523438,-1.7103942871093751,6.032586669921876
5.45799999999997,7.5040222167968755,-0.9449188232421876,3.617578125
5.467999999999961,9.376663208007812,0.08912353515625,3.3412353515625
5.477999999999952,11.2223876953125,0.4508514404296875,3.33226318359375
5.488,11.26126708984375,1.5880737304687502,2.1126464843750004
5.497999999999991,8.412753295898439,2.033990478515625,2.76522216796875
5.507999999999981,7.730569458007813,0.5807983398437501,5.022769165039063
5.517999999999972,7.051077270507813,0.9082824707031252,4.9514404296875005
5.527999999999963,8.570364379882813,1.4563323974609377,3.777731323242188
5.537999999999954,10.32158203125,0.3449798583984375,3.9052856445312494
5.548000000000002,10.2940673828125,-0.5405731201171875,4.044204711914063
5.558999999999969,8.760424804687501,-0.6447998046875001,2.464654541015625
5.56899999999996,6.122607421875,-0.3817657470703125,2.256051635742188
5.579000000000008,6.478054809570313,-0.32060546875,3.9757171630859376
5.588999999999999,13.271182250976564,-0.751568603515625,4.9648986816406255
5.5989999999999895,14.606988525390626,-1.094903564453125,4.643695068359375
5.6089999999999804,8.814556884765626,-1.1542694091796877,4.341033935546875
5.618999999999971,4.184619140625,-0.8200561523437501,6.00596923828125
5.628999999999962,4.820895385742188,0.072674560546875,4.37662353515625
5.638999999999953,10.934530639648438,0.9371429443359376,1.9140625
5.650999999999954,14.08256530761719,1.7136840820312502,3.07506103515625
5.658999999999992,11.84610290527344,1.3055999755859375,3.9920166015625
5.668999999999983,7.982238769531251,0.58319091796875,3.638961791992188
5.678999999999974,5.1862121582031255,0.1030303955078125,3.359030151367188
5.6889999999999645,6.131130981445313,-0.1739105224609375,5.893069458007813
5.699999999999989,10.440313720703124,-1.14066162109375,3.7790771484375
5.70999999999998,12.687094116210938,-0.1718170166015625,3.1866149902343754
5.71999999999997,11.521759033203123,0.1945465087890625,2.979656982421876
5.729999999999961,8.553317260742189,-1.07008056640625,2.862570190429688
5.739999999999952,5.606857299804688,-0.9200958251953124,5.192791748046876
5.751999999999953,6.601422119140626,-0.567938232421875,3.4737243652343754
5.759999999999991,9.641940307617189,0.268865966796875,3.4394805908203128
5.769999999999982,11.633163452148438,1.5512878417968752,2.9727783203125
5.779999999999973,11.653500366210938,1.7597412109375,2.170068359375
5.789999999999964,8.339630126953125,0.7068572998046876,5.543902587890625
5.7999999999999545,6.182272338867188,-0.055926513671875,6.641348266601563
5.810000000000002,6.452035522460938,0.6477905273437501,3.853247070312501
5.819999999999993,9.103610229492189,1.0582672119140626,3.0744628906250004
5.829999999999984,11.449084472656253,-0.62506103515625,2.8239898681640625
5.841000000000008,11.860159301757813,-0.7565032958984376,2.5153472900390628
5.850999999999999,9.307876586914062,-0.460272216796875,3.38131103515625
5.86099999999999,7.341177368164063,-1.1780456542968751,4.7051544189453125
5.870999999999981,7.210632324218751,-0.796429443359375,4.7136779785156255
5.880999999999972,8.112335205078125,-0.2093505859375,4.27972412109375
5.890999999999963,10.386331176757814,-0.49945068359375,4.670462036132813
5.900999999999954,10.3323486328125,0.4272247314453125,3.3759277343750003
5.911000000000001,9.439019775390626,1.3728912353515623,1.9387359619140627
5.920999999999992,7.020272827148438,0.288006591796875,2.584283447265625
5.930999999999983,5.668765258789063,-0.14534912109375,4.748220825195313
5.940999999999974,11.03875732421875,1.260589599609375,4.448849487304688
5.950999999999958,13.877102661132811,2.243490600585938,2.7483245849609377
5.960999999999956,10.260272216796876,1.0217803955078126,3.4180969238281254
5.971000000000004,5.391973876953125,-1.3337127685546877,6.625347900390626
5.9809999999999945,5.362664794921876,-1.8377990722656248,6.961355590820313
5.9909999999999926,9.419729614257813,-1.0448089599609376,2.9202911376953127
6.001999999999953,13.356866455078126,0.3720458984375,2.1032257080078125
6.0120000000000005,11.929693603515624,-0.5680877685546876,4.049588012695313
6.021999999999991,9.364849853515626,-1.2251495361328126,2.7779327392578126
6.031999999999982,6.591552734375001,0.401654052734375,2.20894775390625
6.041999999999973,6.456072998046875,0.7539611816406251,5.06448974609375
6.051999999999964,9.434832763671876,0.41092529296875,5.549136352539063
6.061999999999962,11.031280517578123,1.6166351318359375,3.5514831542968754
6.072000000000003,10.450183105468753,1.891781616210937,4.034036254882813
6.081999999999994,8.949288940429689,0.4373931884765625,3.76292724609375
6.0919999999999845,6.916494750976563,0.4577301025390625,2.844625854492188
6.101999999999975,7.522714233398438,-0.0677398681640625,2.3127258300781253
6.111999999999966,9.63894958496094,-1.5819427490234377,3.404489135742188
6.122999999999991,10.821481323242187,-0.5537322998046875,3.6129425048828128
6.132999999999981,10.727423095703124,-0.1164886474609375,2.266070556640625
6.142999999999972,8.765957641601563,-1.53543701171875,5.857180786132813
6.152999999999963,6.759033203125001,-1.5068756103515626,7.485928344726563
6.162999999999954,7.387832641601563,-0.16807861328125,4.150076293945313
6.173000000000002,8.783154296875,0.92353515625,3.422882080078125
6.182999999999993,10.960101318359376,0.403448486328125,3.0527801513671875
6.192999999999984,11.40467224121094,1.1101562500000002,1.0539306640625
6.202999999999975,9.09718017578125,1.89432373046875,2.4009521484375003
6.212999999999958,7.809225463867188,0.548797607421875,4.503878784179688
6.222999999999956,7.550079345703126,0.8027099609375,5.335000610351563
6.233000000000004,8.125494384765625,0.7430450439453126,4.667770385742188
6.242999999999988,9.647622680664064,-0.7227081298828125,5.111444091796876
6.252999999999993,10.241131591796876,-0.6987823486328125,4.209442138671875
6.262999999999984,9.065029907226563,-0.1577606201171875,1.6979827880859375
6.274000000000001,8.315704345703125,-0.8563934326171876,1.5496429443359376
6.283999999999992,5.239297485351563,-0.3222503662109375,2.7291839599609378
6.293999999999983,8.838333129882812,0.681585693359375,3.7318237304687503
6.303999999999974,15.007894897460938,0.3194091796875,6.164776611328126
6.315999999999974,13.396792602539064,-0.0426177978515625,6.381304931640625
6.3239999999999625,6.759780883789063,-1.350161743164063,4.314266967773438
6.334000000000003,2.556021118164063,-1.1650360107421875,5.486480712890625
6.343999999999994,6.460708618164063,0.1861724853515625,3.7979187011718754
6.353999999999992,13.38468017578125,1.027313232421875,-0.0145050048828125
6.363999999999983,15.01567077636719,1.6508789062500002,3.5591094970703128
6.373999999999967,10.660729980468751,0.0011962890625,4.722650146484376
6.383999999999958,6.640750122070313,-0.0300567626953125,3.546249389648438
6.3940000000000055,3.4133117675781253,0.5468536376953126,4.725341796875
6.403999999999996,6.9387756347656255,-0.7322784423828126,5.343524169921875
6.413999999999994,12.180316162109376,-1.3510589599609375,3.8595275878906254
6.4249999999999545,13.40382080078125,0.5327972412109375,3.0559204101562503
6.435000000000002,11.270837402343751,1.0020416259765623,1.2445892333984376
6.444999999999993,6.815557861328125,-0.17884521484375,3.498098754882813
6.454999999999984,4.968487548828126,-0.8978149414062501,5.651568603515625
6.464999999999975,7.203454589843751,-0.8372528076171876,3.1942413330078128
6.474999999999966,10.186849975585938,1.0328460693359376,3.540716552734376
6.484999999999957,12.432733154296876,1.9127166748046875,2.928216552734375
6.4950000000000045,11.180368041992187,1.0382293701171876,2.9887786865234376
6.504999999999988,7.786346435546876,-0.44442138671875,6.477606201171875
6.5149999999999935,5.800955200195313,-1.00308837890625,5.9922119140625005
6.524999999999984,6.7662109375,0.53175048828125,2.8375976562500003
6.534999999999968,9.65166015625,0.8208038330078126,2.215078735351563
6.544999999999959,12.53995056152344,-0.9332550048828124,2.5198333740234378
6.555999999999983,11.502020263671875,-0.62745361328125,3.540118408203125
6.565999999999974,8.816201782226564,0.0889739990234375,4.333258056640625
6.575999999999958,6.593197631835938,-0.326287841796875,4.631881713867188
6.585999999999956,6.5090087890625,-0.2142852783203125,5.074957275390625
6.596000000000004,8.799005126953126,-0.2615386962890625,4.1608428955078125
6.606999999999971,10.94410095214844,0.01495361328125,3.333908081054688
6.6159999999999926,10.9544189453125,1.2721038818359376,2.6298919677734376
6.625999999999984,9.425860595703126,1.0842864990234375,1.8956695556640624
6.635999999999967,6.758883666992188,-0.6065185546875,2.991769409179688
6.645999999999958,4.703659057617188,-1.053033447265625,5.250811767578125
6.656000000000006,9.61636962890625,-0.0587677001953125,4.759735107421875
6.668000000000006,15.105691528320314,1.940380859375,3.6631866455078126
6.675999999999995,12.667654418945313,2.475570678710937,3.229681396484376
6.686999999999962,5.671456909179688,-1.1608489990234376,5.309429931640626
6.6959999999999695,2.9271697998046875,-1.4980529785156251,7.101022338867188
6.706999999999994,8.637506103515626,-1.059613037109375,3.4598175048828126
6.7169999999999845,13.9499267578125,-0.4533935546875,0.007476806640625
6.726999999999975,13.206134033203126,0.5740692138671876,5.272195434570313
6.736999999999966,9.81360778808594,-0.796429443359375,3.709991455078125
6.746999999999957,5.863610839843751,0.1571624755859375,2.1930969238281253
6.757000000000005,5.101574707031251,0.7161285400390626,5.195782470703126
6.767999999999972,9.190640258789063,-0.023626708984375,5.321542358398438
6.776999999999994,11.541497802734376,1.3494140625000002,3.273794555664063
6.786999999999985,12.108239746093751,1.863668823242188,3.271102905273438
6.796999999999969,9.027496337890623,0.4607208251953125,3.529351806640625
6.80699999999996,6.760379028320313,0.1769012451171875,3.803152465820313
6.817000000000007,6.521420288085938,-0.3677093505859375,2.695089721679688
6.826999999999998,8.771939086914063,-1.2969268798828126,3.3330108642578127
6.836999999999989,11.088702392578126,-0.5139556884765626,3.773095703125
6.847999999999956,11.815447998046876,0.070281982421875,1.88236083984375
6.858000000000004,9.359317016601564,-1.0833892822265625,4.764370727539063
6.867999999999988,6.946102905273438,-1.475772094726563,7.314859008789063
6.877999999999993,6.328070068359375,-0.179144287109375,4.9459075927734375
6.887999999999984,8.1239990234375,0.9730316162109376,2.8093353271484376
6.897999999999968,10.95008239746094,0.5296569824218751,3.458023071289063
6.907999999999959,11.839971923828124,0.6458465576171876,2.19578857421875
6.918000000000006,10.113128662109377,1.52825927734375,1.917352294921875
6.927999999999997,7.693035888671876,1.3305725097656251,3.935491943359376
6.937999999999988,6.707443237304688,0.0557769775390625,5.131930541992188
6.947999999999979,8.078091430664063,0.1317413330078125,4.904635620117188
6.95799999999997,9.635211181640626,-0.2893524169921875,4.416400146484375
6.967999999999961,10.552615356445314,-0.354400634765625,4.0247650146484375
6.978999999999992,9.973312377929688,-0.074169921875,2.978610229492188
6.988999999999983,8.15809326171875,-0.7268951416015625,1.8069946289062504
6.998999999999967,6.04783935546875,-0.6234161376953126,2.9125152587890626
7.008999999999958,7.136911010742188,0.49945068359375,4.51658935546875
7.0190000000000055,12.755731201171876,0.813177490234375,4.007269287109375
7.028999999999996,14.43128356933594,0.5707794189453126,4.60032958984375
7.038999999999994,9.38892517089844,-0.2715576171875,4.869046020507813
7.048999999999978,3.4254241943359376,-0.9766204833984377,5.5510803222656255
7.058999999999969,4.93828125,-0.3001190185546875,5.050433349609375
7.06899999999996,11.020364379882814,0.15252685546875,0.9559844970703124
7.079000000000008,14.28907470703125,0.15731201171875,2.9955078125
7.088999999999999,12.5335205078125,0.1003387451171875,4.707546997070313
7.0989999999999895,8.094091796875,-0.33017578125,3.0572662353515625
7.1089999999999804,5.012451171875,-0.3910369873046875,4.361968994140625
7.1200000000000045,6.23984375,-0.7913452148437501,5.409918212890625
7.129999999999988,9.606500244140626,-0.3650177001953125,3.909622192382813
7.1399999999999935,12.592288208007814,0.7484283447265625,3.210690307617188
7.149999999999984,12.12080078125,0.8746368408203126,2.61568603515625
7.159999999999968,8.456716918945313,0.4523468017578125,2.5760589599609376
7.169999999999959,6.106008911132813,0.0801513671875,4.669415283203126
7.180000000000007,6.134271240234376,-0.1254608154296875,4.022073364257813
7.189999999999998,9.08387145996094,0.5067779541015626,3.553427124023438
7.199999999999989,11.71451110839844,1.0304534912109375,2.8000640869140625
7.2099999999999795,11.693426513671875,0.7645782470703125,2.649032592773437
7.21999999999997,8.711526489257814,-0.1724151611328125,5.043255615234376
7.229999999999961,6.694882202148438,-0.7701110839843751,6.196179199218751
7.239999999999952,6.403884887695313,-0.49825439453125,4.430606079101563
7.25,8.893661499023438,0.07835693359375,3.1148376464843754
7.259999999999991,11.448336791992189,-0.2500244140625,2.8156158447265627
7.270999999999958,11.24317321777344,-0.341839599609375,2.427719116210937
7.281000000000006,9.905572509765626,0.1843780517578125,3.4349945068359378
7.290999999999997,7.366149902343751,-0.098095703125,4.320697021484375
7.300999999999995,7.08262939453125,0.0808990478515625,4.827923583984376
7.310999999999979,8.483782958984376,0.488983154296875,4.421334838867188
7.3209999999999695,9.621453857421876,0.49705810546875,4.018933105468751
7.33099999999996,10.603009033203126,0.4670013427734375,3.677392578125
7.341000000000008,9.642239379882811,0.5785552978515626,2.3474182128906254
7.350999999999999,7.504171752929688,0.1389190673828125,2.2796783447265625
7.36099999999999,5.432797241210938,-0.48389892578125,4.233218383789063
7.370999999999981,8.6802734375,0.0629547119140625,4.39755859375
7.380999999999972,14.056546020507811,1.1355773925781252,3.17674560546875
7.390999999999963,13.149011230468751,1.8892395019531247,3.7544036865234376
7.400999999999954,6.926663208007813,-0.117535400390625,5.482293701171876
7.411999999999978,3.5517822265625,-1.91585693359375,7.4292541503906255
7.421999999999969,8.321536254882814,-1.8315185546875,4.440774536132813
7.431999999999959,11.927301025390626,-1.51868896484375,0.8051025390625001
7.442000000000007,13.373464965820313,-0.2471832275390625,3.5619506835937504
7.451999999999998,10.444949340820314,-0.3385498046875,3.038275146484376
7.461999999999989,7.389477539062501,-0.2794830322265625,2.4546356201171875
7.47199999999998,5.9814453125,0.2014251708984375,5.320794677734376
7.481999999999971,7.585369873046876,0.98634033203125,5.58487548828125
7.491999999999962,10.157092285156253,2.3160156250000004,3.849508666992188
7.501999999999953,11.68056640625,1.9454650878906248,3.019583129882813
7.512,10.168307495117189,0.635528564453125,3.728384399414063
7.521999999999991,7.989117431640626,0.2038177490234375,2.8033538818359376
7.531999999999982,6.821838378906251,0.4146636962890625,2.23406982421875
7.541999999999973,7.773187255859375,-1.089520263671875,3.7739929199218754
7.552999999999997,10.386181640625,-1.820751953125,4.2157226562500005
7.562999999999988,11.2223876953125,-0.6793426513671875,3.2174194335937503
7.572999999999979,9.855776977539064,-0.8483184814453125,4.176693725585938
7.58299999999997,8.0103515625,-1.12032470703125,6.357678222656251
7.592999999999961,6.769949340820313,-0.3333160400390625,5.02501220703125
7.602999999999952,7.9720703125,0.235369873046875,2.7659698486328126
7.612999999999999,10.029388427734377,0.8768798828125001,3.6631866455078126
7.6229999999999905,11.005111694335938,1.582391357421875,2.0671875
7.632999999999981,10.2916748046875,2.376129150390625,1.697085571289063
7.642999999999972,8.697320556640626,0.9287689208984377,4.728033447265625
7.652999999999963,7.324429321289063,-0.0968994140625,5.342477416992188
7.662999999999954,7.885937500000001,0.5878265380859375,4.493411254882813
7.673000000000002,8.53372802734375,-0.0155517578125,4.040914916992188
7.682999999999993,10.187747192382814,-1.212139892578125,4.170114135742188
7.69399999999996,10.313058471679687,-0.9824523925781252,2.9220855712890628
7.704000000000008,8.946896362304688,-0.6089111328125001,1.7859100341796876
7.713999999999999,6.7219482421875005,-0.1206756591796875,3.2253448486328127
7.723999999999989,6.235208129882813,1.105072021484375,4.0845794677734375
7.7339999999999804,11.33184814453125,0.8420379638671875,4.28092041015625
7.743999999999971,14.910696411132813,-0.012261962890625,5.237054443359376
7.753999999999962,10.175784301757814,0.4397857666015625,4.213330078125001
7.763999999999953,4.689004516601563,-0.0800018310546875,4.123757934570313
7.774000000000001,4.484588623046875,-0.94327392578125,5.883050537109376
7.783999999999992,9.9052734375,-0.93250732421875,2.841485595703125
7.793999999999983,13.882934570312502,-0.093609619140625,2.017691040039063
7.803999999999974,12.963287353515629,0.0016448974609375,4.427166748046876
7.8139999999999645,8.197720336914063,-0.6267059326171875,3.5317443847656254
7.823999999999955,6.173748779296876,-0.7391571044921875,4.01654052734375
7.8349999999999795,5.666073608398438,-0.8184112548828125,4.927066040039063
7.84499999999997,9.297109985351565,-0.232080078125,4.3941192626953125
7.854999999999961,12.127529907226563,1.4267242431640623,2.8872436523437504
7.864999999999952,12.183306884765626,1.3995086669921877,2.289398193359375
7.875,8.901437377929689,0.3911865234375,3.465200805664063
7.884999999999991,6.332855224609376,0.210546875,4.345669555664063
7.894999999999982,5.8127685546875005,0.7953826904296876,3.930108642578125
7.904999999999973,8.597131347656251,0.390887451171875,3.4312561035156253
7.914999999999964,11.899636840820314,0.463861083984375,3.314468383789063
7.924999999999954,11.669949340820311,0.3904388427734375,2.5655914306640626
7.935000000000002,9.4997314453125,-0.266473388671875,4.3667541503906255
7.944999999999993,6.332257080078126,-0.6775482177734375,6.289938354492188
7.954999999999984,6.280966186523438,-0.88944091796875,4.793380737304688
7.964999999999975,8.862109375000001,-0.5970977783203125,3.433648681640625
7.975999999999999,11.179470825195311,-0.122320556640625,2.7722503662109377
7.98599999999999,11.81036376953125,0.3695037841796875,2.148236083984376
7.995999999999981,9.861160278320312,0.4493560791015625,3.3778717041015627
8.005999999999972,7.581481933593751,-0.2214630126953125,4.632479858398438
8.015999999999963,6.827969360351563,0.143853759765625,4.365856933593751
8.025999999999954,7.968032836914063,1.003237915039063,4.524664306640625
8.036000000000001,9.510946655273438,0.6616973876953125,3.8954162597656254
8.045999999999992,11.235098266601565,0.4390380859375,3.751412963867188
8.055999999999983,9.99783630371094,0.2382110595703125,2.846121215820313
8.065999999999974,7.884890747070313,-0.3120819091796875,2.337249755859375
8.075999999999965,6.13157958984375,-0.4725341796875,3.5606048583984378
8.085999999999956,6.086569213867188,-0.578106689453125,4.312771606445313
8.096000000000004,12.872070312500002,-0.431561279296875,4.789193725585938
8.105999999999995,14.885723876953126,1.014752197265625,3.7318237304687503
8.115999999999985,9.377859497070313,1.235467529296875,2.8041015625
8.125999999999976,4.0258117675781255,-0.9754241943359376,6.215170288085938
8.137,4.3317626953125,-1.0754638671875,6.805239868164063
8.146999999999991,11.232705688476564,-0.3778778076171875,2.0604583740234377
8.156999999999982,14.354421997070313,0.6821838378906251,2.548992919921876
8.166999999999973,12.0573974609375,0.7885040283203125,4.0591583251953125
8.176999999999964,7.731466674804688,-0.00299072265625,2.3243896484375
8.186999999999955,5.790936279296876,-0.437841796875,3.7213562011718753
8.197000000000003,6.425717163085938,-0.3102874755859375,5.19189453125
8.206999999999994,10.420275878906253,0.40135498046875,4.383801269531251
8.216999999999985,11.936123657226563,1.3938262939453123,3.0728179931640627
8.226999999999975,10.743572998046876,0.478515625,4.02611083984375
8.236999999999966,8.35548095703125,-0.5187408447265626,4.091458129882813
8.246999999999957,6.228778076171875,0.0883758544921875,3.5867736816406253
8.257000000000005,7.229623413085938,-0.1399658203125,2.691351318359376
8.269000000000005,10.004864501953126,-0.50662841796875,2.8036529541015627
8.277999999999963,11.545086669921876,0.1966400146484375,3.059808349609375
8.287999999999954,11.046832275390626,0.067889404296875,2.4942626953125
8.298000000000002,8.28729248046875,-0.331671142578125,5.84088134765625
8.307999999999993,6.079989624023438,-0.40494384765625,6.714172363281251
8.317999999999984,7.282708740234375,-0.1208251953125,4.392175292968751
8.327999999999975,9.229220581054689,0.508123779296875,3.674551391601563
8.337999999999965,11.361904907226563,0.3563446044921875,2.851654052734375
8.347999999999956,11.288034057617187,0.6682769775390626,1.6271026611328123
8.358000000000004,8.999383544921876,0.802410888671875,2.669668579101563
8.368999999999971,7.41220703125,-0.346923828125,3.99739990234375
8.377999999999986,7.630081176757813,-0.1577606201171875,5.300009155273438
8.387999999999977,8.560195922851562,0.313128662109375,4.805941772460938
8.397999999999968,10.127334594726562,0.03349609375,4.293780517578125
8.411999999999978,10.415939331054688,-0.094805908203125,4.460812377929688
8.418999999999983,8.671450805664064,-0.27335205078125,2.663687133789063
8.428999999999974,8.05521240234375,-0.1766021728515625,1.728936767578125
8.438999999999965,5.6049133300781255,0.6679779052734376,2.728436279296876
8.448999999999955,7.816104125976563,1.2218597412109375,3.3168609619140628
8.459000000000003,14.324664306640626,0.7053619384765626,4.585226440429688
8.468999999999994,14.039498901367187,0.14654541015625,5.864059448242188
8.478999999999985,8.077792358398439,-1.128399658203125,5.213876342773438
8.488999999999976,2.63482666015625,-1.4374908447265626,5.8311614990234375
8.498999999999967,5.8072357177734375,-0.625958251953125,4.034185791015625
8.508999999999958,12.39893798828125,-0.5942565917968751,0.355596923828125
8.519000000000005,15.251190185546877,-0.155218505859375,3.4300598144531254
8.528999999999996,11.185302734375,0.9667510986328126,4.299163818359375
8.538999999999987,7.3111206054687505,-0.03170166015625,3.3524505615234377
8.549999999999955,4.415951538085938,0.1155914306640625,5.049087524414063
8.560000000000002,6.085522460937501,-0.100787353515625,5.3055419921875
8.569999999999993,11.042495727539062,0.0641510009765625,3.5927551269531253
8.579999999999984,12.764404296875002,1.0977447509765623,3.315216064453125
8.589999999999975,11.933880615234376,1.1772979736328126,1.854547119140625
8.599999999999966,7.90567626953125,0.1769012451171875,2.525665283203125
8.609999999999957,5.286999511718751,-0.5443115234375,5.517733764648438
8.620000000000005,6.552224731445313,-0.8091400146484375,3.4841918945312504
8.629999999999995,9.67020263671875,0.42767333984375,3.62056884765625
8.639999999999986,12.190335083007811,0.6424072265625,3.2174194335937503
8.649999999999977,11.539254760742187,0.208453369140625,2.792587280273437
8.659999999999968,8.221047973632814,-0.09031982421875,5.496051025390625
8.669999999999959,6.2524047851562505,-0.9473114013671876,6.044400024414063
8.680000000000007,6.882998657226563,-0.227294921875,3.8251342773437504
8.689999999999998,9.23236083984375,0.8240936279296875,2.768661499023437
8.700999999999965,11.745913696289064,-0.0013458251953125,2.4870849609375
8.710999999999956,11.120404052734376,0.087030029296875,3.0482940673828125
8.721000000000004,9.155050659179688,0.590069580078125,3.8701446533203128
8.730999999999995,7.454824829101563,-0.120526123046875,4.4460083007812505
8.740999999999985,7.118817138671876,-0.087628173828125,4.96759033203125
8.750999999999976,8.476455688476562,0.3031097412109375,4.027456665039063
8.760999999999967,10.294216918945311,0.003289794921875,3.6839721679687503
8.770999999999958,10.341171264648438,-0.0179443359375,3.773544311523438
8.781000000000006,9.8251220703125,0.3122314453125,2.12999267578125
8.790999999999997,8.06717529296875,-0.2199676513671875,2.5667877197265625
8.800999999999988,6.082531738281251,-1.065594482421875,4.42686767578125
8.810999999999979,6.774734497070313,-0.8498138427734375,4.197479248046875
8.82099999999997,11.29595947265625,0.6376220703125001,3.9673431396484378
8.83099999999996,14.909500122070314,2.4286163330078128,4.429409790039063
8.841999999999985,10.263412475585938,2.3652130126953126,3.2899444580078128
8.851999999999975,4.5949462890625,-0.31282958984375,6.087466430664063
8.861999999999966,4.945159912109375,-1.7886016845703123,6.913204956054688
8.871999999999957,10.238739013671877,-1.141259765625,1.16279296875
8.882000000000005,13.391409301757813,-0.1266571044921875,2.002886962890625
8.891999999999996,12.358264160156253,-0.5157501220703126,3.936090087890625
8.901999999999987,8.711227416992188,-0.6790435791015625,3.405685424804688
8.911999999999978,5.91983642578125,-0.288604736328125,3.671859741210938
8.921999999999969,6.736004638671876,-0.459075927734375,6.0475402832031255
8.93199999999996,8.99549560546875,0.9511993408203124,4.889532470703125
8.942000000000007,11.597872924804689,2.147787475585938,2.2985198974609378
8.951999999999998,11.40960693359375,0.9381896972656252,2.8390930175781253
8.961999999999989,8.4948486328125,0.393280029296875,3.8185546875
8.97199999999998,7.318447875976563,0.8393463134765625,2.6792388916015626
8.981999999999971,6.70938720703125,0.3923828125,2.9878814697265628
8.992999999999995,9.165368652343751,-0.9954620361328126,4.6427978515625
9.002999999999986,10.847650146484376,-0.8309722900390626,3.623110961914063
9.012999999999977,10.917333984375,-0.5646484375,3.2868041992187504
9.022999999999968,8.998336791992188,-1.092959594726563,4.892224121093751
9.03299999999996,7.400543212890626,-0.6537719726562501,5.819796752929688
9.043000000000006,7.194631958007813,-0.227294921875,3.61279296875
9.052999999999995,8.970672607421875,-0.460272216796875,3.5450531005859376
9.062999999999988,10.669253540039064,0.3983642578125,3.450247192382813
9.07299999999998,10.693179321289064,1.6127471923828127,1.87039794921875
9.08299999999997,9.681716918945312,1.6549163818359376,3.1670257568359377
9.09299999999996,7.782608032226563,0.4526458740234375,4.748370361328125
9.102999999999952,7.518527221679688,0.241949462890625,4.987179565429688
9.113,8.351443481445314,0.5133575439453125,4.158001708984376
9.12299999999999,9.423318481445314,0.3022125244140625,3.508416748046875
9.133999999999958,10.475604248046876,-0.2504730224609375,3.7001220703125
9.144000000000004,9.696072387695311,-0.7669708251953126,2.937338256835938
9.153999999999996,7.38887939453125,-0.7627838134765625,2.5468994140625
9.163999999999987,5.789590454101563,0.3431854248046875,3.6859161376953127
9.173999999999978,8.434136962890626,0.58438720703125,3.9546325683593753
9.183999999999967,14.4416015625,-0.298773193359375,4.701565551757813
9.19399999999996,13.644125366210938,-0.18363037109375,4.619769287109375
9.204000000000008,6.794473266601563,-0.6129486083984376,4.457073974609376
9.214,3.405685424804688,-0.8327667236328126,6.247470092773438
9.22399999999999,7.198071289062501,0.0399261474609375,2.9229827880859376
9.23399999999998,12.433181762695314,0.581396484375,1.45648193359375
9.243999999999971,14.1245849609375,0.4598236083984375,4.44541015625
9.253999999999962,10.300946044921876,0.5420684814453125,3.923529052734376
9.263999999999951,6.871334838867188,0.2534637451171875,3.1966339111328126
9.274999999999975,5.326177978515625,-0.481805419921875,4.613638305664063
9.286,7.229324340820313,-0.8468231201171875,5.389132690429688
9.29499999999996,11.179171752929689,-0.00059814453125,3.149530029296875
9.305000000000009,12.873416137695314,0.7367645263671876,2.5374786376953127
9.314999999999998,10.283898925781251,0.3541015625,2.788250732421876
9.324999999999989,7.730569458007813,-0.4140655517578125,3.672457885742188
9.33499999999998,5.460760498046875,-0.337652587890625,4.740594482421876
9.34499999999997,7.214669799804688,0.1598541259765625,3.737057495117188
9.35499999999996,10.500726318359376,0.8880950927734376,3.1846710205078126
9.364999999999952,12.036163330078123,1.2383087158203123,2.9262725830078127
9.375,10.731311035156253,0.492572021484375,3.468341064453125
9.385999999999967,7.749560546875,-0.24464111328125,5.81217041015625
9.394999999999982,5.9802490234375005,-0.3647186279296875,5.615530395507813
9.404999999999973,7.3574768066406255,-0.2080047607421875,3.066238403320313
9.415999999999997,10.27373046875,0.08194580078125,3.0521820068359378
9.425999999999988,11.596676635742188,-0.3294281005859375,2.692697143554688
9.43599999999998,11.032327270507814,-0.125909423828125,3.193792724609376
9.44599999999997,8.719900512695313,-0.0850860595703125,4.041064453125
9.45599999999996,6.881503295898438,-0.5525360107421875,4.275088500976563
9.466000000000008,7.604660034179688,-0.100189208984375,4.773043823242188
9.476,8.45118408203125,0.4661041259765625,4.0972900390625
9.486999999999966,10.732656860351565,0.4825531005859375,3.866705322265626
9.49599999999998,10.597775268554688,0.6138458251953125,3.2115875244140626
9.505999999999972,9.31251220703125,0.5319000244140626,2.1534698486328128
9.515999999999964,6.856680297851563,-0.08074951171875,2.988330078125
9.525999999999954,5.042059326171875,0.0058319091796875,4.910317993164063
9.536,9.71925048828125,0.389093017578125,4.514944458007813
9.545999999999992,14.680560302734376,0.9885833740234377,3.638214111328125
9.55699999999996,12.411499023437502,0.9150115966796876,2.6295928955078125
9.567000000000007,5.572164916992188,-0.85953369140625,4.763323974609375
9.576999999999998,4.1020751953125005,-1.4176025390625,7.25369873046875
9.586999999999987,8.119064331054688,-1.314273071289063,3.759637451171875
9.59699999999998,13.38453063964844,-0.4557861328125,2.4965057373046875
9.606999999999973,13.25009765625,0.4012054443359375,4.1578521728515625
9.616999999999962,9.55042419433594,0.0471038818359375,3.004180908203125
9.626999999999953,6.783407592773438,-0.052337646484375,2.662191772460938
9.637,5.794076538085938,0.214434814453125,4.268658447265626
9.646999999999991,8.694927978515626,0.43544921875,5.009161376953125
9.656999999999982,11.46448669433594,1.3047027587890625,3.193045043945313
9.666999999999971,11.267996215820313,1.5758117675781251,3.674102783203125
9.676999999999964,9.469973754882814,0.3653167724609375,3.99560546875
9.687999999999988,7.019973754882813,-0.127105712890625,3.7904418945312495
9.697000000000005,6.419735717773438,-0.0729736328125,3.480154418945313
9.70799999999997,8.741134643554688,-1.0300048828125,2.904290771484375
9.71799999999996,10.97879333496094,-0.67410888671875,3.175848388671876
9.727999999999952,11.73380126953125,-0.0524871826171875,1.908380126953125
9.738,9.717755126953126,-0.6290985107421876,4.010708618164063
9.74799999999999,7.074105834960938,-0.9091796875,7.20225830078125
9.75799999999998,6.2075439453125005,-0.50543212890625,5.454779052734375
9.767999999999972,8.08033447265625,0.5848358154296875,3.951492309570313
9.777999999999963,10.111184692382814,0.7777374267578125,3.841583251953125
9.787999999999954,11.972760009765626,0.7880554199218751,1.6057189941406251
9.798000000000002,10.285693359375,1.873538208007813,1.7102447509765626
9.807999999999993,8.260525512695313,0.662445068359375,3.161941528320313
9.817999999999984,7.353738403320313,-0.2069580078125,5.174847412109376
9.827999999999976,7.627090454101563,0.2474822998046875,4.7690063476562505
9.837999999999964,9.012542724609377,-0.1248626708984375,4.584329223632813
9.84899999999999,10.654598999023438,-0.7523162841796875,5.061050415039063
9.85899999999998,9.925311279296876,-0.4849456787109375,3.6875610351562496
9.868999999999971,8.944802856445314,-0.5507415771484375,2.026214599609375
9.878999999999962,7.266857910156251,-0.402252197265625,2.4431213378906254
9.888999999999951,6.013894653320313,0.8815155029296876,2.8993560791015627
9.899,8.60072021484375,1.9699890136718752,2.4631591796875
9.908999999999992,14.023947143554688,1.5631011962890626,4.838540649414063
9.918999999999984,13.30497741699219,0.1975372314453125,6.2568908691406255
9.928999999999974,7.448544311523438,-0.8300750732421875,5.312271118164063
9.938999999999965,3.0967437744140627,-1.5104644775390623,5.861367797851563
9.948999999999955,6.51439208984375,-1.371246337890625,3.8234893798828127
9.959000000000003,13.67298583984375,-1.2287384033203126,0.8333648681640625
9.968999999999994,13.888916015625002,-0.427972412109375,2.4187469482421875
9.978999999999983,11.151956176757814,-0.12501220703125,4.437335205078125
9.989999999999952,7.037170410156251,-0.707305908203125,4.1092529296875
10.0,4.526309204101563,0.20755615234375,4.714425659179688
10.009999999999993,6.662283325195313,0.0581695556640625,5.657849121093751
10.019999999999982,10.834490966796876,0.5417694091796875,3.851901245117188
10.029999999999973,13.038653564453126,1.4605194091796876,2.4698883056640626
10.039999999999964,11.112030029296877,1.9979522705078123,1.3224975585937502
10.049999999999956,7.785299682617188,0.8122802734375001,3.2271392822265628
10.060000000000002,5.666671752929688,-0.160302734375,4.6033203125
10.069999999999991,6.831558227539063,-0.55567626953125,3.886892700195313
10.079999999999984,9.646875,0.0634033203125,4.284060668945313
10.089999999999977,12.021658325195313,0.232977294921875,3.0589111328125003
10.099999999999966,11.059393310546875,-0.0322998046875,3.4910705566406253
10.11099999999999,8.092147827148438,-0.8574401855468751,5.58367919921875
10.120000000000005,6.623104858398438,-1.4470611572265626,5.778076171875
10.130999999999972,6.932046508789063,-0.419598388671875,3.5112579345703128
10.140999999999964,9.945498657226564,0.5945556640625,1.8509582519531247
10.150999999999954,11.771334838867189,0.4116729736328125,2.2312286376953128
10.161,10.8371826171875,0.6089111328125001,3.5601562500000004
10.170999999999992,8.94046630859375,0.5268157958984375,4.19957275390625
10.180999999999983,6.950439453125001,0.547003173828125,5.2744384765625005
10.190999999999974,6.949392700195313,0.669921875,4.65416259765625
10.200999999999963,8.666964721679689,0.4508514404296875,4.047943115234375
10.210999999999956,10.580130004882813,-0.05263671875,3.445761108398438
10.221000000000004,10.569812011718753,-0.20994873046875,2.620770263671876
10.230999999999996,9.974359130859376,-0.082244873046875,2.0538787841796875
10.240999999999984,6.880456542968751,-0.4903289794921875,2.816213989257813
10.250999999999976,5.900097656250001,-0.7636810302734376,5.45806884765625
10.260999999999967,9.065628051757812,-0.48150634765625,5.391375732421875
10.270999999999958,13.64891052246094,0.6014343261718751,4.241891479492188
10.281999999999982,12.060089111328123,1.3050018310546876,2.0464019775390625
10.291999999999971,6.541458129882813,0.5479003906250001,3.070724487304688
10.301999999999964,4.556365966796875,-0.9151611328125,6.817501831054688
10.311999999999957,8.419332885742188,-0.3536529541015625,4.860223388671876
10.322000000000005,12.2966552734375,1.2661224365234376,3.1984283447265627
10.331999999999994,12.491351318359376,0.7858123779296876,3.8849487304687504
10.341999999999985,9.7629150390625,-1.0074249267578126,3.475668334960938
10.351999999999975,6.643292236328126,-1.01983642578125,2.362521362304688
10.361999999999966,7.053619384765626,-0.494366455078125,3.3760772705078126
10.371999999999955,9.386532592773438,-0.5972473144531251,4.3832031250000005
10.382000000000003,11.057000732421876,0.5229278564453126,4.292733764648438
10.391999999999996,10.742376708984375,0.796429443359375,4.07755126953125
10.401999999999989,8.704498291015625,-0.1128997802734375,4.40653076171875
10.412999999999954,6.9540283203125,0.28232421875,4.802651977539063
10.421999999999969,7.296466064453125,0.8728424072265626,1.9989990234375
10.432999999999993,9.236697387695314,0.3102874755859375,2.3949707031250003
10.442999999999984,11.146722412109376,0.112152099609375,2.6885101318359377
10.452999999999976,11.278164672851563,0.554779052734375,2.2605377197265626
10.462999999999964,8.529092407226564,0.139068603515625,4.363763427734376
10.472999999999956,7.101919555664063,-0.7298858642578125,6.69443359375
10.483000000000004,6.698321533203125,-0.6051727294921876,6.112887573242188
10.492999999999997,8.618515014648438,-0.101385498046875,4.437933349609375
10.502999999999986,10.784844970703126,-0.20576171875,3.235812377929688
10.512999999999977,10.93109130859375,0.1638916015625,1.834210205078125
10.522999999999968,10.142437744140626,0.314324951171875,1.5221282958984377
10.53299999999996,8.333499145507814,-0.156414794921875,2.9397308349609377
10.543000000000006,7.503573608398438,0.1280029296875,4.796820068359375
10.553999999999974,8.239889526367188,0.6383697509765626,5.366253662109376
10.563999999999965,9.437823486328126,0.4499542236328125,5.247970581054688
10.573999999999955,9.691436767578123,0.331072998046875,4.478009033203126
10.584000000000003,9.38369140625,0.2797821044921875,3.924874877929688
10.593999999999994,8.70120849609375,0.04306640625,1.6839263916015623
10.603999999999983,7.017282104492188,0.5090209960937501,1.421490478515625
10.613999999999976,6.725387573242188,1.2692626953125,2.493963623046876
10.623999999999969,10.025949096679687,0.7707092285156251,3.7651702880859377
10.633999999999958,15.162963867187502,-0.0877777099609375,6.36246337890625
10.644000000000004,11.3970458984375,-0.8972167968750001,5.605661010742188
10.653999999999996,5.268307495117188,-1.6719635009765623,5.363861083984375
10.663999999999987,3.067434692382813,-1.3606292724609377,5.997894287109375
10.673999999999978,9.335989379882813,-1.34881591796875,2.231976318359376
10.683999999999967,13.69377136230469,-1.0898193359375,0.8350097656250001
10.69399999999996,14.219241333007814,0.8261871337890626,3.6368682861328128
10.704999999999984,9.625042724609376,1.2030181884765625,3.63671875
10.714999999999977,5.681326293945313,0.30206298828125,4.111645507812501
10.724999999999966,4.521374511718751,0.2364166259765625,6.091204833984375
10.734999999999957,7.610641479492188,0.415411376953125,4.725491333007813
10.745000000000005,12.26614990234375,1.188662719726563,3.490472412109375
10.754999999999995,13.010391235351564,1.5348388671875002,2.1068145751953127
10.764999999999986,10.331301879882814,0.5718261718750001,1.7494232177734377
10.774999999999975,7.113583374023438,-0.8194580078125001,3.9024444580078126
10.784999999999968,4.989572143554688,-1.126904296875,4.431652832031251
10.79499999999996,7.552621459960938,-0.828131103515625,4.094000244140625
10.805000000000009,11.04114990234375,-0.0704315185546875,3.475518798828125
10.814999999999998,12.2021484375,0.148040771484375,3.2459808349609376
10.824999999999989,10.48427734375,0.08553466796875,3.749020385742188
10.83499999999998,7.256689453125,-0.25062255859375,6.483139038085938
10.84499999999997,5.780169677734375,-0.308343505859375,5.143594360351563
10.855999999999996,8.021566772460938,0.7439422607421875,2.4088775634765627
10.865999999999984,10.558596801757814,0.9286193847656252,2.1594512939453128
10.875999999999976,11.925357055664064,0.3696533203125,2.655612182617188
10.887999999999977,10.3993408203125,0.93250732421875,3.4813507080078128
10.895999999999958,7.898498535156251,0.4677490234375,4.6767425537109375
10.906000000000006,6.967486572265625,-0.720465087890625,5.218362426757813
10.915999999999997,7.524209594726563,-0.3289794921875,4.588815307617188
10.925999999999988,9.188845825195314,-0.0940582275390625,3.536080932617188
10.93599999999998,10.837332153320313,-0.6285003662109375,3.584381103515625
10.94599999999997,10.601812744140624,-0.2400054931640625,2.84178466796875
10.95599999999996,8.7759765625,-0.1801910400390625,1.1849243164062502
10.966000000000008,6.691592407226563,-0.7562042236328126,3.7557495117187503
10.976,5.283709716796875,-0.4795623779296875,5.384347534179688
10.988,11.1111328125,1.0156494140625,5.3237854003906255
10.996999999999955,15.613217163085938,2.044607543945313,4.63621826171875
11.007000000000003,10.4160888671875,1.5327453613281252,1.667178344726563
11.016999999999996,4.3612213134765625,-0.2316314697265625,4.213180541992188
11.026999999999989,3.094351196289063,-0.6942962646484375,6.602767944335938
11.036999999999978,10.378854370117187,-0.3171661376953125,3.262130737304688
11.046999999999969,14.985464477539065,0.5184417724609376,2.509664916992188
11.05699999999996,12.836181640625002,0.0634033203125,4.8487091064453125
11.067000000000007,7.678082275390626,-1.724002075195313,4.106561279296876
11.076999999999998,4.8931213378906255,-0.5767608642578126,2.5416656494140626
11.086999999999987,6.600973510742188,0.042169189453125,3.622213745117188
11.09699999999998,10.956512451171877,-1.1641387939453125,4.404287719726563
11.106999999999973,12.937417602539064,0.8988616943359375,4.180432128906251
11.116999999999962,10.594485473632814,2.075262451171876,2.813372802734375
11.126999999999953,7.78843994140625,0.3892425537109375,4.569674682617188
11.137999999999977,5.403488159179688,-0.0028411865234375,5.5305938720703125
11.147999999999968,6.853988647460938,0.5909667968750001,2.11324462890625
11.15799999999996,10.289431762695314,0.30804443359375,2.0523834228515625
11.168000000000006,12.131716918945314,0.3313720703125,3.273345947265625
11.177999999999995,11.617910766601565,0.2788848876953125,1.4276214599609376
11.187999999999988,8.353985595703126,-0.5411712646484376,4.834503173828125
11.19799999999998,5.484088134765625,-1.5910644531250002,7.71666259765625
11.20799999999997,6.596487426757813,-0.81168212890625,4.766165161132813
11.21799999999996,9.372775268554689,0.088226318359375,3.8904815673828126
11.227999999999952,11.30792236328125,-0.3766815185546875,3.76412353515625
11.238,12.086856079101564,-0.183929443359375,2.164385986328125
11.24799999999999,9.3537841796875,1.1683258056640626,1.831668090820313
11.258999999999958,7.294970703125,0.5597137451171875,3.150875854492188
11.267999999999972,6.920083618164063,0.272454833984375,4.92691650390625
11.278999999999996,8.349050903320313,0.9957611083984376,4.954281616210938
11.288999999999987,10.306628417968753,0.5031890869140625,4.32877197265625
11.298999999999978,10.511941528320314,0.5031890869140625,4.682125854492188
11.308999999999967,9.195126342773438,0.3792236328125,3.5152954101562504
11.31899999999996,8.15570068359375,-0.7421478271484375,2.214181518554688
11.329000000000008,7.035824584960938,-0.7349700927734375,2.8622711181640628
11.339,6.467587280273438,0.492572021484375,2.237509155273438
11.34899999999999,9.197369384765626,1.0059295654296876,2.936141967773437
11.35899999999998,14.57483825683594,0.2417999267578125,5.837741088867188
11.368999999999971,13.519412231445314,-0.6775482177734375,5.870489501953125
11.378999999999962,6.734359741210938,-1.6007843017578127,4.920785522460938
11.388999999999951,2.1444976806640628,-1.1595031738281252,5.316009521484375
11.399,7.416244506835938,-0.6029296875000001,3.860125732421875
11.409999999999968,13.115664672851564,0.3925323486328125,0.7155303955078125
11.41999999999996,14.719888305664064,0.8136260986328125,3.9671936035156254
11.430000000000009,10.68585205078125,0.91815185546875,3.605465698242188
11.439999999999998,6.218161010742188,0.432757568359375,3.6157836914062496
11.449999999999989,4.1917968750000005,0.1200775146484375,5.03099365234375
11.45999999999998,7.580435180664063,-0.2681182861328125,4.665228271484375
11.46999999999997,11.795858764648438,-0.2525665283203125,4.2281341552734375
11.47999999999996,13.092337036132813,0.290997314453125,3.196334838867188
11.489999999999952,10.774078369140623,0.7690643310546875,1.6866180419921877
11.5,6.706695556640626,-0.113348388671875,3.323141479492188
11.509999999999993,5.544650268554688,-1.2918426513671877,5.280120849609375
11.519999999999982,7.034179687500001,-0.6352294921875,3.483444213867188
11.529999999999973,10.875912475585938,0.8525054931640625,2.9620117187500004
11.539999999999964,12.546829223632814,0.8450286865234375,2.8054473876953128
11.549999999999956,10.740432739257812,0.7914947509765625,3.4064331054687504
11.56099999999998,7.4301513671875,0.08553466796875,5.4610595703125
11.57099999999997,5.5305938720703125,-0.4773193359375,6.427362060546876
11.58099999999996,6.958813476562501,0.27574462890625,3.8276763916015626
11.591000000000008,10.321881103515626,0.8997589111328126,2.08154296875
11.601,12.3588623046875,-0.179443359375,2.4387847900390627
11.61099999999999,11.068215942382814,-0.4314117431640625,3.266168212890625
11.62099999999998,8.8728759765625,0.121124267578125,3.8529479980468753
11.630999999999972,6.21591796875,-0.4574310302734375,4.337445068359376
11.640999999999964,7.116424560546876,-0.6211730957031251,5.35638427734375
11.650999999999954,9.023907470703126,-0.035888671875,4.2001708984375
11.661,10.736245727539064,0.165386962890625,3.475668334960938
11.670999999999992,11.071505737304689,0.3584381103515625,3.52486572265625
11.680999999999983,9.19049072265625,0.3748870849609375,2.2114898681640627
11.690999999999974,6.958813476562501,-0.13936767578125,2.3070434570312504
11.700999999999963,5.888284301757813,-0.48988037109375,4.541860961914063
11.711999999999987,7.61796875,0.0755157470703125,4.750613403320313
11.72199999999998,14.124734497070314,1.1671295166015625,4.339089965820313
11.731999999999973,14.122790527343753,1.5753631591796875,3.1432495117187504
11.741999999999962,7.218557739257813,-0.1060211181640625,3.2803741455078126
11.751999999999953,2.9430206298828128,-1.320703125,7.242633056640625
11.762,6.455026245117188,-0.448309326171875,4.710836791992188
11.771999999999991,12.671243286132814,0.21593017578125,1.5448577880859375
11.781999999999982,14.705383300781252,0.57960205078125,4.482345581054688
11.791999999999971,10.1768310546875,-0.54849853515625,4.161441040039063
11.801999999999964,6.864157104492188,-0.32718505859375,2.2143310546875004
11.811999999999957,5.238250732421875,0.5857330322265626,2.75924072265625
11.822000000000005,8.302096557617189,-0.429766845703125,5.294775390625
11.831999999999994,11.82950439453125,-0.161798095703125,4.607058715820313
11.841999999999985,11.965133666992188,1.639813232421875,3.4671447753906253
11.851999999999975,9.027197265625,1.1444000244140626,3.7994140625
11.863,6.960458374023438,-0.1894622802734375,4.7914367675781255
11.87299999999999,6.257638549804688,-0.0659454345703125,3.5034820556640627
11.88299999999998,8.687301635742188,-0.3611297607421875,1.7202636718750002
11.892999999999972,11.422018432617188,-0.2379119873046875,2.9464599609375
11.904999999999973,11.514880371093753,0.576611328125,2.2231536865234376
11.912999999999954,10.074099731445314,-0.3019134521484375,2.7825683593750004
11.923000000000002,6.913055419921876,-1.371096801757813,7.3111206054687505
11.932999999999993,5.737103271484376,-0.8474212646484376,6.507214355468751
11.942999999999984,8.026351928710938,0.237164306640625,3.415704345703125
11.952999999999976,10.52539978027344,0.5746673583984375,3.97945556640625
11.962999999999964,11.63929443359375,-0.4526458740234375,3.0605560302734376
11.972999999999956,10.873818969726564,0.7113433837890626,1.8034057617187504
11.983000000000004,8.178579711914063,1.3539001464843752,2.162591552734375
11.992999999999997,6.808828735351563,0.3868499755859375,4.158450317382813
12.004999999999995,8.112484741210938,0.063702392578125,5.154360961914063
12.013999999999951,9.026599121093753,0.1449005126953125,4.600628662109376
12.024,10.79052734375,0.025421142578125,4.934094238281251
12.033999999999992,9.5093017578125,0.4155609130859375,3.983941650390625
12.043999999999984,8.395257568359376,-0.0515899658203125,2.23287353515625
12.053999999999974,7.188949584960938,-0.93131103515625,2.330221557617188
12.063999999999965,5.992510986328125,0.119927978515625,3.0907623291015627
12.073999999999955,10.072305297851564,1.0110137939453123,3.025265502929688
12.084000000000003,15.522149658203126,0.5920135498046876,5.30972900390625
12.093999999999994,12.423760986328126,-0.527862548828125,5.2579895019531255
12.10499999999996,5.536276245117188,-1.373638916015625,4.3129211425781255
12.113999999999976,2.379568481445313,-0.6720153808593751,6.704153442382813
12.123999999999969,7.2243896484375005,-0.5160491943359375,3.140109252929688
12.134999999999993,14.078976440429688,0.2184722900390625,1.2529632568359377
12.144999999999982,15.293209838867188,0.6597534179687501,4.113739013671875
12.154999999999973,9.876712036132814,0.6255096435546875,3.338095092773438
12.164999999999964,6.203955078125,-0.063702392578125,3.458770751953125
12.174999999999956,3.718215942382813,0.008673095703125,4.6667236328125
12.185000000000002,8.167962646484376,-0.8732910156250001,5.157949829101563
12.194999999999991,12.049322509765624,-0.1591064453125,3.83590087890625
12.204999999999984,12.92530517578125,1.2601409912109376,3.399703979492188
12.214999999999977,10.68226318359375,0.5692840576171876,1.9185485839843752
12.224999999999966,6.644039916992188,-0.3677093505859375,4.0721679687500005
12.234999999999957,5.259634399414063,-0.65137939453125,4.768258666992188
12.245000000000005,7.654605102539063,-0.2435943603515625,2.601629638671876
12.254999999999995,10.811761474609376,0.9314605712890626,3.4524902343750004
12.264999999999986,12.44065856933594,1.0325469970703125,2.123861694335938
12.274999999999975,10.81744384765625,0.2310333251953125,3.337496948242188
12.284999999999968,7.064086914062501,-0.1559661865234375,6.800903320312501
12.295999999999992,5.572015380859376,-0.557470703125,5.685812377929688
12.305999999999983,7.2148193359375,0.392083740234375,3.888238525390625
12.315999999999974,10.391714477539065,0.198284912109375,3.2263916015625003
12.325999999999963,12.307272338867188,-0.584088134765625,1.794732666015625
12.335999999999956,10.965185546875,0.4182525634765625,2.6390136718750004
12.346000000000004,8.342770385742188,0.1009368896484375,3.4376861572265627
12.355999999999996,7.176837158203125,-0.5540313720703125,4.611843872070313
12.365999999999984,7.155453491210938,-0.116937255859375,5.1717071533203125
12.375999999999976,8.972616577148438,0.0097198486328125,4.708444213867188
12.385999999999967,10.695422363281253,0.2118927001953125,4.076654052734376
12.395999999999958,10.000079345703126,0.8182617187500001,2.995208740234375
12.406999999999982,9.4542724609375,0.1502838134765625,2.0589630126953127
12.415999999999997,7.363607788085938,-0.5525360107421875,2.4794586181640628
12.426999999999964,5.844769287109376,-0.152825927734375,3.854742431640626
12.436999999999957,7.7881408691406255,0.184527587890625,4.193142700195313
12.447000000000005,14.699700927734376,0.992620849609375,5.753552246093751
12.456999999999994,13.81953125,1.5408203125000002,3.302206420898438
12.466999999999985,7.10655517578125,-0.0680389404296875,2.5614044189453127
12.476999999999975,1.8424346923828123,-1.2110931396484377,7.549331665039063
12.486999999999966,6.598281860351563,-0.9706390380859377,4.6493774414062505
12.496999999999955,13.779904174804688,-0.1137969970703125,1.7693115234375
12.507000000000003,14.845498657226564,0.4281219482421875,4.15411376953125
12.516999999999996,10.616317749023438,-0.2938385009765625,4.263723754882813
12.526999999999989,6.154010009765625,-0.4882354736328125,1.850509643554688
12.536999999999978,4.285107421875001,0.2585479736328125,3.48179931640625
12.546999999999969,8.53851318359375,-0.6510803222656251,5.283709716796875
12.55699999999996,11.8576171875,0.3745880126953125,4.190451049804688
12.567999999999984,12.719543457031252,2.174703979492188,3.613092041015625
12.577999999999976,9.494796752929688,0.951947021484375,3.038275146484376
12.587999999999964,6.598580932617188,-0.17047119140625,5.6023712158203125
12.597999999999956,5.663381958007813,-0.193798828125,3.085079956054688
12.608000000000004,8.230917358398438,-0.142657470703125,1.6279998779296876
12.617999999999997,11.181564331054688,-0.06998291015625,3.469537353515625
12.627999999999986,12.621298217773438,-0.0617584228515625,1.943820190429688
12.637999999999977,10.321432495117188,-0.0177947998046875,3.039022827148438
12.647999999999968,6.878063964843751,-1.1793914794921876,7.332952880859375
12.65799999999996,5.329617309570313,-0.9317596435546877,6.8140625
12.668000000000006,7.232015991210938,0.27335205078125,3.630737304687501
12.677999999999995,10.563381958007811,0.3581390380859375,2.9286651611328125
12.687999999999988,12.244317626953126,-0.2130889892578125,2.888140869140625
12.69799999999998,11.546881103515624,0.8045043945312501,1.5708770751953127
12.709000000000003,8.76102294921875,1.29019775390625,2.2055084228515627
12.718999999999994,6.026156616210938,0.6374725341796875,5.113836669921875
12.728999999999983,7.034628295898438,-0.2388092041015625,5.54539794921875
12.738999999999976,9.01942138671875,0.3102874755859375,4.57879638671875
12.748999999999969,10.576242065429687,0.113946533203125,4.224395751953125
12.758999999999958,10.739236450195314,0.1126007080078125,4.250115966796876
12.769000000000004,9.425860595703126,-0.2259490966796875,2.0731689453125
12.778999999999996,7.445404052734376,-0.8776275634765626,2.0372802734375
12.788999999999987,6.430801391601563,-0.219219970703125,3.647335815429688
12.798999999999978,6.859820556640625,1.3582366943359376,2.878121948242188
12.808999999999967,11.677874755859376,1.4629119873046876,4.149627685546875
12.81899999999996,15.004455566406252,-0.0701324462890625,6.162234497070313
12.829000000000008,10.086810302734376,-0.8647674560546875,4.907626342773438
12.839,4.4026428222656255,-0.93250732421875,4.545449829101563
12.84899999999999,4.078298950195313,-0.649884033203125,4.5735626220703125
12.85899999999998,10.41190185546875,-0.5668914794921875,2.375680541992188
12.870000000000005,14.676373291015626,-0.445318603515625,2.1139923095703126
12.879999999999995,13.09562683105469,0.199481201171875,4.364810180664063
12.889999999999986,7.613034057617188,0.091815185546875,4.132580566406251
12.899999999999975,5.4314514160156255,-0.1176849365234375,4.479504394531251
12.909999999999968,5.391824340820313,-0.2911468505859375,4.712033081054688
12.91999999999996,9.935778808593753,-0.2100982666015625,4.119570922851563
12.930999999999983,12.92410888671875,0.8611785888671876,3.174951171875
12.939999999999998,12.167605590820314,1.373040771484375,1.40863037109375
12.949999999999989,8.57081298828125,1.0563232421875002,3.1359222412109378
12.95999999999998,5.679681396484376,-0.738409423828125,5.156005859375
12.96999999999997,5.88095703125,-0.530853271484375,4.554122924804688
12.97999999999996,9.188546752929687,0.3413909912109375,2.775241088867188
12.990999999999984,11.871524047851564,0.584686279296875,3.242840576171876
13.000999999999976,11.892758178710938,0.3315216064453125,2.82802734375
13.010999999999967,9.13486328125,-0.0474029541015625,4.183273315429688
13.020999999999958,6.185711669921876,-0.6853240966796875,6.192739868164063
13.031000000000006,6.304891967773438,-0.6213226318359375,5.043405151367188
13.040999999999997,9.025253295898438,0.411822509765625,2.9696380615234377
13.050999999999988,11.133264160156251,0.2941375732421875,2.5101135253906253
13.06099999999998,11.936273193359376,-0.104974365234375,3.135025024414063
13.07099999999997,9.386831665039065,0.4296173095703125,3.3464691162109377
13.08099999999996,7.530340576171875,0.2053131103515625,3.8170593261718753
13.091000000000008,6.899896240234376,-0.2732025146484375,4.643695068359375
13.101,8.343069458007813,0.279632568359375,4.746725463867188
13.11099999999999,9.863253784179689,0.349017333984375,3.7558990478515626
13.12099999999998,10.7701904296875,0.22490234375,3.685617065429688
13.130999999999972,9.8370849609375,0.0922637939453125,2.8972625732421875
13.141999999999996,7.6359130859375,-0.3581390380859375,2.2768371582031253
13.151999999999989,6.157598876953125,-0.538031005859375,3.619821166992188
13.161999999999978,6.644937133789063,-0.2465850830078125,4.613040161132813
13.171999999999969,13.600460815429688,0.666632080078125,4.857830810546876
13.18199999999996,14.184698486328124,1.4288177490234375,2.6611450195312503
13.192000000000007,8.5738037109375,1.0504913330078125,3.087173461914063
13.201999999999998,3.875827026367188,-1.0364349365234375,7.0688720703125005
13.211999999999987,5.147183227539063,-0.9568817138671876,6.314761352539063
13.22199999999998,11.677276611328123,-0.3548492431640625,2.279827880859376
13.231999999999973,14.276812744140626,0.029010009765625,2.45418701171875
13.241999999999962,11.11636657714844,-0.15970458984375,4.219760131835938
13.251999999999953,7.809524536132813,-0.5879760742187501,2.002438354492188
13.262,5.908023071289063,-0.0013458251953125,3.290692138671876
13.271999999999991,7.283905029296876,-0.3282318115234375,5.5615478515625005
13.28299999999996,10.677328491210938,0.3476715087890625,4.430755615234375
13.293000000000006,11.4616455078125,1.8324157714843752,3.782666015625
13.302999999999995,9.92142333984375,0.8743377685546876,3.9419219970703128
13.312999999999988,8.32138671875,-0.097198486328125,4.037326049804688
13.32299999999998,6.424969482421876,0.4332061767578125,2.6639862060546875
13.33299999999997,8.014389038085938,-0.1631439208984375,2.33575439453125
13.34299999999996,10.004266357421876,-0.6500335693359376,3.372787475585938
13.352999999999952,11.277117919921876,0.109161376953125,2.9036926269531254
13.363,10.608990478515626,-0.2187713623046875,2.6992767333984378
13.37299999999999,8.012295532226563,-1.0627532958984376,6.734359741210938
13.38299999999998,6.3226867675781255,-0.74110107421875,6.347061157226563
13.392999999999972,7.617221069335938,0.0907684326171875,4.082485961914063
13.402999999999963,9.364102172851563,0.26318359375,3.7398986816406254
13.413999999999987,11.423214721679688,0.156414794921875,2.41710205078125
13.423999999999978,11.214462280273438,0.936993408203125,1.323245239257813
13.433999999999967,8.716909790039063,1.0992401123046875,2.746978759765625
13.44399999999996,7.539013671875001,0.198583984375,4.777828979492188
13.454000000000008,7.489666748046876,0.251519775390625,5.258737182617188
13.464,8.706442260742188,0.357391357421875,4.612890625
13.47399999999999,9.925460815429688,-0.14774169921875,4.429409790039063
13.48399999999998,10.157989501953123,0.0581695556640625,4.058111572265625
13.493999999999971,8.988467407226564,-0.289501953125,2.309136962890625
13.505999999999972,8.581878662109375,-0.491973876953125,2.1741058349609377
13.513999999999951,6.5114013671875,0.499749755859375,2.9504974365234378
13.524,6.6800781250000005,1.7706573486328123,2.960665893554688
13.533999999999992,11.625387573242188,1.305300903320313,3.942221069335938
13.543999999999984,14.709121704101564,-0.2260986328125,6.6071044921875
13.555000000000009,10.761068725585938,-0.9076843261718752,5.581884765625
13.564999999999998,4.3963623046875,-1.2033172607421876,3.976016235351562
13.574999999999989,3.481051635742188,-0.9269744873046876,5.199969482421875
13.58499999999998,10.572952270507812,-1.4964080810546876,2.1401611328125
13.59499999999997,14.50724792480469,-1.3649658203125,1.7272918701171875
13.605999999999996,13.537356567382814,0.1626953125,4.005923461914063
13.614999999999952,8.431594848632812,0.4631134033203125,4.092953491210938
13.625,4.943066406250001,-0.0832916259765625,4.869943237304688
13.634999999999993,4.9110656738281255,-0.222210693359375,5.095144653320313
13.644999999999982,9.3250732421875,0.328082275390625,4.375726318359376
13.654999999999973,12.479238891601565,1.3389465332031252,2.9542358398437503
13.664999999999964,13.169049072265626,1.4970062255859375,1.057220458984375
13.674999999999956,8.995944213867189,1.5394744873046875,2.6445465087890625
13.685000000000002,6.041110229492188,-0.591864013671875,5.209689331054688
13.694999999999991,5.358776855468751,-0.6108551025390625,4.361669921875
13.70599999999996,8.091549682617188,0.2117431640625,3.588717651367188
13.716000000000008,11.797653198242188,-0.03050537109375,3.6109985351562495
13.726,12.55625,-0.2657257080078125,2.882159423828125
13.73599999999999,9.680072021484376,-0.0538330078125,3.823190307617188
13.74599999999998,6.770098876953125,-0.7876068115234376,5.897854614257813
13.755999999999972,5.739645385742188,-0.7098480224609376,5.160342407226563
13.765999999999964,8.18201904296875,0.5112640380859376,2.490225219726563
13.775999999999954,11.191583251953126,0.5471527099609376,2.7915405273437504
13.786,11.945693969726562,0.2890533447265625,3.294580078125
13.795999999999992,10.223336791992187,0.9710876464843752,3.1374176025390628
13.805999999999983,7.803842163085938,0.430364990234375,4.198077392578125
13.815999999999974,6.291882324218751,-0.361578369140625,5.1148834228515625
13.825999999999963,7.8512451171875,0.2743988037109375,4.2685089111328125
13.835999999999956,9.571957397460938,0.4246826171875,3.2720001220703128
13.846000000000004,11.058047485351564,-0.2619873046875,3.7603851318359376
13.856999999999973,10.678674316406251,-0.2763427734375,2.971432495117188
13.866999999999962,8.185159301757814,-0.247930908203125,2.304949951171875
13.876999999999953,5.385992431640625,-0.6712677001953126,4.395016479492188
13.887,6.970925903320313,-0.28770751953125,4.893869018554688
13.896999999999991,12.811358642578126,0.56524658203125,3.651971435546875
13.906999999999982,13.911795043945313,0.8692535400390625,2.8227935791015626
13.916999999999971,8.67847900390625,0.8716461181640626,3.6002319335937503
13.926999999999964,3.965548706054688,-0.256304931640625,6.459512329101563
13.936999999999957,6.491213989257813,-0.6308929443359376,6.364257812500001
13.947000000000005,11.197863769531253,0.1308441162109375,2.5998352050781253
13.956999999999994,13.416232299804689,0.6603515625,3.1921478271484376
13.966999999999985,11.179769897460938,-0.674407958984375,3.4245269775390628
13.976999999999975,7.782159423828125,-0.8441314697265626,1.8609771728515627
13.988,6.118869018554688,-0.1529754638671875,3.27364501953125
13.99799999999999,8.056109619140626,-0.9236846923828126,5.191296386718751
14.00799999999998,10.17982177734375,-0.0656463623046875,5.258737182617188
14.017999999999972,11.29296875,1.705010986328125,3.551632690429688
14.027999999999963,9.9854248046875,0.71597900390625,4.095794677734375
14.037999999999954,7.688101196289063,-0.1012359619140625,4.43883056640625
14.048000000000002,6.9540283203125,0.64898681640625,2.0368316650390628
14.057999999999993,7.81834716796875,0.415411376953125,2.2904449462890626
14.067999999999984,10.486370849609376,-0.228790283203125,3.2473266601562503
14.077999999999976,11.556600952148438,0.5130584716796875,2.391232299804688
14.087999999999964,10.153204345703124,0.1739105224609375,3.7228515625
14.097999999999956,7.834347534179688,-1.34163818359375,6.954776000976563
14.108000000000004,5.9802490234375005,-0.7596435546875,6.147280883789063
14.118999999999971,7.558004760742188,-0.115740966796875,3.882705688476563
14.128999999999962,10.086810302734376,-0.41929931640625,3.554922485351563
14.138999999999951,11.69073486328125,-0.1021331787109375,2.68865966796875
14.149,11.039056396484376,0.7008758544921876,0.7959808349609375
14.158999999999992,8.87646484375,0.7289886474609375,3.4432189941406253
14.168999999999984,6.850848388671875,0.009271240234375,4.6972290039062505
14.178999999999974,7.583575439453125,0.7213623046875001,4.727435302734375
14.188999999999965,8.885287475585939,0.6599029541015625,5.021572875976563
14.198999999999955,9.839776611328126,0.1362274169921875,4.8976074218750005
14.209000000000003,10.387078857421876,0.4771697998046875,3.7557495117187503
14.218999999999994,8.7508544921875,0.007476806640625,2.007373046875
14.228999999999983,7.795916748046875,-0.470440673828125,2.133880615234375
14.238999999999976,6.055166625976563,0.748577880859375,2.54510498046875
14.248999999999969,8.23345947265625,1.3823120117187502,2.884552001953125
14.258999999999958,14.09632263183594,-0.0662445068359375,5.568576049804688
14.269000000000004,13.890710449218751,-0.6844268798828126,6.20694580078125
14.279999999999973,7.464096069335938,-1.32010498046875,4.575656127929688
14.289999999999964,2.5937042236328125,-1.7247497558593752,6.380258178710938
14.299999999999956,6.865802001953125,-1.4264251708984377,4.00577392578125
14.310000000000002,12.363497924804689,-0.5911163330078125,0.291595458984375
14.319999999999991,15.019110107421875,0.5659942626953125,2.7383056640625
14.329999999999984,10.935726928710938,1.1669799804687502,4.095196533203126
14.339999999999977,7.007861328125,0.4532440185546875,3.8082366943359376
14.349999999999966,4.5162902832031255,0.360980224609375,5.001235961914063
14.359999999999957,6.004025268554688,0.31641845703125,5.631082153320313
14.370000000000005,11.30792236328125,0.5776580810546875,3.8142181396484376
14.379999999999995,13.301687622070313,0.8062988281250001,2.5721710205078128
14.389999999999986,11.11053466796875,0.9184509277343752,2.1430023193359378
14.399999999999975,7.949490356445313,-0.236566162109375,2.6473876953125
14.409999999999968,5.208343505859375,-0.718670654296875,4.864260864257813
14.41999999999996,6.5951416015625,-1.12451171875,3.9046875
14.430999999999983,10.51224060058594,-0.2687164306640625,3.5087158203125
14.440999999999974,11.960797119140626,0.54132080078125,3.5471466064453128
14.450999999999963,11.264108276367187,0.2500244140625,3.043359375
14.460999999999956,7.849899291992188,0.0753662109375,5.463900756835938
14.471000000000004,5.876171875000001,-0.4837493896484375,6.007763671875001
14.480999999999996,7.217361450195313,-0.0411224365234375,3.591110229492188
14.490999999999984,9.912750244140623,1.341339111328125,2.287005615234375
14.500999999999976,11.721539306640626,0.5976959228515626,2.318109130859375
14.510999999999967,11.253790283203124,0.2524169921875,3.3717407226562504
14.522999999999968,8.577093505859375,0.2244537353515625,4.231723022460938
14.531000000000006,6.842474365234375,-0.2645294189453125,4.219610595703125
14.540999999999997,7.228128051757813,-0.2809783935546875,5.213128662109376
14.550999999999988,8.53851318359375,-0.0611602783203125,4.022073364257813
14.56099999999998,10.9807373046875,-0.3503631591796875,3.33345947265625
14.572000000000005,10.84720153808594,-0.3620269775390625,3.677243041992188
14.581999999999994,9.345709228515624,0.0681884765625,2.336203002929688
14.591999999999985,7.689147949218751,-0.1386199951171875,2.351605224609376
14.601999999999975,5.5603515625,-0.5854339599609375,4.62664794921875
14.611999999999966,7.148873901367188,-0.1712188720703125,4.964749145507813
14.62299999999999,13.64906005859375,1.24892578125,4.68466796875
14.632000000000003,14.029479980468752,2.0299530029296875,3.1254547119140628
14.641999999999996,8.081381225585938,0.72196044921875,2.4371398925781254
14.651999999999989,4.056167602539063,-1.0379302978515623,6.201113891601563
14.661999999999978,5.290438842773438,-0.6506317138671875,5.40184326171875
14.671999999999969,11.65469665527344,0.1565643310546875,2.6983795166015625
14.68199999999996,14.635101318359377,0.5923126220703125,3.6482330322265626
14.692000000000007,10.852285766601565,-0.7898498535156251,4.063494873046875
14.702999999999976,7.978201293945313,-1.2208129882812502,3.2449340820312504
14.712999999999964,4.71995849609375,-0.1093109130859375,3.151473999023438
14.722999999999956,7.825973510742188,-0.181536865234375,4.38739013671875
14.733000000000004,11.224630737304688,-0.2729034423828125,3.9878295898437504
14.742999999999997,12.0765380859375,1.27943115234375,3.5290527343750004
14.752999999999986,10.18580322265625,1.37154541015625,3.3659088134765627
14.762999999999977,7.400543212890626,0.5091705322265625,4.662835693359376
14.772999999999968,5.718112182617188,0.3392974853515625,4.553823852539063
14.78299999999996,7.874273681640625,-0.128900146484375,2.273397827148438
14.793000000000006,10.481436157226565,0.0160003662109375,3.012255859375
14.802999999999995,11.900534057617188,0.1607513427734375,2.0378784179687504
14.812999999999988,10.930194091796876,0.0299072265625,2.242742919921876
14.82299999999998,7.61497802734375,-0.9224884033203126,6.314462280273438
14.83299999999997,5.9772583007812505,-1.3989105224609375,6.581085205078126
14.84299999999996,7.394711303710938,-0.3219512939453125,4.819699096679688
14.852999999999952,9.49195556640625,0.2086029052734375,4.105664062500001
14.863999999999976,11.595779418945312,-0.240753173828125,2.92373046875
14.873999999999969,11.38388671875,0.4502532958984375,1.8410888671875
14.883999999999958,9.15699462890625,0.8734405517578125,1.7045623779296877
14.894000000000004,7.260427856445313,0.9422271728515624,3.937734985351563
14.903999999999996,7.005020141601563,0.5058807373046875,5.208343505859375
14.913999999999987,8.812164306640625,0.6506317138671875,4.590609741210938
14.923999999999978,10.159933471679688,0.1810882568359375,5.113088989257813
14.933999999999967,10.014434814453123,0.13697509765625,4.407278442382813
14.94399999999996,9.198416137695313,0.018243408203125,2.4746734619140627
14.954000000000008,8.058352661132814,-0.52337646484375,2.081842041015625
14.964,6.241638183593751,-0.0889739990234375,2.8706451416015626
14.97399999999999,7.709335327148438,1.01505126953125,2.8076904296875003
14.98399999999998,11.964385986328123,0.880169677734375,4.140954589843751
14.995000000000005,14.492742919921875,-0.5706298828125,5.863909912109375
15.004999999999995,9.495993041992188,-1.07845458984375,4.943365478515625
15.014999999999986,3.9746704101562496,-1.0114624023437502,5.580838012695313
15.024999999999975,4.605712890625,-0.90618896484375,5.11832275390625
15.034999999999968,11.622396850585938,-0.8255889892578125,1.8191070556640627
15.04499999999996,14.158828735351564,0.070281982421875,2.0707763671875004
15.055000000000009,12.309814453125002,0.887945556640625,3.9598663330078128
15.064999999999998,8.002725219726564,0.4864410400390625,3.707748413085938
15.074999999999989,5.036376953125,0.322100830078125,3.775039672851563
15.08499999999998,6.229376220703125,-0.23387451171875,5.729626464843751
15.09499999999997,9.548031616210938,-0.175555419921875,4.472775268554688
15.10499999999996,12.6316162109375,0.9263763427734376,3.289645385742188
15.114999999999952,11.595330810546876,1.0259674072265623,1.9028472900390627
15.125,8.681619262695314,-0.0811981201171875,3.0473968505859377
15.135999999999967,6.180926513671875,-0.7989715576171875,4.294079589843751
15.145999999999958,6.376669311523438,-0.6344818115234375,3.615484619140626
15.156000000000006,9.117218017578123,0.1499847412109375,3.758740234375
15.165999999999997,11.854327392578126,0.6613983154296875,2.7807739257812503
15.175999999999988,11.5214599609375,0.8140747070312501,3.2361114501953128
15.18599999999998,8.433389282226564,0.0059814453125,5.433395385742188
15.19599999999997,6.668862915039063,-0.386102294921875,6.348257446289063
15.20599999999996,6.252255249023438,0.171966552734375,4.29886474609375
15.216000000000008,9.400140380859376,0.481805419921875,2.3012115478515627
15.226,11.466131591796875,0.1155914306640625,2.034588623046876
15.23599999999999,11.39749450683594,0.2205657958984375,2.7827178955078127
15.24599999999998,9.586911010742188,0.109161376953125,3.570025634765625
15.255999999999972,7.298410034179688,-0.315521240234375,4.8516998291015625
15.265999999999964,6.978851318359376,-0.3769805908203125,5.181726074218751
15.275999999999954,8.381948852539063,-0.1327880859375,4.51060791015625
15.286999999999978,9.843215942382812,0.0279632568359375,4.080691528320313
15.296999999999969,10.892361450195311,0.19559326171875,3.1143890380859376
15.30699999999996,10.099072265625,0.2513702392578125,2.3486145019531253
15.317000000000007,8.059848022460939,-0.1616485595703125,1.99002685546875
15.326999999999998,6.658245849609376,-0.177947998046875,3.6681213378906254
15.336999999999987,6.677835083007813,0.119329833984375,5.029049682617188
15.34699999999998,9.561489868164063,0.4341033935546875,4.9145050048828125
15.356999999999973,14.673532104492187,1.1405120849609376,4.276434326171875
15.366999999999962,11.285940551757813,1.5998870849609377,2.0689819335937503
15.376999999999953,5.750561523437501,-0.0823944091796875,4.508663940429688
15.387,3.9673431396484378,-1.1144927978515626,6.752603149414063
15.396999999999991,9.407916259765626,-0.6422576904296875,3.855789184570313
15.406999999999982,13.285986328125,-0.2056121826171875,2.4488037109375003
15.416999999999971,12.673785400390626,-0.5597137451171875,4.367352294921876
15.427999999999995,8.816201782226564,-0.778485107421875,3.446060180664063
15.437999999999988,6.299359130859376,-0.4807586669921875,2.5847320556640625
15.44799999999998,6.881353759765625,-0.2896514892578125,4.079794311523438
15.45799999999997,9.457711791992187,0.0450103759765625,4.802203369140625
15.46799999999996,11.638845825195313,1.4531921386718751,3.9936614990234376
15.477999999999952,10.572503662109376,1.8514068603515623,3.160147094726563
15.488,8.685806274414062,0.608612060546875,4.346865844726563
15.49799999999999,6.873727416992188,0.149237060546875,4.103720092773438
15.50799999999998,7.101620483398438,0.3357086181640625,2.764474487304688
15.517999999999972,9.352886962890626,-0.1801910400390625,2.26756591796875
15.527999999999963,11.23135986328125,-0.319110107421875,3.320599365234376
15.537999999999954,10.958605957031253,-0.43724365234375,2.7372589111328125
15.548000000000002,9.14263916015625,-0.868505859375,4.118524169921876
15.557999999999993,6.750061035156251,-1.0105651855468751,6.915896606445313
15.56899999999996,6.67589111328125,-0.7781860351562501,5.444012451171876
15.579000000000008,9.165518188476565,0.05084228515625,3.625204467773438
15.589,10.325320434570314,0.2809783935546875,3.3675537109375004
15.59899999999999,11.443551635742187,0.365765380859375,2.4226348876953128
15.60899999999998,9.773233032226564,1.2921417236328123,1.935595703125
15.618999999999971,7.971920776367188,1.209597778320313,3.110650634765625
15.628999999999962,7.452731323242188,0.27095947265625,4.959515380859376
15.638999999999951,8.379257202148438,0.430364990234375,5.1383605957031255
15.649,9.447393798828124,0.4487579345703125,4.037026977539063
15.658999999999992,10.123147583007814,-0.1203765869140625,4.53453369140625
15.668999999999984,9.274530029296876,-0.5031890869140625,3.999942016601562
15.678999999999974,8.366098022460939,-0.5441619873046876,1.8173126220703129
15.688999999999965,7.261624145507813,-0.1792938232421875,2.6461914062500003
15.698999999999955,6.306835937500001,0.6000885009765625,3.1611938476562504
15.70999999999998,10.650112915039063,1.124810791015625,2.970236206054688
15.71999999999997,15.160122680664063,0.30804443359375,5.080340576171875
15.72999999999996,11.357269287109377,-0.5824432373046875,5.946453857421876
15.739999999999952,5.499639892578125,-1.1807373046875,5.404833984375
15.75,2.270257568359375,-0.6507812500000001,5.554220581054688
15.759999999999993,9.653604125976564,-1.1204742431640626,2.6642852783203126
15.769999999999982,14.124285888671876,-0.3911865234375,1.3365539550781251
15.779999999999973,13.86259765625,1.0104156494140626,3.9517913818359376
15.789999999999964,9.218005371093753,0.2428466796875,3.49495849609375
15.799999999999956,6.012997436523438,-0.385504150390625,3.965698242187501
15.810000000000002,4.450942993164063,0.1568634033203125,5.208792114257813
15.819999999999991,8.62823486328125,-0.3787750244140625,4.6587982177734375
15.829999999999984,12.0717529296875,0.4556365966796875,4.126599121093751
15.839999999999977,12.708926391601564,1.0146026611328125,2.2366119384765626
15.851,10.164419555664065,0.8372528076171876,1.9231842041015623
15.86099999999999,6.3226867675781255,-0.25421142578125,4.043157958984375
15.87099999999998,5.541958618164063,-0.4493560791015625,4.501187133789063
15.880999999999972,7.870684814453125,0.0381317138671875,3.342431640625
15.890999999999964,11.16676025390625,0.593359375,3.576605224609376
15.900999999999954,12.481930541992188,0.5381805419921876,2.6895568847656253
15.911,9.790130615234377,0.362176513671875,4.285256958007813
15.920999999999992,6.8176513671875005,-0.6163879394531251,6.295770263671876
15.930999999999983,6.097335815429688,-0.8097381591796876,5.084677124023438
15.940999999999974,7.870535278320313,0.3422882080078125,3.026312255859376
15.950999999999963,10.921670532226564,0.4009063720703125,2.2696594238281254
15.960999999999956,12.347198486328129,0.0203369140625,2.4464111328125
15.971000000000004,10.145877075195314,0.3252410888671875,3.281121826171875
15.980999999999996,8.208486938476563,-0.1760040283203125,4.5761047363281255
15.990999999999984,6.5544677734375005,-0.295782470703125,4.9478515625
16.001999999999953,7.245025634765626,0.3541015625,4.7066497802734375
16.012,9.513937377929688,0.1383209228515625,3.991867065429688
16.02199999999999,10.974606323242188,0.0474029541015625,3.645989990234375
16.031999999999982,10.478594970703126,0.494366455078125,2.4657012939453127
16.041999999999973,9.002374267578126,0.23387451171875,1.9025482177734376
16.051999999999964,6.314163208007813,-0.36905517578125,3.5603057861328127
16.061999999999955,5.781216430664063,-0.15252685546875,4.4479522705078125
16.072000000000003,9.331353759765626,0.2020233154296875,4.206002807617188
16.081999999999994,14.92310791015625,1.078155517578125,4.6224609375000005
16.091999999999985,12.94324951171875,2.2695098876953126,3.3282257080078126
16.101999999999975,5.367300415039063,0.23626708984375,4.534384155273438
16.111999999999966,2.745184326171876,-1.7787322998046875,7.757485961914063
16.123999999999967,9.05830078125,-1.9095764160156248,3.3167114257812504
16.132000000000005,13.571749877929689,-1.1784942626953123,0.320904541015625
16.142999999999972,13.662966918945314,0.1275543212890625,4.671209716796875
16.152999999999963,9.464889526367188,-0.304156494140625,3.5166412353515626
16.162999999999954,6.247619628906251,-0.3970184326171875,2.864215087890625
16.173000000000002,5.626596069335938,-0.5680877685546876,5.420086669921876
16.182999999999993,8.595635986328126,0.34632568359375,5.5184814453125
16.192999999999984,11.409158325195314,2.42427978515625,2.900851440429688
16.202999999999975,11.948684692382812,2.100384521484376,2.4118682861328127
16.212999999999965,9.512142944335938,-0.0088226318359375,4.165179443359375
16.22399999999999,7.077694702148438,0.179742431640625,3.6287933349609376
16.233000000000004,6.113037109375,0.6963897705078126,2.6713134765625
16.242999999999995,8.273086547851562,-0.5939575195312501,3.5694274902343754
16.252999999999986,11.289529418945314,-1.1393157958984377,3.908126831054688
16.262999999999977,11.700604248046876,-0.5719757080078125,2.511907958984376
16.272999999999968,9.539358520507813,-0.6959411621093751,3.858032226562501
16.283999999999992,7.084872436523438,-0.7500732421875,6.50841064453125
16.293999999999983,6.3056396484375,-0.3820648193359375,5.179034423828125
16.303999999999974,8.677133178710939,-0.1136474609375,3.2455322265625
16.313999999999965,10.465884399414064,0.52457275390625,3.8874908447265626
16.323999999999955,11.146572875976563,1.2374114990234375,2.388540649414063
16.334000000000003,9.946096801757813,1.764825439453125,2.0212799072265626
16.343999999999994,8.303143310546876,0.7511199951171875,3.6474853515625
16.353999999999985,7.265811157226563,-0.2068084716796875,4.7385009765625
16.363999999999976,8.249160766601562,0.4729827880859375,5.008413696289063
16.373999999999967,9.020169067382811,0.4837493896484375,3.981549072265625
16.383999999999958,10.407864379882811,-0.4720855712890625,4.360324096679688
16.394000000000005,10.221243286132813,-0.9544891357421876,3.849359130859375
16.403999999999996,8.642440795898438,-0.8574401855468751,2.093954467773438
16.413999999999987,7.598379516601563,-0.3312225341796875,2.5742645263671875
16.424999999999955,6.531588745117188,0.514404296875,4.020578002929688
16.435000000000002,7.511349487304688,1.3838073730468752,3.079397583007813
16.444999999999993,12.163568115234376,1.6984313964843751,3.416900634765625
16.454999999999984,14.084060668945314,0.6969879150390625,5.634521484375
16.464999999999975,9.187051391601564,-0.3976165771484375,5.414852905273438
16.474999999999966,5.235858154296875,-1.2701599121093752,5.2325683593750005
16.484999999999957,5.140603637695313,-1.1979339599609375,4.6827239990234375
16.495000000000005,11.384933471679688,-0.9227874755859377,2.307791137695313
16.504999999999995,13.399932861328129,-0.850262451171875,2.0302520751953126
16.514999999999986,11.549273681640626,-0.6996795654296876,3.7072998046875
16.524999999999977,8.347705078125001,-0.7379608154296875,4.476663208007813
16.534999999999968,5.916696166992188,0.0240753173828125,3.502435302734375
16.54499999999996,6.301452636718751,0.3375030517578125,5.495901489257813
16.555000000000007,9.855029296875,0.186920166015625,4.925271606445313
16.564999999999998,11.835784912109377,1.146792602539063,2.9875823974609377
16.575999999999965,11.568713378906253,1.4736785888671875,1.6170837402343752
16.585999999999956,8.245123291015625,1.6961883544921876,2.635275268554688
16.596000000000004,6.218011474609376,0.1694244384765625,4.467840576171875
16.605999999999995,7.099826049804688,-0.2337249755859375,3.421087646484376
