time,ax,ay,az
0.0,7.241436767578126,-0.5568725585937501,6.728527832031251
0.0099999999999838,7.342971801757813,-0.1256103515625,6.128738403320313
0.0199999999999747,8.013192749023439,0.00179443359375,5.746075439453126
0.0299999999999656,8.049530029296875,0.1727142333984375,5.69852294921875
0.0409999999999328,7.747616577148438,0.7333251953125001,5.964996337890625
0.0509999999999308,7.320391845703125,0.256903076171875,6.89481201171875
0.0609999999999146,7.284503173828125,0.5793029785156251,6.446054077148438
0.0709999999999055,6.226235961914063,0.278436279296875,4.150674438476563
0.0809999999998964,7.446600341796875,-0.0287109375,3.5785491943359378
0.0909999999998874,11.745315551757812,0.5172454833984376,5.836544799804688
0.100999999999999,8.666815185546875,-1.6857208251953126,7.232763671875
0.1109999999999828,4.689303588867188,-1.000396728515625,7.472320556640626
0.1209999999999738,7.72264404296875,-0.9347503662109377,9.567919921875
0.1309999999999647,8.130728149414063,-2.1473388671875,13.476345825195311
0.1409999999999556,5.87437744140625,0.2148834228515625,5.101724243164063
0.1509999999999465,9.105255126953123,1.427920532226563,1.7045623779296877
0.1609999999999374,10.952774047851562,-0.768017578125,0.1541717529296875
0.1709999999999283,9.759027099609376,-0.3025115966796875,6.08671875
0.1809999999999192,1.5846343994140626,0.36187744140625,8.676385498046876
0.1909999999999101,5.774487304687501,1.2816741943359375,2.9890777587890627
0.201999999999991,12.336730957031252,0.5102172851562501,6.915447998046876
0.2119999999999819,9.29755859375,0.733624267578125,6.631179809570313
0.2219999999999728,6.752603149414063,1.475772094726563,2.757894897460938
0.2319999999999709,9.889422607421876,-1.4904266357421876,4.935140991210938
0.2419999999999547,9.085665893554689,-1.4654541015625,9.77607421875
0.2519999999999456,2.867205810546875,-0.5836395263671875,10.7223388671875
0.2619999999999365,3.581539916992188,-0.4335052490234375,3.845620727539063
0.2719999999999274,10.480389404296876,-1.0648468017578123,6.2482177734375
0.2819999999999183,9.978396606445314,-1.021630859375,6.2135253906250005
0.2919999999999092,6.7458740234375005,1.0741180419921876,3.989624023437501
0.3019999999999001,8.65335693359375,0.7747467041015625,3.670962524414063
0.3119999999998981,10.287039184570313,-0.2319305419921875,6.830062866210938
0.322999999999972,7.025357055664063,0.0115142822265625,7.73819580078125
0.33299999999997,6.430203247070313,0.9153106689453124,3.945062255859375
0.3429999999999538,7.848553466796876,0.5486480712890626,5.460162353515625
0.3529999999999447,8.06597900390625,-0.5755645751953126,8.572308349609376
0.3629999999999356,6.7087890625,0.170172119140625,6.476858520507813
0.3729999999999265,7.777374267578126,0.4622161865234375,4.0003906250000005
0.3829999999999174,9.05889892578125,-1.0908660888671875,5.826376342773438
0.3929999999999083,7.92601318359375,-1.9266235351562504,7.489517211914063
0.4029999999998992,5.075555419921876,-1.284515380859375,3.940426635742188
0.4129999999998901,5.619717407226563,-0.8918334960937501,3.123361206054688
0.422999999999881,10.328610229492188,-0.5860321044921876,6.830062866210938
0.4329999999999856,10.344610595703124,-0.7853637695312501,8.095437622070314
0.4429999999999765,7.493106079101563,1.14544677734375,4.53214111328125
0.4529999999999674,9.419131469726564,1.7429931640625,6.930252075195313
0.4639999999999347,10.126437377929689,-0.7268951416015625,11.638397216796877
0.4739999999999256,4.758688354492188,0.19320068359375,8.025006103515626
0.4839999999999165,2.2521636962890628,0.9520965576171876,3.4082275390625
0.4939999999999074,10.513287353515626,1.0400238037109375,4.901495361328125
0.5039999999998983,10.080081176757814,0.4294677734375,7.016683959960938
0.5139999999998892,5.858975219726563,1.359283447265625,4.208544921875
0.5239999999998801,7.576846313476563,-0.3464752197265625,3.2761871337890627
0.5339999999999847,11.120104980468753,-2.625704956054688,4.981198120117188
0.5439999999999756,7.825375366210938,-1.959371948242188,7.956817626953126
0.5539999999999665,6.340182495117188,0.203668212890625,3.903042602539063
0.5639999999999574,9.82557067871094,-0.7565032958984376,1.4182006835937502
0.5739999999999483,9.574948120117188,-1.4965576171875,7.516583251953126
0.5839999999999392,5.12071533203125,-0.2501739501953125,10.014883422851565
0.5939999999999301,4.5017852783203125,0.8836090087890626,6.462203979492188
0.6039999999999281,8.297012329101562,1.0059295654296876,7.905377197265626
0.613999999999919,7.911358642578126,0.1769012451171875,9.606201171875
0.625,6.95462646484375,0.9334045410156252,4.953384399414063
0.6349999999999838,7.314111328125,0.8800201416015626,4.133328247070313
0.6449999999999747,10.339825439453126,1.06708984375,4.718014526367188
0.6549999999999656,8.488269042968751,-0.4565338134765625,5.34442138671875
0.6649999999999565,6.725088500976563,-0.506329345703125,4.348062133789063
0.6749999999999474,8.049530029296875,-1.143951416015625,5.04056396484375
0.6849999999999383,8.201458740234376,-1.6614959716796875,7.734457397460938
0.6949999999999292,6.021670532226563,-0.9224884033203126,5.78465576171875
0.7049999999999201,3.75814208984375,0.3922332763671875,3.040069580078125
0.714999999999911,8.1598876953125,-0.905889892578125,6.809725952148438
0.724999999999902,12.857266235351563,-1.0983428955078125,9.130227661132814
0.7349999999998929,10.429547119140626,0.9978546142578124,5.039816284179688
0.7449999999998909,7.73819580078125,0.101385498046875,4.0666351318359375
0.7549999999999883,9.412551879882812,-1.0310516357421875,10.246514892578126
0.7659999999999556,4.0352325439453125,0.0462066650390625,13.07947692871094
0.7759999999999465,2.5138519287109378,0.8082427978515626,2.588619995117188
0.7859999999999374,7.870086669921876,1.2496734619140626,4.010260009765625
0.7959999999999283,12.875808715820314,0.57960205078125,5.15062255859375
0.8059999999999192,7.93917236328125,-0.862225341796875,5.726336669921875
0.8159999999999101,7.133172607421876,-0.3695037841796875,2.645742797851563
0.8259999999998939,9.682913208007813,-1.4056396484375,6.078045654296876
0.8359999999998919,8.581878662109375,-0.6458465576171876,9.602911376953124
0.84599999999989,5.962454223632813,0.7309326171875,4.5615997314453125
0.8559999999999874,8.660833740234375,0.0542816162109375,2.1322357177734377
0.8659999999999783,9.111087036132814,-0.5603118896484376,0.8577392578125
0.8759999999999692,8.33035888671875,-0.798223876953125,7.637109375
0.8859999999999602,4.653414916992188,-0.5653961181640625,8.172598266601563
0.895999999999944,5.361468505859375,0.8163177490234376,10.376910400390626
0.905999999999942,8.531335449218751,-0.23028564453125,9.708633422851562
0.9169999999999092,8.660385131835938,0.2839691162109375,6.421231079101563
0.9269999999999,7.473965454101563,0.9972564697265626,5.1452392578125
0.936999999999898,8.575448608398439,-0.2002288818359375,5.0232177734375005
0.946999999999889,7.381851196289063,-0.9951629638671876,4.620816040039063
0.9569999999999864,6.696228027343751,-0.4589263916015625,4.28271484375
0.9669999999999774,6.841726684570313,0.042767333984375,3.955679321289063
0.9769999999999684,4.916598510742188,-0.6232666015625,2.9819000244140628
0.9869999999999592,4.094000244140625,-1.1041748046875002,2.874533081054688
0.99699999999995,14.128173828125002,0.055029296875,8.455670166015626
1.006999999999941,16.857656860351565,0.593658447265625,11.705389404296875
1.016999999999932,10.312460327148438,1.4999969482421875,7.422225952148438
1.0279999999998992,4.9484497070312505,0.081646728515625,5.135968017578126
1.03799999999989,3.5123046875000004,-0.681884765625,18.530218505859377
1.046999999999905,-1.6205230712890626,-0.4198974609375,7.245773315429688
1.0579999999999856,3.027059936523438,0.630743408203125,1.1234649658203126
1.0679999999999763,15.281396484375,-0.2500244140625,2.2005737304687503
1.0779999999999674,14.402871704101564,-1.9391845703125,-0.0442626953125
1.0879999999999583,9.358718872070312,1.06708984375,0.455487060546875
1.0979999999999492,10.102511596679689,0.7035675048828125,2.776287841796876
1.10799999999994,9.550274658203126,-0.6480895996093751,13.104449462890626
1.1199999999998909,1.05093994140625,-1.30096435546875,17.525784301757813
1.127999999999929,5.6173248291015625,-0.2678192138671875,4.224545288085938
1.13799999999992,13.229910278320313,0.445916748046875,1.0803985595703125
1.1479999999999038,5.151519775390625,-0.127105712890625,-0.1625457763671875
1.157999999999895,6.042156982421876,-0.692352294921875,0.050543212890625
1.1679999999998856,7.227081298828126,-0.9631622314453124,0.9534423828125
1.1779999999999902,12.00775146484375,0.12142333984375,10.799649047851563
1.187999999999974,7.865451049804688,0.372344970703125,17.287124633789062
1.197999999999972,8.317050170898439,-0.5253204345703125,10.182363891601565
1.2089999999999392,6.248516845703126,-0.07476806640625,3.9957550048828128
1.2199999999999065,6.008212280273438,0.9319091796875,4.795474243164063
1.228999999999928,6.675442504882813,0.183331298828125,7.197921752929688
1.238999999999919,5.875274658203125,-0.1978363037109375,4.124655151367188
1.2489999999999029,5.871087646484376,0.5540313720703125,3.181829833984376
1.2589999999998938,13.022952270507814,-0.3108856201171875,1.5288574218750002
1.2689999999998849,11.09857177734375,-1.2499725341796877,3.7665161132812495
1.2789999999999893,8.63660888671875,-0.7675689697265625,11.180368041992187
1.2889999999999802,4.8811584472656255,-0.34273681640625,9.554312133789065
1.2989999999999782,6.148178100585938,-0.51141357421875,6.243731689453125
1.308999999999969,1.253411865234375,-0.2965301513671875,2.7689605712890626
1.3199999999999292,2.0589630126953127,-0.19798583984375,1.6094573974609376
1.3289999999999438,15.424502563476564,-0.2026214599609375,9.63909912109375
1.339999999999911,20.69191284179688,0.6615478515625001,6.120663452148438
1.349999999999902,9.31849365234375,-0.88465576171875,0.3506622314453125
1.3599999999998929,7.654754638671876,-0.3309234619140625,12.915884399414065
1.3699999999998909,0.1260589599609375,-0.5467041015625,24.66374206542969
1.3799999999999883,-0.1287506103515625,0.334661865234375,1.8751831054687504
1.3899999999999793,2.411569213867188,0.514105224609375,1.1276519775390623
1.3999999999999702,16.5470703125,1.7477783203125,0.2944366455078125
1.409999999999961,11.357269287109377,0.5013946533203125,0.7125396728515625
1.419999999999952,9.676931762695313,0.286212158203125,1.915408325195313
1.4299999999999429,7.20225830078125,0.0420196533203125,0.2229583740234375
1.4399999999999338,13.291668701171876,-0.8707489013671875,12.612326049804688
1.449999999999925,4.944561767578126,-1.5357360839843752,17.35262145996094
1.4599999999999156,0.7325775146484376,-0.48629150390625,4.138262939453125
1.4699999999999065,15.74720153808594,0.6823333740234375,1.2069061279296875
1.4799999999998974,5.15361328125,-0.5882751464843751,0.14893798828125
1.4899999999998883,4.937832641601563,-0.552984619140625,0.4409820556640625
1.5009999999999692,9.064431762695314,-1.1201751708984375,3.1562591552734376
1.5109999999999602,7.567276000976563,-0.32239990234375,11.06372985839844
1.520999999999944,7.679278564453125,-0.0632537841796875,18.33103637695313
1.530999999999942,8.459109497070314,0.1048248291015625,7.7232421875
1.5409999999999329,5.818002319335938,0.9271240234375,3.881958007812501
1.5509999999999309,8.431445312500001,0.8812164306640625,4.57939453125
1.560999999999915,8.483782958984376,-0.0889739990234375,5.529995727539063
1.5709999999999056,5.0818359375,0.0480010986328125,4.214077758789063
1.5809999999998965,7.169210815429688,0.9021514892578124,2.567086791992188
1.5909999999998874,11.400784301757811,-0.7645782470703125,0.975872802734375
1.600999999999999,10.215859985351564,-1.089968872070313,7.008160400390626
1.610999999999983,4.883251953125001,-0.762335205078125,6.08671875
1.62199999999995,1.8702484130859376,-0.8167663574218751,5.131930541992188
1.631999999999941,8.621057128906251,-2.3478668212890628,10.084417724609375
1.641999999999932,15.384576416015626,-0.6125,10.717852783203126
1.65199999999993,9.497637939453126,1.5746154785156252,6.218161010742188
1.6619999999999209,7.343869018554688,0.7965789794921876,3.037078857421875
1.671999999999905,9.134713745117187,-0.311334228515625,8.915643310546876
1.6819999999998956,1.3933776855468751,-0.2187713623046875,18.10075073242188
1.6919999999998865,-0.337353515625,0.394775390625,0.8424865722656251
1.701999999999991,10.923464965820314,1.0325469970703125,3.692794799804688
1.711999999999982,15.205282592773438,0.3536529541015625,0.9108245849609377
1.7219999999999729,10.247711181640623,0.8755340576171876,-1.897164916992188
1.731999999999971,9.186752319335938,0.905889892578125,5.97247314453125
1.7419999999999547,7.748962402343751,-0.017047119140625,9.442160034179688
1.7519999999999456,4.69364013671875,-1.344329833984375,14.769683837890629
1.7619999999999365,4.4818969726562505,-1.299468994140625,5.222998046875
1.7729999999999038,10.875314331054687,-0.3481201171875,2.34532470703125
1.782999999999895,9.035421752929688,-1.344180297851563,-0.224603271484375
1.7929999999998856,7.1454345703125,-1.0850341796875,0.022430419921875
1.8029999999999904,7.3787109375,-0.8225982666015625,3.4155548095703128
1.812999999999974,8.342620849609375,-0.4821044921875,12.13994140625
1.822999999999972,5.528350830078125,0.3895416259765625,15.590786743164063
1.83299999999997,9.261819458007814,-0.2633331298828125,8.509353637695312
1.8429999999999536,6.801052856445313,0.9580780029296876,4.3102294921875
1.8529999999999447,7.151715087890626,1.57850341796875,4.506121826171875
1.862999999999936,7.830459594726563,1.2481781005859376,5.666522216796875
1.8729999999999265,6.236105346679688,0.36666259765625,4.235311889648438
1.8829999999999167,6.647778320312501,0.207257080078125,3.833358764648438
1.8929999999999083,9.48941345214844,-0.5882751464843751,5.109500122070313
1.9029999999998992,10.70020751953125,-1.107464599609375,5.3945159912109375
1.91299999999989,7.280465698242188,-1.09998779296875,5.486032104492188
1.9239999999999784,1.41939697265625,-0.0339447021484375,1.8050506591796875
1.933999999999969,6.361267089843751,-0.993817138671875,7.668063354492188
1.9439999999999529,15.339117431640624,-2.7605865478515628,12.65015869140625
1.953999999999944,13.946038818359376,0.7825225830078125,7.956817626953126
1.963999999999935,7.421029663085938,0.8955718994140626,0.3162689208984375
1.9739999999999256,7.055712890625,-0.308941650390625,5.611343383789063
1.9839999999999165,4.771548461914063,-0.349615478515625,26.786108398437506
1.993999999999908,-1.909725952148437,-0.6304443359375,-0.3665130615234375
2.0039999999998983,0.9012542724609376,0.3146240234375,-1.0489959716796875
2.013999999999889,24.4629150390625,1.7788818359375,7.446749877929688
2.02399999999988,10.502520751953126,0.418402099609375,0.545806884765625
2.0339999999999847,8.340826416015625,0.413916015625,-1.8389953613281247
2.043999999999976,5.617474365234376,-0.6685760498046875,9.19751892089844
2.0539999999999665,6.111093139648438,-1.6140930175781252,16.908050537109375
2.063999999999957,7.891171264648438,-0.8107849121093751,6.0046234130859375
2.0749999999999247,7.506564331054688,0.4978057861328125,2.6702667236328126
2.084999999999916,10.252047729492189,-0.0210845947265625,-0.0399261474609375
2.0949999999999065,6.541607666015626,-0.322698974609375,0.439935302734375
2.1049999999998974,8.429949951171876,-0.7576995849609376,0.41571044921875
2.1149999999998883,7.340579223632813,-0.65496826171875,14.350534057617187
2.125,5.208343505859375,0.5812469482421876,11.623443603515623
2.134999999999984,11.025299072265623,-0.37144775390625,9.918582153320314
2.1449999999999747,7.316354370117188,0.045159912109375,6.001333618164063
2.1549999999999656,5.738150024414063,1.5212310791015626,3.618325805664063
2.1649999999999565,6.483139038085938,0.420196533203125,6.817800903320313
2.1749999999999474,7.197323608398438,-0.6125,6.072213745117188
2.1849999999999383,6.291732788085938,0.61728515625,3.8118255615234378
2.194999999999929,8.286245727539063,0.8377014160156251,4.801007080078126
2.20499999999992,12.826611328125,-1.093109130859375,3.415106201171876
2.214999999999911,10.154998779296877,-1.39188232421875,4.599880981445313
2.225999999999999,5.295672607421875,-0.7125396728515625,6.947897338867188
2.2369999999999592,2.4655517578125004,-0.6497344970703125,5.634521484375
2.245999999999974,4.266116333007813,-1.70889892578125,7.475460815429688
2.2559999999999647,12.262261962890626,-0.953741455078125,7.917041015625
2.265999999999956,11.723931884765626,1.6736083984375,5.972622680664063
2.2759999999999465,10.584616088867188,0.4134674072265625,2.385400390625
2.2859999999999374,10.374368286132814,-0.268267822265625,7.291232299804688
2.2959999999999283,3.9778106689453128,0.0336456298828125,19.66026306152344
2.3059999999999192,0.1547698974609375,0.4248321533203125,5.8187500000000005
2.31599999999991,6.00955810546875,0.908880615234375,2.4159057617187503
2.325999999999894,15.223526000976564,0.0503936767578125,1.571026611328125
2.336999999999982,8.953475952148438,0.5507415771484375,0.21533203125
2.34599999999989,8.025753784179688,1.064996337890625,6.347509765625
2.356999999999971,6.429754638671875,0.1818359375,7.632324218750001
2.3669999999999547,8.286395263671876,-0.972882080078125,10.367788696289065
2.3769999999999456,7.914947509765626,-1.0486968994140626,6.676190185546876
2.3869999999999365,7.470077514648438,-0.0805999755859375,3.749169921875
2.3969999999999274,11.457608032226563,-0.8731414794921876,0.653472900390625
2.4069999999999183,6.783706665039063,-1.0817443847656252,0.083441162109375
2.416999999999909,7.572210693359375,-0.8471221923828126,6.386239624023438
2.4269999999999,2.9397308349609377,-1.280328369140625,10.522409057617187
2.437999999999974,8.343667602539064,-0.9102264404296876,9.38189697265625
2.446999999999889,9.180770874023438,0.0865814208984375,9.318045043945313
2.4569999999999865,7.767654418945313,0.630743408203125,5.906527709960938
2.466999999999977,6.966888427734376,1.595401000976563,6.548934936523438
2.4769999999999683,7.443759155273438,1.011163330078125,7.608547973632813
2.4869999999999592,6.836941528320313,0.6012847900390625,5.24393310546875
2.49699999999995,6.767706298828125,1.12869873046875,3.5905120849609378
2.5079999999999174,8.079437255859375,0.4547393798828125,4.382754516601563
2.5179999999999083,9.98602294921875,-1.11793212890625,4.246228027343751
2.527999999999899,8.332302856445313,-1.3462738037109376,4.739099121093751
2.53799999999989,4.566235351562501,-0.69384765625,5.042807006835938
2.547999999999881,3.1055664062500004,-0.6234161376953126,2.914459228515625
2.5579999999999856,12.497781372070314,-2.534786987304688,9.989163208007811
2.5679999999999765,16.676419067382813,-1.73641357421875,9.38174743652344
2.5779999999999674,7.924816894531251,-0.122021484375,4.359576416015625
2.5879999999999583,4.886541748046875,-0.4367950439453125,3.0619018554687503
2.597999999999949,5.841778564453126,-0.7484283447265625,20.3428955078125
2.60799999999994,-1.1744567871093752,-0.0165985107421875,10.119857788085938
2.617999999999924,3.9311553955078127,1.3120300292968752,2.2288360595703125
2.627999999999929,18.135891723632813,2.143450927734375,2.9349456787109376
2.63799999999992,12.315945434570311,1.9204925537109376,0.0345428466796875
2.647999999999904,9.052169799804688,1.9505493164062504,-2.435943603515625
2.6589999999999847,8.553466796875,0.9377410888671877,7.32786865234375
2.668999999999976,5.5878662109375,0.2636322021484375,13.353726196289063
2.6789999999999665,3.546697998046876,-1.0015930175781251,13.826708984375
2.688999999999957,7.742532348632813,0.1158905029296875,4.946804809570313
2.6989999999999483,12.221438598632814,-0.2667724609375,0.8290283203125001
2.7089999999999392,6.331210327148438,-1.1204742431640626,-0.545208740234375
2.71899999999993,7.771243286132813,-0.9544891357421876,-0.58558349609375
2.728999999999928,7.463946533203125,-0.98634033203125,2.2083496093750004
2.738999999999919,9.031832885742189,-1.568484497070313,10.33399353027344
2.748999999999903,7.398898315429688,-2.21014404296875,15.93681335449219
2.7589999999998938,7.520172119140626,-1.651776123046875,11.4090087890625
2.7689999999998847,6.005221557617188,0.178546142578125,3.5290527343750004
2.7789999999999893,6.500335693359376,2.228387451171875,4.166226196289063
2.78899999999998,8.102465820312501,2.397662353515625,6.940869140625001
2.798999999999978,6.635516357421875,1.15142822265625,5.481546020507813
2.8099999999999383,7.057507324218751,1.541567993164063,3.5315948486328126
2.819999999999929,11.266201782226563,0.5807983398437501,3.5649414062500004
2.82999999999992,11.161676025390626,-0.9902282714843752,4.882504272460938
2.839999999999911,6.772042846679688,-0.2711090087890625,7.9331909179687505
2.849999999999902,3.834555053710938,-1.146942138671875,7.159939575195313
2.859999999999893,2.959320068359375,-0.9585266113281252,4.279574584960938
2.869999999999891,7.667614746093751,-1.7854614257812502,6.194235229492188
2.8799999999999883,13.03297119140625,-1.7560028076171876,7.738046264648438
2.890999999999956,12.588250732421876,-1.0905670166015626,3.08822021484375
2.89999999999997,6.943411254882813,0.4888336181640625,6.236105346679688
2.909999999999961,6.563290405273438,0.83680419921875,15.115112304687502
2.919999999999952,5.020825195312501,-0.1926025390625,12.283346557617188
2.929999999999943,3.3928253173828127,1.591363525390625,4.038970947265625
2.94099999999991,9.7844482421875,0.585882568359375,2.570974731445313
2.950999999999894,12.751544189453126,-1.102081298828125,-0.3437835693359375
2.960999999999892,8.09110107421875,1.2577484130859375,2.099188232421876
2.97099999999989,6.236105346679688,0.7376617431640625,9.269146728515626
2.9809999999999874,5.278475952148438,-0.438739013671875,8.992654418945314
2.9909999999999783,9.818991088867188,-2.0658416748046875,9.20230407714844
3.000999999999969,8.45118408203125,-0.5366851806640626,5.170809936523438
3.01099999999996,10.629776000976562,0.033795166015625,1.6514770507812502
3.020999999999944,7.684213256835938,-1.2098968505859375,-0.640911865234375
3.030999999999942,6.967785644531251,-1.0113128662109376,1.365115356445313
3.040999999999933,6.00596923828125,-0.6727630615234376,12.555502319335938
3.050999999999931,4.01175537109375,-0.6824829101562501,7.405178833007813
3.0609999999999147,10.585064697265626,1.224102783203125,9.146975708007814
3.0709999999999056,7.921676635742188,-0.1299468994140625,10.16666259765625
3.0819999999999865,6.824829101562501,0.9060394287109376,5.3477111816406255
3.091999999999977,6.865951538085938,1.4934173583984376,6.55028076171875
3.1019999999999683,7.55875244140625,0.8137756347656251,7.360617065429688
3.1119999999999592,7.087713623046875,0.6341827392578125,4.356585693359375
3.12199999999995,6.915896606445313,0.410626220703125,3.6009796142578128
3.131999999999941,9.924862670898438,-0.3696533203125,3.100631713867188
3.141999999999932,8.691787719726562,-1.15621337890625,2.118328857421876
3.15199999999993,2.08333740234375,0.0488983154296875,2.7617828369140627
3.161999999999921,5.644839477539063,-0.7493255615234375,7.9556213378906255
3.1719999999999047,17.607580566406252,-2.2908935546875,12.79371337890625
3.181999999999896,16.237979125976565,-0.4131683349609375,8.38299560546875
3.1919999999998865,4.382455444335938,0.801214599609375,2.521478271484375
3.201999999999991,3.3820587158203126,0.419598388671875,11.883935546875
3.211999999999982,1.2610382080078126,1.1032775878906251,18.034954833984376
3.221999999999973,-1.289898681640625,-0.6859222412109376,0.728240966796875
3.23299999999994,8.760125732421876,0.0219818115234375,2.3592315673828126
3.242999999999924,20.41721496582032,-1.8147705078125,1.242645263671875
3.252999999999929,10.44046325683594,-0.671417236328125,1.5044830322265623
3.26299999999992,7.015188598632813,3.3572357177734378,0.47373046875
3.272999999999904,7.402337646484375,0.8673095703125001,10.447341918945312
3.2829999999998947,5.248269653320313,-0.9628631591796876,18.363037109375
3.2929999999998856,9.179275512695312,-0.462664794921875,5.707046508789063
3.30299999999999,9.138601684570313,-0.4155609130859375,0.2041168212890625
3.312999999999974,5.96708984375,-0.0246734619140625,-0.4233367919921875
3.322999999999972,6.570318603515625,-0.6368743896484376,1.0300048828125
3.33299999999997,6.194235229492188,0.6192291259765625,1.4560333251953126
3.342999999999954,7.316802978515626,0.503936767578125,12.318487548828124
3.3529999999999447,7.747616577148438,-2.6551635742187503,14.995782470703126
3.362999999999936,10.155596923828126,-0.8770294189453126,15.010586547851563
3.373999999999903,9.251052856445312,-0.751568603515625,1.64429931640625
3.3839999999998938,4.413259887695313,0.387298583984375,3.685317993164063
3.3939999999998847,5.2853546142578125,1.2867584228515625,7.549331665039063
3.4039999999999893,6.706097412109376,-0.2833709716796875,6.026904296875
3.41399999999998,8.287890625000001,0.313726806640625,1.072024536132813
3.423999999999978,9.541900634765623,0.6183319091796875,1.1216705322265623
3.433999999999969,9.979592895507814,1.2356170654296876,8.32437744140625
3.443999999999953,8.126391601562501,-0.3055023193359375,10.519717407226564
3.453999999999944,5.769403076171876,-0.3174652099609375,7.294970703125
3.4639999999999347,3.5197814941406254,-0.34453125,5.341131591796875
3.4739999999999256,3.690551757812501,-1.499847412109375,4.218414306640625
3.4839999999999165,11.526693725585938,-1.1445495605468752,5.435189819335938
3.4939999999999074,12.97599792480469,0.7176239013671876,6.587066650390626
3.5039999999998983,9.281558227539064,0.9830505371093752,4.766912841796875
3.513999999999889,4.293780517578125,-0.0943572998046875,10.116867065429688
3.52399999999988,4.817007446289063,-0.487188720703125,16.636492919921878
3.534999999999961,6.156253051757813,1.4225372314453126,9.614425659179688
3.544999999999952,8.689843750000001,2.1316375732421875,0.5483489990234376
3.554999999999943,8.860165405273438,0.2409027099609375,0.5754150390625
3.5649999999999338,9.95716247558594,-2.0248687744140628,4.394717407226563
3.5749999999999247,5.652615356445313,0.5220306396484375,9.470123291015623
3.584999999999916,5.061349487304688,1.7969757080078126,4.653265380859375
3.5949999999999065,7.9900146484375005,-0.5013946533203125,8.839678955078126
3.6049999999998974,10.992849731445313,-1.167279052734375,7.361813354492188
3.614999999999888,10.434332275390624,0.1655364990234375,1.6390655517578123
3.625,8.112185668945314,-0.4342529296875,0.2226593017578125
3.634999999999984,6.232067871093751,-1.000247192382813,4.4848876953125005
3.644999999999975,4.189852905273438,-0.8822631835937501,12.024349975585938
3.655999999999942,4.7649688720703125,-0.5160491943359375,5.555865478515625
3.665999999999933,8.229421997070313,0.7858123779296876,6.511251831054688
3.675999999999931,9.427056884765626,0.3707000732421875,11.019616699218751
3.685999999999914,7.388729858398438,-0.1801910400390625,8.30643310546875
3.6959999999999056,6.379959106445313,0.6874176025390626,5.061947631835938
3.705999999999897,6.872531127929688,1.457379150390625,7.149472045898438
3.715999999999888,7.509555053710938,1.0498931884765623,7.2976623535156255
3.725999999999999,7.660137939453126,0.0219818115234375,3.186764526367188
3.735999999999983,8.284451293945313,0.29727783203125,2.4615142822265628
3.745999999999974,9.02884216308594,0.2069580078125,5.177239990234376
3.7559999999999647,7.798309326171876,-0.902899169921875,7.782757568359376
3.765999999999956,6.070269775390625,-0.1686767578125,6.3167053222656255
3.7759999999999465,2.038925170898437,-0.285614013671875,4.114785766601563
3.7859999999999374,6.056512451171876,-1.5025390625,5.325430297851563
3.7969999999999047,15.325210571289064,-1.3265350341796875,9.794915771484376
3.8059999999999192,13.491748046875,0.47552490234375,6.979598999023438
3.816999999999888,5.882452392578125,-0.2977264404296875,2.738006591796875
3.826999999999991,1.729534912109375,-1.4736785888671875,11.785540771484376
3.8379999999999583,4.709790039062501,-0.6210235595703125,17.86463317871094
3.846999999999973,6.330612182617188,1.2472808837890623,4.868746948242188
3.856999999999971,8.990261840820313,6.411660766601563,0.73272705078125
3.866999999999954,12.26136474609375,1.1671295166015625,0.9389373779296876
3.8769999999999456,10.8539306640625,-1.4985015869140623,5.3163085937500005
3.886999999999937,4.703659057617188,1.0663421630859375,9.36036376953125
3.896999999999928,3.225942993164063,0.47911376953125,4.811773681640625
3.9069999999999183,9.296063232421876,-0.5839385986328125,12.209027099609376
3.916999999999909,10.40113525390625,-1.0638000488281252,5.308682250976563
3.9269999999999,8.776724243164063,0.1350311279296875,0.10946044921875
3.937999999999974,7.653408813476563,-0.40255126953125,0.4541412353515625
3.947999999999972,6.605908203125001,-1.3121795654296875,2.6014801025390626
3.95799999999997,5.58966064453125,-1.5490447998046877,12.29710388183594
3.967999999999954,4.7320709228515625,-0.5016937255859375,6.8969055175781255
3.9779999999999447,8.359368896484376,-1.5825408935546876,10.224832153320314
3.987999999999936,9.822579956054687,-0.22191162109375,11.304034423828126
3.997999999999928,7.442263793945313,0.6446502685546875,6.255545043945313
4.007999999999917,5.9552764892578125,2.1593017578125,3.7413940429687504
4.017999999999908,6.503326416015626,1.663739013671875,7.515237426757813
4.027999999999899,6.940869140625001,0.4415802001953125,6.686956787109375
4.03799999999989,7.978948974609375,0.7061096191406251,2.2641265869140628
4.047999999999881,9.122900390625,0.6096588134765626,3.6184753417968754
4.057999999999986,9.736148071289064,1.079949951171875,5.864508056640625
4.0679999999999765,7.85423583984375,-0.5432647705078125,8.67847900390625
4.077999999999967,6.466839599609376,-0.8190093994140626,7.664923095703125
4.088999999999935,5.480648803710938,-1.341189575195313,7.141845703125001
4.098999999999926,3.719711303710938,-1.499249267578125,4.821942138671876
4.1089999999999165,4.529150390625,-1.2043640136718752,2.225994873046876
4.118999999999907,12.093435668945313,-1.0129577636718752,4.728482055664063
4.128999999999898,12.708328247070314,0.0955535888671875,8.97156982421875
4.138999999999889,10.268048095703126,1.7574981689453126,6.303546142578125
4.14899999999988,4.831063842773438,1.1566619873046875,11.53641357421875
4.158999999999985,4.606161499023438,0.2112945556640625,16.009936523437503
4.168999999999976,6.401940917968751,1.85963134765625,7.81954345703125
4.178999999999967,7.1813232421875,0.587677001953125,-0.162994384765625
4.188999999999957,8.821734619140626,-0.7783355712890626,0.2331268310546875
4.198999999999948,8.476156616210938,-0.0566741943359375,3.299066162109375
4.208999999999939,7.091152954101563,1.1554656982421876,10.0380615234375
4.21899999999993,6.76322021484375,0.6778472900390625,4.341632080078125
4.228999999999928,8.837884521484376,-1.657757568359375,9.493301391601562
4.239999999999888,9.916189575195313,-1.8322662353515624,8.665917968750001
4.25,9.16776123046875,-0.2978759765625,1.7237030029296876
4.259999999999984,8.154354858398438,-0.7061096191406251,0.587078857421875
4.269999999999975,6.565682983398438,-0.4831512451171875,3.0439575195312503
4.279999999999966,4.2994628906250005,-0.47911376953125,10.966082763671876
4.2899999999999565,4.16966552734375,0.3156707763671875,6.402838134765625
4.299999999999947,8.275778198242188,2.0540283203125003,8.327667236328125
4.309999999999938,8.809771728515626,0.8098876953125,11.624490356445314
4.319999999999929,7.905975341796876,0.308343505859375,7.472470092773438
4.32999999999992,7.443609619140625,0.9784149169921876,4.7241455078125005
4.339999999999911,7.38768310546875,1.173709106445313,7.356579589843751
4.350999999999999,7.139154052734376,0.59156494140625,6.514541625976563
4.359999999999893,7.025506591796876,-0.11903076171875,2.5883209228515627
4.369999999999891,8.140447998046875,-0.333465576171875,2.351007080078125
4.380999999999965,8.422024536132813,-1.0370330810546875,5.867199707031251
4.390999999999956,7.689147949218751,-0.784765625,6.757089233398438
4.4009999999999465,3.626998901367188,-0.0569732666015625,4.984936523437501
4.410999999999937,3.1010803222656254,-0.5135070800781251,5.173651123046875
4.420999999999928,13.541842651367189,-2.025167846679688,10.2689453125
4.430999999999919,16.146463012695314,0.72913818359375,8.699713134765625
4.44099999999991,8.172000122070314,0.5807983398437501,2.686117553710938
4.450999999999894,1.1704193115234376,-0.983648681640625,8.747714233398439
4.460999999999892,3.2062042236328128,-1.0418182373046876,17.13370056152344
4.47099999999989,5.1966796875000005,0.9654052734375,8.582177734375001
4.480999999999987,8.523260498046875,0.6358276367187501,-0.8031585693359375
4.490999999999978,12.896743774414064,2.4280181884765626,0.038580322265625
4.500999999999969,11.701501464843751,2.2228546142578125,3.391329956054688
4.51099999999996,5.4722747802734375,1.3310211181640623,13.018316650390624
4.520999999999944,3.2087463378906254,-1.4750244140625002,5.156903076171876
4.530999999999942,8.723638916015625,-1.35599365234375,8.518026733398438
4.541999999999909,9.99200439453125,-0.9893310546875,8.637954711914062
4.5519999999999,8.822183227539064,0.201873779296875,0.50184326171875
4.561999999999898,7.653109741210938,-0.1164886474609375,0.01854248046875
4.571999999999889,7.351345825195313,-0.3102874755859375,1.738507080078125
4.5819999999999865,5.6023712158203125,-1.0962493896484375,7.883993530273438
4.591999999999977,5.0431060791015625,-0.418402099609375,9.688446044921877
4.601999999999968,6.853390502929688,0.1033294677734375,10.056753540039065
4.611999999999959,9.548629760742188,-0.168975830078125,12.185250854492187
4.62199999999995,8.585018920898438,0.23148193359375,7.364205932617188
4.631999999999941,6.688302612304688,1.3634704589843751,2.9141601562500004
4.641999999999932,6.407174682617188,1.6565612792968751,5.508312988281251
4.65199999999993,6.482839965820313,-0.1855743408203125,6.972421264648438
4.66299999999989,7.028347778320313,-0.1924530029296875,3.15999755859375
4.671999999999905,8.878109741210938,0.4735809326171875,3.2162231445312504
4.682999999999986,9.959555053710938,0.4021026611328125,6.228927612304688
4.6929999999999765,9.00506591796875,-0.3611297607421875,7.9945007324218755
4.702999999999967,6.782510375976563,-0.38580322265625,7.416842651367188
4.712999999999958,4.240396118164063,-0.7840179443359375,6.997543334960938
4.722999999999949,2.350408935546876,-0.7865600585937501,4.549935913085938
4.73299999999994,6.737200927734375,-1.383059692382813,3.9120147705078128
4.742999999999924,13.783193969726565,0.1087127685546875,6.436184692382813
4.752999999999929,12.533670043945314,1.55338134765625,6.216964721679688
4.76299999999992,8.363555908203125,1.855593872070313,6.858624267578126
4.772999999999904,4.762725830078125,-0.1413116455078125,15.120645141601564
4.782999999999895,4.915850830078125,0.3844573974609375,14.29371032714844
4.792999999999886,6.371585083007813,1.078155517578125,3.7783294677734376
4.80299999999999,7.093246459960938,-0.5426666259765626,-0.3481201171875
4.812999999999974,9.840075683593753,-1.404443359375,0.9900787353515624
4.823999999999948,7.612734985351563,-1.118829345703125,8.989663696289064
4.833999999999939,6.427212524414063,1.29378662109375,4.330117797851563
4.84399999999993,7.814309692382813,0.27275390625,5.404086303710938
4.855999999999987,8.792276000976564,-1.5982421875,11.537759399414064
4.863999999999919,9.5045166015625,0.0538330078125,5.386740112304688
4.873999999999903,9.705343627929688,0.1798919677734375,0.6410614013671876
4.883999999999894,8.263665771484376,-0.3122314453125,0.8581878662109376
4.893999999999885,5.791983032226563,0.041571044921875,8.457015991210938
4.903999999999989,3.0894165039062504,-0.0527862548828125,9.06592712402344
4.91399999999998,5.080191040039063,0.880169677734375,7.590454101562501
4.923999999999978,8.375518798828125,1.9492034912109373,10.408761596679687
4.933999999999969,8.5857666015625,-0.7044647216796875,9.157293701171875
4.943999999999953,8.547933959960938,-0.109161376953125,5.241839599609375
4.9559999999998965,7.795468139648438,0.327484130859375,5.8685455322265625
4.964999999999911,7.237548828125001,0.4421783447265625,7.139154052734376
4.974999999999902,6.551626586914063,0.2268463134765625,4.785006713867188
4.984999999999893,7.490414428710938,-0.4780670166015625,2.9636566162109377
4.994999999999891,8.413500976562501,-0.32120361328125,3.903790283203125
5.004999999999988,8.817248535156251,-0.6616973876953125,5.8546386718750005
5.014999999999979,6.643890380859376,-0.332269287109375,6.390426635742188
5.02499999999997,1.6390655517578123,0.459674072265625,4.179385375976563
5.034999999999961,5.691943359375,-0.4074859619140625,6.817202758789063
5.044999999999952,16.187884521484378,-0.9226379394531252,11.091094970703123
5.055999999999919,14.50380859375,0.9455169677734376,7.360168457031251
5.064999999999934,5.360122680664063,-0.1733123779296875,2.454486083984375
5.074999999999925,1.3196563720703125,-1.262982177734375,11.206387329101563
5.084999999999916,3.9653991699218754,-0.276641845703125,17.686834716796877
5.0949999999999065,6.123654174804688,1.3169647216796876,4.294528198242188
5.104999999999897,8.459408569335938,0.2380615234375,-0.7771392822265626
5.115999999999978,14.423806762695314,1.1758026123046876,0.1766021728515625
5.125999999999969,10.402481079101562,3.564791870117188,4.008465576171876
5.13599999999996,4.7528564453125,-0.6047241210937501,13.787231445312502
5.145999999999944,4.0631958007812505,-0.7195678710937501,3.9142578125
5.155999999999942,9.047235107421876,-1.1850738525390625,11.3133056640625
5.165999999999933,9.961199951171876,-0.6480895996093751,6.5090087890625
5.175999999999931,8.007809448242188,0.3624755859375,-0.068487548828125
5.185999999999915,8.004220581054689,-0.064898681640625,0.281427001953125
5.195999999999906,7.307232666015626,-0.1562652587890625,1.7277404785156252
5.2059999999998965,6.084625244140625,-0.9295166015625,7.672250366210938
5.215999999999887,4.3861938476562505,-0.1852752685546875,9.6839599609375
5.225999999999999,7.361663818359376,-0.439337158203125,13.025344848632814
5.235999999999983,9.58526611328125,-0.3832611083984375,12.729562377929687
5.245999999999974,8.651712036132814,0.5055816650390625,4.048840332031251
5.256999999999941,6.304891967773438,1.014752197265625,2.95782470703125
5.266999999999932,6.577496337890626,1.4467620849609375,6.420483398437501
5.27699999999993,6.320443725585938,-0.1655364990234375,7.119714355468751
5.286999999999921,7.195379638671875,-0.0801513671875,2.645742797851563
5.296999999999905,9.5380126953125,0.5416198730468751,2.888290405273437
5.306999999999896,10.156942749023438,0.6473419189453126,6.552972412109376
5.316999999999887,8.136410522460938,-0.796728515625,8.639001464843751
5.326999999999991,5.099331665039063,-0.5864807128906251,6.7697998046875005
5.336999999999982,2.108758544921875,-0.9837982177734376,5.363711547851563
5.346999999999973,4.584329223632813,-1.6863189697265626,5.051779174804688
5.356999999999971,13.60464782714844,-0.2349212646484375,6.522467041015625
5.366999999999955,13.784539794921876,0.8691040039062501,6.061148071289063
5.376999999999946,8.826519775390626,1.5219787597656251,4.2146759033203125
5.3869999999999365,3.463107299804688,0.099591064453125,13.264602661132814
5.396999999999927,4.479504394531251,-0.1601531982421875,15.867428588867188
5.407999999999895,5.956921386718751,1.6783935546875002,6.895111083984376
5.417999999999886,7.657147216796876,0.4248321533203125,-0.485394287109375
5.42799999999999,10.537811279296877,-0.8824127197265625,0.545806884765625
5.437999999999974,9.775177001953123,0.07716064453125,6.403436279296876
5.447999999999972,5.4662933349609375,1.5992889404296875,9.536666870117188
5.45799999999997,5.669512939453125,0.4466644287109375,3.7520111083984378
5.467999999999954,8.6096923828125,-1.6244110107421876,10.047183227539064
5.477999999999945,10.106997680664064,-1.3020111083984376,6.986178588867188
5.487999999999936,9.626687622070314,0.1111053466796875,0.4290191650390625
5.497999999999927,8.7221435546875,-0.4921234130859375,0.7617370605468751
5.507999999999917,6.384744262695313,-1.0107147216796877,3.542062377929688
5.517999999999908,4.156954956054688,-0.3455780029296875,11.84326171875
5.527999999999899,4.223648071289063,0.3781768798828125,6.576898193359376
5.53799999999989,8.495446777343751,1.7018707275390623,9.417486572265624
5.548999999999978,9.135461425781251,0.191107177734375,10.61527099609375
5.558999999999969,7.64488525390625,-0.2619873046875,6.441717529296875
5.568999999999953,7.298858642578126,1.1810363769531251,4.5735626220703125
5.578999999999944,7.152462768554688,1.2924407958984376,7.410711669921875
5.588999999999935,6.810922241210938,0.2875579833984375,6.283358764648438
5.598999999999926,7.114031982421875,0.1471435546875,2.7556518554687504
5.6089999999999165,8.776574707031251,-0.3309234619140625,3.164932250976563
5.618999999999907,9.069665527343751,-0.7224090576171875,5.9024902343750005
5.628999999999898,8.238992309570314,-0.621771240234375,6.969879150390626
5.638999999999889,4.877420043945313,-0.529058837890625,6.217263793945313
5.64899999999988,1.070977783203125,-0.423785400390625,4.4071289062500005
5.658999999999985,9.656594848632814,-1.5843353271484375,7.940966796875
5.668999999999976,16.447479248046875,-0.3306243896484375,9.842019653320314
5.678999999999967,11.414691162109376,0.4021026611328125,3.9577728271484376
5.688999999999957,3.140557861328125,-0.4526458740234375,4.085028076171875
5.699999999999925,2.4621124267578125,-1.2282897949218752,15.181655883789064
5.709999999999916,4.902093505859376,0.450701904296875,15.259115600585938
5.7199999999999065,7.813861083984375,5.802151489257813,1.7930877685546875
5.729999999999897,9.416290283203123,2.0888702392578127,0.0770111083984375
5.739999999999888,13.679565429687502,-1.7177215576171876,0.71119384765625
5.75,7.147677612304688,0.9293670654296876,11.590695190429688
5.759999999999984,4.767062377929688,0.1541717529296875,5.395114135742188
5.769999999999975,5.816058349609375,0.0898712158203125,3.806890869140626
5.779999999999966,9.414794921875,-1.3480682373046875,13.98387145996094
5.7899999999999565,9.776373291015624,-0.7928405761718751,3.4723785400390628
5.799999999999947,8.369686889648438,0.2965301513671875,-0.48868408203125
5.809999999999938,7.516433715820313,-0.46595458984375,0.7452880859375001
5.819999999999929,6.0943450927734375,-1.5020904541015625,3.099136352539063
5.82999999999992,5.285952758789063,-1.466650390625,13.880691528320314
5.840999999999887,5.466442871093751,-0.1380218505859375,6.237002563476563
5.850999999999999,9.477749633789063,-0.6078643798828125,11.997283935546877
5.860999999999983,9.48343200683594,-0.2071075439453125,9.968228149414063
5.870999999999974,6.719406127929688,1.5128570556640626,4.304547119140626
5.880999999999965,5.985482788085938,2.082440185546876,4.3126220703125
5.890999999999956,6.473269653320313,1.093408203125,8.106353759765625
5.9009999999999465,7.135116577148438,0.2787353515625,5.475265502929688
5.910999999999937,8.194729614257813,0.6388183593750001,1.9520446777343752
5.920999999999928,9.851889038085938,0.5336944580078126,4.147534179687501
5.930999999999919,9.264212036132813,0.2355194091796875,7.303344726562501
5.94099999999991,6.363659667968751,-0.9989013671875,8.192636108398439
5.950999999999894,2.6282470703125003,-1.1249603271484376,4.628741455078125
5.960999999999892,3.222802734375,-1.4401824951171875,4.147982788085938
5.971999999999973,12.435723876953126,-2.111898803710938,7.953976440429688
5.981999999999971,14.675924682617188,-0.248828125,7.862310791015625
5.991999999999955,9.803887939453126,1.2438415527343751,3.367254638671876
6.001999999999946,3.708346557617188,0.5552276611328125,10.174588012695311
6.0119999999999365,4.1129913330078125,-0.19439697265625,16.738027954101565
6.021999999999927,5.4598632812500005,1.4216400146484376,9.600070190429689
6.031999999999918,6.757537841796876,0.695343017578125,0.1323394775390625
6.041999999999909,9.852038574218753,1.6758514404296876,0.5725738525390626
6.0519999999999,11.582171630859376,-0.7841674804687501,1.7003753662109375
6.061999999999898,6.153262329101563,0.8605804443359376,12.151455688476563
6.071999999999889,5.620166015625,3.5166412353515626,3.809283447265625
6.0819999999999865,7.615576171875,-2.0245697021484377,9.627435302734376
6.091999999999977,9.739138793945314,-2.0199340820312504,9.16761169433594
6.101999999999968,9.535021972656253,-0.2133880615234375,1.5109130859375002
6.111999999999959,8.705694580078125,-0.7783355712890626,0.11783447265625
6.12199999999995,6.6681152343750005,-1.3841064453125,1.8143218994140624
6.132999999999917,5.36356201171875,-0.7273437500000001,10.802639770507811
6.142999999999908,3.2121856689453128,-0.3766815185546875,8.532232666015625
6.152999999999899,7.948443603515625,1.0175933837890625,7.975808715820313
6.16299999999989,9.473114013671877,0.4414306640625,11.120254516601562
6.172999999999881,8.464044189453126,-0.1712188720703125,7.530789184570313
6.182999999999986,7.097134399414063,1.182232666015625,4.209591674804688
6.1929999999999765,7.258035278320313,1.6574584960937502,6.612039184570313
6.202999999999967,6.4662414550781255,1.1692230224609377,7.171902465820313
6.212999999999958,6.876718139648438,0.2597442626953125,3.510061645507813
6.222999999999949,8.2244873046875,0.2785858154296875,2.50323486328125
6.23299999999994,9.3992431640625,-0.1311431884765625,5.1996704101562505
6.242999999999924,8.778219604492188,-0.8979644775390626,7.282409667968751
6.253999999999898,6.916793823242188,-0.8366546630859376,7.716064453125001
6.263999999999889,3.294879150390625,-0.466552734375,6.551028442382813
6.27399999999988,1.594952392578125,-0.8728424072265626,4.807586669921875
6.283999999999985,12.561184692382811,-1.4431732177734375,7.310223388671876
6.293999999999976,16.197903442382813,0.165985107421875,7.563088989257813
6.303999999999967,9.173892211914064,-0.0456085205078125,2.3985595703125
6.313999999999957,2.5464508056640627,-1.051239013671875,6.86490478515625
6.323999999999948,3.9997924804687504,-1.259991455078125,16.982519531250002
6.333999999999939,5.6333251953125005,0.883160400390625,12.734796142578126
6.34399999999993,7.578042602539063,4.837045288085938,0.358587646484375
6.353999999999928,10.4950439453125,4.287350463867188,1.2164764404296875
6.363999999999919,11.9353759765625,-3.001638793945313,1.3567413330078126
6.373999999999903,7.132424926757813,0.47073974609375,11.279360961914064
6.383999999999894,3.080145263671876,0.517095947265625,3.9106689453125
6.393999999999885,7.290335083007813,-0.8234954833984376,9.397897338867187
6.403999999999989,10.508950805664064,-1.2142333984375,9.659286499023438
6.41399999999998,9.437823486328126,0.103778076171875,1.7552551269531251
6.424999999999947,8.381350708007814,-0.091217041015625,-0.18243408203125
6.434999999999938,7.4681335449218755,-1.1820831298828125,1.5432128906250002
6.444999999999929,6.049484252929688,-1.4171539306640626,6.552972412109376
6.4569999999999865,4.260134887695313,-0.455487060546875,9.933535766601564
6.464999999999911,5.999090576171875,-0.740203857421875,8.875717163085938
6.474999999999902,8.824874877929688,-0.0345428466796875,12.861453247070314
6.484999999999893,9.186004638671877,0.0659454345703125,7.575350952148438
6.494999999999891,6.406576538085938,1.0968475341796875,3.5553710937500003
6.504999999999988,6.889279174804688,2.038775634765625,5.155407714843751
6.514999999999979,6.9507385253906255,1.56893310546875,7.865002441406251
6.52499999999997,7.233062744140626,-0.1227691650390625,4.600927734375
6.534999999999961,8.338134765625,0.6117523193359375,2.308837890625
6.544999999999952,9.622500610351564,0.7418487548828125,4.842578125
6.556999999999896,8.364303588867188,-0.7357177734375,7.852890014648438
6.56599999999991,5.049087524414063,-0.859234619140625,5.918939208984376
6.575999999999894,1.8403411865234376,-1.310235595703125,3.66243896484375
6.585999999999892,8.127587890625001,-1.932904052734375,6.894662475585938
6.59599999999989,15.217843627929687,-1.2631317138671876,10.274777221679688
6.605999999999987,11.582022094726565,0.2848663330078125,5.456573486328125
6.615999999999978,5.328421020507813,1.4177520751953123,3.864312744140625
6.625999999999969,3.308786010742188,0.229986572265625,14.932379150390624
6.63599999999996,5.1383605957031255,0.46595458984375,14.41348876953125
6.645999999999944,6.703555297851563,1.2827209472656251,2.762680053710937
6.656999999999918,7.982388305664063,2.067037963867188,0.0937591552734375
6.665999999999933,12.927847290039065,-0.6196777343750001,1.11075439453125
6.6769999999999,8.351443481445314,0.2295379638671875,8.539260864257812
6.686999999999898,5.994903564453125,1.2407012939453126,6.374725341796876
6.695999999999906,5.446255493164063,0.6605010986328126,6.828866577148438
6.7069999999999865,8.848052978515625,-1.6855712890625,11.836233520507813
6.716999999999977,10.078884887695311,-0.6488372802734376,3.086126708984376
6.726999999999968,8.979046630859376,-0.33555908203125,-0.0372344970703125
6.736999999999959,7.396954345703126,-1.39188232421875,0.8833099365234376
6.74699999999995,6.173898315429688,-1.3331146240234375,3.019134521484375
6.756999999999941,4.713229370117188,-0.1739105224609375,12.951025390625
6.766999999999932,4.954431152343751,-0.063104248046875,8.510101318359375
6.77699999999993,9.232958984375,1.42537841796875,11.79840087890625
6.786999999999921,9.5236572265625,-0.0794036865234375,8.556756591796876
6.796999999999905,7.0832275390625,0.0644500732421875,4.21751708984375
6.806999999999896,6.3810058593750005,1.79981689453125,5.037274169921876
6.816999999999887,6.803894042968751,1.46724853515625,8.26336669921875
6.826999999999991,6.547589111328126,0.3985137939453125,5.317355346679688
6.836999999999982,8.217758178710938,0.372344970703125,1.636822509765625
6.846999999999973,9.548181152343751,0.30086669921875,3.981399536132813
6.85799999999994,9.390869140625,-0.7541107177734375,7.281512451171875
6.867999999999924,7.696624755859376,-0.9202453613281252,7.8958068847656255
6.877999999999929,6.1552062988281255,-0.8877960205078126,7.906423950195313
6.88799999999992,4.190899658203126,-0.66094970703125,7.273287963867188
6.897999999999904,1.2054107666015623,-0.3769805908203125,3.294580078125
6.907999999999895,8.746817016601563,-0.7277923583984376,4.0382232666015625
6.917999999999886,17.22701110839844,0.036187744140625,7.433590698242188
6.92799999999999,12.185101318359376,0.0665435791015625,4.590908813476563
6.937999999999974,4.47412109375,-0.8403930664062501,5.17095947265625
6.947999999999972,3.1801849365234376,-1.13826904296875,16.666250610351565
6.95799999999997,5.488873291015626,0.5719757080078125,16.456152343750002
6.967999999999954,7.300802612304688,6.0475402832031255,3.0321441650390626
6.978999999999928,7.902984619140626,2.7677642822265627,0.1828826904296875
6.988999999999919,11.740231323242188,-2.2107421875,0.5402740478515625
6.998999999999903,7.653109741210938,-0.079254150390625,7.793225097656251
7.008999999999894,4.846914672851563,0.370849609375,7.14603271484375
7.018999999999885,6.511251831054688,-0.6107055664062501,1.3873962402343751
7.028999999999989,10.490557861328126,-1.5276611328125,13.093084716796875
7.03899999999998,9.013140869140626,-0.521881103515625,7.362561035156251
7.048999999999978,9.011944580078126,-0.0139068603515625,-1.107763671875
7.058999999999969,8.028594970703125,-0.286810302734375,1.0874267578125
7.068999999999953,7.299307250976563,-1.129296875,2.701071166992188
7.078999999999944,3.454583740234375,-0.91456298828125,13.491748046875
7.088999999999935,4.642947387695313,-0.216229248046875,6.527700805664063
7.098999999999926,8.380154418945313,0.2047149658203125,10.9831298828125
7.1089999999999165,9.04932861328125,0.269464111328125,10.717254638671877
7.118999999999907,7.584921264648438,1.5915130615234376,4.63382568359375
7.128999999999898,7.22977294921875,1.7883026123046877,4.038970947265625
7.138999999999889,7.20943603515625,0.9715362548828126,8.0330810546875
7.14999999999997,6.7189575195312505,-0.3385498046875,6.21292724609375
7.159999999999961,7.602267456054688,0.4032989501953125,2.0972442626953125
7.169999999999952,9.029440307617188,0.471038818359375,3.680831909179688
7.179999999999943,9.45068359375,-0.5695831298828126,6.5125976562500005
7.189999999999934,7.693484497070313,-0.8394958496093751,7.491461181640625
7.199999999999925,4.61588134765625,-1.1476898193359375,6.232516479492188
7.209999999999916,1.9933166503906248,-1.290496826171875,4.736257934570313
7.219999999999906,6.317901611328126,-1.5334930419921875,5.7380004882812505
7.229999999999897,14.9213134765625,-0.4164581298828125,8.27532958984375
7.239999999999888,13.168450927734376,0.96959228515625,6.406875610351563
7.25,7.931246948242188,2.0260650634765627,5.2330169677734375
7.26099999999996,3.6335784912109377,0.43485107421875,14.7897216796875
7.269999999999975,4.2145263671875,0.14534912109375,13.967721557617187
7.280999999999942,5.721551513671876,1.4013031005859375,3.9613616943359378
7.290999999999933,7.018777465820313,-0.003887939453125,-0.5945556640625
7.300999999999931,11.319586181640624,-0.9921722412109376,0.6374725341796875
7.310999999999915,9.427206420898438,0.6062194824218751,4.925570678710938
7.320999999999906,5.904733276367188,1.1137451171875,8.915045166015625
7.330999999999896,6.93369140625,0.84757080078125,6.106008911132813
7.340999999999887,8.690292358398438,-2.146591186523437,11.29580993652344
7.350999999999999,9.257034301757812,-1.230084228515625,5.5320892333984375
7.360999999999983,9.37890625,0.309539794921875,0.3028106689453125
7.370999999999974,7.826721191406251,-0.73272705078125,0.9138153076171877
7.380999999999965,6.537869262695313,-0.7077545166015625,4.62664794921875
7.390999999999956,3.002536010742188,-0.21951904296875,11.208480834960938
7.400999999999946,4.824932861328126,0.8762817382812501,7.6658203125
7.410999999999937,8.942559814453126,1.6066162109375002,10.254739379882814
7.420999999999928,9.283502197265626,-0.3494659423828125,10.108493041992189
7.430999999999919,8.228524780273439,0.1619476318359375,5.1093505859375
7.4419999999998865,7.790982055664063,1.199578857421875,4.744482421875
7.451999999999991,6.985580444335938,1.029107666015625,6.996047973632813
7.461999999999982,6.259732055664063,0.480609130859375,5.409918212890625
7.471999999999973,6.970776367187501,-0.1902099609375,3.002984619140625
7.481999999999971,8.685507202148438,-0.4661041259765625,3.7170196533203126
7.491999999999955,9.101666259765626,-0.6305938720703126,5.970230102539063
7.501999999999946,7.015936279296875,-0.5022918701171876,6.587066650390626
7.511999999999936,1.367657470703125,-0.1087127685546875,4.377819824218751
7.521999999999927,6.411959838867188,-1.0343414306640626,7.150518798828125
7.531999999999918,16.728756713867188,-1.2021209716796877,11.830999755859375
7.541999999999909,13.83194274902344,0.6177337646484375,6.380557250976563
7.5519999999999,4.1548614501953125,0.0503936767578125,0.7137359619140625
7.561999999999898,0.95404052734375,-1.23397216796875,12.314898681640626
7.573999999999948,3.88375244140625,-0.3279327392578125,18.3618408203125
7.58299999999997,6.0185302734375,1.310235595703125,3.02421875
7.592999999999954,8.816201782226564,6.271844482421876,0.6002380371093751
7.602999999999945,14.577828979492187,-1.2942352294921875,0.37982177734375
7.612999999999936,10.494894409179688,-0.771307373046875,4.6972290039062505
7.6229999999999265,5.39287109375,0.5013946533203125,13.352978515625
7.632999999999917,4.130038452148438,0.031402587890625,0.9334045410156252
7.642999999999908,8.821286010742188,-1.4078826904296875,13.121047973632814
7.652999999999899,9.708334350585938,-0.51859130859375,8.354135131835939
7.66299999999989,7.786944580078125,0.5175445556640625,-1.1922515869140626
7.673999999999978,7.677185058593751,-0.076263427734375,0.1864715576171875
7.682999999999986,6.7937255859375005,-0.5909667968750001,1.706057739257813
7.693999999999953,5.900396728515625,-1.0992401123046875,5.233316040039063
7.703999999999944,5.821142578125,-0.117236328125,11.341119384765626
7.712999999999958,8.357574462890625,-0.270660400390625,11.323175048828126
7.723999999999926,9.200808715820314,-0.2797821044921875,14.609680175781252
7.7339999999999165,7.984033203125,-0.097796630859375,3.9426696777343753
7.743999999999907,5.127593994140625,1.652224731445313,2.593255615234375
7.753999999999898,5.83011474609375,1.5971954345703123,8.266207885742189
7.763999999999889,6.839035034179688,-0.366064453125,6.734509277343751
7.77399999999988,8.060147094726563,0.39417724609375,1.7316284179687502
7.783999999999985,9.742877197265626,0.5106658935546875,1.29498291015625
7.793999999999976,9.853085327148438,0.5147033691406251,8.140896606445313
7.8039999999999665,7.081283569335938,-1.078005981445313,9.143984985351564
7.813999999999957,3.215774536132813,-1.284814453125,4.738800048828125
7.823999999999948,3.8915283203125,-1.2740478515625,4.23486328125
7.833999999999939,11.931637573242188,-0.9251800537109376,8.743228149414064
7.84399999999993,12.970315551757814,-0.79971923828125,7.989266967773438
7.853999999999928,8.326321411132813,1.193597412109375,2.167376708984375
7.864999999999888,3.3893859863281253,0.8079437255859375,9.903927612304688
7.875,4.409970092773438,0.1544708251953125,17.215496826171876
7.884999999999984,6.719256591796875,2.2454345703125003,8.778219604492188
7.894999999999975,7.892068481445313,0.8812164306640625,-0.2002288818359375
7.904999999999966,10.758975219726564,0.1365264892578125,0.6645385742187501
7.914999999999956,10.145129394531253,0.042169189453125,3.1641845703125004
7.924999999999947,6.603515625000001,1.601382446289063,11.457608032226563
7.934999999999938,3.9698852539062495,1.46246337890625,4.880410766601563
7.944999999999929,8.172448730468751,-1.6314392089843752,8.479446411132812
7.95499999999992,10.266104125976565,-1.4013031005859375,7.588360595703126
7.965999999999887,9.718203735351564,-0.5088714599609375,1.2712066650390623
7.975999999999999,8.089605712890625,-1.2372619628906252,0.30445556640625
7.984999999999893,7.050030517578126,-1.200625610351563,2.863616943359375
7.995999999999974,4.582235717773438,-0.8845062255859376,13.02085876464844
8.005999999999965,4.566085815429688,-0.7212127685546875,6.3406311035156255
8.015999999999956,8.012893676757812,1.032696533203125,7.566528320312501
8.025999999999947,9.307876586914062,0.378326416015625,11.231509399414064
8.035999999999937,7.435684204101563,0.2824737548828125,7.088012695312501
8.045999999999928,6.6322265625000005,1.58448486328125,4.159796142578125
8.05599999999992,6.954776000976563,1.6241119384765623,7.374972534179688
8.06599999999991,7.328765869140626,1.066192626953125,7.226931762695313
8.075999999999894,7.457815551757813,0.4840484619140625,2.931805419921876
8.085999999999892,8.639450073242188,0.3074462890625,2.8679534912109377
8.09599999999989,9.01942138671875,-0.10048828125,6.05980224609375
8.105999999999987,7.22080078125,-0.8574401855468751,6.582730102539063
8.115999999999978,1.3888916015625,-0.5873779296875,3.5496887207031254
8.12599999999997,5.889181518554688,-1.343133544921875,5.550930786132813
8.13599999999996,15.828549194335938,-2.1666290283203127,11.521759033203123
8.146999999999927,14.871517944335938,0.0548797607421875,6.932644653320313
8.156999999999918,4.578347778320313,-0.15611572265625,2.16109619140625
8.16699999999991,1.0893707275390625,-1.3468719482421876,11.797503662109376
8.1769999999999,3.624606323242188,-0.436944580078125,19.043426513671875
8.186999999999898,6.467138671875,0.9876861572265626,3.492864990234376
8.196999999999889,8.56961669921875,2.9962554931640626,-0.164190673828125
8.206999999999987,14.292663574218752,2.366110229492188,0.69085693359375
8.216999999999977,10.2414306640625,-0.3668121337890625,4.579843139648438
8.226999999999968,5.4658447265625005,1.0234252929687502,13.010391235351564
8.23699999999996,4.111196899414063,0.7837188720703125,-0.6495849609375001
8.24699999999995,8.096932983398439,-0.7117919921875,15.028082275390624
8.256999999999941,10.710675048828126,-0.8583374023437501,6.816305541992188
8.266999999999932,8.069418334960938,0.2189208984375,-0.4701416015625
8.2779999999999,7.718457031250001,-0.423486328125,0.2391082763671875
8.28699999999992,6.599627685546875,-1.4294158935546877,1.9982513427734376
8.297999999999881,6.153262329101563,-1.260888671875,7.790832519531251
8.307999999999986,4.697079467773438,-0.2881561279296875,8.868389892578126
8.317999999999977,8.250357055664063,-1.0732208251953126,11.1577880859375
8.327999999999967,9.479843139648438,-0.4547393798828125,13.365689086914063
8.337999999999958,8.157943725585938,-0.2648284912109375,4.62066650390625
8.34799999999995,5.671905517578125,1.1201751708984375,3.576754760742188
8.35799999999994,6.076101684570313,2.8033538818359376,7.359719848632813
8.367999999999924,6.867147827148438,0.5480499267578125,6.970477294921875
8.377999999999929,7.832104492187501,0.8469726562500001,1.797723388671875
8.38799999999992,9.596630859375,1.0322479248046876,2.126702880859375
8.397999999999904,9.609490966796876,0.53175048828125,7.472470092773438
8.407999999999895,7.904629516601563,-0.70401611328125,9.3155029296875
8.417999999999886,6.515887451171875,-0.661846923828125,7.158743286132813
8.42799999999999,5.3462158203125005,-0.8943756103515625,6.78355712890625
8.437999999999974,3.805245971679688,-1.62276611328125,5.359375
8.448999999999948,5.122958374023438,-1.3123291015625,2.6659301757812504
8.45899999999994,11.71884765625,-0.1131988525390625,4.942318725585938
8.46899999999993,12.096276855468751,0.5800506591796876,7.769299316406251
8.478999999999928,9.613229370117187,1.9925689697265627,6.271246337890625
8.488999999999919,5.1835205078125,0.4625152587890625,13.210171508789063
8.498999999999903,5.0306945800781255,0.5164978027343751,15.74794921875
8.508999999999894,7.356878662109375,2.068832397460937,5.31810302734375
8.518999999999885,7.179080200195313,-1.0747161865234376,-0.02452392578125
8.52899999999999,8.739938354492189,-1.939633178710937,0.8330657958984375
8.53899999999998,8.2125244140625,-0.008074951171875,4.009811401367188
8.548999999999978,5.496649169921875,1.2327758789062502,10.53616638183594
8.558999999999969,7.604061889648438,0.4532440185546875,2.947955322265625
8.568999999999953,9.210528564453126,-1.5191375732421877,9.998135375976563
8.57999999999992,9.66287536621094,-0.9532928466796876,8.375070190429689
8.589999999999911,9.548181152343751,0.5073760986328125,1.1711669921875
8.599999999999902,8.191439819335939,-0.5420684814453125,0.6270050048828125
8.609999999999893,6.273489379882813,-0.6548187255859376,7.395458984375001
8.61999999999989,3.7146270751953128,0.301763916015625,10.017874145507813
8.629999999999988,4.914205932617188,0.9598724365234376,5.075106811523438
8.63999999999998,8.043399047851564,1.45050048828125,8.68505859375
8.64999999999997,8.496343994140625,0.319708251953125,10.634710693359375
8.659999999999961,7.878311157226563,-0.39178466796875,6.981094360351563
8.669999999999952,7.764663696289063,0.7636810302734376,5.227484130859375
8.679999999999943,7.459161376953125,0.5962005615234376,7.735653686523438
8.689999999999934,6.869241333007813,0.0955535888671875,6.181823730468751
8.699999999999925,7.239193725585938,-0.032598876953125,2.495159912109376
8.709999999999916,8.190393066406251,-0.298773193359375,2.8838043212890625
8.719999999999906,8.036968994140626,-0.5194885253906251,5.4135070800781255
8.730999999999987,4.650424194335938,-0.19798583984375,4.876971435546875
8.740999999999978,2.3000152587890628,0.23028564453125,3.7393005371093753
8.75099999999997,14.140286254882811,-1.64429931640625,10.6697021484375
8.76099999999996,16.57204284667969,0.2738006591796875,11.669949340820311
8.770999999999944,8.632870483398438,1.0009948730468752,3.4019470214843754
8.780999999999942,-0.22310791015625,-0.7248016357421876,6.533383178710938
8.790999999999933,2.4884307861328128,-1.2203643798828123,17.10274658203125
8.80099999999993,4.684817504882813,0.5670410156250001,10.191485595703126
8.810999999999915,8.268600463867188,0.395672607421875,-1.2051116943359377
8.820999999999906,12.546380615234376,-0.363671875,-0.2645294189453125
8.830999999999896,13.2273681640625,1.4895294189453123,2.9735260009765625
8.840999999999887,6.789837646484376,1.71009521484375,7.688848876953125
8.850999999999999,3.065789794921875,-0.3584381103515625,11.878253173828126
8.860999999999983,8.962747192382814,-0.2705108642578125,1.0708282470703123
8.870999999999974,9.194976806640623,-0.6183319091796875,15.450222778320311
8.881999999999941,8.930895996093751,0.6886138916015625,1.457977294921875
8.891999999999932,6.435437011718751,-0.0035888671875,-0.648687744140625
8.90199999999993,7.163677978515626,0.1051239013671875,0.8124298095703125
8.91199999999992,5.570968627929688,-0.4786651611328125,2.602377319335938
8.921999999999905,7.30992431640625,-0.390887451171875,13.352380371093751
8.931999999999896,6.578244018554688,-0.0931610107421875,6.934738159179688
8.941999999999886,9.834094238281253,-0.9453674316406252,15.654937744140629
8.951999999999991,8.869287109375001,-0.4463653564453125,9.103311157226564
8.961999999999982,5.329019165039063,-0.07716064453125,2.964105224609375
8.971999999999973,5.611492919921876,1.5562225341796876,4.508065795898438
8.981999999999971,6.768453979492188,0.6252105712890625,7.93917236328125
8.991999999999955,7.482040405273438,-0.3847564697265625,3.6690185546875
9.001999999999946,8.941513061523438,0.4963104248046875,0.4717864990234375
9.011999999999937,9.724185180664064,1.316217041015625,5.725588989257813
9.022999999999904,9.135162353515623,-0.0650482177734375,10.117764282226563
9.032999999999896,6.802847290039063,-0.2175750732421875,8.083773803710939
9.042999999999886,4.4060821533203125,-0.23267822265625,5.571566772460938
9.05299999999999,2.5564697265625003,-1.2329254150390625,4.979702758789063
9.062999999999974,7.575650024414063,-1.3145721435546875,5.2400451660156255
9.074999999999925,14.01138610839844,0.2175750732421875,6.3833984375
9.08299999999997,11.047879028320311,1.483697509765625,4.482046508789063
9.092999999999954,6.668414306640625,0.8252899169921876,7.128237915039063
9.102999999999945,3.836798095703125,-0.4350006103515625,16.72098083496094
9.112999999999936,5.986380004882813,1.56055908203125,13.809512329101564
9.122999999999928,8.209982299804688,1.5946533203125002,1.9644561767578128
9.132999999999916,8.455072021484376,-1.2807769775390625,-0.0468048095703125
9.142999999999908,9.755438232421875,-2.055224609375,1.4642578125
9.1529999999999,7.718157958984375,0.2755950927734375,7.767056274414063
9.16299999999989,4.409820556640625,1.125857543945313,6.508560180664063
9.174999999999947,6.824081420898438,0.1960418701171875,6.429754638671875
9.183999999999967,9.731961059570311,-1.7189178466796875,9.874917602539064
9.193999999999953,10.123745727539063,0.0046356201171875,4.041961669921875
9.203999999999944,9.797158813476564,0.1457977294921875,0.288604736328125
9.213999999999936,7.840927124023438,-0.557470703125,1.917950439453125
9.223999999999926,5.232269287109375,-0.1888641357421875,12.381292724609375
9.233999999999916,3.080743408203125,-0.368157958984375,8.18201904296875
9.243999999999907,6.194085693359376,1.669720458984375,5.811422729492188
9.253999999999898,8.801248168945314,1.4961090087890625,9.399542236328124
9.26399999999989,8.550326538085939,-0.6670806884765625,8.537316894531251
9.275999999999948,7.62454833984375,0.0067291259765625,4.863363647460938
9.283999999999985,7.168014526367188,0.5028900146484375,6.27513427734375
9.293999999999976,7.101919555664063,0.6395660400390626,7.774981689453125
9.304999999999945,7.079937744140626,-0.055926513671875,5.329168701171875
9.314999999999934,8.161831665039063,-0.14893798828125,2.8079895019531254
9.324999999999925,8.951531982421876,-0.1505828857421875,3.79462890625
9.334999999999916,8.29327392578125,-0.9440216064453124,6.31700439453125
9.344999999999906,5.142697143554688,-0.6129486083984376,6.497494506835938
9.354999999999896,0.5650970458984376,0.04366455078125,4.236508178710938
9.364999999999888,8.563336181640626,-0.5501434326171876,7.078143310546875
9.375,17.468960571289063,-0.72076416015625,10.918829345703124
9.384999999999984,12.651205444335938,0.4222900390625,5.350552368164063
9.394999999999976,3.568231201171875,-0.442926025390625,2.6176300048828125
9.404999999999966,1.109857177734375,-1.2003265380859376,15.047073364257814
9.414999999999957,5.194586181640625,0.2035186767578125,16.737429809570315
9.424999999999947,6.929803466796876,1.4964080810546876,1.986737060546875
9.434999999999938,9.014486694335938,6.767108154296875,0.6649871826171876
9.44499999999993,13.833438110351564,-2.0308502197265628,0.2117431640625
9.455999999999896,8.726480102539064,0.4427764892578125,2.8906829833984378
9.465999999999887,6.182421875,1.3329650878906252,11.758773803710938
9.476999999999968,3.988876342773438,-0.5220306396484375,3.303701782226563
9.485999999999985,9.062338256835938,-1.326385498046875,15.811502075195314
9.495999999999974,10.6673095703125,-0.6944458007812501,4.030895996093751
9.505999999999965,7.677484130859375,-0.22310791015625,-0.5914154052734375
9.515999999999956,7.620809936523438,-0.39178466796875,0.54072265625
9.52699999999993,6.0953918457031255,-1.2860107421875,3.026910400390625
9.535999999999936,4.293032836914063,-2.094403076171876,13.40127868652344
9.545999999999928,6.679928588867188,-0.072674560546875,5.729776000976563
9.55599999999992,9.282754516601564,-0.6622955322265626,10.249655151367188
9.56599999999991,9.051721191406251,-0.3512603759765625,12.953118896484376
9.576999999999993,7.096087646484375,1.2252990722656252,4.435540771484376
9.585999999999892,5.925518798828126,1.4413787841796877,3.782965087890626
9.596999999999973,6.885540771484376,1.9918212890625,7.609146118164063
9.606999999999973,6.719406127929688,0.483001708984375,5.9413696289062505
9.616999999999956,7.92362060546875,0.2537628173828125,2.056570434570313
9.626999999999946,9.613827514648438,1.37513427734375,3.096145629882813
9.636999999999937,9.392364501953123,0.271856689453125,8.169757080078126
9.646999999999927,7.664175415039063,-0.8362060546875001,8.488418579101562
9.656999999999918,5.828469848632813,-0.8970672607421876,6.771743774414063
9.66699999999991,3.379965209960938,-1.5791015625000002,5.85643310546875
9.6769999999999,3.132034301757813,-1.7471801757812502,4.166525268554688
9.686999999999898,11.342166137695314,-1.91944580078125,5.3750762939453125
9.696999999999887,13.644125366210938,0.1951446533203125,6.574057006835938
9.706999999999988,10.711123657226564,0.9506011962890626,4.203012084960938
9.716999999999976,4.859774780273438,0.8658142089843751,11.08660888671875
9.726999999999968,4.8726348876953125,0.35888671875,16.69959716796875
9.73699999999996,5.939724731445313,2.631536865234376,10.153952026367188
9.747999999999928,7.1454345703125,1.1340820312500002,-0.034991455078125
9.757999999999916,9.094488525390624,-0.45458984375,0.1640411376953125
9.767999999999908,9.721194458007814,0.9299652099609376,2.8054473876953128
9.7779999999999,6.012548828125,1.33087158203125,10.932586669921877
9.78799999999989,6.184216308593751,1.39666748046875,3.187063598632813
9.79799999999988,7.561444091796876,-1.31292724609375,9.571359252929687
9.807999999999986,9.869235229492189,-2.660397338867188,8.733956909179689
9.817999999999977,10.1552978515625,-0.9183013916015624,1.9195953369140624
9.827999999999967,9.167312622070312,-0.786260986328125,0.4215423583984375
9.837999999999958,7.105957031250001,-1.5678863525390627,3.367254638671876
9.84799999999995,3.906930541992188,-0.7716064453125001,11.7583251953125
9.85799999999994,3.510958862304688,-0.59754638671875,6.444259643554688
9.867999999999924,7.697372436523438,1.7845642089843752,7.333251953125001
9.877999999999927,9.0882080078125,1.1369232177734376,10.775274658203124
9.88899999999989,8.157495117187501,0.1520782470703125,7.710083007812501
9.89899999999988,7.309326171875001,1.2586456298828126,4.9322998046875
9.908999999999985,7.458264160156251,1.9215393066406248,6.968234252929688
9.918999999999976,7.074703979492188,1.2870574951171876,7.183267211914063
9.928999999999968,7.155603027343751,0.4170562744140625,3.780123901367188
9.938999999999956,8.042950439453126,0.1075164794921875,2.5027862548828126
9.948999999999948,8.551971435546875,-0.9855926513671877,5.072714233398438
9.95899999999994,7.014889526367188,-1.0045837402343751,5.8749755859375
9.96899999999993,1.67001953125,-0.6581085205078125,3.768310546875
9.978999999999928,6.746771240234375,-1.77529296875,6.183468627929688
9.98899999999992,16.52179870605469,-1.8451263427734377,12.249850463867189
9.998999999999905,14.220587158203124,-0.354998779296875,7.587014770507813
10.008999999999894,3.801507568359375,-0.533544921875,2.39736328125
10.018999999999885,0.8435333251953125,-1.1219696044921876,12.63086853027344
10.02899999999999,4.307537841796876,-0.127703857421875,16.85317077636719
10.03899999999998,6.731369018554688,1.3313201904296876,3.7053558349609377
10.049999999999947,7.944854736328126,7.694979858398438,0.602032470703125
10.059999999999938,13.888018798828126,-1.3186096191406251,0.19619140625
10.06999999999993,10.620654296875,1.508670043945313,2.5700775146484376
10.07999999999992,7.095938110351563,1.78187255859375,12.75184326171875
10.089999999999913,2.910421752929688,-0.2669219970703125,2.6391632080078127
10.099999999999902,9.058450317382814,-1.1823822021484376,14.594726562500002
10.109999999999893,10.269393920898438,-0.7019226074218751,6.7961181640625
10.11999999999989,7.236502075195313,-0.38101806640625,-0.6471923828125
10.129999999999988,7.479049682617188,-0.6585571289062501,-0.002093505859375
10.13999999999998,6.585272216796875,-1.6632904052734376,2.71737060546875
10.14999999999997,5.025161743164063,-2.141806030273438,9.391616821289062
10.15999999999996,6.441717529296875,-0.8680572509765626,9.242379760742187
10.169999999999952,9.159686279296876,-0.7427459716796876,6.958663940429688
10.179999999999945,9.165518188476565,-0.9233856201171876,15.459045410156252
10.191999999999886,7.076199340820313,0.8972167968750001,5.684317016601563
10.200999999999894,5.791983032226563,1.2272430419921876,2.9288146972656253
10.210999999999892,6.693685913085938,2.1923492431640628,6.857727050781251
10.22099999999989,6.788940429687501,2.130291748046876,6.945654296875
10.230999999999987,7.52286376953125,0.575714111328125,1.475772094726563
10.240999999999978,9.540255737304689,1.36915283203125,1.8657623291015624
10.25099999999997,9.5427978515625,0.707305908203125,8.435781860351563
10.26099999999996,8.136560058593751,-0.7837188720703125,9.156097412109377
10.270999999999944,5.272943115234376,-1.1520263671875002,6.187356567382813
10.280999999999942,2.409326171875,-1.4437713623046875,4.4442138671875
10.292999999999886,4.916598510742188,-1.9366424560546875,4.590011596679688
10.30099999999993,14.356365966796876,-1.7874053955078126,7.8030944824218755
10.311999999999898,13.595825195312502,0.6507812500000001,6.751406860351563
10.321999999999887,8.115176391601564,1.457977294921875,3.856387329101562
10.331999999999988,1.868603515625,-0.7331756591796875,13.393801879882814
10.341999999999976,4.045101928710938,-0.382513427734375,16.33517761230469
10.351999999999968,6.674395751953125,1.523773193359375,6.216815185546875
10.36199999999996,7.937078857421875,0.418701171875,-0.7138854980468751
10.37199999999995,11.868682861328123,-0.5953033447265625,0.033197021484375
10.38199999999994,9.281109619140626,1.6318878173828126,2.9466094970703125
10.391999999999932,4.939627075195313,1.4255279541015626,15.001165771484375
10.40199999999993,6.130831909179688,1.559512329101563,1.5879241943359377
10.41199999999992,8.91654052734375,-2.1121978759765625,11.2833984375
10.421999999999905,10.364199829101564,-0.9562835693359376,7.903732299804688
10.431999999999896,9.580780029296877,0.449505615234375,0.1873687744140625
10.441999999999886,7.301251220703126,-1.544110107421875,0.2954833984375
10.451999999999993,5.764468383789063,-0.9663024902343752,2.167227172851563
10.461999999999982,5.706747436523438,-0.1601531982421875,11.873617553710938
10.47299999999995,4.068280029296876,-0.1607513427734375,8.238244628906251
10.48299999999994,8.953775024414064,1.3123291015625,8.880352783203126
10.492999999999924,9.979443359375,-0.040673828125,11.156591796875
10.502999999999927,7.355682373046876,-0.3518585205078125,7.191641235351563
10.51299999999992,6.442764282226563,1.367657470703125,3.841284179687501
10.522999999999904,6.628189086914063,1.5608581542968751,7.486227416992188
10.532999999999896,7.07425537109375,0.7355682373046876,6.84696044921875
10.542999999999886,7.560696411132813,-0.148040771484375,2.141058349609376
10.55299999999999,8.803491210937501,0.3219512939453125,1.960269165039063
10.562999999999974,8.977999877929689,0.021832275390625,6.614132690429688
10.572999999999972,7.758831787109376,-0.9260772705078124,7.965191650390626
10.58299999999997,3.3415344238281253,0.5164978027343751,4.8905792236328125
10.59399999999993,2.3714935302734377,0.6500335693359376,3.656756591796875
10.602999999999945,13.685098266601564,-3.1801849365234376,10.642037963867187
10.61399999999992,16.96143493652344,0.5357879638671875,9.016580200195314
10.623999999999905,8.3991455078125,1.1711669921875,2.2342193603515628
10.633999999999894,-0.1375732421875,-1.2789825439453126,7.057955932617188
10.643999999999885,3.0159942626953127,-1.5393249511718752,19.700488281250003
10.65399999999999,4.252209472656251,-0.352008056640625,9.739587402343751
10.66399999999998,9.849795532226564,0.1882659912109375,-0.3090911865234375
10.673999999999978,13.006204223632814,0.1069183349609375,-0.7185211181640625
10.683999999999967,12.54533386230469,1.5216796875,3.117230224609376
10.693999999999953,4.974618530273438,2.74727783203125,7.802346801757813
10.703999999999944,3.2234008789062503,-0.7236053466796876,8.798855590820313
10.713999999999936,8.231066894531251,-1.3051513671875,7.163677978515626
10.723999999999926,10.270440673828126,-0.1052734375,11.671743774414065
10.733999999999916,9.365298461914064,1.113894653320313,0.757550048828125
10.743999999999907,7.474862670898438,0.0931610107421875,-0.1030303955078125
10.754999999999988,7.012347412109375,0.1475921630859375,0.9820037841796876
10.76499999999998,5.833554077148438,-0.0485992431640625,2.8268310546875
10.77499999999997,6.491363525390626,-0.46475830078125,14.507696533203124
10.78499999999996,6.221450805664063,0.0133087158203125,6.1405517578125
10.794999999999952,8.940765380859375,-0.6039764404296876,16.7564208984375
10.804999999999945,9.610986328125,-0.7958312988281251,7.822085571289063
10.814999999999934,6.377716064453126,-0.0605621337890625,1.5260162353515625
10.824999999999925,5.346514892578125,1.505828857421875,6.241488647460938
10.834999999999916,6.459661865234375,0.02930908203125,7.680624389648438
10.844999999999906,7.43673095703125,-0.6395660400390626,3.622064208984375
10.854999999999896,9.495095825195314,0.62625732421875,1.0249206542968752
10.864999999999888,10.260272216796876,1.1904571533203123,5.661737060546876
10.875,8.541204833984375,-0.7110443115234375,9.234454345703126
10.884999999999984,6.601571655273438,0.0946563720703125,7.823730468750001
10.894999999999976,4.147534179687501,0.432159423828125,6.747817993164063
10.905999999999942,2.5283569335937504,-0.8451782226562501,4.77738037109375
10.915999999999933,6.9701782226562505,-0.9443206787109376,3.2714019775390626
10.92599999999993,14.168399047851564,0.0357391357421875,6.538168334960938
10.935999999999916,12.392657470703126,1.4027984619140623,6.736154174804688
10.945999999999906,7.737149047851563,1.1841766357421877,6.664077758789063
10.955999999999896,3.14205322265625,-0.7699615478515626,15.502859497070313
10.965999999999887,4.363314819335938,0.476422119140625,14.847293090820314
10.976,7.727578735351563,1.163690185546875,2.852252197265625
10.985999999999985,8.057156372070313,-1.3061981201171875,-0.2380615234375
10.995999999999974,10.084716796875,-2.0061767578125003,0.917852783203125
11.005999999999965,7.699465942382813,0.6338836669921876,2.292388916015625
11.015999999999956,6.327322387695313,1.2197662353515626,12.849639892578129
11.025999999999948,6.313714599609376,0.1244140625,4.173703002929688
11.035999999999936,9.1815185546875,-0.945965576171875,12.490902709960938
11.045999999999928,10.493099975585938,-0.2109954833984375,5.102023315429688
11.056999999999896,9.065029907226563,0.5217315673828126,0.5070770263671875
11.066999999999886,8.001080322265626,-0.2974273681640625,0.499749755859375
11.076999999999993,6.131878662109376,-0.12860107421875,6.235656738281251
11.086999999999982,3.210690307617188,-0.247930908203125,11.034121704101564
11.096999999999973,5.434442138671876,0.6732116699218751,5.795721435546875
11.106999999999973,9.07086181640625,1.490875244140625,9.174191284179688
11.116999999999956,8.872576904296876,-0.7811767578125001,10.451528930664065
11.126999999999946,7.731018066406251,-0.5722747802734376,6.305191040039063
11.136999999999937,7.194332885742188,0.8531036376953126,5.528500366210938
11.146999999999927,6.779968261718751,0.34512939453125,7.725933837890626
11.156999999999918,6.624899291992188,-0.0007476806640625,5.5570617675781255
11.16699999999991,7.532583618164063,0.1813873291015625,2.123712158203125
11.1769999999999,8.77298583984375,0.1721160888671875,2.7825683593750004
11.187999999999974,7.836441040039063,-0.224005126953125,5.379711914062501
11.197999999999972,3.272747802734376,0.337652587890625,4.496701049804688
11.20799999999997,5.483041381835938,-0.2325286865234375,5.457769775390625
11.217999999999954,15.387417602539063,-1.197186279296875,12.034817504882811
11.227999999999945,14.3650390625,0.679791259765625,9.487020874023438
11.237999999999936,5.245877075195313,0.020635986328125,2.980853271484375
11.247999999999928,0.7134368896484375,-1.277935791015625,9.5715087890625
11.257999999999916,3.829171752929688,-0.7985229492187501,17.038446044921876
11.267999999999908,6.299508666992188,0.370849609375,4.470233154296875
11.2779999999999,8.367294311523438,0.12261962890625,-0.8508605957031251
11.28799999999989,13.579974365234376,0.3541015625,0.7240539550781251
11.298999999999978,10.571456909179688,1.7847137451171875,6.93668212890625
11.307999999999986,5.708990478515625,0.5135070800781251,12.748254394531251
11.317999999999977,5.13267822265625,0.4538421630859375,-0.4673004150390625
11.327999999999967,7.646829223632813,-0.8888427734375001,14.24720458984375
11.338999999999936,10.586859130859375,0.4206451416015625,6.207992553710938
11.348999999999926,8.434585571289062,0.6793426513671875,-0.4637115478515625
11.358999999999916,6.853839111328125,0.2404541015625,0.207855224609375
11.368999999999907,6.499737548828126,-0.8694030761718751,2.08214111328125
11.378999999999898,5.95751953125,-0.66094970703125,6.300854492187501
11.38899999999989,5.756692504882813,-0.0333465576171875,12.251495361328129
11.39899999999988,8.185458374023439,-0.5630035400390625,7.545593261718751
11.408999999999985,9.421823120117187,-0.772503662109375,15.130813598632814
11.418999999999976,7.689147949218751,-0.7062591552734375,5.6141845703125
11.428999999999968,5.5575103759765625,0.90439453125,2.7137817382812504
11.438999999999956,6.363809204101563,1.5702789306640623,6.650469970703125
11.448999999999948,6.961505126953125,-0.2594451904296875,7.164276123046876
11.45899999999994,7.653259277343751,0.045159912109375,2.194891357421876
11.46899999999993,9.49060974121094,0.5181427001953125,2.1474884033203128
11.479999999999896,9.534423828125,1.3568908691406252,7.374822998046875
11.489999999999888,8.245870971679688,-0.3763824462890625,9.534274291992189
11.5,6.370239257812501,0.0861328125,6.776080322265625
11.509999999999984,4.489971923828126,-0.444720458984375,5.932546997070313
11.519999999999976,2.822943115234376,-1.5548767089843751,4.7305755615234375
11.529999999999966,7.942013549804688,-0.8345611572265625,4.032391357421876
11.539999999999957,13.857962036132813,0.26617431640625,6.917990112304688
11.549999999999947,11.675332641601564,1.2417480468750002,5.895162963867188
11.559999999999938,7.00487060546875,0.9395355224609376,7.352392578125
11.56999999999993,3.4992950439453128,-0.402252197265625,16.90296630859375
11.57999999999992,5.615679931640625,1.607363891601563,13.258023071289063
11.589999999999913,7.795468139648438,0.9497039794921877,1.6049713134765626
11.599999999999902,8.100521850585938,-1.5782043457031252,-0.1185821533203125
11.610999999999985,9.780410766601562,-2.1760498046875,1.3701995849609376
11.61999999999989,7.903732299804688,1.3447784423828126,3.512005615234376
11.630999999999965,5.331411743164063,0.90260009765625,11.079132080078123
11.63999999999998,6.927859497070313,0.1131988525390625,3.922332763671875
11.650999999999948,9.208584594726563,-1.1417083740234375,12.941006469726563
11.660999999999936,10.395452880859375,0.019140625,3.595895385742188
11.670999999999928,9.5691162109375,0.1425079345703125,0.4027008056640625
11.68099999999992,7.535723876953125,-0.748577880859375,0.9338531494140626
11.692999999999977,5.856283569335938,-0.1511810302734375,9.442160034179688
11.700999999999894,3.074313354492188,-0.2552581787109375,9.31729736328125
11.710999999999892,5.877816772460938,0.9832000732421876,6.456521606445313
11.72099999999989,9.21082763671875,1.496856689453125,9.775476074218751
11.730999999999987,8.63062744140625,-0.9126190185546876,9.53681640625
11.740999999999978,7.689147949218751,-0.2743988037109375,5.057611083984376
11.75099999999997,7.094891357421876,0.9141143798828124,6.066531372070313
11.761999999999937,6.959561157226563,0.560162353515625,8.086166381835938
11.771999999999927,6.806137084960938,0.0551788330078125,4.966094970703125
11.781999999999918,8.04205322265625,0.0659454345703125,1.815667724609375
11.792999999999886,9.034075927734376,-0.1078155517578125,3.690402221679688
11.8019999999999,8.803341674804688,-0.683380126953125,6.551028442382813
11.811999999999898,6.700115966796876,-0.3452789306640625,6.952383422851563
11.821999999999887,2.086029052734375,0.6234161376953126,5.010507202148438
11.831999999999988,3.556268310546875,-0.528759765625,5.6049133300781255
11.841999999999976,15.543533325195314,-1.30216064453125,10.208831787109377
11.851999999999968,15.563720703125002,0.6820343017578125,7.676287841796875
11.86199999999996,6.859072875976563,-0.0695343017578125,1.8031066894531247
11.87199999999995,1.2266448974609376,-1.3362548828125,10.180270385742189
11.88199999999994,3.8676025390625,-0.89542236328125,18.710559082031253
11.892999999999908,5.6108947753906255,1.04495849609375,7.14005126953125
11.9029999999999,8.467184448242188,0.4314117431640625,-0.9242828369140624
11.91299999999989,14.028582763671876,1.499249267578125,-0.3147735595703125
11.92299999999988,10.029537963867188,3.0780517578125,3.326132202148438
11.932999999999986,5.499340820312501,0.8187103271484376,9.85562744140625
11.942999999999977,3.1742034912109376,-1.0488464355468752,6.384445190429688
11.952999999999967,8.0390625,-1.209747314453125,12.302188110351564
11.962999999999958,11.920123291015626,-0.6033782958984375,6.614132690429688
11.97299999999995,8.788238525390625,0.4080841064453125,0.6548187255859376
11.98299999999994,7.475311279296876,0.076861572265625,0.235369873046875
11.992999999999924,6.938327026367188,-0.383111572265625,1.4845947265625
12.002999999999927,6.305938720703126,-0.9725830078125,5.898452758789063
12.01299999999992,3.9673431396484378,-0.40135498046875,12.417929077148438
12.022999999999904,7.435684204101563,-0.6256591796875001,7.472470092773438
12.032999999999896,9.474310302734375,-0.596051025390625,14.777310180664063
12.042999999999886,8.719451904296875,0.062506103515625,5.693289184570313
12.05299999999999,6.3032470703125005,1.471734619140625,2.9703857421875
12.063999999999956,6.507662963867188,1.5328948974609375,6.104513549804688
12.073999999999948,6.7147705078125,-0.3327178955078125,7.747467041015626
12.08399999999994,7.323980712890625,0.1712188720703125,3.242840576171876
12.09399999999993,8.909811401367188,0.720465087890625,2.6873138427734378
12.103999999999928,9.776821899414063,0.7735504150390625,5.8834991455078125
12.11399999999992,8.424716186523439,-0.599639892578125,8.51458740234375
12.123999999999905,5.8371429443359375,-0.3285308837890625,6.947598266601563
12.133999999999894,2.621817016601563,-1.1578582763671876,5.789440917968751
12.143999999999885,3.481051635742188,-1.5837371826171875,5.061648559570313
12.15399999999999,12.551614379882814,-0.3617279052734375,6.720452880859376
12.16399999999998,14.436666870117188,0.1351806640625,6.6023193359375005
12.173999999999978,9.642687988281253,1.76033935546875,2.691500854492188
12.183999999999967,3.832461547851562,0.509918212890625,11.459552001953126
12.19499999999993,4.146636962890625,-0.4678985595703125,16.665951538085938
12.20499999999992,6.174795532226563,1.8913330078125,9.302044677734376
12.214999999999913,6.984982299804688,0.4607208251953125,-0.5549285888671875
12.224999999999902,10.71575927734375,-1.2049621582031251,0.3258392333984375
12.234999999999893,10.297955322265626,-0.875982666015625,2.9340484619140628
12.24499999999989,5.57889404296875,0.8617767333984375,12.47056579589844
12.254999999999988,5.604763793945313,1.08682861328125,1.6888610839843752
12.26499999999998,7.347906494140625,-0.837103271484375,11.375064086914064
12.27499999999997,10.420275878906253,-1.412518310546875,8.319741821289064
12.28499999999996,9.80299072265625,0.3192596435546875,1.1834289550781252
12.294999999999952,8.892016601562501,-0.4376922607421875,0.2863616943359375
12.304999999999945,6.831558227539063,-0.6619964599609376,1.945315551757813
12.314999999999934,4.512551879882813,-0.3218017578125,12.970166015625
12.324999999999925,3.663784790039063,0.1801910400390625,7.174295043945313
12.335999999999892,8.064782714843751,1.9964569091796875,7.769448852539063
12.34599999999989,9.656146240234376,0.191107177734375,10.276870727539062
12.355999999999987,8.009454345703126,-0.6570617675781251,7.282110595703125
12.365999999999978,7.059750366210938,0.94447021484375,4.405783081054688
12.37599999999997,6.918289184570313,1.0114624023437502,7.316354370117188
12.38599999999996,6.746472167968751,0.0509918212890625,7.315606689453125
12.395999999999944,7.247119140625,0.0922637939453125,3.2869537353515628
12.405999999999942,8.436529541015625,-0.057122802734375,3.0566680908203128
12.415999999999933,9.335391235351564,-0.5947052001953126,4.830465698242188
12.42599999999993,7.954125976562499,-0.5124603271484376,6.881951904296876
12.435999999999916,3.346917724609375,-0.210247802734375,5.530743408203126
12.445999999999906,1.8736877441406248,-0.1052734375,4.572366333007813
12.455999999999896,14.036807250976564,-1.4135650634765626,10.905520629882814
12.465999999999887,16.538397216796877,0.1060211181640625,8.9207275390625
12.476,7.838684082031251,0.4050933837890625,1.705010986328125
12.485999999999985,0.4487579345703125,-0.6391174316406251,6.868792724609375
12.49699999999995,3.2462799072265627,-1.071875,17.802127075195315
12.50699999999994,6.074755859375,0.7479797363281251,10.006509399414064
12.516999999999932,8.011248779296876,1.532595825195313,-0.922039794921875
12.52699999999993,12.477145385742189,4.360174560546875,1.2009246826171875
12.53699999999992,12.179568481445314,-2.7665679931640628,1.977764892578125
12.546999999999905,6.2458251953125,0.5214324951171876,15.36513671875
12.556999999999896,3.1737548828125,0.2827728271484375,1.825686645507813
12.566999999999886,7.442263793945313,-0.5761627197265625,4.643844604492188
12.576999999999993,10.507904052734377,-0.5689849853515625,14.82486267089844
12.586999999999982,8.863156127929688,0.3072967529296875,1.040771484375
12.596999999999973,7.481442260742188,0.065496826171875,-0.4481597900390625
12.606999999999973,7.2886901855468755,-0.076861572265625,1.4642578125
12.616999999999956,5.838040161132813,-0.9585266113281252,4.432699584960938
12.626999999999946,5.514892578125,-1.1336334228515623,15.348837280273438
12.63799999999992,7.092648315429688,0.195892333984375,2.1654327392578128
12.647999999999904,9.967779541015624,-0.422589111328125,14.856863403320313
12.657999999999896,7.834646606445313,-0.7451385498046875,9.781457519531251
12.667999999999886,5.947201538085938,1.26148681640625,2.324090576171875
12.67799999999999,5.9174438476562505,1.878024291992188,5.931500244140626
12.687999999999974,6.621609497070313,-0.099591064453125,8.606851196289064
12.697999999999972,7.466787719726563,0.3704010009765625,3.59664306640625
12.709999999999916,9.025552368164064,0.45279541015625,1.6046722412109375
12.717999999999954,10.175933837890623,1.1414093017578126,5.421731567382813
12.727999999999945,8.676235961914063,-0.490777587890625,8.979794311523438
12.737999999999936,6.058605957031251,-0.544012451171875,7.191641235351563
12.747999999999928,2.714080810546875,-0.5912658691406251,5.146435546875001
12.757999999999916,3.238204956054688,-1.7815734863281252,4.818951416015626
12.767999999999908,11.692379760742188,-0.7736999511718751,6.769949340820313
12.7779999999999,14.72317810058594,0.107965087890625,6.642095947265625
12.78899999999998,9.451580810546876,1.4410797119140626,3.3790679931640626
12.798999999999978,4.167422485351563,0.6039764404296876,11.31689453125
12.809999999999938,3.716571044921875,-0.10946044921875,17.117401123046875
12.818999999999953,6.274685668945313,1.8808654785156247,9.371279907226564
12.828999999999944,7.171603393554688,0.8338134765625,-0.1057220458984375
12.838999999999936,10.688693237304689,-1.0658935546875,0.2077056884765625
12.848999999999926,10.237542724609376,-1.6510284423828123,2.1214691162109376
12.858999999999916,6.532635498046876,1.4503509521484377,10.079931640625
12.868999999999907,4.664031982421875,1.1017822265625,4.989871215820313
12.878999999999898,7.386187744140625,-0.1272552490234375,9.937124633789065
12.88899999999989,10.501025390625,-1.783367919921875,9.081329345703123
12.89899999999988,9.9327880859375,0.1502838134765625,1.6250091552734376
12.90999999999996,8.830108642578125,-0.3584381103515625,0.1783966064453125
12.918999999999976,7.040161132812501,-0.599041748046875,1.51270751953125
12.929999999999945,4.601974487304688,-0.7985229492187501,12.2511962890625
12.939999999999934,3.5350341796875004,-0.1120025634765625,7.718157958984375
12.949999999999925,7.762271118164063,1.6070648193359376,7.4187866210937505
12.959999999999916,9.588705444335938,0.031103515625,10.832846069335938
12.969999999999906,8.114877319335939,-0.3701019287109375,7.8479553222656255
12.979999999999896,6.842324829101563,0.838299560546875,4.602423095703125
12.989999999999888,7.097283935546876,1.038677978515625,6.883895874023438
13.0,6.937579345703125,0.6032287597656251,7.4307495117187505
13.009999999999984,6.995001220703125,0.21593017578125,3.704757690429688
13.019999999999976,8.466885375976563,0.1613494873046875,1.9803070068359376
13.029999999999966,9.170303344726562,-0.2835205078125,4.990917968750001
13.039999999999957,8.653656005859375,-0.7651763916015626,7.174444580078125
13.049999999999947,6.247470092773438,-0.3007171630859375,6.8954101562500005
13.059999999999938,0.9290679931640624,-0.018243408203125,4.021176147460938
13.06999999999993,3.875228881835938,-0.669921875,5.6452880859375005
13.080999999999896,18.545172119140627,-1.4318084716796875,11.45865478515625
13.090999999999887,16.614959716796875,0.8294769287109376,6.898699951171875
13.101,5.143444824218751,0.0955535888671875,0.58917236328125
13.110999999999985,-0.6663330078125,-1.3888916015625,11.390765380859376
13.120999999999974,3.283514404296876,-0.7699615478515626,21.66419677734375
13.130999999999965,4.183721923828125,0.8228973388671875,5.231820678710938
13.140999999999956,10.092343139648438,5.540612792968751,0.0749176025390625
13.150999999999948,14.468817138671875,0.659454345703125,0.2009765625
13.160999999999936,11.892608642578123,-2.8005126953125004,1.6896087646484377
13.170999999999928,4.4753173828125,1.5675872802734376,2.5579650878906253
13.18099999999992,4.1458892822265625,-0.0327484130859375,12.4126953125
13.19099999999991,8.054165649414063,-0.8747863769531251,9.208135986328124
13.200999999999894,9.950433349609376,-0.648687744140625,11.612677001953124
13.211999999999982,9.60440673828125,0.790447998046875,-0.7265960693359376
13.221999999999973,7.751055908203125,0.2591461181640625,-0.17764892578125
13.231999999999973,6.962850952148438,-0.316717529296875,1.18671875
13.241999999999956,4.619470214843751,-1.4264251708984377,3.0402191162109378
13.251999999999946,4.473223876953125,-1.8639678955078127,18.36513061523437
13.261999999999937,8.707788085937501,0.63223876953125,4.732369995117188
13.271999999999927,10.346405029296877,-0.2002288818359375,14.335879516601564
13.281999999999918,8.102166748046876,-0.8148223876953126,9.056954956054687
13.29199999999991,5.407974243164063,1.2430938720703126,0.9009552001953126
13.3019999999999,5.698672485351563,2.0200836181640627,6.453082275390625
13.311999999999898,6.229525756835938,-0.0497955322265625,8.400341796875
13.321999999999887,7.811468505859375,0.118133544921875,3.074761962890625
13.331999999999988,9.468179321289064,0.2069580078125,1.5140533447265625
13.341999999999976,10.722039794921876,1.2759918212890626,5.934490966796876
13.351999999999968,8.701058959960939,0.1131988525390625,8.977102661132813
13.36199999999996,4.693939208984375,-0.7442413330078126,7.340728759765626
13.37199999999995,1.2089996337890625,-0.91934814453125,4.699771118164063
13.382999999999916,4.58836669921875,-1.876080322265625,5.009161376953125
13.392999999999908,14.940304565429688,-0.8182617187500001,7.886535644531251
13.4029999999999,14.2681396484375,0.317913818359375,6.067129516601563
13.41299999999989,8.001080322265626,1.6377197265625,2.535086059570313
13.42299999999988,2.482748413085938,0.077459716796875,13.987759399414063
13.432999999999986,4.373333740234376,-0.3413909912109375,16.965771484375
13.442999999999977,6.341827392578126,1.7488250732421875,6.990365600585938
13.452999999999967,7.078890991210938,0.33675537109375,-0.8133270263671876
13.462999999999958,11.758026123046877,-0.8498138427734375,0.1308441162109375
13.47299999999995,9.858468627929687,0.365167236328125,2.6272003173828127
13.48299999999994,5.253204345703125,1.7455352783203126,12.317889404296876
13.492999999999924,6.054568481445313,2.1528717041015626,2.7243988037109377
13.502999999999927,8.110989379882813,-2.275042724609375,11.5406005859375
13.51399999999989,9.606649780273438,-1.6448974609375002,8.598028564453125
13.52399999999988,9.821682739257811,0.460272216796875,0.3500640869140625
13.533999999999985,8.827267456054688,-1.1560638427734375,0.27813720703125
13.543999999999976,6.677835083007813,-1.3280303955078123,2.0480468750000003
13.553999999999968,4.78037109375,-0.706707763671875,12.06756591796875
13.563999999999956,3.0903137207031253,0.011065673828125,8.985028076171876
13.573999999999948,8.194879150390626,1.6279998779296876,9.524554443359376
13.58399999999994,9.89136657714844,0.2690155029296875,10.385583496093751
13.59399999999993,8.233609008789063,-0.3720458984375,5.9403228759765625
13.603999999999928,7.3105224609375,0.9200958251953124,3.824087524414063
13.61399999999992,6.958364868164063,1.6961883544921876,7.405178833007813
13.623999999999905,6.290237426757813,0.974676513671875,7.214071655273438
13.633999999999894,7.098480224609376,0.234173583984375,2.9765167236328125
13.643999999999885,8.943157958984376,0.0794036865234375,2.4489532470703126
13.654999999999966,9.682614135742188,-0.43724365234375,5.218063354492188
13.664999999999957,6.8942138671875,-0.826336669921875,6.307135009765625
13.674999999999947,0.5489471435546875,-0.265277099609375,3.6875610351562496
13.684999999999938,7.005169677734376,-1.1192779541015625,7.598080444335938
13.69499999999993,17.744107055664063,-1.6824310302734375,12.505108642578126
13.70499999999992,14.068060302734375,0.280230712890625,5.931649780273438
13.714999999999913,3.38131103515625,-0.1362274169921875,0.7765411376953125
13.724999999999902,0.3174652099609375,-1.6438507080078126,15.831838989257813
13.734999999999893,2.8215972900390627,-0.4601226806640625,17.186935424804688
13.74499999999989,7.444955444335938,0.7001281738281251,1.380218505859375
13.754999999999988,9.152508544921876,6.5353271484375,0.7565032958984376
13.76499999999998,15.01626892089844,-2.0188873291015628,0.262884521484375
13.77499999999997,9.816299438476562,0.968695068359375,2.683126831054688
13.78499999999996,6.910513305664063,2.0839355468750003,12.90137939453125
13.795999999999928,2.732174682617188,-0.6806884765625001,2.4502990722656253
13.80599999999992,8.379855346679689,-1.5167449951171876,16.17966003417969
13.81599999999991,9.515582275390626,0.3730926513671875,8.655001831054689
13.825999999999894,8.710629272460938,0.3841583251953125,-2.1033752441406253
13.835999999999892,6.962850952148438,-0.6739593505859376,0.4270751953125
13.84599999999989,6.665423583984375,-1.0627532958984376,1.1490356445312502
13.855999999999987,7.823281860351563,-0.8575897216796876,-0.8837585449218751
13.865999999999978,4.511355590820313,-1.1545684814453123,17.659320068359378
13.87599999999997,8.502923583984376,-0.8647674560546875,12.192428588867188
13.88599999999996,9.855926513671877,-1.1569610595703126,12.697412109375
13.895999999999944,6.866250610351563,0.5283111572265625,5.750112915039063
13.905999999999942,5.367001342773438,2.117431640625,2.0667388916015628
13.915999999999933,6.150570678710938,1.589419555664063,7.966238403320313
13.92599999999993,6.770996093750001,-0.01256103515625,6.802398681640626
13.936999999999898,8.149868774414063,0.673809814453125,1.2870574951171876
13.946999999999887,9.78504638671875,1.3175628662109375,1.401004028320313
13.956999999999988,9.528143310546875,0.8097381591796876,9.206042480468753
13.966999999999976,7.284652709960938,-0.70999755859375,9.394158935546876
13.976999999999968,3.120071411132813,-1.0268646240234376,4.4569244384765625
13.98699999999996,1.828228759765625,-1.4226867675781252,2.8233917236328128
13.99699999999995,11.73858642578125,-1.1710174560546875,7.780963134765625
14.00699999999994,16.686587524414065,-0.49586181640625,9.933087158203126
14.016999999999932,10.401583862304689,1.3214508056640626,3.719561767578125
14.02699999999993,2.7330718994140626,0.0785064697265625,7.382598876953126
14.03699999999992,2.4014007568359377,-0.9434234619140626,17.08405456542969
14.046999999999905,5.132977294921876,0.5082733154296876,13.818035888671876
14.056999999999896,6.775332641601563,0.7529144287109375,0.8560943603515626
14.066999999999886,9.654800415039062,-0.4454681396484375,-0.716278076171875
14.076999999999993,13.598367309570314,-0.2492767333984375,0.914862060546875
14.087999999999958,7.6939331054687505,2.502337646484375,3.60740966796875
14.09799999999995,4.2025634765625,2.1766479492187503,3.665878295898438
14.10799999999994,5.698971557617188,-0.3074462890625,16.68524169921875
14.117999999999924,11.06387939453125,-1.4681457519531251,8.290133666992189
14.127999999999927,9.974359130859376,-0.7128387451171876,3.626251220703125
14.13799999999992,8.659487915039064,0.2884552001953125,-0.342437744140625
14.147999999999904,6.754248046875,-1.0075744628906251,0.6742584228515626
14.157999999999896,5.2315216064453125,-1.4540893554687502,2.750567626953125
14.167999999999886,5.3773193359375,-0.659454345703125,12.15130615234375
14.17799999999999,5.97366943359375,0.429168701171875,7.653408813476563
14.187999999999974,9.631024169921876,1.1720642089843751,13.75074462890625
14.197999999999972,9.28739013671875,-0.951947021484375,10.489212036132812
14.20799999999997,7.159490966796875,-0.339447021484375,2.518487548828125
14.21899999999993,6.003726196289063,1.5418670654296875,5.640951538085938
14.228999999999928,6.266909790039063,2.0211303710937503,7.974911499023438
14.23899999999992,6.711929321289063,0.496160888671875,4.9589172363281255
14.248999999999905,8.312115478515626,0.142059326171875,0.9724334716796876
14.258999999999894,10.236795043945314,0.40733642578125,2.602227783203125
14.268999999999885,9.183163452148438,-0.45279541015625,8.659039306640626
14.27899999999999,7.400991821289063,-0.68427734375,8.746667480468751
14.28899999999998,4.699771118164063,0.0680389404296875,7.077694702148438
14.298999999999978,0.3611297607421875,-0.23507080078125,4.3238372802734375
14.310999999999916,5.787496948242188,-1.3364044189453126,4.5447021484375005
14.318999999999953,18.499713134765628,-1.2733001708984375,8.693731689453125
14.328999999999944,15.407156372070313,0.8990112304687501,5.2674102783203125
14.338999999999936,5.053723144531251,-0.1727142333984375,1.7566009521484376
14.348999999999926,0.6060699462890625,-1.839593505859375,13.794110107421876
14.358999999999916,3.539669799804688,-0.529058837890625,22.056878662109376
14.368999999999907,5.4132080078125,1.1615966796875,3.8987060546875
14.379999999999988,9.48941345214844,0.3533538818359375,-0.6572113037109375
14.38999999999998,14.024993896484377,1.621270751953125,-0.6572113037109375
14.39999999999997,8.883493041992189,2.5030853271484377,3.711636352539063
14.40999999999996,5.400198364257813,3.219512939453125,5.161538696289063
14.419999999999952,3.8595275878906254,-1.9728302001953129,9.2724365234375
14.429999999999945,8.827267456054688,-1.619775390625,12.828106689453126
14.439999999999934,11.526394653320311,-0.99471435546875,6.768005371093751
14.449999999999925,9.1073486328125,0.7947845458984376,-0.371148681640625
14.459999999999916,7.5503784179687505,0.2331268310546875,0.46416015625
14.469999999999906,6.889279174804688,-0.8828613281250001,1.8539489746093751
14.479999999999896,4.440475463867188,-1.39068603515625,4.081887817382813
14.489999999999888,5.500238037109376,-0.5579193115234375,12.872518920898438
14.5,7.142294311523438,-0.014056396484375,10.517623901367188
14.51099999999996,9.244024658203124,0.09749755859375,13.986712646484376
14.520999999999944,8.516381835937501,-0.2133880615234375,4.94486083984375
14.530999999999942,6.4396240234375,1.57431640625,2.845822143554688
14.540999999999933,6.581982421875001,1.6238128662109377,6.480297851562501
14.55099999999993,6.569421386718751,-0.44202880859375,7.702008056640626
14.560999999999916,7.556060791015626,0.52457275390625,3.0302001953125
14.570999999999906,9.378607177734375,0.959722900390625,1.4406311035156252
14.580999999999896,9.602761840820314,0.0811981201171875,6.537869262695313
14.590999999999887,8.0450439453125,-0.7050628662109375,8.494100952148438
14.601,3.6163818359375,-0.5221801757812501,5.902639770507813
14.610999999999985,2.107412719726563,-0.7505218505859376,3.9785583496093753
14.620999999999974,9.783102416992188,-1.2721038818359376,7.752401733398438
14.630999999999965,15.096270751953126,-0.5680877685546876,9.615771484375
14.640999999999956,11.128628540039063,1.9684936523437504,3.4792572021484376
14.650999999999948,4.308135986328125,0.7947845458984376,7.037020874023438
14.660999999999936,2.955880737304688,-0.816168212890625,16.203286743164064
14.670999999999928,4.910916137695313,0.5480499267578125,12.0239013671875
14.681999999999896,6.7219482421875005,0.9156097412109376,1.181634521484375
14.691999999999886,10.2486083984375,-0.7448394775390625,-0.2260986328125
14.701999999999993,12.92276306152344,-1.52825927734375,1.732525634765625
14.711999999999982,6.873876953125,1.0489959716796875,8.806481933593751
14.721999999999973,4.825979614257813,0.4951141357421875,6.574954223632813
14.731999999999973,6.621459960937501,-0.1783966064453125,7.234857177734375
14.741999999999956,9.276473999023438,-0.98035888671875,11.838027954101562
14.751999999999946,10.491305541992189,0.459075927734375,2.1929473876953125
14.761999999999937,8.727377319335938,-0.113946533203125,-0.0782073974609375
14.771999999999927,7.183117675781251,-0.735418701171875,0.93489990234375
14.781999999999918,5.358029174804688,0.4206451416015625,3.4967529296875
14.79199999999991,4.0470458984375,-0.0354400634765625,13.95276794433594
14.8019999999999,6.060699462890625,0.9064880371093752,7.688250732421875
14.812999999999974,10.16053161621094,1.316217041015625,11.578732299804688
14.822999999999972,9.018673706054688,-1.0404724121093751,7.713522338867188
14.83299999999997,6.932196044921875,0.15133056640625,4.052578735351563
14.842999999999954,6.368893432617188,0.7946350097656251,6.543850708007813
14.852999999999945,6.31162109375,0.3683074951171875,8.000930786132812
14.862999999999936,6.9342895507812505,-0.370849609375,3.71806640625
14.872999999999928,8.461801147460939,-0.26796875,1.8155181884765623
14.882999999999916,9.686651611328124,0.1413116455078125,5.225091552734376
14.892999999999908,8.930447387695313,-0.5591156005859376,6.87327880859375
14.9029999999999,6.070120239257813,-0.346923828125,6.822286987304688
14.91299999999989,0.8650665283203126,0.310137939453125,3.8656585693359378
14.92299999999988,5.790936279296876,-0.6000885009765625,7.3464111328125
14.932999999999986,17.20368347167969,-0.7693634033203126,10.832995605468753
14.943999999999953,14.024246215820314,0.91695556640625,6.211132812500001
14.952999999999967,4.372286987304688,0.0617584228515625,0.3828125
14.963999999999936,0.4583282470703125,-1.122418212890625,11.966778564453126
14.973999999999926,4.43643798828125,-0.459674072265625,19.41861267089844
14.983999999999916,6.977355957031251,1.04017333984375,3.248822021484376
14.993999999999907,9.203799438476564,4.9948059082031255,0.1830322265625
15.003999999999898,14.240625,-0.8874969482421876,0.760540771484375
15.01399999999989,9.490011596679688,-2.1276000976562504,5.902639770507813
15.02399999999988,5.0638916015625,0.6865203857421875,12.500772094726564
15.033999999999985,3.7289825439453126,0.4750762939453125,0.2758941650390625
15.043999999999976,8.8824462890625,-1.083538818359375,11.074197387695314
15.053999999999968,10.344161987304688,0.18482666015625,9.784298706054688
15.063999999999956,8.3560791015625,0.380120849609375,-1.0847351074218752
15.073999999999948,7.773336791992188,0.1789947509765625,0.130096435546875
15.08399999999994,7.186856079101563,-0.0946563720703125,2.0517852783203128
15.09399999999993,5.928509521484376,-0.9712371826171876,7.446749877929688
15.104999999999896,4.780221557617188,-0.086431884765625,10.635757446289062
15.114999999999888,8.249160766601562,-0.3883453369140625,8.931942749023438
15.125,8.998635864257814,-0.436944580078125,15.356463623046876
15.134999999999984,8.211328125000001,-0.5079742431640626,3.323291015625
15.144999999999976,5.169015502929688,0.5822937011718751,3.2580932617187504
15.154999999999966,5.944061279296875,2.058663940429688,8.172747802734376
15.164999999999957,6.9567199707031255,-0.5103668212890625,7.070516967773438
15.174999999999947,8.254095458984375,0.219818115234375,2.056271362304688
15.184999999999938,10.141839599609376,1.11195068359375,1.4008544921875
15.19499999999993,9.830804443359376,0.1523773193359375,7.869488525390626
15.20499999999992,7.799655151367188,-0.6631927490234375,9.120956420898438
15.214999999999913,5.599530029296876,0.1996307373046875,6.754098510742188
15.224999999999902,3.0115081787109377,-0.6267059326171875,5.3900299072265625
15.235999999999985,2.6977813720703128,-1.9272216796875,3.743038940429688
15.245999999999974,11.401382446289062,-0.4870391845703125,4.978356933593751
15.255999999999965,15.389361572265626,0.6119018554687501,7.808776855468751
15.265999999999956,10.629476928710938,1.39786376953125,5.172454833984375
15.275999999999948,4.375277709960938,0.7911956787109375,10.179522705078126
15.285999999999936,3.2168212890625,-0.56524658203125,17.558831787109376
15.295999999999928,5.916546630859376,1.1402130126953125,10.694076538085938
15.30599999999992,6.987225341796876,0.8871978759765625,0.209051513671875
15.31599999999991,9.35318603515625,-0.890936279296875,-0.2738006591796875
15.327999999999967,10.697366333007814,-1.337152099609375,1.7482269287109375
15.335999999999892,6.543402099609375,1.2671691894531252,5.0949951171875005
15.34599999999989,5.432946777343751,0.886151123046875,9.945498657226564
15.355999999999987,8.130429077148438,0.098394775390625,5.934042358398438
15.365999999999978,9.84306640625,-1.8986602783203128,12.207083129882813
15.37599999999997,10.149017333984377,0.1508819580078125,2.295977783203125
15.38599999999996,8.636309814453126,0.3596343994140625,-0.0267669677734375
15.396999999999927,6.945205688476563,-1.0286590576171877,1.313226318359375
15.406999999999918,5.463900756835938,-0.5867797851562501,7.512396240234375
15.41699999999991,3.124557495117188,-0.2308837890625,10.244122314453126
15.42799999999999,6.639553833007813,1.21842041015625,7.889825439453125
15.436999999999898,10.014883422851565,1.2128875732421875,10.4113037109375
15.446999999999887,8.378359985351564,-0.968994140625,9.488665771484376
15.456999999999988,7.086367797851563,0.325390625,4.664929199218751
15.466999999999976,7.160238647460938,1.0675384521484377,5.972921752929688
15.476999999999968,6.802847290039063,0.7251007080078126,7.799954223632813
15.48699999999996,6.720004272460938,0.09630126953125,4.300360107421875
15.49699999999995,7.742980957031251,0.2767913818359375,1.8745849609375
15.50699999999994,9.3178955078125,-0.2905487060546875,4.009213256835938
15.516999999999932,9.2461181640625,-0.7526153564453125,6.753051757812501
15.5279999999999,7.828216552734376,-0.3724945068359375,7.802795410156251
15.53799999999989,4.335202026367188,-0.22669677734375,6.872830200195313
15.54799999999988,0.12979736328125,-0.098394775390625,3.430657958984375
15.557999999999986,9.36036376953125,-1.1605499267578123,7.655502319335938
15.567999999999977,18.28737182617188,-0.043365478515625,9.497787475585938
15.577999999999967,12.029733276367187,0.7361663818359375,3.688009643554688
15.587999999999958,2.8558410644531254,-0.51739501953125,1.9979522705078123
15.59799999999995,1.849911499023437,-1.60721435546875,16.774365234375
15.60799999999994,4.65057373046875,0.253912353515625,18.135293579101564
15.617999999999924,6.864755249023438,2.18203125,1.2069061279296875
15.627999999999927,10.678524780273438,5.540612792968751,0.587677001953125
15.63799999999992,13.621246337890629,-2.928515625,0.0785064697265625
15.647999999999904,7.389627075195313,-0.48389892578125,3.634326171875
15.657999999999896,3.709991455078125,0.8713470458984376,12.42151794433594
15.667999999999886,5.830862426757813,-0.3596343994140625,2.1319366455078126
15.67799999999999,10.341470336914064,-1.3105346679687502,12.0741455078125
15.688999999999956,10.0859130859375,0.1185821533203125,6.572113037109376
15.698999999999948,8.647973632812501,0.363372802734375,-1.275393676757813
15.70899999999994,7.636660766601563,-0.16329345703125,0.8800201416015626
15.71899999999993,5.899649047851563,-0.6431549072265625,2.524618530273438
15.728999999999928,6.03228759765625,-1.5318481445312502,14.689083862304688
15.73899999999992,4.346865844726563,0.0800018310546875,4.731771850585938
15.748999999999905,8.720498657226564,-0.2546600341796875,14.213259887695314
15.758999999999894,9.3250732421875,-0.3768310546875,11.435476684570313
15.768999999999885,7.387982177734376,0.5156005859375,2.962759399414063
15.77899999999999,5.585324096679688,1.5153991699218752,4.197030639648438
15.78899999999998,6.809576416015625,1.5308013916015626,7.63052978515625
15.798999999999978,7.230670166015625,-0.3168670654296875,6.3833984375
15.808999999999967,8.287142944335939,0.1102081298828125,2.0996368408203128
15.818999999999953,9.877609252929688,0.791943359375,2.910421752929688
15.82999999999992,9.38174743652344,0.1710693359375,7.715765380859375
15.839999999999913,7.297064208984375,-0.7810272216796875,8.429800415039063
15.849999999999902,4.70201416015625,-0.4266265869140625,5.955874633789063
15.859999999999893,2.108758544921875,-1.571026611328125,4.700369262695313
15.86999999999989,6.345715332031251,-1.5125579833984375,5.299710083007813
15.879999999999988,14.298345947265624,0.0384307861328125,7.834497070312499
15.88999999999998,12.594680786132814,1.0307525634765626,5.5914550781250005
15.89999999999997,7.615875244140626,1.8153686523437504,4.750912475585938
15.90999999999996,2.986685180664063,-0.4975067138671875,15.876699829101565
15.919999999999952,4.871139526367188,0.2657257080078125,14.375057983398438
15.929999999999945,6.534579467773438,1.5631011962890626,3.699224853515626
15.939999999999934,7.97745361328125,-0.2103973388671875,-0.5837890625000001
15.949999999999925,11.671444702148438,-1.2381591796875,0.9106750488281252
15.960999999999892,8.413800048828126,1.2728515625,4.578945922851563
15.969999999999906,5.642147827148438,0.5594146728515625,11.34620361328125
15.980999999999987,6.069522094726563,0.9371429443359376,2.2324249267578127
15.990999999999978,8.308825683593751,-1.4192474365234375,13.914636230468751
16.00099999999997,10.72174072265625,-1.0563232421875002,5.364010620117188
16.01099999999996,9.443356323242188,0.15850830078125,0.0363372802734375
16.020999999999944,8.369985961914063,-0.9196472167968752,0.533843994140625
16.030999999999942,5.78106689453125,-1.0036865234375,2.491571044921875
16.040999999999933,4.128543090820313,-0.3156707763671875,12.516323852539063
16.05099999999993,4.180133056640625,0.5528350830078126,7.738494873046876
16.060999999999915,9.266305541992187,1.6173828125,9.174490356445313
16.070999999999906,9.824673461914063,-0.322100830078125,10.179373168945313
16.080999999999896,7.278073120117188,0.116339111328125,5.986380004882813
16.090999999999887,6.688900756835938,1.2700103759765626,5.2594848632812505
16.101,6.469381713867188,1.232476806640625,8.325424194335938
16.11199999999996,6.873876953125,0.056524658203125,5.988473510742188
16.12199999999995,7.677185058593751,0.2438934326171875,1.9012023925781247
16.13199999999994,9.039758300781251,-0.0614593505859375,3.445013427734376
16.141999999999932,9.544293212890626,-0.7286895751953125,5.3421783447265625
16.15199999999993,7.698269653320313,-0.649884033203125,7.657296752929688
16.16199999999992,3.613241577148438,-0.2367156982421875,5.981146240234375
16.171999999999905,0.1900604248046875,-0.1622467041015625,2.9445159912109378
16.181999999999896,12.847247314453126,-2.154367065429688,9.780560302734376
16.191999999999886,18.508984375,0.03289794921875,9.768447875976562
16.20199999999999,9.963742065429688,0.6989318847656251,2.8645141601562503
16.211999999999982,0.3168670654296875,-0.7369140625,3.8276763916015626
16.221999999999973,2.2723510742187503,-1.2812255859375,18.987799072265627
16.23199999999997,4.496551513671875,0.7998687744140626,14.593081665039064
16.241999999999955,8.150317382812501,3.969287109375,0.3569427490234375
16.25299999999993,11.49334716796875,3.1516235351562503,0.3361572265625
16.26299999999992,13.880841064453126,-2.5715728759765626,0.461468505859375
16.272999999999904,6.739743041992188,0.9796112060546877,3.695635986328125
16.282999999999895,3.625054931640625,0.5852844238281251,11.960797119140626
16.292999999999886,6.188552856445313,-0.5208343505859375,3.3168609619140628
16.30299999999999,10.38797607421875,-1.8407897949218752,15.12333679199219
16.312999999999974,10.000527954101564,0.0638519287109375,3.856536865234376
16.322999999999972,7.40084228515625,0.5022918701171876,-0.9950134277343752
16.33299999999997,6.958065795898438,-0.8650665283203126,0.7690643310546875
16.342999999999954,6.1182708740234375,-0.8773284912109376,2.5062255859375
16.352999999999945,6.642843627929688,-0.9800598144531252,10.870080566406251
16.362999999999936,5.27025146484375,0.0614593505859375,8.6503662109375
16.372999999999927,9.617416381835938,-0.0010467529296875,12.863098144531252
16.382999999999917,9.119610595703126,-0.3440826416015625,12.422116088867188
16.393999999999885,6.4228759765625005,0.2738006591796875,2.131338500976563
16.40399999999999,5.240643310546876,1.5011932373046877,4.9354400634765625
16.41399999999998,6.766510009765626,1.734918212890625,8.289834594726564
16.423999999999978,7.051525878906251,-0.069085693359375,5.654110717773438
16.43399999999997,8.421127319335938,0.190509033203125,1.5777557373046875
16.443999999999953,10.251150512695313,0.96361083984375,3.0500885009765626
16.453999999999944,9.50152587890625,-0.19918212890625,8.757733154296876
16.463999999999935,7.168014526367188,-0.93131103515625,8.581430053710939
16.473999999999926,5.154061889648438,-0.115740966796875,6.385192871093751
16.483999999999916,2.8392425537109376,-1.5281097412109377,5.41619873046875
16.493999999999907,3.946856689453125,-1.9275207519531248,3.825582885742188
16.5039999999999,12.613522338867188,0.2615386962890625,5.225091552734376
16.51399999999989,14.474200439453126,0.6065185546875,7.370187377929688
16.52399999999988,9.582723999023438,1.777386474609375,4.895663452148438
16.53499999999996,3.7916381835937503,0.2364166259765625,12.154446411132811
16.544999999999952,3.4888275146484378,-0.0001495361328125,17.499615478515626
16.554999999999943,6.61009521484375,1.7367126464843752,7.843768310546875
