time,ax,ay,az
0.0,8.043698120117188,0.1818359375,5.574407958984375
0.0099999999999838,7.807730102539063,0.173162841796875,5.914752197265625
0.0199999999999889,7.267904663085938,0.2654266357421875,6.282611083984375
0.0299999999999798,7.586865234375001,0.5492462158203125,5.947500610351563
0.0399999999999636,7.813412475585938,0.2486785888671875,5.77568359375
0.0509999999999237,8.594888305664064,0.337652587890625,5.0441528320312505
0.0609999999999217,8.399444580078125,-0.102880859375,5.379711914062501
0.0709999999999126,8.161981201171876,-0.5345916748046875,5.8785644531250005
0.0809999999999107,7.746420288085938,-0.50184326171875,6.069073486328126
0.0909999999998945,7.8189453125,-0.6972869873046875,6.1740478515625
0.1009999999998854,7.7791687011718755,-0.2986236572265625,5.659344482421876
0.1109999999998763,7.478750610351563,-0.3001190185546875,5.723794555664063
0.1209999999998672,6.148477172851563,-0.5583679199218751,4.5417114257812505
0.1309999999998581,7.520770263671875,-0.142059326171875,3.357534790039063
0.140999999999849,11.86060791015625,0.6640899658203125,5.263073730468751
0.1509999999998399,8.984280395507813,-1.4359954833984376,8.111288452148438
0.1609999999998237,6.070718383789063,0.9577789306640626,6.160589599609375
0.1709999999998288,8.647076416015626,0.3090911865234375,8.260076904296875
0.181999999999789,9.8634033203125,-1.3639190673828123,11.343212890625
0.1919999999997799,3.73421630859375,0.1733123779296875,6.015240478515626
0.2019999999999981,5.360122680664063,1.30634765625,3.4800048828125
0.211999999999989,12.455462646484376,1.353302001953125,4.689901733398438
0.22199999999998,10.06378173828125,0.359185791015625,2.7270904541015626
0.2319999999999709,3.378768920898438,1.27344970703125,3.843826293945313
0.2419999999999618,7.040908813476563,0.6990814208984375,4.834951782226563
0.2519999999999527,10.808322143554689,-2.39556884765625,8.134915161132813
0.2619999999999507,8.947344970703126,-1.176849365234375,7.424319458007813
0.2719999999999345,6.645535278320313,0.5909667968750001,3.6600463867187503
0.2819999999999254,10.164270019531251,-1.7127868652343752,5.3312622070312505
0.2919999999999163,8.639898681640625,-1.7138336181640623,8.10784912109375
0.3019999999999072,4.3133697509765625,-0.6948944091796876,7.093695068359375
0.3119999999998981,3.8888366699218753,-0.0142059326171875,5.366851806640625
0.321999999999889,9.593490600585938,0.68607177734375,6.5233642578125
0.3329999999998563,9.61502380371094,0.8855529785156251,6.375772094726563
0.3429999999998472,8.040557861328125,1.5369323730468751,3.96749267578125
0.3529999999998381,9.285894775390624,1.5303527832031252,3.651971435546875
0.362999999999829,9.516180419921875,-0.544012451171875,6.943710327148438
0.3729999999998199,6.862811279296875,-0.06639404296875,7.678829956054688
0.3829999999998108,5.966790771484376,0.8249908447265626,5.302999877929688
0.3929999999998017,8.41409912109375,-0.448309326171875,4.831362915039063
0.4029999999997926,8.181420898437501,-1.0944549560546877,7.338336181640625
0.4129999999997906,7.200912475585938,-0.76083984375,6.035726928710938
0.4229999999997744,7.5114990234375005,-1.0247711181640626,4.670462036132813
0.4329999999999927,8.319143676757813,-1.62276611328125,6.289489746093751
0.4429999999999907,8.028146362304689,-1.4434722900390626,5.933743286132813
0.4529999999999745,5.5510803222656255,-0.94447021484375,3.181979370117188
0.4629999999999654,8.893661499023438,1.032696533203125,4.451092529296876
0.474999999999909,10.33115234375,-0.432757568359375,7.664624023437501
0.4839999999999236,6.367098999023438,-0.45877685546875,7.256689453125
0.4939999999999145,6.310275268554688,2.452691650390625,5.826675415039063
0.5039999999999054,10.794265747070312,2.153021240234376,10.47889404296875
0.5139999999998963,8.322283935546876,0.55029296875,10.645626831054688
0.5239999999998872,4.7365570068359375,1.5352874755859376,3.1703155517578128
0.5339999999998781,8.679525756835938,0.2878570556640625,3.6355224609375
0.543999999999869,11.449084472656253,-1.897314453125,4.7911376953125
0.5539999999998599,6.085073852539063,-0.1607513427734375,6.384445190429688
0.5639999999998437,3.5570159912109376,0.104974365234375,3.045452880859376
0.5749999999998181,10.631271362304688,-1.7865081787109376,3.094650268554688
0.5839999999998327,11.227023315429689,-2.1115997314453128,5.764617919921875
0.5939999999998307,6.401193237304688,-1.49117431640625,7.038815307617188
0.6039999999998145,7.1899963378906255,-0.0743194580078125,3.444265747070313
0.6139999999998054,10.181915283203123,-1.8035552978515623,8.322882080078125
0.625,7.941864013671876,-0.0237762451171875,9.331353759765626
0.6349999999999838,4.729379272460938,1.857537841796875,5.817254638671876
0.6449999999999889,6.059353637695313,1.9312591552734373,5.58487548828125
0.6549999999999798,9.453076171875,1.2900482177734376,8.123849487304689
0.6649999999999636,6.7907348632812505,0.7689147949218751,6.1372619628906255
0.6749999999999545,5.825927734375,1.0492950439453126,4.009063720703125
0.6849999999999454,10.5452880859375,0.61429443359375,5.029797363281251
0.6949999999999363,10.622598266601564,-1.8968658447265627,5.891873168945313
0.7049999999999272,6.661087036132813,-1.286309814453125,5.87198486328125
0.7149999999999181,6.833502197265625,-1.0279113769531252,3.965698242187501
0.724999999999909,8.133270263671875,-1.1210723876953126,6.584973144531251
0.7349999999999,5.7833099365234375,-0.6527252197265625,6.389080810546876
0.7449999999998909,4.214974975585938,-0.26976318359375,3.758740234375
0.7559999999998581,9.008355712890626,0.102880859375,5.00048828125
0.765999999999849,12.206784057617188,-0.78177490234375,7.956069946289063
0.7759999999998399,10.284796142578124,-0.1825836181640625,6.71536865234375
0.7859999999998237,7.828216552734376,-0.46236572265625,7.383795166015625
0.7959999999998288,8.465539550781251,-0.4053924560546875,9.951779174804688
0.8059999999998197,6.621011352539063,1.3362548828125,8.083175659179688
0.8159999999998035,4.142449951171876,1.1970367431640625,4.3537445068359375
0.8259999999997945,7.252203369140625,1.1062683105468751,4.581787109375
0.8359999999997854,9.989013671875,0.7141845703125,5.215521240234375
0.8459999999997763,7.618267822265626,-0.5788543701171875,4.437933349609375
0.8559999999999945,7.678680419921876,-0.7526153564453125,3.527706909179688
0.8659999999999854,8.81365966796875,-0.6320892333984376,6.499139404296876
0.8759999999999764,8.511746215820313,0.0677398681640625,7.364205932617188
0.8859999999999673,8.485726928710939,0.04246826171875,3.9338470458984376
0.8959999999999582,9.011795043945312,-1.236663818359375,1.3606292724609377
0.9059999999999492,8.241384887695313,-1.0833892822265625,6.609048461914063
0.9169999999999164,6.504373168945313,-1.0074249267578126,8.252301025390626
0.9269999999999072,3.8589294433593753,-1.09879150390625,9.65166015625
0.936999999999898,6.498989868164063,-0.08074951171875,8.01513671875
0.946999999999889,9.017178344726563,0.6485382080078126,7.004721069335938
0.95699999999988,7.806234741210938,1.090118408203125,5.8491058349609375
0.966999999999878,8.409912109375,1.3853027343750002,5.1313323974609375
0.9769999999998688,8.865100097656251,0.5836395263671875,4.3233886718750005
0.9869999999998528,7.647128295898438,-0.174957275390625,4.682873535156251
0.9969999999998436,7.335195922851563,-0.1380218505859375,5.44072265625
1.0069999999998345,8.054165649414063,0.3252410888671875,5.590707397460938
1.0169999999998254,8.461801147460939,-0.371746826171875,6.180477905273438
1.0269999999998165,7.963397216796875,-1.0140045166015623,6.964346313476563
1.0369999999998072,6.993655395507813,-0.8374023437500001,6.731069946289063
1.046999999999798,4.613787841796875,-1.344180297851563,5.006320190429688
1.0579999999999927,3.038275146484376,-1.1426055908203123,2.399008178710938
1.0679999999999907,10.408462524414062,-1.224551391601563,5.066134643554688
1.0779999999999743,15.67422790527344,-0.378326416015625,7.304840087890626
1.0879999999999654,12.561334228515626,1.7151794433593752,6.428408813476563
1.0979999999999563,8.471820068359376,0.5912658691406251,4.971926879882813
1.1079999999999472,8.637805175781251,-0.6401641845703125,14.688186645507814
1.1179999999999382,-1.1473907470703126,-0.3291290283203125,15.89494323730469
1.127999999999929,-0.0396270751953125,0.239556884765625,-1.30574951171875
1.13799999999992,5.087667846679688,0.81287841796875,4.002783203125
1.1479999999999038,18.089385986328125,1.40384521484375,2.756698608398437
1.1579999999999089,10.767648315429687,1.1476898193359375,0.2214630126953125
1.1679999999998998,8.742779541015626,1.2045135498046875,3.531146240234375
1.1779999999998836,9.002374267578126,-0.7870086669921875,9.228024291992188
1.1879999999998745,8.298358154296876,-1.7702087402343751,10.5716064453125
1.1989999999998415,3.854144287109375,-1.4898284912109376,5.846264648437501
1.2089999999998329,6.472073364257813,-0.386700439453125,3.8850982666015614
1.2189999999998309,12.186447143554688,-0.8240936279296875,1.3688537597656252
1.2289999999998145,6.19139404296875,-1.1213714599609377,-0.1256103515625
1.2389999999998054,7.436282348632813,-0.899908447265625,4.014895629882813
1.2489999999997965,8.201159667968751,-0.8773284912109376,11.545236206054687
1.2589999999997872,2.140609741210937,0.3378021240234375,16.25442810058594
1.268999999999778,9.907067871093751,1.3286285400390625,8.674591064453125
1.2789999999999964,8.020968627929689,1.0585662841796877,5.000338745117188
1.2889999999999873,8.57559814453125,1.7510681152343752,4.510009765625
1.2989999999999782,8.671899414062501,0.7985229492187501,3.8589294433593753
1.308999999999969,6.261975097656251,0.035888671875,3.7962738037109376
1.31899999999996,6.927560424804688,-0.04127197265625,2.7552032470703125
1.328999999999958,8.040856933593751,-0.962713623046875,3.658401489257813
1.338999999999949,4.962954711914063,-0.91575927734375,3.4737243652343754
1.349999999999909,5.715869140625,-1.753909301757813,5.46524658203125
1.3599999999999,15.16101989746094,-2.310333251953125,11.072402954101562
1.3699999999998909,15.786529541015629,-0.490478515625,9.482833862304688
1.3799999999998818,6.747219848632813,-0.887945556640625,3.498248291015625
1.389999999999873,5.217315673828125,-0.7763916015625001,6.075653076171875
1.399999999999871,3.44591064453125,-0.7562042236328126,19.38750915527344
1.4099999999998545,-1.0754638671875,0.0001495361328125,2.953488159179688
1.4199999999998454,4.3522491455078125,0.8762817382812501,2.637069702148437
1.4299999999998363,18.56820068359375,2.0368316650390628,2.7635772705078128
1.4399999999998272,13.065420532226565,2.173208618164063,-1.1734100341796876
1.449999999999818,12.69546813964844,1.277935791015625,7.785748291015626
1.459999999999809,2.1767974853515626,-0.276043701171875,11.563629150390623
1.4699999999998,6.141897583007813,-0.78775634765625,9.499282836914062
1.479999999999798,8.868539428710939,-0.2117431640625,7.193435668945313
1.4919999999999618,3.976315307617188,1.1615966796875,2.7508666992187503
1.5009999999999764,10.943353271484376,-0.217425537109375,2.1516754150390627
1.5109999999999673,7.723092651367188,-1.0833892822265625,-0.6331359863281251
1.5209999999999582,7.585519409179688,-1.01505126953125,-0.0251220703125
1.530999999999949,10.070510864257812,-1.5807464599609375,7.720550537109376
1.54099999999994,7.590005493164063,-1.7021697998046876,11.719296264648438
1.5509999999999238,7.690643310546876,-1.3199554443359376,14.82007751464844
1.5609999999999218,6.988122558593751,-0.5203857421875,9.372476196289064
1.570999999999913,5.455227661132813,1.296328735351563,3.1208190917968754
1.5809999999999107,6.672003173828125,1.684674072265625,5.203857421875
1.591999999999878,8.3345458984375,1.368255615234375,5.419338989257813
1.6009999999998854,5.570370483398438,0.7826721191406251,3.745880126953125
1.6119999999998529,8.241534423828126,1.2173736572265623,3.61339111328125
1.6209999999998672,12.652700805664065,-0.36187744140625,0.9992004394531252
1.630999999999858,10.54947509765625,-1.281375122070313,8.003622436523438
1.6419999999998254,6.300405883789063,-0.9561340332031252,8.800201416015625
1.6519999999998165,3.4137603759765627,-0.602032470703125,4.396810913085938
1.6619999999998072,1.2383087158203123,-0.5807983398437501,3.826779174804688
1.671999999999798,7.208090209960938,-2.1832275390625,9.343167114257811
1.681999999999789,16.614062500000003,0.087628173828125,9.851889038085938
1.69199999999978,16.670437622070313,0.5250213623046875,2.67550048828125
1.7019999999999982,5.2674102783203125,-0.6745574951171875,-0.5793029785156251
1.711999999999989,12.385330200195314,-0.325689697265625,16.307363891601565
1.72199999999998,-0.32598876953125,-0.677398681640625,20.60353698730469
1.731999999999971,-0.9721343994140624,-0.193499755859375,-3.103173828125
1.7419999999999618,0.5644989013671875,0.425579833984375,-0.0004486083984375
1.7519999999999527,20.0318603515625,1.648785400390625,8.921624755859376
1.76299999999992,11.620602416992188,0.4753753662109375,2.9249267578125
1.7719999999999343,9.271389770507811,1.645794677734375,-3.7425903320312495
1.7829999999999089,8.179476928710939,0.4616180419921875,6.832305908203126
1.7929999999998998,12.635803222656252,-1.6185791015625002,14.457601928710938
1.802999999999884,1.0678375244140623,-1.107464599609375,7.6924377441406255
1.8129999999998745,6.3774169921875,0.251519775390625,2.970086669921875
1.8229999999998647,12.424508666992187,-0.25062255859375,0.31761474609375
1.8329999999998563,5.652914428710938,-1.2709075927734377,0.24105224609375
1.8429999999998472,7.889526367187501,-1.081146240234375,2.172311401367188
1.852999999999838,7.0180297851562505,-1.3515075683593751,14.358908081054688
1.862999999999829,5.097537231445313,-0.9601715087890624,13.949478149414064
1.87299999999982,10.037463378906253,-0.5292083740234376,9.633416748046876
1.8829999999998108,6.521569824218751,0.792242431640625,5.629586791992188
1.8929999999998013,7.065432739257813,1.3564422607421875,4.155758666992188
1.9029999999997929,9.219949340820314,1.7592926025390627,4.759735107421875
1.9139999999999875,6.2553955078125005,1.0554260253906251,5.49156494140625
1.9229999999997744,5.677886962890625,0.6533233642578126,3.3843017578125
1.933999999999969,10.375564575195312,0.0871795654296875,2.973077392578125
1.94399999999996,12.195120239257813,-1.2735992431640626,1.8244903564453123
1.953999999999958,9.240435791015626,-1.089968872070313,9.172994995117188
1.963999999999949,6.097036743164063,-0.80689697265625,8.252151489257812
1.9739999999999327,4.568179321289063,-0.6126495361328126,5.759683227539063
1.983999999999924,-0.3378021240234375,-0.4018035888671875,5.39586181640625
1.9939999999999145,4.3821563720703125,-1.5346893310546876,6.187954711914063
2.0039999999999054,17.489297485351564,-1.0759124755859375,10.701553344726562
2.0139999999998963,20.017654418945312,-0.2223602294921875,2.0990386962890626
2.0239999999998872,4.508963012695313,-0.299072265625,-1.2236541748046876
2.033999999999878,13.964581298828126,0.1807891845703125,10.80069580078125
2.043999999999869,3.874929809570313,-0.1607513427734375,28.217767333984376
2.05399999999986,-1.703515625,-0.3040069580078125,-2.509515380859375
2.064999999999827,0.2739501953125,-0.0333465576171875,-0.5902191162109376
2.074999999999818,0.650482177734375,0.3063995361328125,0.44083251953125
2.084999999999809,27.0947509765625,3.418994140625,14.9392578125
2.0949999999998,4.603768920898438,0.6298461914062501,-5.599679565429688
2.104999999999798,10.289880371093751,0.04486083984375,4.884896850585938
2.114999999999789,8.871081542968751,-2.207601928710938,15.072195434570313
2.125,6.5499816894531255,-1.3612274169921876,10.222439575195311
2.134999999999984,9.910208129882813,-0.15850830078125,0.498553466796875
2.144999999999989,7.646829223632813,-0.3923828125,-0.0737213134765625
2.15499999999998,6.428408813476563,-0.5552276611328125,0.2691650390625
2.164999999999964,6.0046234130859375,-0.5112640380859376,-1.0008453369140626
2.1749999999999545,9.245669555664064,-0.7633819580078125,9.486572265625
2.184999999999945,8.615374755859376,-0.113946533203125,16.023843383789064
2.1949999999999363,3.600082397460938,0.7744476318359376,15.112121582031252
2.2059999999999107,8.855828857421876,1.026715087890625,5.383001708984375
2.2159999999998945,7.468582153320313,1.2438415527343751,3.982296752929688
2.2259999999998854,8.935830688476564,1.1470916748046875,5.536276245117188
2.2359999999998763,6.439773559570313,-0.439935302734375,5.667568969726563
2.245999999999867,5.5077148437500005,0.699530029296875,2.944964599609375
2.255999999999858,10.284646606445314,-0.241351318359375,2.3309692382812504
2.265999999999849,10.99195251464844,-1.55936279296875,1.6459442138671876
2.27599999999984,9.225033569335938,-0.9413299560546876,8.8106689453125
2.285999999999824,6.63760986328125,-1.347320556640625,8.524456787109376
2.295999999999829,6.279620361328125,-1.6202239990234375,7.0114501953125
2.30599999999982,3.890032958984375,-0.8895904541015626,5.219259643554688
2.3159999999998035,1.2012237548828126,-0.6495849609375001,3.347216796875
2.3259999999997945,9.55177001953125,0.182135009765625,6.663778686523438
2.3359999999997854,17.541186523437503,2.2527618408203125,8.158840942382813
2.34699999999998,15.109280395507811,0.62625732421875,3.582586669921876
2.356999999999971,8.938821411132814,0.02093505859375,5.429656982421875
2.366999999999962,4.54051513671875,-0.4825531005859375,21.94397888183594
2.3769999999999527,-2.279379272460938,-0.1736114501953125,10.19043884277344
2.3869999999999507,1.756900024414063,0.4390380859375,0.3536529541015625
2.3969999999999345,10.286441040039064,0.7928405761718751,2.8368499755859378
2.4069999999999254,14.01676940917969,-0.6702209472656251,0.33675537109375
2.4169999999999163,10.470669555664063,0.855047607421875,-1.1545684814453123
2.4269999999999072,8.277273559570313,1.155764770507813,2.8260833740234377
2.436999999999898,11.304483032226564,-0.9156097412109376,11.013336181640623
2.446999999999889,7.277325439453126,-1.8811645507812504,12.6842529296875
2.45699999999988,1.4346496582031252,-1.2341217041015626,7.3828979492187505
2.466999999999878,10.461248779296875,0.43604736328125,3.304000854492188
2.476999999999869,10.104006958007814,-0.6282012939453125,-0.2884552001953125
2.4869999999998527,5.593099975585938,-1.2631317138671876,-0.304754638671875
2.49799999999982,5.253204345703125,-0.7843170166015626,1.2945343017578126
2.507999999999811,10.539306640625,-0.0623565673828125,11.482879638671877
2.5179999999998017,6.249713134765625,0.5993408203125,16.96622009277344
2.5279999999997926,8.350994873046876,0.4673004150390625,10.312460327148438
2.53799999999979,7.613482666015625,0.6359771728515625,4.972076416015625
2.5479999999997744,7.605108642578125,1.173709106445313,4.846765136718751
2.5579999999999927,7.817599487304688,0.05443115234375,5.967837524414063
2.5679999999999907,5.4139556884765625,-0.0052337646484375,4.185516357421875
2.5779999999999745,5.140753173828125,0.7349700927734375,2.866009521484376
2.587999999999965,9.801046752929688,-0.802410888671875,3.96749267578125
2.5979999999999563,12.436022949218753,-1.6277008056640627,2.2566497802734378
2.6079999999999472,8.79571533203125,-0.8578887939453126,8.342471313476564
2.617999999999938,5.800057983398438,-0.8237945556640626,6.904830932617188
2.627999999999929,2.14793701171875,-0.347222900390625,2.0843841552734377
2.63799999999992,2.5110107421875,-1.19150390625,11.340072631835938
2.6489999999998872,15.340164184570314,-1.2048126220703126,12.759768676757814
2.658999999999878,20.35411071777344,1.0352386474609376,4.955776977539063
2.668999999999869,3.8801635742187504,-0.4628143310546875,-0.6637908935546876
2.67899999999986,3.100332641601563,0.1469940185546875,-0.43365478515625
2.688999999999844,16.717242431640628,0.3880462646484375,25.353701782226565
2.6989999999998417,-2.314520263671876,-0.4089813232421875,12.050518798828126
2.7089999999998327,-0.152825927734375,-0.0602630615234375,-3.613241577148438
2.7189999999998307,0.7585968017578125,0.2564544677734375,0.432757568359375
2.7289999999998145,35.51273803710938,3.426171875,3.837844848632813
2.7389999999998054,0.8121307373046875,-0.4242340087890625,0.1511810302734375
2.7489999999997963,-1.3005157470703126,0.1236663818359375,-0.0287109375
2.758999999999787,16.824908447265628,-0.00179443359375,12.975250244140629
2.768999999999778,5.917742919921875,-1.6489349365234376,16.665652465820315
2.77999999999998,3.140557861328125,-0.4191497802734375,3.0050781250000003
2.789999999999964,14.018862915039064,0.1413116455078125,-0.155218505859375
2.7999999999999545,6.860119628906251,-0.5815460205078126,0.3850555419921875
2.809999999999945,6.696676635742188,-0.554779052734375,-1.58089599609375
2.8199999999999363,9.957461547851564,-0.9347503662109377,7.859020996093751
2.8299999999999272,7.793374633789063,-0.6102569580078125,12.056948852539064
2.839999999999918,5.4263671875,0.080450439453125,18.22037963867188
2.849999999999909,7.313961791992188,0.5375823974609375,7.247418212890626
2.8599999999999,5.140603637695313,0.7901489257812501,2.4971038818359377
2.869999999999891,8.421575927734375,1.51031494140625,4.647433471679688
2.8799999999998818,8.206692504882813,0.273651123046875,7.4068237304687505
2.8899999999998727,5.869293212890625,0.1078155517578125,4.385595703125
2.8999999999998707,9.39625244140625,0.6655853271484375,2.8811126708984376
2.910999999999824,11.993695068359376,-1.3105346679687502,0.4083831787109375
2.920999999999829,11.556451416015626,-1.2318786621093751,5.984286499023438
2.93099999999982,6.010754394531251,-0.6778472900390625,8.694628906250001
2.9409999999998035,1.2073547363281252,-0.6440521240234376,6.466690063476563
2.9509999999997945,0.215032958984375,-0.79971923828125,4.7026123046875
2.9609999999997854,8.367294311523438,-2.6106018066406254,10.717254638671877
2.9709999999997763,20.10468444824219,-0.5950042724609376,8.177981567382814
2.9809999999999945,14.384329223632813,0.14833984375,-0.081048583984375
2.990999999999985,4.876971435546875,0.0758148193359375,0.0578704833984375
3.0009999999999764,13.293463134765624,0.4475616455078125,19.827145385742188
3.010999999999968,-0.6839782714843751,0.0402252197265625,17.283984375000003
3.020999999999958,-0.4653564453125,-0.0991424560546875,-3.886294555664063
3.030999999999949,0.135479736328125,0.0083740234375,0.262286376953125
3.04099999999994,11.793914794921877,1.82852783203125,2.41710205078125
3.050999999999924,24.62710571289063,3.2048583984375,5.08721923828125
3.060999999999922,-2.186666870117188,0.4194488525390625,4.735958862304688
3.0709999999999127,8.227777099609376,0.9900787353515624,11.553460693359376
3.0809999999999107,8.756387329101564,-1.610205078125,11.105450439453126
3.092999999999847,6.559103393554688,-1.2601409912109376,5.792132568359375
3.101999999999869,11.93118896484375,-0.2077056884765625,2.038327026367188
3.1119999999998527,6.940719604492188,-0.7804290771484376,-0.27275390625
3.121999999999844,6.348855590820313,-1.017742919921875,-0.8030090332031251
3.1319999999998345,5.086920166015625,-1.1123992919921877,1.039276123046875
3.1419999999998254,11.250650024414064,-2.0918609619140627,8.034576416015625
3.1519999999998163,8.216262817382812,-1.7877044677734375,18.45649719238281
3.161999999999807,6.909017944335938,0.0109161376953125,11.993844604492187
3.171999999999798,7.0138427734375,1.7123382568359375,4.845419311523438
3.181999999999789,6.683367919921875,2.130889892578125,5.323486328125
3.1929999999999907,7.48338623046875,2.219415283203125,7.002627563476563
3.201999999999998,5.953182983398438,1.3299743652343752,4.884298706054688
3.212999999999965,5.606857299804688,0.9725830078125,3.182577514648438
3.2229999999999563,9.414047241210938,-0.2332763671875,3.9507446289062496
3.2329999999999472,12.341217041015629,-1.6435516357421875,1.4410797119140626
3.242999999999938,9.40701904296875,-1.5469512939453127,8.046987915039063
3.252999999999929,6.952832031250001,-1.4016021728515626,7.963845825195313
3.26299999999992,4.840335083007813,-1.1764007568359376,5.4897705078125005
3.272999999999904,0.47911376953125,-0.462066650390625,2.8139709472656254
3.282999999999909,6.507214355468751,-2.152423095703125,7.680624389648438
3.2929999999999,16.908798217773438,-1.7009735107421875,10.85916442871094
3.302999999999884,17.0411376953125,0.1763031005859375,4.1188232421875
3.3129999999998745,2.9636566162109377,-0.5836395263671875,-0.5869293212890625
3.3229999999998654,12.056350708007812,0.3363067626953125,11.229864501953124
3.3329999999998563,2.2566497802734378,-0.3037078857421875,27.21243591308594
3.342999999999847,-1.513604736328125,0.069683837890625,-1.6224670410156252
3.352999999999838,0.7005767822265625,0.363671875,-0.4230377197265625
3.362999999999829,28.663085937500004,3.8816589355468754,2.2550048828125
3.3739999999997963,3.8143676757812495,0.7209136962890625,0.5042358398437501
3.383999999999787,8.51099853515625,1.6303924560546876,7.666717529296876
3.394999999999989,7.3604675292968755,0.16090087890625,3.9770629882812494
3.4039999999999964,8.224636840820313,-1.884454345703125,16.247250366210938
3.413999999999988,7.431796264648438,-1.4150604248046876,6.211132812500001
3.423999999999978,9.691436767578123,-0.1275543212890625,2.552581787109375
3.433999999999969,9.127835083007811,-0.7110443115234375,-0.156414794921875
3.44399999999996,6.403137207031251,-0.9661529541015624,-0.192901611328125
3.453999999999958,6.83798828125,-0.7931396484375001,0.4568328857421875
3.463999999999949,9.78265380859375,-1.44930419921875,11.362503051757812
3.4739999999999327,3.007769775390625,-0.614593505859375,16.615707397460938
3.483999999999924,11.218499755859376,0.4696929931640625,10.36390075683594
3.494999999999891,5.873779296875,0.849066162109375,5.932995605468751
3.5049999999998818,5.337393188476563,1.5357360839843752,3.588119506835938
3.5149999999998727,8.81485595703125,1.8813140869140623,6.1776367187500005
3.5249999999998707,7.649670410156251,1.1451477050781251,6.491812133789063
3.5349999999998545,5.729177856445313,0.488385009765625,3.5905120849609378
3.5449999999998454,8.827416992187501,0.100189208984375,3.716720581054688
3.5549999999998363,12.7392822265625,-1.5469512939453127,1.2580474853515626
3.564999999999827,9.578536987304688,-1.4262756347656251,7.926162719726563
3.574999999999818,6.250311279296875,-1.681085205078125,8.063436889648438
3.584999999999809,5.805441284179688,-1.9580261230468752,7.361514282226563
3.5949999999998,4.122412109375,-2.002737426757813,7.545294189453125
3.604999999999798,2.8794677734375003,-1.087127685546875,2.5883209228515627
3.614999999999789,5.632577514648438,0.1435546875,3.385198974609376
3.625,14.86673278808594,1.5194366455078123,5.858078002929688
3.634999999999984,15.02479248046875,0.8976654052734375,6.119168090820313
3.645999999999958,9.982882690429689,2.5222259521484376,8.276226806640626
3.655999999999949,8.893511962890626,-0.16688232421875,11.341867065429687
3.66599999999994,3.03558349609375,0.181536865234375,18.05185241699219
3.675999999999924,0.5483489990234376,0.5926116943359375,2.90399169921875
3.685999999999922,4.083831787109375,0.696240234375,2.081393432617188
3.6959999999999127,14.237185668945314,-0.4409820556640625,0.887646484375
3.705999999999911,8.993701171875001,-1.4901275634765625,-0.2971282958984375
3.715999999999896,9.820785522460938,-0.5634521484375,5.474368286132813
3.725999999999885,7.280914306640626,-0.7360168457031251,8.236898803710938
3.735999999999876,9.480441284179689,-2.2529113769531253,10.032229614257814
3.745999999999867,8.132223510742188,-1.6555145263671875,7.440618896484375
3.755999999999858,7.083975219726563,0.5866302490234375,3.4792572021484376
3.765999999999849,9.853533935546876,-0.7331756591796875,0.724652099609375
3.77599999999984,6.544149780273438,-0.346026611328125,0.207257080078125
3.785999999999824,7.304690551757813,0.0503936767578125,5.770449829101563
3.796999999999798,4.930206298828125,0.5345916748046875,9.914544677734376
3.806999999999789,6.508709716796876,2.182330322265625,12.008200073242188
3.81699999999978,8.651712036132814,1.609906005859375,10.599719238281253
3.826999999999998,7.697821044921875,0.1655364990234375,6.866549682617188
3.836999999999989,8.415145874023438,0.7346710205078125,5.377468872070313
3.84699999999998,8.403781127929689,0.00897216796875,5.919537353515626
3.856999999999971,6.339584350585938,-0.49227294921875,4.750912475585938
3.866999999999962,5.421881103515625,-0.5408721923828126,3.8755279541015626
3.8769999999999527,7.608398437500001,-1.1997283935546876,4.1349731445312505
3.886999999999951,10.854229736328126,-1.5989898681640626,3.2720001220703128
3.896999999999936,10.062734985351565,-1.38291015625,3.4014984130859376
3.906999999999925,5.596987915039063,-0.7228576660156251,7.127041625976563
3.916999999999916,2.303753662109376,-0.152825927734375,2.6360229492187504
3.9269999999999072,8.378808593750001,-0.9700408935546876,8.890371704101563
3.936999999999898,17.293704223632815,0.4927215576171875,10.9974853515625
3.9479999999998654,11.85223388671875,2.1904052734375004,6.414651489257813
3.957999999999856,4.344323730468751,0.63702392578125,2.3729888916015627
3.967999999999847,7.809674072265626,-0.460272216796875,11.716604614257813
3.977999999999838,-0.8194580078125001,-0.98155517578125,18.63982849121093
3.987999999999829,-0.5938079833984375,-0.0465057373046875,-1.386199951171875
3.99799999999982,12.574642944335938,1.281375122070313,5.704354858398438
4.007999999999811,18.15473327636719,0.1818359375,-0.0294586181640625
4.017999999999802,8.678179931640626,-0.0204864501953125,0.673809814453125
4.027999999999793,9.244473266601563,0.3218017578125,0.31043701171875
4.037999999999791,3.565988159179688,-1.1279510498046876,12.680664062500002
4.0479999999997744,6.985879516601563,-1.7406005859375002,13.380343627929689
4.057999999999993,7.000085449218751,-0.7766906738281251,5.25888671875
4.067999999999991,6.819296264648438,1.02103271484375,2.1421051025390625
4.077999999999975,11.173190307617189,0.11484375,-0.0686370849609375
4.087999999999965,6.664376831054688,-0.1565643310546875,0.4032989501953125
4.098999999999933,8.653207397460939,-0.5151519775390625,0.8825622558593751
4.1099999999999,7.390524291992188,-0.7379608154296875,14.829049682617187
4.1189999999999145,4.361819458007813,0.0731231689453125,14.305972290039064
4.128999999999905,11.803036499023438,-0.5241241455078125,9.074899291992187
4.138999999999896,6.261975097656251,0.3828125,5.080340576171875
4.148999999999887,5.372384643554688,1.0768096923828123,2.89501953125
4.158999999999878,7.345663452148438,0.3680084228515625,6.274237060546875
4.168999999999869,6.6277404785156255,-0.45040283203125,6.408520507812501
4.17899999999986,5.920584106445313,0.39776611328125,3.798965454101563
4.188999999999844,10.888623046875,0.6359771728515625,4.200320434570313
4.198999999999842,13.231555175781253,-1.5369323730468751,0.457879638671875
4.209999999999809,10.204495239257811,-1.155914306640625,7.323233032226563
4.218999999999831,5.8087310791015625,-0.5719757080078125,8.757733154296876
4.229999999999798,3.686962890625,-0.4749267578125,7.313812255859376
4.239999999999789,-0.0883758544921875,-0.69324951171875,5.7469726562500005
4.25,5.386740112304688,-1.100885009765625,3.719412231445313
4.259999999999984,13.286434936523438,0.7861114501953126,7.773934936523438
4.269999999999989,16.578173828125003,0.8680572509765626,3.498098754882813
4.27999999999998,11.1338623046875,0.8886932373046875,2.55587158203125
4.289999999999964,9.47146911621094,0.108563232421875,14.071798706054688
4.2999999999999545,-0.631939697265625,-0.076263427734375,20.999658203125
4.309999999999945,3.2772338867187503,1.1644378662109376,3.5644927978515626
4.319999999999936,6.097784423828125,0.4810577392578125,2.1136932373046875
4.329999999999927,12.676626586914065,-0.8863006591796876,0.8409912109375001
4.339999999999918,8.309274291992189,-1.1201751708984375,-0.8095886230468751
4.349999999999909,8.270993041992188,0.8420379638671875,2.105319213867188
4.3599999999999,10.072305297851564,0.1631439208984375,4.866204833984376
4.369999999999891,10.385583496093751,-1.1310913085937502,11.390017700195314
4.379999999999882,5.152267456054688,-1.7799285888671876,10.565475463867188
4.390999999999849,5.686709594726563,-0.0228790283203125,5.40184326171875
4.40099999999984,13.010092163085938,-0.300567626953125,1.5888214111328127
4.410999999999824,6.732565307617188,-1.31771240234375,-0.4254302978515625
4.420999999999829,6.466989135742188,-0.5387786865234375,2.909075927734375
4.43099999999982,5.9383789062500005,-0.180938720703125,10.05181884765625
4.440999999999804,5.637063598632813,1.6395141601562502,12.493594360351564
4.4509999999997945,8.697171020507813,0.5486480712890626,10.041351318359377
4.460999999999785,8.19697265625,-0.14415283203125,6.372482299804688
4.470999999999776,7.778121948242188,0.5658447265625001,5.55975341796875
4.4809999999999945,8.469427490234375,0.4457672119140625,6.299508666992188
4.4909999999999854,6.884793090820313,0.5097686767578126,5.182324218750001
4.500999999999976,5.8980041503906255,-0.0710296630859375,3.792684936523438
4.511999999999951,7.0658813476562505,-0.2881561279296875,4.26776123046875
4.521999999999935,10.29107666015625,-1.453790283203125,4.38798828125
4.531999999999925,10.79336853027344,-1.5396240234375,3.2151763916015628
4.541999999999916,7.227679443359375,-0.3291290283203125,6.882699584960938
4.551999999999907,3.426022338867188,-0.2752960205078125,4.089813232421875
4.561999999999898,2.720062255859375,-0.311932373046875,5.749066162109376
4.571999999999889,11.72767028808594,-0.8658142089843751,12.44664001464844
4.58199999999988,15.284237670898438,1.9387359619140627,8.29267578125
4.591999999999878,10.834490966796876,0.4003082275390625,3.14205322265625
4.601999999999869,5.961856079101563,-0.7460357666015626,0.3533538818359375
4.611999999999853,10.45840759277344,-0.1810882568359375,20.960479736328125
4.621999999999844,-2.575460815429688,-0.4583282470703125,11.639144897460938
4.6319999999998345,0.1870697021484375,-0.0131591796875,-3.3941711425781254
4.641999999999825,17.457147216796876,1.8986602783203128,1.2685150146484376
4.651999999999816,13.569058227539063,0.1541717529296875,0.8225982666015625
4.661999999999807,5.023367309570313,0.030206298828125,7.537518310546876
4.6729999999997744,6.9396728515625,0.0478515625,8.89261474609375
4.682999999999993,6.7653137207031255,-1.3699005126953123,8.909213256835939
4.692999999999991,10.307376098632814,-1.9964569091796875,10.547381591796876
4.702999999999975,8.191888427734376,0.0992919921875,2.8854492187500003
4.712999999999965,8.975906372070312,0.1972381591796875,-0.0641510009765625
4.722999999999956,8.095138549804688,-0.5935089111328126,0.5241241455078125
4.732999999999947,7.244427490234376,-0.7189697265625,-0.4972076416015625
4.742999999999938,6.700863647460938,-0.6125,14.13221130371094
4.752999999999929,4.281817626953125,-0.120526123046875,10.851239013671876
4.76299999999992,9.496142578125,0.5471527099609376,11.07105712890625
4.772999999999904,8.313909912109375,0.402252197265625,8.517727661132813
4.782999999999909,6.404632568359376,1.4635101318359376,3.151025390625
4.7929999999999,7.9660888671875005,1.0763610839843751,4.387091064453125
4.802999999999884,7.351943969726563,-1.0874267578125,6.929354858398438
4.813999999999844,6.024212646484376,-0.056524658203125,4.637265014648438
4.823999999999842,7.472021484375,0.9604705810546876,3.7233001708984377
4.833999999999833,11.0860107421875,-1.0262664794921876,4.118374633789063
4.843999999999831,10.890567016601564,-1.3971160888671876,5.01663818359375
4.853999999999815,6.609497070312501,-0.7614379882812501,7.585968017578126
4.863999999999805,4.865158081054688,-0.7023712158203126,4.919140625000001
4.873999999999796,3.3555908203125004,-0.68726806640625,4.652517700195313
4.883999999999787,6.929803466796876,-1.2759918212890626,8.277124023437501
4.893999999999778,12.9354736328125,0.6889129638671876,6.874923706054688
4.903999999999996,10.670001220703126,2.164984130859376,4.9230285644531255
4.913999999999987,10.687646484375,1.1476898193359375,4.54888916015625
4.923999999999978,8.945999145507812,-0.382513427734375,14.404367065429687
4.933999999999969,1.0069763183593752,0.5979949951171876,15.827053833007811
4.94399999999996,1.6628417968750002,0.8411407470703126,1.3908355712890623
4.953999999999958,10.559344482421876,-0.7484283447265625,4.453335571289063
4.964999999999918,13.902523803710938,-1.6357757568359377,0.0689361572265625
4.974999999999909,6.792529296875,-0.9257781982421877,0.5706298828125
4.9849999999999,7.487423706054688,0.2767913818359375,5.370291137695313
4.994999999999891,7.881301879882813,-0.5884246826171875,8.925213623046876
5.004999999999882,8.103662109375001,-1.3208526611328126,10.534222412109376
5.014999999999873,6.659292602539063,-0.429766845703125,6.378762817382813
5.024999999999871,12.223233032226563,0.191107177734375,1.5936065673828126
5.034999999999855,8.417538452148438,-1.1013336181640625,-0.2594451904296875
5.044999999999845,6.832156372070313,-0.0198883056640625,1.3902374267578126
5.054999999999836,5.625698852539063,0.454290771484375,10.935577392578123
5.064999999999827,3.9951568603515626,0.8632720947265625,10.215859985351564
5.074999999999818,8.380603027343751,0.8139251708984375,10.665515136718753
5.084999999999809,8.431445312500001,-0.5031890869140625,7.667016601562499
5.0949999999998,7.687203979492188,0.608612060546875,5.0281524658203125
5.1059999999999945,8.379855346679689,0.0945068359375,6.122607421875
5.1159999999999854,7.408020019531251,-0.174359130859375,6.512747192382813
5.125999999999976,6.546691894531251,-0.2021728515625,4.205105590820313
5.135999999999967,6.753201293945313,-0.09271240234375,4.312322998046875
5.145999999999958,8.953924560546875,-0.7731018066406251,4.785006713867188
5.155999999999949,9.783251953125,-1.2206634521484376,4.445709228515625
5.16599999999994,7.483834838867188,-0.7923919677734376,4.0980377197265625
5.175999999999924,2.843280029296875,0.1015350341796875,3.062799072265625
5.185999999999922,6.638058471679688,-0.4888336181640625,7.169210815429688
5.195999999999913,14.857910156250002,-0.988134765625,11.895748901367188
5.205999999999911,11.842514038085938,0.8230468750000001,6.601870727539063
5.215999999999895,6.345565795898438,0.5893218994140625,2.6678741455078128
5.225999999999885,7.729074096679688,-0.6231170654296876,9.40283203125
5.236999999999853,2.451495361328125,-0.59515380859375,20.45833740234375
5.246999999999844,0.18004150390625,0.341839599609375,2.5039825439453125
5.2569999999998345,9.063534545898438,1.2022705078125,2.8204010009765628
5.266999999999825,17.245254516601562,1.603924560546875,1.481903076171875
5.276999999999816,9.681268310546876,0.468048095703125,-1.4207427978515623
5.286999999999807,7.640548706054688,0.0791046142578125,1.529605102539063
5.296999999999798,5.5986328125,-0.5329467773437501,9.783999633789064
5.306999999999789,6.21292724609375,-1.2045135498046875,16.39200134277344
5.31699999999978,7.260427856445313,-1.03299560546875,6.207095336914063
5.326999999999998,8.879006958007814,0.484796142578125,2.3424835205078125
5.336999999999989,9.6576416015625,-0.3361572265625,-0.072674560546875
5.34699999999998,7.663577270507813,-0.4945159912109375,-0.2980255126953125
5.356999999999971,6.84935302734375,-0.3805694580078125,0.8100372314453126
5.366999999999962,7.203305053710938,-0.4693939208984375,13.859457397460938
5.376999999999953,5.481546020507813,-1.44332275390625,12.585260009765626
5.38799999999992,10.20838317871094,-1.4476593017578123,10.927352905273438
5.397999999999904,7.233511352539063,0.962713623046875,5.315560913085938
5.407999999999909,6.357528686523438,1.7999664306640626,3.5603057861328127
5.4179999999999,7.372131347656251,0.43604736328125,7.025357055664063
5.427999999999884,6.406576538085938,-0.206658935546875,6.402539062500001
5.4379999999998745,5.9971466064453125,1.0071258544921875,3.711785888671875
5.447999999999865,9.639248657226563,0.8110839843750001,3.994259643554688
5.457999999999856,12.534716796875,-1.1273529052734377,1.5805969238281252
5.467999999999847,8.576046752929688,-0.0539825439453125,7.156649780273438
5.477999999999838,4.914056396484376,-0.395074462890625,9.1958740234375
5.487999999999829,3.5591094970703128,-0.8560943603515626,6.213076782226563
5.49799999999982,3.008367919921876,-0.669622802734375,3.8610229492187504
5.507999999999811,9.942059326171876,-1.842135620117188,6.484933471679688
5.518999999999778,14.74949645996094,-0.990826416015625,6.341827392578126
5.528999999999996,12.041397094726562,1.4920715332031251,2.4166534423828128
5.538999999999987,7.985977172851563,0.5314514160156251,9.288137817382813
5.548999999999978,6.184814453125001,0.4128692626953125,17.58649597167969
5.558999999999969,3.08702392578125,0.6759033203125,10.409060668945314
5.56899999999996,2.150778198242188,0.8048034667968751,2.0000457763671875
5.578999999999958,10.008602905273438,-0.276043701171875,3.71627197265625
5.588999999999949,13.506851196289064,-1.2089996337890625,0.1423583984375
5.598999999999933,7.413403320312501,0.359185791015625,1.2402526855468752
5.610999999999876,7.139901733398438,0.6966888427734376,6.31102294921875
5.6189999999999145,7.06468505859375,-0.04127197265625,9.098974609375
5.628999999999905,7.99599609375,-1.9415771484375,11.5932373046875
5.638999999999896,7.892517089843751,-0.5426666259765626,4.5327392578125005
5.648999999999887,11.519964599609375,0.3811676025390625,1.2712066650390623
5.658999999999878,8.498437500000001,-1.173709106445313,-0.186322021484375
5.668999999999869,6.651516723632813,-0.6832305908203126,1.3654144287109375
5.67899999999986,4.820596313476563,-0.1567138671875,12.528436279296876
5.689999999999827,4.554421997070313,0.1303955078125,9.505413818359376
5.699999999999818,8.558251953125001,0.4323089599609375,10.809518432617187
5.710999999999785,8.5020263671875,-0.30625,7.589407348632813
5.7199999999998,7.624249267578126,0.645697021484375,4.7854553222656255
5.729999999999798,8.70718994140625,0.8139251708984375,5.765515136718751
5.739999999999789,7.097134399414063,0.39896240234375,6.972720336914063
5.75,6.3092285156250005,0.3289794921875,4.432400512695313
5.759999999999984,7.048834228515625,0.5064788818359376,3.6560089111328127
5.769999999999989,9.321035766601565,-0.6838287353515625,4.449746704101563
5.77999999999998,10.525997924804688,-0.8338134765625,4.152767944335938
5.789999999999964,8.311068725585939,-0.419598388671875,5.8319091796875
5.7999999999999545,5.473171997070313,0.0312530517578125,6.568075561523438
5.810999999999922,2.0721221923828126,-0.05323486328125,6.1063079833984375
5.820999999999913,4.559506225585938,-0.419000244140625,6.246124267578126
5.830999999999911,15.056942749023438,-0.2540618896484375,9.133218383789064
5.840999999999895,16.0984619140625,0.172265625,3.5465484619140626
5.850999999999885,6.578094482421876,-0.8874969482421876,1.3111328125
5.860999999999876,6.7040039062500005,1.97806396484375,13.869625854492188
5.870999999999867,4.531842041015626,1.2238037109375002,17.505447387695312
5.880999999999858,0.20277099609375,-0.9691436767578124,4.94486083984375
5.890999999999849,5.853890991210938,0.06280517578125,0.8762817382812501
5.90099999999984,17.246151733398438,-0.0629547119140625,2.0772064208984378
5.910999999999824,9.31011962890625,3.1236602783203127,0.9679473876953124
5.920999999999829,4.6607421875,-0.19619140625,10.805032348632814
5.93099999999982,5.981893920898438,-1.2009246826171875,2.5009918212890625
5.940999999999804,8.988766479492188,-1.62216796875,13.00769958496094
5.9509999999997945,9.53980712890625,-1.4721832275390625,5.586370849609375
5.960999999999785,8.704348754882814,-0.1664337158203125,0.0729736328125
5.97199999999998,8.763864135742189,-0.22071533203125,0.372344970703125
5.981999999999971,6.824081420898438,-0.835308837890625,5.631381225585938
5.991999999999962,4.843475341796875,-1.0116119384765625,10.463342285156251
6.001999999999953,4.13916015625,-0.5227783203125,7.391571044921876
6.011999999999951,7.850497436523438,-0.1140960693359375,10.665664672851562
6.021999999999935,9.340625,0.1351806640625,10.178176879882812
6.031999999999925,8.148822021484376,1.1432037353515625,5.235858154296875
6.041999999999916,7.475460815429688,1.6679260253906252,3.0409667968750003
6.051999999999907,7.297213745117188,1.299319458007813,6.812417602539063
6.061999999999898,6.26077880859375,-0.2732025146484375,6.960159301757813
6.071999999999889,7.319644165039063,0.485693359375,3.0325927734375
6.08199999999988,8.926708984375,0.9126190185546876,3.290243530273438
6.091999999999878,9.339129638671876,-0.6718658447265625,6.760379028320313
6.102999999999838,7.538864135742188,-0.7053619384765626,6.786846923828126
6.112999999999829,3.3044494628906254,-1.0140045166015623,5.106060791015626
6.12299999999982,2.985638427734376,-1.8129760742187504,4.9997406005859375
6.132999999999811,11.806625366210938,-0.781475830078125,8.68804931640625
6.142999999999802,14.362796020507814,-0.3282318115234375,8.734555053710938
6.152999999999793,9.890020751953124,1.50313720703125,2.7792785644531253
6.162999999999791,3.739450073242188,0.916357421875,10.4412109375
6.1729999999997744,3.0218261718750004,-0.2277435302734375,17.627020263671877
6.182999999999993,6.483587646484375,2.617330932617188,6.983337402343751
6.192999999999991,7.374075317382813,-0.1203765869140625,-0.870001220703125
6.202999999999975,10.207485961914063,-1.134829711914063,0.5985931396484375
6.212999999999965,11.14163818359375,-0.7046142578125001,2.672808837890625
6.222999999999956,7.025057983398438,1.4013031005859375,12.804928588867188
6.232999999999947,5.184866333007813,1.0232757568359376,4.282864379882813
6.242999999999938,8.22987060546875,-0.3241943359375,7.059750366210938
6.253999999999905,8.993252563476563,-1.6486358642578127,11.821429443359376
6.263999999999896,9.153106689453123,-0.149835205078125,0.36307373046875
6.273999999999887,8.48408203125,-0.6211730957031251,0.0381317138671875
6.285999999999824,7.330410766601563,-1.1067169189453123,1.8608276367187504
6.293999999999869,4.825381469726563,-1.1793914794921876,11.224331665039063
6.30399999999986,4.379464721679688,0.2160797119140625,6.778323364257813
6.313999999999844,7.030889892578125,1.6561126708984375,10.539157104492189
6.323999999999842,9.931292724609376,0.7405029296875001,10.950830078125
6.333999999999833,8.245571899414063,-0.497955322265625,7.207791137695313
6.343999999999831,7.130780029296876,0.7916442871093751,4.201367187500001
6.353999999999815,6.871932983398438,1.6703186035156252,6.752603149414063
6.363999999999805,6.552374267578125,0.5319000244140626,6.8559326171875
6.373999999999796,6.942214965820313,0.08194580078125,2.760885620117188
6.384999999999984,8.645132446289063,0.3028106689453125,2.5763580322265627
6.394999999999989,9.309820556640624,-0.68009033203125,5.820993041992188
6.403999999999996,8.779565429687501,-0.7843170166015626,7.260128784179688
6.414999999999964,5.977557373046875,-0.2047149658203125,6.919635009765625
6.4249999999999545,0.8142242431640626,0.0964508056640625,4.657601928710938
6.434999999999945,5.873181152343751,-1.12032470703125,5.566781616210938
6.444999999999936,17.046072387695315,-1.5059783935546875,10.06617431640625
6.454999999999927,14.7825439453125,0.9861907958984376,6.516934204101563
6.464999999999918,4.978207397460938,0.22669677734375,1.5886718750000002
6.474999999999909,0.2842681884765625,-1.344329833984375,11.866439819335938
6.4849999999999,3.2552520751953127,-0.84278564453125,20.32001647949219
6.494999999999891,6.872082519531251,0.969891357421875,3.540716552734376
6.504999999999882,9.469973754882814,0.313726806640625,-0.807196044921875
6.514999999999873,14.241372680664064,0.5239746093750001,0.135479736328125
6.524999999999871,10.21331787109375,1.8279296875,3.7518615722656254
6.535999999999824,4.302304077148438,2.5349365234375,14.99772644042969
6.545999999999829,4.5040283203125,0.07476806640625,0.3431854248046875
6.55599999999982,9.151910400390626,-1.9351470947265623,11.567816162109375
6.565999999999804,9.48477783203125,-0.6093597412109375,10.536614990234376
6.5759999999997945,8.404977416992189,0.2881561279296875,-1.6001861572265623
6.585999999999785,8.070166015625,-0.036187744140625,-0.12620849609375
6.595999999999776,7.407720947265625,0.35888671875,2.321249389648438
6.6059999999999945,4.8487091064453125,-1.166680908203125,7.031936645507813
6.6159999999999854,5.476611328125,-0.747381591796875,11.561685180664064
6.627999999999929,8.452380371093751,0.085833740234375,7.079190063476563
6.635999999999967,9.696221923828126,-0.6506317138671875,14.593679809570313
6.645999999999958,7.713073730468751,-0.0976470947265625,5.921331787109375
6.655999999999949,6.043353271484375,1.3627227783203126,2.295977783203125
6.66599999999994,5.9347900390625,1.4760711669921875,6.915597534179688
6.675999999999924,6.423175048828125,-0.2630340576171875,7.927957153320313
6.686999999999898,7.46544189453125,0.1454986572265625,2.5940032958984376
6.696999999999889,9.859066772460938,0.7789337158203126,1.4784637451171876
6.70699999999988,10.0452392578125,0.7734008789062501,7.0045715332031255
6.716999999999878,8.497390747070312,-0.6637908935546876,8.980093383789063
6.727999999999838,6.0689239501953125,-0.2259490966796875,7.272988891601563
6.736999999999853,3.598287963867188,-0.6476409912109375,6.251956176757813
6.746999999999844,2.3255859375,-1.863668823242188,4.501336669921876
6.7569999999998345,8.429351806640625,-0.9117218017578126,3.6572052001953126
6.766999999999825,15.216796875000002,0.668426513671875,6.292929077148438
6.776999999999816,12.289178466796876,1.3097869873046877,6.033782958984375
6.786999999999807,6.588412475585938,1.044659423828125,8.695675659179688
6.796999999999798,2.81307373046875,-0.134881591796875,17.73304138183594
6.806999999999789,4.845120239257813,1.7760406494140626,12.76978759765625
6.81699999999978,8.326620483398438,0.5579193115234375,0.93370361328125
6.827999999999975,7.68077392578125,-1.5191375732421877,-0.19918212890625
6.837999999999965,9.722540283203124,-1.5131561279296877,1.1823822021484376
6.847999999999956,7.287344360351563,1.849462890625,2.995806884765625
6.857999999999947,6.63701171875,1.2716552734375002,11.268594360351564
6.867999999999938,7.008908081054688,-0.2196685791015625,7.25609130859375
6.877999999999929,9.312362670898438,-1.54859619140625,11.351437377929688
6.88799999999992,9.95850830078125,-1.0759124755859375,2.9232818603515627
6.897999999999904,9.468927001953126,0.1801910400390625,0.416607666015625
6.907999999999909,7.540060424804688,-0.185723876953125,1.012060546875
6.9179999999999,5.623605346679688,-0.648687744140625,9.421224975585938
6.927999999999884,2.96380615234375,-0.649884033203125,8.761621093750001
6.9379999999998745,6.139355468750001,1.2386077880859376,6.873577880859376
6.947999999999865,8.732162475585938,1.1186798095703123,10.362554931640624
6.957999999999856,8.613729858398438,-0.526068115234375,9.653155517578126
6.967999999999847,7.963995361328125,0.26138916015625,5.683419799804688
6.978999999999815,7.56533203125,0.9497039794921877,5.619268798828125
6.988999999999805,7.293774414062501,0.6806884765625001,6.850399780273438
6.998999999999796,6.434390258789063,0.5139556884765626,5.016488647460938
7.008999999999787,7.4187866210937505,0.1900604248046875,2.801409912109375
7.018999999999778,8.571859741210938,-0.346026611328125,3.6261016845703127
7.028999999999996,9.041851806640626,-0.68487548828125,5.969631958007813
7.038999999999987,8.064932250976563,-0.477618408203125,7.0616943359375
7.048999999999978,3.865209960937501,-0.24344482421875,6.294573974609375
7.058999999999969,1.3549468994140623,-0.4855438232421875,4.1937408447265625
7.06899999999996,11.905020141601565,-1.4472106933593751,9.2544921875
7.079999999999927,16.200146484375,0.1758544921875,8.802444458007812
7.088999999999949,10.239935302734375,0.2591461181640625,2.4488037109375003
7.098999999999933,1.9025482177734376,-1.244140625,6.941168212890625
7.108999999999924,3.111099243164063,-1.0189392089843752,16.750289916992188
7.1189999999999145,5.144192504882813,0.8107849121093751,12.489706420898438
7.129999999999882,7.877563476562501,2.9519927978515628,0.3464752197265625
7.139999999999873,10.37466735839844,5.654708862304688,1.0753143310546875
7.149999999999871,13.333688354492187,-2.6526214599609377,1.194793701171875
7.159999999999855,7.386486816406251,-0.3288299560546875,11.114572143554687
7.169999999999845,3.213082885742188,0.5244232177734376,2.565292358398437
7.179999999999836,5.57470703125,-0.4115234375,11.909356689453126
7.189999999999827,10.644580078125,-1.4676971435546875,9.566574096679688
7.199999999999818,10.259524536132814,0.083740234375,1.831219482421875
7.209999999999809,8.253347778320313,-0.059515380859375,-0.394775390625
7.2199999999998,7.295718383789063,-0.8777770996093751,1.134979248046875
7.229999999999798,5.391525268554688,-1.3903869628906251,3.217868041992188
7.239999999999789,5.874526977539063,-0.5462554931640625,14.358459472656252
7.25,5.4508911132812505,-0.203369140625,5.771047973632813
7.259999999999984,9.528143310546875,-0.5498443603515626,15.024942016601564
7.270999999999958,9.178677368164063,0.063104248046875,8.726181030273438
7.280999999999949,6.800454711914063,0.5474517822265625,2.34532470703125
7.29099999999994,5.948397827148438,2.602227783203125,5.85643310546875
7.300999999999924,6.785052490234375,1.2387573242187502,7.796813964843751
7.310999999999922,7.014739990234376,0.0378326416015625,4.247872924804688
7.320999999999913,8.945550537109376,0.9722839355468752,1.1924011230468752
7.330999999999911,9.680670166015624,0.3066986083984375,5.2828125
7.3409999999998945,8.838034057617188,-0.407635498046875,8.407818603515626
7.350999999999885,7.069619750976563,-0.677398681640625,7.657296752929688
7.360999999999876,5.24871826171875,-0.8474212646484376,6.696826171875
7.370999999999867,3.0967437744140627,-2.0592620849609378,5.4658447265625005
7.380999999999858,4.269107055664063,-1.836602783203125,3.578997802734375
7.390999999999849,13.13749694824219,0.1126007080078125,5.458218383789063
7.40099999999984,13.335931396484376,0.5414703369140625,7.544845581054688
7.411999999999807,9.356027221679687,1.6037750244140627,5.002133178710938
7.421999999999798,3.721655273437501,0.7376617431640625,12.991998291015626
7.431999999999789,4.410568237304688,0.3781768798828125,16.55843505859375
7.44199999999978,6.425567626953126,2.250070190429688,7.5043212890625
7.451999999999998,7.946200561523438,0.307147216796875,-0.7421478271484375
7.461999999999989,10.072903442382811,-1.2094482421875,0.2296875
7.47199999999998,9.156546020507813,0.303558349609375,3.1486328125000003
7.481999999999971,6.237899780273438,1.3489654541015623,12.16865234375
7.491999999999962,5.646633911132813,0.1801910400390625,2.533740234375
7.501999999999953,8.137457275390625,-1.5391754150390626,10.68585205078125
7.511999999999951,9.981536865234377,-1.6912536621093752,8.335592651367188
7.5219999999999345,10.086660766601565,-0.184228515625,0.7098480224609376
7.531999999999925,8.878259277343751,-0.5040863037109375,0.2211639404296875
7.541999999999916,6.417941284179688,-0.7393066406250001,2.8129241943359378
7.552999999999884,4.529299926757813,-0.385504150390625,11.395700073242187
7.562999999999874,3.314169311523438,0.0752166748046875,7.979248046875001
7.572999999999865,8.358023071289063,1.9973541259765624,8.067773437500001
7.582999999999856,9.406121826171876,0.5706298828125,10.899688720703123
7.592999999999847,8.204299926757812,-0.0669921875,7.003973388671875
7.602999999999838,6.814511108398438,1.0165466308593751,4.878765869140626
7.612999999999829,7.0060668945312505,1.2942352294921875,7.539163208007813
7.62299999999982,6.732864379882813,0.560162353515625,7.00247802734375
7.632999999999811,7.295718383789063,-0.238958740234375,2.776287841796876
7.642999999999802,8.747415161132814,0.0638519287109375,2.1856201171875003
7.652999999999793,9.2772216796875,-1.0017425537109377,5.4646484375
7.662999999999791,8.466586303710939,-0.9837982177734376,7.285848999023438
7.6729999999997744,7.124050903320313,-0.317913818359375,7.536770629882813
7.682999999999993,5.411114501953126,-0.8266357421875,7.818197631835938
7.692999999999991,1.4914733886718752,-0.147442626953125,4.92332763671875
7.703999999999958,4.860971069335938,-0.2328277587890625,3.934295654296875
7.713999999999949,15.678863525390629,-0.2380615234375,7.605856323242188
7.723999999999933,14.9524169921875,1.1092590332031251,5.738449096679688
7.733999999999924,7.4265625,-0.3772796630859375,3.45189208984375
7.743999999999914,2.723052978515625,-1.5951019287109376,13.096673583984376
7.753999999999905,4.456027221679688,-0.1368255615234375,18.076077270507813
7.763999999999896,6.4850830078125,1.99361572265625,6.023464965820313
7.773999999999887,6.962252807617188,6.561495971679688,0.3709991455078125
7.783999999999878,11.120404052734376,-2.0037841796875,-0.079852294921875
7.793999999999869,9.500778198242188,-1.3793212890625002,4.031643676757813
7.80399999999986,6.102569580078125,0.357989501953125,10.673440551757814
7.813999999999844,5.48797607421875,-0.57840576171875,1.1058197021484375
7.823999999999842,9.449188232421877,-1.691552734375,10.709329223632814
7.834999999999809,8.960205078125,-0.4000091552734375,10.004714965820312
7.8449999999998,9.821084594726564,0.4517486572265625,-0.43006591796875
7.854999999999798,8.165420532226562,0.1419097900390625,0.4275238037109375
7.864999999999789,7.67479248046875,-0.6745574951171875,2.630490112304688
7.875,5.227185058593751,-0.99830322265625,11.527890014648438
7.884999999999984,2.9872833251953126,-0.2998199462890625,8.158242797851564
7.894999999999989,6.926962280273438,0.6503326416015626,11.183209228515626
7.90499999999998,9.32791442871094,-0.2250518798828125,10.405621337890626
7.914999999999964,8.896652221679688,0.9419281005859376,5.815310668945313
7.924999999999954,7.634866333007813,1.6051208496093752,3.757095336914063
7.934999999999945,7.130331420898438,0.752166748046875,6.571066284179688
7.944999999999936,6.392221069335938,-0.073272705078125,6.8176513671875005
7.954999999999927,6.945803833007813,-0.0521881103515625,3.4975006103515627
7.964999999999918,8.863156127929688,0.4366455078125,2.6738555908203128
7.974999999999909,9.661978149414065,-0.290997314453125,5.59923095703125
7.9849999999999,8.060147094726563,-0.731231689453125,7.188949584960938
7.995999999999867,4.473223876953125,-0.497955322265625,5.817105102539063
8.005999999999858,1.738955688476563,-1.0146026611328125,4.328024291992188
8.015999999999849,9.204995727539064,-1.179690551757813,7.024160766601563
8.02599999999984,15.343154907226564,-0.153424072265625,9.8011962890625
8.035999999999824,12.114370727539065,2.023223876953125,5.038769531250001
8.045999999999829,5.106060791015626,1.1575592041015623,7.374523925781251
8.05599999999982,2.157955932617188,-0.5908172607421875,16.918817138671876
8.065999999999804,4.597787475585938,1.164288330078125,11.940609741210938
8.075999999999794,7.622006225585938,0.858038330078125,0.32718505859375
8.085999999999785,8.638702392578125,-0.9446197509765626,-0.4948150634765625
8.095999999999776,12.248504638671877,-1.6842254638671876,1.3941253662109376
8.105999999999995,8.020370483398438,1.0926605224609376,4.068280029296876
8.115999999999985,5.619268798828125,0.3413909912109375,12.559539794921877
8.126999999999953,7.0832275390625,-0.2600433349609375,3.5752593994140627
8.13699999999995,9.050524902343753,-1.6508789062500002,13.532122802734376
8.146999999999935,9.599771118164064,-0.2887542724609375,3.1145385742187504
8.156999999999925,8.542849731445314,0.074468994140625,-0.18841552734375
8.166999999999916,7.321139526367188,0.1033294677734375,0.8178131103515626
8.176999999999907,5.570220947265625,-0.320904541015625,4.561151123046876
8.186999999999898,3.8907806396484377,-0.119329833984375,10.890567016601564
8.196999999999889,5.969482421875,1.293487548828125,9.12574157714844
8.20699999999988,9.330905151367189,1.612896728515625,11.138348388671876
8.216999999999878,9.478347778320312,-0.6256591796875001,9.056057739257811
8.228999999999814,7.216763305664063,0.1191802978515625,5.002880859375001
8.236999999999853,7.138854980468751,0.7980743408203126,5.201315307617188
8.24799999999982,6.754995727539063,0.47193603515625,7.042254638671875
8.256999999999834,6.287545776367188,-0.36307373046875,4.525411987304688
8.266999999999825,7.698419189453125,-0.070880126953125,1.881613159179688
8.276999999999816,9.04798278808594,-0.243145751953125,4.36944580078125
8.28799999999979,9.346456909179688,-0.8205047607421876,6.964794921875001
8.297999999999774,8.3931640625,-0.59156494140625,7.614080810546875
8.307999999999993,6.196926879882813,-0.146246337890625,7.845114135742188
8.31799999999999,1.8561920166015624,0.465057373046875,5.810226440429688
8.328999999999958,0.743194580078125,0.5970977783203125,2.267864990234376
8.337999999999965,16.016964721679688,-1.0543792724609375,8.262020874023438
8.347999999999956,18.01656188964844,0.4445709228515625,8.327218627929689
8.357999999999947,10.001275634765626,1.0917633056640623,1.82314453125
8.367999999999938,0.0765625,-1.2970764160156252,8.092745971679689
8.377999999999929,2.496206665039063,-1.3776763916015626,23.162847900390627
8.38799999999992,3.4986968994140626,0.678594970703125,10.50027770996094
8.397999999999904,8.288638305664064,0.7442413330078126,-0.1966400146484375
8.407999999999909,12.072052001953123,-0.3126800537109375,-0.6002380371093751
8.418999999999869,13.310510253906251,0.5130584716796875,0.8541503906250001
8.42899999999986,5.672354125976563,1.4199951171875,2.6989776611328127
8.438999999999844,4.473672485351563,4.039120483398438,6.840679931640626
8.448999999999842,7.350299072265625,-1.939035034179688,11.118460083007813
8.458999999999833,10.007705688476562,-2.1114501953125,15.00625
8.46899999999983,10.680767822265626,-0.12381591796875,1.11434326171875
8.478999999999814,7.213473510742188,-0.249725341796875,-0.648388671875
8.488999999999805,7.480245971679688,0.2380615234375,0.654669189453125
8.498999999999796,4.992562866210938,0.1215728759765625,2.933001708984375
8.508999999999787,3.784011840820313,-1.1571105957031251,8.703601074218751
8.518999999999778,7.38768310546875,-0.064599609375,11.0166259765625
8.528999999999996,10.613027954101565,-0.0011962890625,12.26420593261719
8.538999999999987,8.916989135742188,-0.9224884033203126,10.796359252929689
8.549999999999955,6.424969482421876,0.83680419921875,2.8151672363281253
8.558999999999969,5.870339965820313,1.2671691894531252,4.293182373046875
8.569999999999936,6.539813232421875,0.0910675048828125,8.465838623046876
8.579999999999927,6.940420532226563,-0.8315704345703125,4.711434936523438
8.589999999999918,8.389126586914063,0.0946563720703125,1.0881744384765626
8.599999999999909,10.133914184570314,0.98035888671875,3.780123901367188
8.6099999999999,8.952728271484375,0.3997100830078125,9.496890258789064
8.61999999999989,7.552322387695313,-0.4436737060546875,7.859469604492188
8.629999999999882,4.616030883789063,0.19140625,6.381604003906251
8.639999999999873,1.9261749267578123,-1.1135955810546876,5.132080078125
8.64999999999987,5.2086425781250005,-0.9846954345703126,4.05601806640625
8.659999999999854,14.205633544921875,0.2788848876953125,6.328518676757813
8.669999999999845,13.820428466796876,1.4416778564453123,6.425717163085938
8.679999999999836,9.438421630859375,1.838546752929688,5.5021820068359375
8.689999999999827,3.6062133789062494,-0.8122802734375001,14.77820739746094
8.699999999999818,3.81676025390625,-0.5027404785156251,15.560430908203124
8.709999999999809,5.900247192382813,1.5272125244140626,5.987127685546875
8.7199999999998,6.883746337890625,-0.1305450439453125,-0.7322784423828126
8.730999999999995,10.46558532714844,-1.7232543945312502,0.493768310546875
8.740999999999985,9.448440551757812,-1.2895996093750002,2.5999847412109376
8.750999999999976,6.0101562500000005,0.616986083984375,10.783648681640626
8.760999999999967,6.9037841796875,1.0744171142578125,3.735562133789063
8.770999999999958,7.995846557617188,-0.7155303955078125,12.711169433593753
8.780999999999949,9.594537353515626,-0.6691741943359375,7.715466308593751
8.79099999999994,10.08292236328125,0.8447296142578126,0.4969085693359375
8.800999999999924,8.707339477539064,-0.2355194091796875,0.0901702880859375
8.810999999999922,6.359921264648438,-0.07596435546875,2.2083496093750004
8.820999999999913,4.266415405273438,0.0240753173828125,11.515927124023438
8.83199999999988,3.34542236328125,0.122320556640625,8.758480834960938
8.840999999999894,8.519223022460938,1.9524932861328128,8.915792846679688
8.851999999999869,9.59827575683594,-0.6596038818359375,10.479193115234375
8.861999999999853,8.516082763671875,-0.91934814453125,6.7593322753906255
8.871999999999844,7.406076049804688,0.6163879394531251,4.731024169921875
8.881999999999834,6.9970947265625005,0.6171356201171876,7.055264282226563
8.891999999999825,6.249862670898438,-0.1323394775390625,6.536972045898438
8.901999999999816,7.192388916015625,-0.133685302734375,2.724847412109375
8.911999999999807,8.618365478515626,-0.0195892333984375,2.2573974609375003
8.921999999999798,9.183761596679688,-0.459075927734375,5.531341552734375
8.931999999999789,8.507858276367188,-0.1457977294921875,7.4157958984375005
8.94199999999978,6.837838745117188,0.084039306640625,7.8389831542968755
8.951999999999998,2.382110595703125,0.5314514160156251,5.998342895507813
8.961999999999989,1.921688842773437,0.270062255859375,4.255499267578125
8.97199999999998,14.151052856445313,-1.3863494873046875,8.548980712890625
8.981999999999971,16.792608642578127,1.0872772216796875,6.922027587890626
8.991999999999962,9.058450317382814,0.316717529296875,2.110104370117188
9.002999999999929,1.8324157714843752,-1.3974151611328125,8.983831787109375
9.01299999999992,3.341085815429688,-1.456781005859375,19.58654174804688
9.022999999999904,4.7903900146484375,0.6747070312500001,9.510498046875
9.032999999999909,8.299554443359376,0.5489471435546875,-0.8324676513671876
9.0429999999999,11.773577880859376,0.074468994140625,-0.372943115234375
9.052999999999884,11.957806396484376,0.9006561279296875,2.748922729492188
9.062999999999874,5.491116333007813,0.8139251708984375,12.93009033203125
9.072999999999864,3.7558990478515626,0.2717071533203125,1.988082885742188
9.082999999999856,7.958761596679688,-0.4373931884765625,10.425958251953126
9.092999999999847,9.958807373046875,-0.295782470703125,10.694973754882811
9.102999999999838,9.65823974609375,0.6494354248046875,0.6778472900390625
9.112999999999827,8.416043090820313,0.500347900390625,-0.320306396484375
9.12299999999982,7.922274780273438,0.052935791015625,1.6097564697265627
9.133999999999787,5.275784301757813,-1.2445892333984376,4.237255859375001
9.143999999999778,4.523019409179688,-0.6302947998046875,13.413092041015624
9.153999999999996,6.157598876953125,0.473431396484375,5.944958496093751
9.163999999999987,8.849398803710939,-0.460272216796875,15.978982543945314
9.173999999999978,9.946844482421875,-0.5588165283203126,6.39835205078125
9.183999999999967,6.824829101562501,1.2837677001953125,2.581442260742188
9.19399999999996,6.447250366210938,0.7747467041015625,5.805889892578126
9.203999999999958,6.300106811523438,-0.050543212890625,8.502474975585939
9.213999999999947,6.804940795898438,-0.0324493408203125,4.255050659179688
9.223999999999933,8.920129394531251,0.6015838623046875,1.1137451171875
9.233999999999924,10.199560546875,0.5598632812500001,5.095294189453125
9.243999999999916,8.984130859375,-0.469842529296875,8.233309936523439
9.253999999999904,7.006814575195313,0.1655364990234375,7.507611083984376
9.263999999999896,5.474069213867188,-0.017047119140625,7.533032226562501
9.27499999999987,3.246578979492188,-1.071875,6.627441406250001
9.284999999999854,3.2404479980468754,-1.0132568359375,3.236709594726563
9.294999999999844,10.77557373046875,-0.222808837890625,4.69005126953125
9.304999999999836,15.740621948242188,0.7065582275390625,6.737350463867188
9.314999999999827,10.847650146484376,2.0398223876953128,5.052377319335938
9.324999999999818,4.781118774414063,0.581695556640625,10.005462646484377
9.334999999999807,3.506024169921876,-0.481207275390625,16.860498046875
9.345999999999776,5.768505859375001,1.5463531494140623,11.593087768554687
9.354999999999798,7.840179443359376,0.08792724609375,-0.33974609375
9.364999999999789,8.85074462890625,-1.332366943359375,-0.100189208984375
9.375,9.855776977539064,-2.09410400390625,2.00079345703125
9.384999999999984,6.078045654296876,-0.0755157470703125,10.131820678710938
9.394999999999987,6.217263793945313,0.8297760009765626,5.816806030273438
9.40499999999998,8.580682373046876,-0.5988922119140625,3.8502563476562495
9.414999999999964,9.716259765625,-1.3325164794921875,13.051065063476564
9.424999999999956,9.942507934570314,0.7864105224609376,1.7948822021484376
9.436999999999898,8.698965454101563,0.1410125732421875,0.0106170654296875
9.446999999999887,7.230819702148438,-0.0390289306640625,1.968792724609375
9.45599999999991,5.731271362304688,0.3398956298828125,9.836785888671876
9.465999999999894,3.103173828125,-0.087628173828125,8.962896728515625
9.475999999999884,6.537271118164063,1.9554840087890624,8.043548583984375
9.485999999999876,9.453076171875,1.0789031982421875,10.868136596679689
9.495999999999867,8.023959350585939,-1.1266052246093752,8.788238525390625
9.505999999999858,7.775131225585938,0.08912353515625,4.0291015625
9.515999999999847,7.1406494140625005,0.2923431396484375,6.32059326171875
9.52599999999984,6.990365600585938,-0.046356201171875,7.673297119140625
9.535999999999824,6.659591674804688,-0.291595458984375,3.9226318359375
9.546999999999798,8.225234985351562,-0.29249267578125,1.63712158203125
9.55599999999982,9.386532592773438,-0.5235260009765625,4.5402160644531255
9.56699999999978,9.035421752929688,-0.7947845458984376,7.121807861328126
9.576999999999998,7.246969604492188,0.0435150146484375,6.756192016601563
9.586999999999987,2.5056274414062503,0.6144439697265626,5.7218505859375
9.59699999999998,0.50662841796875,-0.03050537109375,4.775585937500001
9.606999999999973,14.12024841308594,-0.867010498046875,9.251052856445312
9.616999999999962,18.292605590820315,1.0015930175781251,7.35
9.626999999999953,9.521115112304688,0.482403564453125,1.7820220947265626
9.63699999999995,1.185223388671875,-0.98634033203125,9.1647705078125
9.646999999999936,1.9291656494140623,-1.030303955078125,21.364974975585938
9.656999999999924,4.404586791992188,0.5703308105468751,9.641940307617189
9.666999999999916,8.730966186523439,0.5603118896484376,-0.75186767578125
9.676999999999907,12.266748046875,3.11214599609375,-0.250323486328125
9.686999999999898,12.3923583984375,-0.351409912109375,1.5512878417968752
9.696999999999887,5.9338928222656255,-0.566741943359375,7.254895019531251
9.70699999999988,3.3034027099609378,0.09091796875,7.225436401367188
9.716999999999878,9.090151977539064,-0.362774658203125,4.286154174804688
9.727999999999838,9.21142578125,-1.4844451904296876,15.821371459960938
9.737999999999827,9.586761474609377,0.0456085205078125,1.1065673828125
9.74799999999982,8.057305908203126,0.7859619140625,-0.5411712646484376
9.75799999999981,7.663876342773438,0.509619140625,1.5502410888671876
9.767999999999802,5.039517211914063,-0.7864105224609376,3.401199340820313
9.777999999999793,4.984637451171875,-0.98035888671875,14.29251403808594
9.78799999999979,6.20933837890625,0.51739501953125,6.429754638671875
9.797999999999774,8.935232543945313,0.49107666015625,15.498971557617187
9.807999999999993,9.796859741210938,-0.1996307373046875,7.025506591796876
9.81799999999999,6.890176391601563,1.12630615234375,2.7477264404296875
9.827999999999976,6.631329345703126,1.126904296875,4.9107666015625
9.837999999999964,6.691143798828126,-0.53055419921875,7.9586120605468755
9.848999999999933,6.536373901367188,-0.374139404296875,4.455578613281251
9.857999999999947,8.892166137695312,0.447711181640625,1.5547271728515626
9.868999999999916,9.580181884765626,0.229388427734375,5.103817749023438
9.878999999999904,9.233108520507812,-0.56763916015625,8.106652832031251
9.888999999999896,7.334597778320313,-0.29847412109375,7.840328979492188
9.898999999999887,5.708840942382813,-0.3840087890625,7.796664428710938
9.908999999999878,3.11513671875,-1.106866455078125,6.392819213867188
9.918999999999867,2.7436889648437504,-1.2646270751953126,3.405535888671875
9.92899999999986,10.126885986328126,-0.028411865234375,4.418942260742188
9.938999999999844,15.35078125,1.236962890625,6.464895629882813
9.948999999999842,12.015377807617188,1.8204528808593752,4.494757080078125
9.958999999999833,6.205450439453125,0.8391967773437501,10.98731689453125
9.96899999999983,3.813919067382813,-0.039178466796875,17.08285827636719
9.978999999999814,4.775585937500001,1.5586151123046876,11.686846923828126
9.988999999999804,6.461306762695313,0.21234130859375,0.340643310546875
9.998999999999796,8.529989624023438,-1.112847900390625,-0.1926025390625
10.009999999999984,9.91663818359375,-1.4602203369140625,1.2110931396484377
10.019999999999987,7.171603393554688,0.8985626220703126,6.100924682617188
10.02999999999998,6.510205078125001,1.1452972412109377,6.6166748046875
10.039999999999964,7.5743041992187505,-0.086431884765625,8.578140258789062
10.049999999999956,9.6887451171875,-2.090963745117188,10.94903564453125
10.059999999999944,9.917236328125,-0.0740203857421875,3.056369018554688
10.069999999999936,9.769345092773438,-0.057122802734375,0.185723876953125
10.079999999999927,7.41759033203125,-0.2328277587890625,1.6812347412109376
10.089999999999918,4.312322998046875,-0.6054718017578126,10.62603759765625
10.099999999999907,2.4627105712890627,-0.1804901123046875,7.228427124023438
10.1099999999999,6.799557495117188,1.4122192382812502,7.346859741210938
10.11999999999989,8.980392456054688,0.4493560791015625,10.537213134765626
10.129999999999882,9.02301025390625,-0.239556884765625,8.775079345703126
10.139999999999873,7.885488891601563,0.254510498046875,5.4408721923828125
10.15099999999984,7.8033935546875,0.8843566894531251,6.466989135742188
10.160999999999824,6.936532592773438,0.8205047607421876,7.258932495117188
10.170999999999829,6.557757568359375,0.1852752685546875,4.4195404052734375
10.18099999999982,7.357626342773438,0.11663818359375,2.2204620361328127
10.190999999999804,8.589654541015626,-0.366363525390625,3.863864135742188
10.200999999999794,8.453427124023438,-0.6652862548828126,6.061148071289063
10.210999999999784,4.904486083984375,-0.1105072021484375,5.4150024414062505
10.220999999999776,1.21064453125,-0.4897308349609375,3.954931640625
10.230999999999996,12.480435180664063,-1.774844360351563,10.361956787109376
10.240999999999984,17.737527465820314,-0.09390869140625,12.020611572265626
10.250999999999976,10.673291015625,0.8780761718750001,3.1547637939453126
10.260999999999967,0.000299072265625,-0.9775177001953126,4.162637329101563
10.270999999999958,1.107913208007813,-0.89063720703125,18.02254333496094
10.280999999999947,3.748721313476562,0.7775878906250001,13.0251953125
10.29099999999994,8.645730590820314,1.5957000732421875,-0.1027313232421875
10.301999999999907,11.735446166992189,5.620166015625,0.7849151611328126
10.311999999999898,14.21669921875,-2.242892456054688,0.5731719970703125
10.321999999999887,7.881900024414063,-0.3973175048828125,3.2999633789062504
10.33199999999988,7.008758544921876,1.1853729248046876,10.481286621093751
10.341999999999878,3.697579956054688,-0.5431152343750001,5.97845458984375
10.351999999999869,8.583673095703126,-1.1608489990234376,17.799285888671875
10.361999999999853,10.310366821289064,-0.3342132568359375,0.6552673339843751
10.371999999999844,7.336242675781251,-0.3099884033203125,-1.3873962402343751
10.381999999999834,7.242483520507813,-0.3674102783203125,0.7029693603515625
10.391999999999824,6.114831542968751,-0.9510498046875,2.745333862304688
10.401999999999816,4.987478637695313,-0.93310546875,6.943859863281251
10.411999999999807,7.989566040039063,-0.3724945068359375,11.527590942382814
10.421999999999798,9.6026123046875,0.25899658203125,13.023251342773438
10.431999999999787,8.900689697265626,-0.461767578125,11.970816040039065
10.44299999999999,6.192889404296875,0.66513671875,2.649630737304688
10.452999999999976,4.705752563476563,1.8244903564453123,4.117178344726563
10.462999999999964,6.335397338867188,0.978863525390625,8.376266479492188
10.472999999999956,7.005767822265626,-0.040374755859375,4.862316894531251
10.482999999999947,9.065328979492188,0.3147735595703125,0.45399169921875
10.492999999999938,10.448538208007813,1.31173095703125,3.8728363037109377
10.502999999999927,9.402682495117189,-0.521282958984375,9.604855346679688
10.51299999999992,7.210931396484375,-0.7825225830078125,8.655300903320313
10.522999999999904,3.917098999023438,-0.6682769775390626,6.2524047851562505
10.532999999999909,1.947259521484375,-2.158255004882813,4.817904663085938
10.5429999999999,7.303344726562501,-2.2352661132812504,5.004525756835938
10.552999999999884,14.557192993164064,0.118133544921875,5.968435668945313
10.562999999999874,11.94793701171875,0.7745971679687501,4.656106567382813
10.572999999999864,6.705349731445313,1.093109130859375,6.368145751953126
10.583999999999833,3.3688995361328127,0.7666717529296876,17.188879394531252
10.59399999999983,5.316458129882813,2.61748046875,14.906210327148438
10.603999999999814,8.230319213867189,1.9255767822265624,2.6122467041015627
10.613999999999804,8.065679931640625,-1.105072021484375,-0.26976318359375
10.623999999999796,9.933834838867188,-0.257501220703125,0.8934783935546876
10.633999999999787,7.812515258789063,2.465850830078125,3.056967163085938
10.643999999999778,5.324832153320313,0.97557373046875,12.536062622070313
10.653999999999996,6.361117553710938,0.5130584716796875,3.463555908203125
10.663999999999987,9.204397583007813,-1.4436218261718752,11.713015747070314
10.673999999999978,10.18759765625,-2.632882690429688,4.146188354492188
10.683999999999967,9.754391479492188,-0.6059204101562501,0.7614379882812501
10.69399999999996,8.058801269531251,-1.451397705078125,1.0026397705078125
10.703999999999958,6.172552490234375,-1.6605987548828127,9.75977478027344
10.713999999999947,3.261981201171875,-1.607363891601563,8.291629028320314
10.723999999999933,5.445208740234375,0.1244140625,5.850750732421876
10.7349999999999,8.650964355468751,1.9559326171875,9.799850463867188
10.74499999999989,8.426959228515626,0.5136566162109375,9.863552856445311
10.754999999999882,7.469778442382813,0.5656951904296875,6.0595031738281255
10.764999999999873,7.314559936523438,2.1449462890625,5.7840576171875
10.77499999999987,7.711279296875,1.8388458251953128,7.498040771484375
10.784999999999854,6.776229858398438,1.1452972412109377,5.810525512695313
10.794999999999844,7.513742065429688,0.9893310546875,2.931207275390625
10.804999999999836,8.203103637695314,-0.2959320068359375,3.56673583984375
10.814999999999827,8.999234008789063,-1.1255584716796876,5.608651733398438
10.824999999999818,8.412005615234376,-0.9944152832031252,6.922177124023438
10.834999999999807,6.364257812500001,-1.1802886962890626,7.372579956054688
10.8449999999998,2.128347778320313,-1.2490753173828126,5.295523071289063
10.854999999999798,1.84168701171875,-0.6371734619140625,3.2562988281250003
10.865999999999984,15.459793090820314,-1.9526428222656247,10.247860717773438
10.875999999999976,17.387313842773438,-0.30445556640625,7.9107604980468755
10.885999999999967,8.746817016601563,0.0907684326171875,1.0684356689453125
10.895999999999958,0.24224853515625,-1.25550537109375,8.102316284179688
10.905999999999947,3.0820892333984378,-0.7022216796875,22.4411865234375
10.91599999999994,4.23486328125,1.26148681640625,10.468426513671876
10.925999999999924,8.86151123046875,0.9733306884765626,-0.729437255859375
10.935999999999922,12.37187194824219,4.899850463867188,-0.8065979003906251
10.947999999999864,12.718496704101565,1.7881530761718751,1.5521850585937502
10.95599999999991,6.114981079101563,2.2071533203125,2.7184173583984377
10.965999999999894,3.606811523437501,2.7761383056640625,9.706240844726564
10.975999999999884,7.379757690429688,-1.9619140625,9.63416442871094
10.985999999999876,9.202902221679688,-2.165133666992188,15.648956298828129
10.995999999999867,10.653851318359376,-0.9775177001953126,-0.6718658447265625
11.005999999999858,8.548083496093751,-1.1420074462890626,-1.6155883789062502
11.016999999999824,6.939373779296876,-1.2142333984375,1.5213806152343752
11.026999999999816,5.5510803222656255,-1.1662322998046877,2.9871337890625003
11.036999999999807,4.003082275390625,-1.8563415527343752,13.709024047851564
11.047999999999774,7.948294067382813,-0.5514892578125,6.397006225585938
11.056999999999787,10.055258178710938,-0.7826721191406251,11.737390136718751
11.06699999999978,7.987921142578125,0.34034423828125,13.718444824218752
11.076999999999998,6.23984375,2.198629760742188,1.433453369140625
11.086999999999987,6.3331542968750005,2.282220458984375,5.092752075195313
11.09699999999998,6.791931152343751,1.8967163085937504,8.44281005859375
11.106999999999973,7.161285400390626,0.2639312744140625,4.436138916015626
11.116999999999962,8.402435302734375,0.4068878173828125,0.552984619140625
11.126999999999953,9.6947265625,0.6856231689453125,5.207745361328126
11.13699999999995,9.233856201171877,-0.7657745361328125,8.706890869140626
11.147999999999904,7.380056762695313,-1.1683258056640626,7.777523803710938
11.156999999999924,4.50462646484375,-1.7018707275390623,5.675344848632813
11.1679999999999,1.765423583984375,-1.409527587890625,3.7708526611328126
11.177999999999884,6.362911987304688,-1.6484863281250002,5.3237854003906255
11.187999999999874,15.359902954101564,-1.6459442138671876,8.8896240234375
11.197999999999864,13.290322875976564,-0.017047119140625,5.061199951171876
11.207999999999856,7.7522521972656255,1.552484130859375,3.9852874755859378
11.217999999999847,2.739801025390625,0.4113739013671875,13.758670043945314
11.227999999999838,4.1929931640625,0.9320587158203124,19.12522277832032
11.237999999999827,5.497396850585938,1.5635498046875,4.332510375976563
11.24799999999982,8.010800170898438,0.5199371337890626,-0.5997894287109375
11.25799999999981,12.368731689453126,0.16329345703125,-0.3078948974609375
11.267999999999802,9.103311157226564,1.2042144775390626,2.914907836914063
11.277999999999793,5.267709350585938,1.4739776611328126,12.500323486328126
11.28799999999979,6.0568115234375,2.8048492431640626,3.761282348632813
11.297999999999774,8.719003295898439,-3.8024047851562495,12.29306640625
11.308999999999967,10.089501953125,-2.1549652099609378,6.007614135742188
11.31899999999996,10.164120483398438,-0.4397857666015625,0.02930908203125
11.328999999999958,8.112484741210938,-1.609307861328125,0.067291259765625
11.338999999999947,5.857778930664063,-1.4318084716796875,2.4806549072265627
11.348999999999933,4.591207885742188,-0.4194488525390625,11.624041748046876
11.358999999999924,4.016989135742188,0.2086029052734375,7.993154907226563
11.368999999999916,8.881698608398438,1.860528564453125,11.267398071289064
11.378999999999904,9.98602294921875,1.3150207519531252,10.882043457031251
11.388999999999896,7.830609130859376,0.5408721923828126,4.9364868164062505
11.398999999999887,6.4482971191406255,1.983447265625,4.8202972412109375
11.408999999999878,6.489120483398438,1.728936767578125,8.231216430664062
11.418999999999867,6.878512573242188,0.98992919921875,6.525308227539063
11.42899999999986,7.657894897460938,-0.08314208984375,1.7464324951171877
11.438999999999844,9.221295166015626,-0.41331787109375,2.059112548828125
11.449999999999818,9.170901489257814,-0.9864898681640626,6.327322387695313
11.459999999999807,8.157196044921875,-1.5281097412109377,8.196524047851563
11.4699999999998,6.719107055664063,-1.1900085449218751,7.488619995117188
11.479999999999798,3.370843505859375,-0.6869689941406251,6.057260131835938
11.489999999999789,-0.0192901611328125,-0.0394775390625,1.9035949707031248
11.500999999999976,12.118707275390626,-1.929913330078125,6.565084838867188
11.509999999999984,19.27610473632813,0.78177490234375,9.321633911132814
11.519999999999987,12.606793212890626,1.7790313720703126,4.492214965820313
11.52999999999998,1.1530731201171875,-0.3345123291015625,5.802899169921876
11.539999999999964,0.8581878662109376,-1.526763916015625,20.18782653808594
11.549999999999956,3.108108520507813,0.3360076904296875,14.985165405273438
11.559999999999944,7.9924072265625,3.5637451171875,0.9012542724609376
11.569999999999936,10.483230590820312,5.176193237304688,0.4027008056640625
11.58099999999991,14.110827636718753,-2.7072021484375,0.167181396484375
11.589999999999918,7.5144897460937505,-1.0966979980468752,2.351007080078125
11.599999999999907,4.476065063476563,-0.8882446289062501,7.974911499023438
11.610999999999876,6.683966064453125,-0.305352783203125,5.864059448242188
11.620999999999867,9.51468505859375,-1.6480377197265623,14.809609985351564
11.630999999999858,8.943756103515625,-0.8940765380859376,5.779421997070313
11.640999999999847,8.705096435546876,0.3704010009765625,-1.392181396484375
11.65099999999984,7.849749755859375,0.2691650390625,0.4690948486328125
11.660999999999824,6.214871215820313,-0.206658935546875,2.2590423583984376
11.670999999999829,3.3715911865234376,-1.1665313720703123,7.83031005859375
11.68099999999982,6.22130126953125,-0.0195892333984375,14.148660278320314
11.690999999999804,9.948937988281251,1.6339813232421876,6.588711547851563
11.700999999999794,9.120956420898438,-0.2074066162109375,15.565814208984376
11.710999999999784,7.576397705078126,0.7560546875,2.6331817626953127
11.720999999999776,5.767010498046876,1.8623229980468752,3.28740234375
11.730999999999996,5.865853881835938,0.401654052734375,8.325424194335938
11.740999999999984,6.106457519531251,-0.9589752197265624,6.250161743164063
11.751999999999953,8.778817749023439,-0.1996307373046875,0.8825622558593751
11.76199999999995,9.997537231445314,0.0713287353515625,3.68516845703125
11.771999999999936,10.209878540039064,-0.1380218505859375,7.551425170898438
11.781999999999924,7.891470336914063,-0.5710784912109376,8.13177490234375
11.791999999999916,5.987127685546875,-0.2663238525390625,7.841375732421875
11.801999999999907,4.69842529296875,-0.8779266357421875,7.865600585937501
11.811999999999898,2.9741241455078127,-0.9769195556640624,4.625003051757813
11.821999999999887,4.005624389648438,-0.2893524169921875,0.745587158203125
11.83199999999988,12.40372314453125,1.46246337890625,3.985586547851563
11.841999999999878,14.854620361328124,1.5550262451171877,9.509002685546877
11.851999999999869,11.644528198242188,2.145993041992188,7.975360107421875
11.861999999999853,4.998394775390626,0.4861419677734375,13.439111328125
11.87299999999982,3.505874633789063,-0.7053619384765626,17.024539184570315
11.881999999999834,5.380908203125,0.6159393310546876,6.471176147460938
11.892999999999802,6.079690551757813,-1.1116516113281252,-0.545806884765625
11.902999999999793,7.814010620117188,-1.376031494140625,0.122021484375
11.91299999999979,9.435879516601563,-2.3083892822265626,1.6768981933593752
11.922999999999774,8.365200805664063,1.134829711914063,2.9579742431640628
11.932999999999993,8.160934448242188,1.017144775390625,9.02405700683594
11.94299999999999,7.90328369140625,-0.6814361572265626,12.058743286132811
11.952999999999976,8.6910400390625,-1.423583984375,10.302740478515624
11.963999999999947,9.431842041015626,1.056024169921875,2.780325317382813
11.972999999999956,9.03601989746094,1.08802490234375,-0.1090118408203125
11.982999999999947,7.055862426757813,0.0348419189453125,1.5788024902343751
11.992999999999938,4.351651000976563,0.08792724609375,8.782257080078125
12.002999999999927,2.7869049072265626,0.3004180908203125,8.82801513671875
12.01299999999992,6.8463623046875,1.5156982421875,8.753396606445314
12.022999999999904,8.949737548828125,0.31402587890625,11.652902221679687
12.032999999999909,9.494049072265623,-1.0199859619140623,8.380154418945313
12.043999999999867,8.747415161132814,-0.6706695556640625,4.831063842773438
12.05399999999986,7.8129638671875,0.3093902587890625,5.744131469726563
12.064999999999827,6.294125366210938,0.211444091796875,6.725836181640625
12.073999999999842,5.84805908203125,-0.5538818359375001,3.95433349609375
12.083999999999833,7.602716064453125,-0.373541259765625,1.8060974121093751
12.09399999999983,8.845510864257813,-0.3093902587890625,4.0925048828125
12.103999999999814,9.288287353515626,-0.005682373046875,6.602020263671876
12.113999999999804,7.742382812500001,0.49287109375,7.582080078125
12.123999999999796,2.685369873046876,0.7322784423828126,6.480447387695313
12.133999999999787,0.9558349609375,0.5618072509765626,4.320248413085938
12.143999999999778,13.981927490234376,-0.953741455078125,9.884039306640624
12.153999999999996,17.522195434570314,1.0232757568359376,8.241983032226564
12.164999999999964,9.865646362304688,0.514105224609375,2.496356201171875
12.174999999999956,0.9347503662109377,-1.3127777099609377,7.293923950195313
12.184999999999944,2.863616943359375,-1.45050048828125,18.123330688476564
12.194999999999936,4.093402099609375,0.2797821044921875,11.956610107421875
12.204999999999927,8.024407958984376,0.5435638427734375,-0.5432647705078125
12.214999999999918,11.886328125,-0.208453369140625,-0.605322265625
12.224999999999907,13.076785278320314,0.44681396484375,1.6703186035156252
12.2349999999999,6.118869018554688,0.6323883056640626,7.4062255859375
12.24499999999989,3.4737243652343754,-0.216229248046875,8.931793212890625
12.254999999999882,8.649319458007813,-0.20635986328125,5.124752807617188
12.264999999999873,8.892016601562501,-0.7732513427734375,14.52698669433594
12.27499999999987,9.483731079101563,1.529605102539063,0.8031585693359375
12.284999999999854,8.131326293945314,0.6153411865234375,-0.4729827880859375
12.294999999999844,7.877264404296875,0.254510498046875,0.9401336669921876
12.304999999999836,5.83011474609375,-0.5924621582031251,3.001190185546875
12.314999999999827,5.1178741455078125,-0.4502532958984375,11.807522583007811
12.325999999999794,5.985781860351563,0.19798583984375,9.680221557617188
12.335999999999784,8.505615234375,0.1565643310546875,15.11451416015625
12.345999999999776,9.700558471679688,-0.8275329589843751,8.225833129882814
12.355999999999996,7.386486816406251,-0.1021331787109375,2.1863677978515628
12.365999999999984,6.530392456054688,1.08682861328125,4.3372955322265625
12.375999999999976,6.094943237304688,-0.1389190673828125,8.217309570312501
12.385999999999967,6.470578002929688,-0.483599853515625,4.00816650390625
12.395999999999958,8.670254516601563,0.6189300537109376,1.6353271484375
12.405999999999947,9.96748046875,0.5797515869140626,4.948898315429688
12.41599999999994,9.786242675781253,-0.351409912109375,8.246319580078126
12.425999999999924,7.256689453125,0.0133087158203125,7.909713745117188
12.435999999999922,5.127294921875,0.327783203125,7.521517944335938
12.445999999999913,2.112496948242188,-1.10357666015625,6.460110473632813
12.45599999999991,3.896163940429688,-1.0023406982421876,3.285308837890625
12.466999999999878,12.44544372558594,0.687567138671875,4.46514892578125
12.476999999999869,13.866485595703129,0.4963104248046875,6.721200561523438
12.486999999999853,10.750302124023438,2.404241943359376,4.615731811523438
12.496999999999844,4.2217041015625005,0.1873687744140625,14.088397216796876
12.506999999999834,3.704458618164063,-0.426776123046875,18.13050842285156
12.516999999999824,6.875820922851563,2.2053588867187504,6.501980590820313
12.526999999999816,7.802496337890625,-1.749871826171875,-0.4326080322265625
12.536999999999807,9.416439819335938,-1.848565673828125,0.3928314208984375
12.546999999999798,8.616421508789063,-1.0463043212890626,2.2143310546875004
12.556999999999787,6.796865844726563,1.3301239013671875,7.438525390625
12.56699999999978,5.420086669921876,0.184527587890625,6.790435791015626
12.576999999999998,8.519821166992188,-0.3170166015625,9.842169189453124
12.586999999999987,9.788336181640624,-1.140362548828125,8.489016723632814
12.59699999999998,10.009201049804688,0.4930206298828125,1.284814453125
12.606999999999973,9.10061950683594,0.1351806640625,0.5655456542968751
12.617999999999938,7.447048950195313,0.040673828125,4.280023193359376
12.627999999999927,3.273345947265625,-0.1792938232421875,11.550469970703126
12.63799999999992,3.891827392578125,0.527264404296875,6.330313110351563
12.647999999999904,7.550827026367188,1.628298950195313,8.679376220703126
12.657999999999909,8.544345092773439,0.280230712890625,10.537063598632812
12.6679999999999,8.213870239257814,-0.7101470947265626,6.919934082031251
12.677999999999884,7.90328369140625,0.037982177734375,4.849008178710938
12.687999999999874,7.917340087890626,0.2791839599609375,7.059152221679688
12.697999999999864,6.551925659179688,0.127105712890625,6.53233642578125
12.707999999999856,7.040609741210938,0.181536865234375,3.406881713867188
12.717999999999847,7.922872924804688,-0.23028564453125,3.422433471679688
12.727999999999838,8.997439575195314,-0.6314910888671875,5.013946533203125
12.737999999999827,8.851193237304688,-0.3285308837890625,6.0370727539062505
12.74799999999982,7.68436279296875,-0.3016143798828125,7.463946533203125
12.758999999999787,4.344921875000001,0.2202667236328125,7.6478759765625
12.768999999999778,0.4029998779296875,0.158209228515625,4.3368469238281255
12.778999999999996,4.378118896484375,-0.102880859375,4.064541625976563
12.788999999999987,21.76827392578125,-0.152227783203125,9.489114379882814
12.798999999999978,17.34125671386719,0.7855133056640625,7.3365417480468755
12.808999999999967,4.5870208740234375,-0.8359069824218751,1.2671691894531252
12.81899999999996,-1.88236083984375,-1.3335632324218751,12.321777343750002
12.828999999999958,1.2139343261718751,-0.4355987548828125,24.49297180175781
12.838999999999947,4.448251342773438,1.1037261962890623,4.738052368164063
12.848999999999933,11.170648193359376,0.457281494140625,-0.697735595703125
12.858999999999924,15.066812133789064,-0.273052978515625,-0.951947021484375
12.868999999999916,11.390914916992188,1.048248291015625,1.9545867919921875
12.879999999999882,4.86949462890625,0.8048034667968751,2.513104248046876
12.889999999999873,3.9969512939453127,2.5907135009765625,0.2930908203125
12.89999999999987,9.478048706054688,0.6126495361328126,17.999066162109376
12.909999999999854,9.373373413085938,-0.6160888671875,13.574890136718752
12.919999999999844,8.341723632812501,-1.021630859375,1.035986328125
12.929999999999836,7.557705688476563,-0.2507720947265625,-1.206607055664063
12.939999999999827,6.607852172851563,-0.5988922119140625,0.5283111572265625
12.949999999999818,5.658895874023438,-0.6063690185546875,0.396868896484375
12.959999999999807,5.9757629394531255,-1.062005615234375,16.215249633789064
12.9699999999998,7.767056274414063,-0.4024017333984375,7.477703857421876
12.979999999999798,10.042697143554689,-0.116339111328125,17.192916870117188
12.989999999999789,8.895306396484376,-0.393878173828125,6.275283813476563
13.0,4.903140258789063,0.602032470703125,1.6395141601562502
13.009999999999984,5.297467041015626,1.9610168457031247,5.378964233398438
13.019999999999987,6.878363037109375,0.0743194580078125,8.991906738281251
13.030999999999947,7.738046264648438,-0.4388885498046875,3.0787994384765627
13.04099999999994,9.615322875976563,0.301763916015625,-0.0820953369140625
13.050999999999924,9.946694946289064,1.3749847412109375,5.647381591796876
13.060999999999922,8.4589599609375,-0.2510711669921875,12.04483642578125
13.070999999999913,7.094741821289063,-0.6832305908203126,7.111639404296875
13.08099999999991,3.935641479492188,-0.8302246093750001,5.923724365234375
13.090999999999894,2.063897705078125,-1.6354766845703126,4.5641418457031255
13.100999999999884,5.78824462890625,-1.782769775390625,3.45189208984375
13.110999999999876,15.58046875,0.47911376953125,5.8730316162109375
13.120999999999867,13.2465087890625,1.1687744140625,7.012796020507813
13.130999999999858,8.168560791015626,1.4865386962890623,5.667718505859376
13.140999999999847,2.808587646484375,0.124713134765625,14.222381591796877
13.15099999999984,4.025064086914063,0.5025909423828125,17.150149536132815
13.161999999999807,6.606506347656251,2.6760986328125003,5.8565826416015625
13.171999999999798,8.058502197265625,0.152227783203125,-1.1997283935546876
13.181999999999787,10.765106201171877,-1.6973846435546875,0.1158905029296875
13.19199999999978,8.801248168945314,-0.2883056640625,3.100631713867188
13.201999999999998,5.229129028320313,2.020831298828125,8.292227172851563
13.211999999999987,6.5978332519531255,0.031103515625,6.790884399414063
13.22199999999998,8.572009277343751,-2.048944091796875,10.65579528808594
13.231999999999973,10.685104370117188,-1.3839569091796875,7.607949829101563
13.241999999999962,9.935928344726562,-0.0992919921875,0.1673309326171875
13.251999999999953,8.381649780273438,-0.5558258056640626,0.3180633544921875
13.26199999999995,5.720205688476563,-0.5342926025390625,2.123861694335938
13.271999999999936,3.981100463867188,-0.4562347412109375,13.087701416015626
13.281999999999924,3.5661376953125004,0.1591064453125,7.597183227539063
13.291999999999916,9.562686157226564,2.278631591796876,8.516232299804688
13.301999999999907,9.836785888671876,0.3019134521484375,10.916735839843753
13.311999999999898,7.701708984375,-0.018841552734375,6.947149658203125
13.321999999999887,6.238647460937501,0.941778564453125,4.722500610351563
13.33199999999988,6.885391235351563,1.038677978515625,7.933340454101563
13.342999999999847,7.015637207031251,0.6754547119140626,6.695779418945313
13.352999999999838,7.837338256835938,-0.235968017578125,1.94337158203125
13.362999999999827,8.591598510742188,-0.3129791259765625,1.6994781494140627
13.37299999999982,8.98951416015625,-0.6012847900390625,5.867498779296875
13.38299999999981,8.17364501953125,-1.0648468017578123,8.221047973632814
13.392999999999802,7.3583740234375,-0.6757537841796876,7.681671142578126
13.402999999999793,5.202511596679688,-0.4774688720703125,6.987973022460938
13.41299999999979,1.4267242431640623,-0.3668121337890625,4.547244262695313
13.422999999999774,5.385842895507813,-0.107965087890625,3.984091186523438
13.432999999999993,17.583056640625003,0.0922637939453125,8.479296875000001
13.44299999999999,14.18604431152344,0.5610595703125001,6.9701782226562505
13.452999999999976,6.584524536132813,-0.0859832763671875,2.076010131835938
13.464999999999918,1.2109436035156251,-1.481753540039063,12.544137573242187
13.473999999999933,4.134375,-0.5450592041015625,20.29474487304688
13.483999999999924,6.146533203125,1.4641082763671875,4.9713287353515625
13.493999999999916,8.578439331054689,0.4652069091796875,-1.1171844482421875
13.503999999999904,13.262509155273438,2.357138061523438,-0.250921630859375
13.513999999999896,9.711325073242188,1.5200347900390625,3.272897338867188
13.523999999999887,4.798614501953125,2.2218078613281254,12.479388427734376
13.533999999999878,4.318005371093751,-1.0285095214843751,2.134030151367188
13.543999999999867,8.757733154296876,-2.14195556640625,12.015975952148438
13.55399999999986,10.449884033203126,-1.155914306640625,8.169009399414064
13.564999999999827,9.378009033203126,-0.2394073486328125,0.024822998046875
13.573999999999842,8.488717651367189,0.058917236328125,-0.060711669921875
13.583999999999833,7.051077270507813,-0.24703369140625,3.209494018554688
13.59399999999983,3.5315948486328126,-1.6226165771484375,10.150064086914064
13.603999999999814,5.474667358398438,-0.172265625,8.235552978515626
13.613999999999804,7.534527587890626,0.2117431640625,8.553616333007813
13.623999999999796,9.875515747070311,-0.2758941650390625,13.042242431640624
13.634999999999984,8.250207519531251,0.4266265869140625,5.794674682617188
13.644999999999987,6.698171997070313,1.837649536132813,2.6678741455078128
13.65499999999998,6.376370239257813,1.2737487792968751,7.187603759765626
13.664999999999964,6.6262451171875005,-0.4361968994140625,7.828665161132813
13.674999999999956,7.674194335937501,0.125311279296875,2.552731323242188
13.684999999999944,9.533377075195313,0.5493957519531251,1.5427642822265626
13.694999999999936,9.500030517578123,0.160601806640625,6.679330444335938
13.704999999999927,8.14373779296875,-0.490777587890625,8.504568481445313
13.714999999999918,4.4693359375,-0.4436737060546875,6.226684570312501
13.724999999999907,1.711590576171875,-0.6928009033203125,4.04166259765625
13.7349999999999,7.030291748046875,-1.212139892578125,5.6572509765625005
13.74499999999989,15.6127685546875,-0.8548980712890626,9.571807861328123
13.754999999999882,13.20987243652344,2.035186767578125,5.365805053710938
13.765999999999847,6.660040283203125,1.873388671875,4.746127319335938
13.77599999999984,1.3957702636718752,-1.1252593994140625,16.917620849609378
13.785999999999824,3.932052612304688,0.2954833984375,15.271228027343753
13.795999999999829,8.014089965820313,1.179840087890625,1.2432434082031252
13.80599999999982,8.148822021484376,-0.834112548828125,-0.8037567138671876
13.815999999999804,12.104949951171877,-2.325735473632813,0.7319793701171875
13.825999999999794,9.047833251953126,0.2136871337890625,3.768759155273438
13.835999999999784,5.290139770507813,1.3205535888671875,8.852838134765626
13.845999999999776,6.0449981689453125,-0.1096099853515625,8.690292358398438
13.855999999999996,9.368887329101565,-1.164736938476563,9.435281372070314
13.865999999999984,9.117816162109376,-0.2426971435546875,8.964541625976564
13.875999999999976,8.795864868164063,0.09749755859375,-1.3133758544921876
13.885999999999967,8.225833129882814,-0.143255615234375,0.037982177734375
13.895999999999958,6.653161621093751,0.3225494384765625,2.661444091796876
13.906999999999924,3.9072296142578127,-0.376531982421875,11.972311401367188
13.916999999999916,6.139355468750001,0.8426361083984376,5.804244995117188
13.926999999999907,8.130429077148438,1.8375,12.750796508789064
13.936999999999898,9.602462768554688,-0.318511962890625,11.124740600585938
13.946999999999887,7.6924377441406255,-0.65496826171875,5.43414306640625
13.95699999999988,6.810324096679688,0.5673400878906251,4.0841308593750005
13.966999999999878,6.379360961914063,0.7529144287109375,7.945751953125001
13.976999999999869,6.099578857421875,-0.3551483154296875,6.1884033203125
13.986999999999853,7.046142578125001,-0.447113037109375,1.9085296630859376
13.996999999999844,9.750503540039062,0.11663818359375,2.4024475097656253
14.006999999999834,9.824075317382814,-0.4607208251953125,6.731369018554688
14.016999999999824,8.443557739257812,-0.6039764404296876,7.646978759765625
14.026999999999816,6.335247802734376,0.6264068603515626,7.332354736328125
14.036999999999807,1.6745056152343751,0.9410308837890624,6.1261962890625
14.046999999999798,0.7487274169921876,0.68726806640625,2.6056671142578125
14.056999999999787,16.295401000976565,-1.5373809814453123,9.3693359375
14.06799999999999,18.828842163085938,1.1221191406250002,7.263119506835938
14.077999999999976,9.133517456054689,2.045953369140625,1.6365234375000002
14.087999999999964,-1.2039154052734375,-1.5846343994140626,8.2914794921875
14.097999999999956,0.7771392822265626,-1.7909942626953126,25.065844726562503
14.107999999999947,4.222601318359375,-0.00657958984375,8.650067138671876
14.117999999999938,10.358816528320313,0.549993896484375,-0.2648284912109375
14.127999999999927,13.071551513671876,-1.0827911376953123,-0.6902587890625
14.13799999999992,13.33189392089844,-0.397467041015625,0.9930694580078124
14.147999999999904,5.073611450195313,0.150433349609375,2.9023468017578127
14.157999999999909,2.368951416015625,-0.0955535888671875,10.021014404296876
14.1679999999999,8.417239379882814,0.1003387451171875,9.071160888671876
14.177999999999884,10.9400634765625,0.19798583984375,12.460247802734376
14.188999999999844,9.9327880859375,1.3995086669921877,2.1080108642578126
14.198999999999842,7.221548461914063,0.74468994140625,-0.9042449951171876
14.208999999999833,6.677386474609375,1.2668701171875,0.8701507568359376
14.21899999999983,5.501284790039063,-0.245538330078125,2.8870941162109376
14.228999999999814,5.129986572265626,-1.38590087890625,13.782894897460938
14.238999999999804,7.008309936523438,0.4275238037109375,8.779116821289064
14.248999999999796,10.3060302734375,0.124114990234375,10.846902465820314
14.258999999999787,8.495147705078125,-1.4319580078125,12.30667419433594
14.268999999999778,5.775982666015626,-0.4188507080078125,2.896514892578125
14.278999999999996,5.470928955078126,1.0932586669921875,4.2042083740234375
14.288999999999987,6.4372314453125,-0.6631927490234375,8.519671630859376
14.298999999999978,7.298410034179688,-0.5890228271484376,4.454232788085938
14.308999999999967,9.155349731445312,0.177349853515625,0.8915344238281251
14.31899999999996,10.18759765625,1.517193603515625,4.2520599365234375
14.328999999999958,9.339578247070314,0.236865234375,9.260772705078123
14.339999999999918,7.216015625000001,-0.119927978515625,8.174093627929688
14.349999999999907,4.77618408203125,1.128848266601563,6.5712158203125
14.3599999999999,2.262930297851563,-0.21951904296875,5.204605102539063
14.36999999999989,4.283462524414063,-0.9861907958984376,3.175848388671876
14.379999999999882,13.36060485839844,0.5070770263671875,5.1930908203125
14.389999999999873,14.044134521484375,1.1539703369140626,7.366748046875
14.39999999999987,9.818692016601563,1.3374511718750002,6.192440795898438
14.409999999999854,3.5438568115234377,-0.4792633056640625,14.2992431640625
14.419999999999844,3.3105804443359377,-0.9553863525390626,17.366677856445314
14.429999999999836,6.613235473632813,0.9293670654296876,6.325079345703125
14.439999999999827,8.040707397460938,-0.6978851318359376,-0.7864105224609376
14.449999999999818,9.994247436523438,-1.9674468994140624,0.37742919921875
14.459999999999807,9.01343994140625,-2.1062164306640625,2.247976684570313
14.4699999999998,5.810824584960938,1.31890869140625,4.247872924804688
14.481999999999973,6.284255981445313,0.439935302734375,10.002023315429687
14.490999999999984,8.911157226562501,0.0219818115234375,8.526101684570314
14.500999999999976,9.646875,-0.324493408203125,9.709979248046876
14.510999999999967,9.99918212890625,1.2703094482421875,0.8122802734375001
14.520999999999958,9.079983520507811,0.9371429443359376,0.3614288330078125
14.530999999999947,6.424520874023438,0.371746826171875,2.0601593017578126
14.54099999999994,3.791488647460938,-0.1493865966796875,12.595278930664064
14.550999999999924,3.844573974609376,0.2702117919921875,7.495498657226563
14.560999999999922,7.926611328125,1.29139404296875,9.02884216308594
14.570999999999913,9.018972778320313,-0.4646087646484375,9.979443359375
14.58199999999988,8.304339599609376,-1.48758544921875,7.503424072265625
14.590999999999894,7.424468994140626,-0.5945556640625,5.033236694335938
14.600999999999884,7.422824096679688,0.385205078125,6.374874877929688
14.610999999999876,6.577944946289063,-0.342437744140625,6.353939819335938
14.621999999999844,7.241586303710938,-0.2250518798828125,3.4149566650390626
14.631999999999834,8.318994140625001,0.362176513671875,2.576956176757813
14.641999999999824,9.150863647460938,-0.18363037109375,4.926766967773438
14.651999999999816,8.805435180664062,0.0548797607421875,7.010104370117188
14.661999999999807,7.60660400390625,0.410626220703125,7.842572021484376
14.671999999999798,4.324285888671875,0.46715087890625,7.392318725585938
14.681999999999787,-0.08074951171875,0.0788055419921875,3.9479034423828128
14.69199999999978,7.918685913085938,-0.1742095947265625,4.983441162109376
14.701999999999998,18.703530883789064,-0.2190704345703125,8.574551391601563
14.711999999999987,14.269635009765626,0.0174957275390625,4.62425537109375
14.72199999999998,4.673153686523438,-1.5155487060546875,3.7783294677734376
14.731999999999973,0.8396453857421876,-1.7368621826171875,18.035552978515625
14.741999999999962,3.5094635009765627,0.4270751953125,18.19301452636719
14.751999999999953,7.934088134765625,1.9077819824218751,2.1407592773437503
14.76199999999995,8.187252807617188,0.336456298828125,-1.03060302734375
14.772999999999904,13.754483032226563,1.1615966796875,0.1766021728515625
14.782999999999909,8.295816040039064,1.8650146484375,3.435293579101563
14.7929999999999,5.1477813720703125,1.0268646240234376,4.628741455078125
14.802999999999884,4.995703125,0.043365478515625,10.062734985351565
14.812999999999874,9.544741821289064,-1.5776062011718752,12.294412231445314
14.822999999999864,9.646426391601564,-0.043365478515625,6.328817749023438
14.832999999999856,9.820785522460938,0.4517486572265625,-0.2624359130859375
14.842999999999847,8.443258666992188,-0.2139862060546875,-0.0082244873046875
14.852999999999838,6.413903808593751,-1.2229064941406251,2.433700561523437
14.862999999999827,3.4227325439453127,-1.6395141601562502,6.45218505859375
14.87299999999982,4.962655639648438,-0.58319091796875,12.349591064453126
14.88299999999981,7.748214721679688,-0.3542510986328125,11.226425170898438
14.892999999999802,9.54638671875,-0.2370147705078125,13.004260253906253
14.902999999999793,9.037515258789064,0.2080047607421875,3.045602416992188
14.913999999999987,6.214422607421875,1.466351318359375,4.006671142578125
14.923999999999978,6.783706665039063,2.1201232910156254,6.998440551757813
14.933999999999967,6.295321655273438,0.107666015625,7.047937011718751
14.94399999999996,7.688549804687501,0.45159912109375,2.188909912109376
14.953999999999958,9.576892089843753,0.8957214355468751,2.3723907470703125
14.963999999999947,9.5619384765625,0.3069976806640625,6.64359130859375
14.973999999999933,8.304788208007814,-0.4514495849609375,8.334994506835939
14.983999999999924,6.267956542968751,-0.4658050537109375,7.516583251953126
14.993999999999916,3.683074951171875,-1.4421264648437502,6.587515258789063
15.003999999999904,1.755853271484375,-0.9980041503906252,3.68935546875
15.013999999999896,8.627786254882814,-1.7260955810546876,5.299560546875
15.023999999999887,15.713854980468753,-0.4493560791015625,7.310372924804688
15.033999999999878,12.836181640625002,1.2223083496093752,5.2218017578125
15.043999999999867,6.768902587890626,1.17535400390625,7.212725830078125
15.05399999999986,3.3119262695312504,-0.5994903564453126,15.906756591796876
15.064999999999827,4.133328247070313,1.3390960693359375,14.798245239257811
15.074999999999818,6.679629516601563,1.57850341796875,1.7600402832031252
15.084999999999807,7.893264770507813,-0.5404235839843751,-0.8148223876953126
15.0949999999998,11.479888916015623,-0.6853240966796875,0.667828369140625
15.104999999999798,7.56712646484375,2.2230041503906253,4.710238647460938
15.114999999999789,5.7170654296875005,0.8209533691406251,11.084066772460938
15.125,7.444656372070313,0.7255493164062501,4.6931915283203125
15.134999999999984,8.529690551757813,-2.3649139404296875,12.195718383789064
15.144999999999987,10.19178466796875,-1.0663421630859375,3.973623657226563
15.15499999999998,9.829309082031251,-0.376531982421875,0.0871795654296875
15.164999999999964,8.080035400390626,-1.1728118896484376,0.9006561279296875
15.174999999999956,5.4132080078125,-1.0597625732421876,3.50692138671875
15.185999999999922,3.1746520996093754,-0.3315216064453125,11.73245544433594
15.194999999999936,4.707546997070313,0.4222900390625,9.132620239257813
15.20599999999991,9.580929565429688,1.328778076171875,9.805233764648438
15.215999999999894,9.564181518554689,-0.2824737548828125,8.970074462890626
15.225999999999884,7.923171997070313,0.5944061279296875,5.0670318603515625
15.235999999999876,6.937130737304688,1.6920013427734375,5.690747070312501
15.245999999999867,6.622357177734376,1.475772094726563,7.901489257812501
15.255999999999858,6.462802124023438,0.677398681640625,5.200418090820313
15.265999999999847,8.091848754882813,0.256903076171875,1.9357452392578127
15.27599999999984,9.13905029296875,-0.3997100830078125,3.1919982910156253
15.285999999999824,9.242828369140623,-0.6407623291015625,6.130532836914063
15.295999999999829,7.438375854492188,-0.7071563720703126,7.643389892578125
15.30599999999982,2.2576965332031254,-0.29608154296875,5.7888427734375005
15.315999999999804,1.0611083984375,-0.3222503662109375,3.465200805664063
15.325999999999794,15.037054443359375,-3.0746124267578128,9.721044921875
15.335999999999784,17.409146118164063,0.90499267578125,8.238992309570314
15.345999999999776,9.353485107421877,1.1141937255859375,1.8478179931640624
15.355999999999996,-0.5090209960937501,-1.8475189208984373,9.826617431640626
15.366999999999962,2.3714935302734377,-1.2137847900390626,21.00788269042969
15.376999999999953,4.8845977783203125,0.757550048828125,9.2150146484375
15.38699999999995,9.804187011718753,0.6808380126953125,-0.4643096923828125
15.396999999999936,11.683557128906251,0.5896209716796875,-0.629248046875
15.406999999999924,12.760067749023438,1.796826171875,1.8034057617187504
15.416999999999916,7.044647216796876,3.940576171875,1.96729736328125
15.426999999999907,3.295626831054688,-0.6171356201171876,11.071505737304689
15.436999999999898,8.078988647460939,1.3387969970703126,6.776528930664063
15.446999999999887,8.168112182617188,-1.8961181640625,17.823062133789065
15.45699999999988,11.04713134765625,-1.080548095703125,-1.2776367187500002
15.466999999999878,8.115325927734375,-0.503936767578125,-1.3223480224609376
15.476999999999869,7.178182983398438,-0.7736999511718751,1.618280029296875
15.487999999999827,5.953033447265625,-1.0134063720703126,3.2565979003906254
15.49799999999982,3.934295654296875,-1.4177520751953123,12.919473266601564
15.50799999999981,7.294970703125,0.4158599853515625,5.7399444580078125
15.517999999999802,9.289334106445311,0.0725250244140625,14.6581298828125
15.527999999999793,8.81904296875,-0.2367156982421875,10.317245483398438
15.53799999999979,6.814959716796875,1.6260559082031252,2.2880523681640628
15.547999999999774,6.145187377929688,1.6100555419921876,5.229727172851563
15.557999999999993,6.6322265625000005,0.2794830322265625,8.340377807617188
15.56799999999999,6.600524902343751,0.133685302734375,4.267163085937501
15.577999999999976,8.783602905273439,0.7750457763671875,0.9233856201171876
15.587999999999964,9.893011474609375,0.5991912841796876,5.154660034179688
15.597999999999956,9.26824951171875,-1.0253692626953126,8.680123901367189
15.607999999999947,7.197921752929688,-0.3937286376953125,7.504620361328126
15.617999999999938,5.816656494140625,-0.112152099609375,7.416543579101563
15.627999999999927,3.614736938476563,-1.6233642578125,7.07664794921875
15.638999999999896,2.776287841796876,-1.5816436767578126,2.6421539306640627
15.648999999999887,10.036865234375,0.0195892333984375,2.7854095458984376
15.658999999999878,14.546575927734375,0.5489471435546875,7.729522705078126
15.668999999999867,12.086407470703126,2.170217895507813,6.841427612304688
15.67899999999986,5.9036865234375,1.11195068359375,10.059744262695313
15.688999999999844,3.5944000244140626,-0.30086669921875,16.484564208984377
15.698999999999842,4.885345458984375,1.6549163818359376,11.869580078125
15.708999999999833,8.177682495117189,0.3575408935546875,0.5102172851562501
15.71899999999983,7.769897460937501,-1.17535400390625,-0.3620269775390625
15.728999999999814,9.817047119140623,-1.8270324707031247,1.6239624023437502
15.738999999999804,6.450988769531251,0.877178955078125,4.486532592773438
15.748999999999796,6.289190673828125,0.4158599853515625,11.891412353515626
15.758999999999787,8.690591430664064,-0.5414703369140625,1.7500213623046876
15.768999999999778,9.78968200683594,-1.8053497314453129,13.454364013671876
15.77999999999998,9.95133056640625,0.1200775146484375,3.788946533203125
15.789999999999964,9.017926025390626,-0.0593658447265625,-0.0970489501953125
15.799999999999956,6.546542358398438,-0.2388092041015625,1.5319976806640627
15.809999999999944,5.8486572265625005,0.050543212890625,8.279067993164062
15.819999999999936,3.143997192382813,-0.07177734375,9.370083618164063
15.829999999999927,6.788641357421875,2.0129058837890628,6.365902709960938
15.839999999999918,9.15445251464844,1.232476806640625,10.59598083496094
15.849999999999907,8.308377075195313,-0.681884765625,10.186999511718753
15.8599999999999,7.689596557617188,0.3276336669921875,5.246774291992188
15.86999999999989,7.428207397460938,0.468048095703125,6.1088500976562505
15.881999999999834,7.094741821289063,0.22191162109375,7.376617431640626
15.889999999999873,6.788641357421875,0.1389190673828125,4.184918212890626
15.90099999999984,7.3966552734375,-0.3748870849609375,1.9430725097656247
15.909999999999854,8.709432983398438,-0.7548583984375,4.085775756835938
15.919999999999844,9.005664062500001,-0.793438720703125,6.665573120117188
15.929999999999836,8.387930297851563,-0.5770599365234376,6.904083251953126
15.940999999999804,5.853292846679688,0.1703216552734375,6.966888427734376
15.950999999999794,0.7911956787109375,0.18363037109375,4.979104614257813
15.960999999999784,5.360720825195313,-0.4218414306640625,5.320944213867188
15.970999999999776,17.945980834960938,-0.2420989990234375,9.433786010742187
15.981999999999973,15.1677490234375,1.3544982910156251,5.729776000976563
15.990999999999984,5.522817993164063,0.170172119140625,1.5662414550781252
16.000999999999976,-0.4954132080078125,-1.708001708984375,14.88407897949219
16.010999999999967,2.587423706054688,-0.40494384765625,19.916867065429688
16.020999999999958,7.456918334960938,1.02701416015625,3.778030395507813
16.03099999999995,10.181167602539062,0.1374237060546875,-1.1883636474609376
16.04099999999994,13.760763549804688,0.442626953125,-0.0474029541015625
16.050999999999924,9.6385009765625,1.29737548828125,2.9949096679687504
16.060999999999922,5.610446166992188,4.438082885742188,11.13984375
16.070999999999913,2.9811523437500003,-0.5154510498046876,3.39207763671875
16.08199999999988,9.002822875976562,-2.008419799804688,11.144778442382814
16.091999999999878,10.81729431152344,-1.3881439208984376,11.445645141601563
16.10199999999987,9.119461059570312,-0.40853271484375,-1.628298950195313
16.111999999999853,7.619015502929688,-0.4270751953125,-0.1051239013671875
16.121999999999844,7.091751098632813,0.2008270263671875,2.1812835693359376
16.131999999999834,4.636517333984376,-0.375335693359375,5.451040649414063
16.141999999999825,4.720706176757813,-0.8439819335937501,13.669396972656251
16.151999999999816,9.703399658203123,0.2453887939453125,6.082980346679688
16.161999999999807,9.170901489257814,-0.4687957763671875,14.898883056640626
16.171999999999798,7.800552368164063,0.213836669921875,6.126046752929688
16.18199999999979,5.4378814697265625,1.2538604736328125,2.792288208007813
16.19199999999978,6.179730224609376,0.9797607421875,6.909466552734376
16.202999999999975,7.1496215820312505,-0.7120910644531251,7.78006591796875
16.21199999999999,8.063586425781251,-0.11424560546875,2.275042724609375
16.222999999999956,9.577191162109376,1.1195770263671876,0.8136260986328125
16.232999999999947,9.250454711914063,-0.0904693603515625,7.500732421875001
16.242999999999938,8.147177124023438,-0.8125793457031251,9.310418701171876
16.25299999999993,5.553323364257813,-0.251519775390625,6.491363525390626
16.26299999999992,2.165731811523438,-0.9885833740234377,4.23306884765625
16.272999999999904,4.8509521484375,-1.218569946289063,4.7121826171875005
16.28299999999991,14.469116210937502,-0.20277099609375,8.380453491210938
16.2929999999999,13.249499511718753,0.413616943359375,6.743481445312501
16.302999999999884,8.591897583007814,2.2829681396484376,2.3961669921875
16.312999999999874,2.4417755126953127,-0.286810302734375,14.915481567382814
16.322999999999865,3.4976501464843754,0.64599609375,17.972448730468752
16.332999999999856,7.622454833984375,3.160147094726563,3.8952667236328127
16.342999999999847,7.72862548828125,-0.877178955078125,-0.962713623046875
16.353999999999814,11.193377685546876,-1.3506103515625,0.664837646484375
16.363999999999805,9.839178466796875,-1.275543212890625,2.777334594726563
16.373999999999796,5.114285278320313,0.3294281005859375,11.4448974609375
16.383999999999787,5.854489135742188,0.7150817871093751,5.475714111328125
16.393999999999778,8.724984741210939,-0.4391876220703125,7.284951782226563
16.403999999999996,9.62698669433594,-1.340142822265625,12.147567749023438
16.413999999999987,9.263912963867188,-0.112451171875,-0.32060546875
16.423999999999978,8.87347412109375,-0.2690155029296875,-0.155517578125
16.43399999999997,6.778472900390626,-0.3766815185546875,2.01156005859375
16.44399999999996,4.0033813476562505,-0.63941650390625,11.116067504882814
16.453999999999958,5.571865844726563,0.0958526611328125,4.26536865234375
16.46399999999995,7.302597045898438,1.33804931640625,12.341665649414065
16.473999999999933,10.067370605468753,1.1983825683593752,11.039205932617188
16.483999999999924,7.953826904296876,-0.4448699951171875,6.343173217773438
16.493999999999915,6.49046630859375,0.9486572265625,4.543505859375
16.50499999999988,6.321490478515625,0.9832000732421876,8.154055786132814
16.514999999999873,6.582580566406251,-0.0243743896484375,7.003823852539063
16.52499999999987,7.517779541015625,-0.30625,2.2318267822265625
