time,ax,ay,az
0.0,7.881002807617188,-0.6012847900390625,6.008212280273438
0.0099999999999838,7.904031372070313,-0.0131591796875,6.017333984375
0.0199999999999747,7.823431396484375,-0.384307861328125,5.984136962890625
0.0309999999999419,7.597930908203126,-0.4844970703125,6.02451171875
0.0409999999999328,7.6445861816406255,0.0515899658203125,6.0544189453125
0.0509999999999237,7.719055175781251,-0.256005859375,6.1118408203125005
0.0609999999999146,7.741036987304688,-0.2600433349609375,5.9388275146484375
0.0709999999999055,8.021716308593751,0.3533538818359375,5.841778564453126
0.0809999999998964,7.885488891601563,-0.0016448974609375,6.142645263671875
0.091000000000001,7.772888183593751,-0.133087158203125,6.20634765625
0.100999999999999,7.518527221679688,0.2313323974609375,5.993856811523438
0.11099999999999,7.649371337890625,-0.200079345703125,6.20335693359375
0.1209999999999738,7.652960205078125,-0.3626251220703125,6.162832641601563
0.1309999999999647,7.895657348632813,-0.1709197998046875,5.770150756835938
0.1409999999999556,7.927059936523438,-0.2100982666015625,5.6920928955078125
0.1509999999999465,7.981939697265625,-0.6111541748046876,6.328369140625001
0.1609999999999374,7.685110473632813,-0.003887939453125,6.024810791015625
0.1719999999999046,7.559799194335938,-0.0949554443359375,5.862713623046876
0.1819999999998955,7.546340942382813,-0.558966064453125,6.594992065429688
0.191999999999993,7.784402465820313,0.2699127197265625,5.953182983398438
0.2019999999999981,7.937377929687501,0.0922637939453125,5.596240234375
0.211999999999989,8.036520385742188,-0.064898681640625,6.102719116210938
0.2219999999999728,8.015734863281251,0.3985137939453125,6.198721313476563
0.2319999999999638,7.569818115234375,0.2074066162109375,5.862863159179688
0.2419999999999547,7.514340209960938,-0.1490875244140625,6.236105346679688
0.2519999999999456,7.530191040039063,0.0471038818359375,6.429156494140625
0.2619999999999365,7.789785766601563,-0.1179840087890625,5.790936279296876
0.2719999999999274,7.948892211914063,-0.303857421875,5.8206939697265625
0.2819999999999183,8.276077270507812,-0.081646728515625,6.209188842773438
0.2919999999999092,7.753598022460938,-0.2260986328125,6.061895751953125
0.3019999999999001,7.480245971679688,-0.6270050048828125,5.984136962890625
0.3129999999999882,7.2408386230468755,-0.5749664306640625,6.416744995117188
0.322999999999972,7.526004028320313,-0.1966400146484375,5.786599731445313
0.3329999999999629,7.779318237304688,-0.3862518310546875,5.568875122070313
0.3429999999999538,8.114727783203126,0.218023681640625,5.811572265625
0.3529999999999447,8.046688842773438,0.442626953125,5.912210083007813
0.3629999999999356,7.629483032226563,-0.1416107177734375,6.188104248046876
0.3729999999999265,7.467834472656251,0.2522674560546875,6.153860473632813
0.3829999999999174,7.327569580078125,-0.032598876953125,6.341378784179688
0.3929999999999083,7.601370239257813,-0.5229278564453126,6.086270141601563
0.4029999999998992,7.9708740234375,-0.39058837890625,5.68057861328125
0.4130000000000038,8.353536987304688,-0.44202880859375,5.663980102539063
0.4229999999999947,8.166317749023438,-0.7820739746093751,5.939126586914063
0.4329999999999856,7.923770141601563,-0.6745574951171875,5.8677978515625
0.4429999999999765,7.711578369140626,-0.6660339355468751,5.729925537109375
0.4539999999999438,7.855133056640626,-1.2027191162109376,5.9012939453125
0.4639999999999347,7.783056640625,-1.1405120849609376,5.488125610351563
0.4739999999999256,8.017678833007814,-0.8575897216796876,5.2868499755859375
0.4839999999999165,8.042501831054688,-0.8975158691406251,6.09927978515625
0.4939999999999074,7.656399536132813,-0.380718994140625,6.426913452148438
0.5039999999998983,7.683316040039063,0.5402740478515625,6.217861938476563
0.5140000000000029,7.997341918945313,0.0243743896484375,6.923672485351563
0.5239999999999938,8.044894409179689,0.6585571289062501,6.728228759765625
0.5339999999999847,7.699465942382813,1.6386169433593751,5.8177032470703125
0.5439999999999756,7.051376342773438,1.3613769531250002,6.164627075195313
0.5539999999999665,6.850997924804688,1.2092987060546876,6.301303100585938
0.5649999999999338,7.3814025878906255,1.328778076171875,5.7010650634765625
0.5739999999999483,7.878311157226563,0.9613677978515626,5.816806030273438
0.5839999999999392,8.030688476562501,0.14056396484375,6.928756713867188
0.5939999999999301,6.843521118164063,-1.0223785400390626,6.568972778320313
0.6049999999998974,7.234707641601563,-0.9799102783203124,5.158847045898438
0.615000000000002,10.763760375976563,-0.8910858154296876,6.00357666015625
0.625,7.759579467773438,-2.9063842773437503,7.128237915039063
0.6349999999999838,4.648031616210938,-0.206060791015625,4.19359130859375
0.6449999999999747,4.989422607421876,-1.5011932373046877,8.777920532226563
0.6549999999999656,8.933737182617188,-1.79862060546875,11.293267822265626
0.6659999999999329,9.128433227539062,1.7166748046875002,2.763726806640625
0.6749999999999474,7.9924072265625,-0.5160491943359375,0.9455169677734376
0.6849999999999383,9.171798706054688,-1.53543701171875,7.502078247070313
0.6949999999999292,7.430899047851563,-0.1679290771484375,11.812905883789064
0.704999999999913,5.329318237304688,1.1473907470703126,3.117080688476563
0.7149999999999181,9.437973022460938,0.9488067626953126,1.9683441162109376
0.724999999999909,11.385232543945314,-0.07596435546875,0.5812469482421876
0.7349999999998929,10.405621337890626,0.399560546875,8.039511108398438
0.7459999999999738,4.828671264648438,1.370947265625,6.663778686523438
0.7559999999999647,8.856277465820312,2.0069244384765628,4.0258117675781255
0.7659999999999556,8.026651000976564,-0.4103271484375,12.2081298828125
0.7759999999999465,3.9824462890625,-0.8806182861328126,11.049822998046876
0.7859999999999374,5.3466644287109375,-0.6021820068359376,3.17076416015625
0.7959999999999283,9.197967529296877,-1.7331237792968752,5.211334228515625
0.8059999999999192,8.946148681640626,-2.120721435546875,8.648422241210938
0.8159999999999172,7.205548095703126,-0.107965087890625,3.876275634765625
0.8259999999999081,5.462405395507813,0.275146484375,1.7751434326171875
0.8359999999998919,6.064138793945313,0.009271240234375,4.382305908203126
0.8459999999999965,10.639794921875,0.778485107421875,6.889877319335938
0.8559999999999874,11.80557861328125,-1.938287353515625,9.520367431640626
0.8669999999999547,9.484478759765626,1.5417175292968752,6.078793334960938
0.8759999999999692,9.893161010742189,1.666131591796875,2.6983795166015625
0.8869999999999365,8.060446166992188,0.1854248046875,16.160070800781252
0.8969999999999274,-0.2667724609375,-0.5019927978515626,13.472308349609376
0.9069999999999184,-0.206658935546875,0.1840789794921875,-1.9587738037109377
0.9169999999999092,5.554071044921876,0.4248321533203125,0.109161376953125
0.9269999999999,19.92165222167969,-0.04246826171875,1.0507904052734376
0.936999999999884,6.573159790039063,-0.6841278076171875,3.073117065429688
0.9469999999999956,7.139154052734376,-0.66693115234375,5.194287109375001
0.9569999999999864,12.55191345214844,-1.6320373535156252,9.779364013671875
0.9669999999999774,10.2821044921875,-2.441326904296876,13.95994567871094
0.9769999999999684,3.031695556640625,-0.4520477294921875,4.753305053710938
0.9869999999999592,7.0688720703125005,0.5528350830078126,1.8071441650390627
0.99699999999995,9.73480224609375,0.53773193359375,0.8997589111328126
1.006999999999941,7.287792968750001,0.887646484375,-0.9488067626953126
1.016999999999932,6.151617431640625,0.4580291748046875,13.425503540039063
1.0269999999999229,5.670111083984375,0.8617767333984375,4.6822753906250005
1.0380000000000038,14.8686767578125,2.0755615234375,7.95113525390625
1.0479999999999947,9.906619262695314,-0.6096588134765626,10.108343505859375
1.0579999999999856,4.439129638671876,-0.3494659423828125,4.852896118164063
1.0679999999999763,5.651568603515625,-0.6522766113281251,5.049237060546876
1.0779999999999674,6.139953613281251,-0.84278564453125,10.514483642578126
1.0879999999999583,3.564791870117188,-1.303955078125,7.803244018554688
1.0979999999999492,3.729730224609375,-1.517193603515625,3.7671142578125
1.107999999999933,11.847149658203126,-1.682131958007813,4.874578857421875
1.117999999999931,13.485168457031252,-1.5402221679687502,2.4046905517578128
1.127999999999922,6.113037109375,-1.14066162109375,6.863409423828125
1.13799999999992,6.295022583007813,0.978863525390625,6.424819946289063
1.1479999999999038,8.500231933593751,1.9503997802734376,6.940570068359375
1.157999999999895,7.124050903320313,0.253912353515625,6.188552856445313
1.1679999999999993,7.363607788085938,1.5879241943359377,4.303799438476563
1.1789999999999663,8.873025512695314,1.6662811279296876,8.094540405273438
1.1889999999999574,8.470623779296876,0.2595947265625,8.990261840820313
1.1989999999999483,7.274932861328126,0.6231170654296876,4.642947387695313
1.2089999999999392,7.561593627929688,-0.2691650390625,5.381805419921875
1.21899999999993,8.856875610351564,-1.825686645507813,8.756985473632813
1.228999999999921,8.037716674804688,-0.6877166748046876,5.733364868164063
1.238999999999919,6.820791625976563,-0.420196533203125,2.461813354492188
1.24899999999991,8.634066772460939,-1.478912353515625,3.49495849609375
1.2589999999998938,9.403729248046876,-2.2711547851562504,6.005819702148438
1.2689999999999984,7.93558349609375,-0.46416015625,4.856784057617188
1.2789999999999893,8.060147094726563,0.544012451171875,2.836251831054688
1.2889999999999802,8.493801879882813,-1.2927398681640625,6.871783447265625
1.298999999999971,7.582528686523438,-0.6237152099609375,8.90338134765625
1.308999999999962,6.383697509765626,1.3793212890625002,6.171505737304688
1.3199999999999292,6.686956787109375,1.4132659912109375,5.861367797851563
1.329999999999913,7.399047851562501,0.2086029052734375,8.382546997070314
1.339999999999918,6.253002929687501,0.41690673828125,8.64617919921875
1.349999999999909,6.063839721679688,1.3163665771484376,6.010455322265625
1.3599999999998929,9.105404663085938,1.0015930175781251,4.691247558593751
1.3699999999999974,9.816149902343753,-0.6655853271484375,6.4109130859375005
1.3799999999999883,8.607897949218751,-0.410028076171875,4.983441162109376
1.3899999999999793,7.629931640625,-0.412420654296875,3.940127563476562
1.399999999999963,7.520321655273438,-1.3932281494140626,6.362164306640626
1.409999999999961,7.421627807617188,-1.5248199462890626,7.203604125976563
1.419999999999959,5.911611938476563,-0.3108856201171875,4.189703369140625
1.4299999999999429,5.853890991210938,0.20037841796875,3.206353759765625
1.4409999999999172,9.157742309570311,-0.2534637451171875,7.555014038085938
1.449999999999925,10.428948974609376,-0.9525451660156252,9.69951171875
1.4599999999999156,8.272937011718751,1.4473602294921877,4.40294189453125
1.4709999999999963,7.341625976562501,0.6886138916015625,6.268255615234375
1.4809999999999874,7.338635253906251,-1.2118408203125002,12.287683105468751
1.4909999999999783,4.0003906250000005,0.4771697998046875,7.741635131835938
1.5009999999999692,4.4501953125,1.1089599609375,2.207452392578125
1.5109999999999673,11.071206665039064,1.2060089111328125,3.384451293945313
1.5209999999999582,12.08790283203125,-0.5573211669921876,7.149771118164063
1.530999999999942,5.707046508789063,0.1045257568359375,7.846310424804688
1.5409999999999329,7.870086669921876,0.4065887451171875,4.0741119384765625
1.5509999999999238,9.701605224609375,-2.368353271484376,9.01089782714844
1.560999999999915,8.477951049804688,-2.011260986328125,7.91524658203125
1.5709999999999056,6.751705932617188,0.028411865234375,2.2424438476562503
1.5829999999999629,9.828112792968753,-0.4230377197265625,1.281524658203125
1.591000000000001,9.018524169921877,-0.9679473876953124,0.101983642578125
1.6019999999999683,7.288241577148438,-0.5193389892578125,2.2650238037109376
1.61099999999999,4.626498413085938,-0.1574615478515625,11.452972412109377
1.62199999999995,7.114929199218751,1.6214202880859376,9.074899291992187
1.631999999999941,10.260272216796876,0.7853637695312501,9.312811279296875
1.641999999999932,7.581033325195313,0.1981353759765625,6.238198852539063
1.6519999999999229,6.398052978515626,0.5432647705078125,6.714471435546876
1.6619999999999138,5.289541625976563,-0.2510711669921875,9.793121337890623
1.671999999999905,5.263522338867188,-0.6658843994140625,7.238894653320313
1.6829999999999856,6.537420654296875,-0.506329345703125,3.900201416015625
1.691999999999993,9.099423217773438,0.280828857421875,3.8237884521484378
1.7019999999999982,10.307077026367187,-0.8179626464843751,3.642999267578125
1.711999999999989,6.288891601562501,-1.6275512695312502,2.9316558837890625
1.7219999999999729,4.744631958007813,-1.0765106201171877,4.39755859375
1.7319999999999638,9.509750366210938,-0.387298583984375,9.278118896484376
1.7419999999999547,12.988409423828124,-0.765625,8.390322875976564
1.7519999999999456,12.903024291992187,1.52945556640625,2.906832885742188
1.76299999999992,9.301895141601562,0.274249267578125,4.632778930664063
1.7729999999999038,5.382852172851563,-0.8481689453125001,15.369323730468752
1.782999999999895,-0.027215576171875,-0.198583984375,11.1111328125
1.7929999999999993,-0.27335205078125,-0.1505828857421875,-1.0039855957031252
1.8029999999999973,9.959854125976562,1.158306884765625,6.8430725097656255
1.812999999999988,15.34764099121094,1.64071044921875,5.13267822265625
1.822999999999972,10.217355346679687,0.8018127441406251,0.698333740234375
1.8329999999999629,8.877511596679689,0.207257080078125,5.2973175048828125
1.8429999999999536,8.150616455078126,-1.09879150390625,12.380694580078126
1.8529999999999447,5.721551513671876,-0.899609375,9.036318969726564
1.862999999999936,4.902093505859376,-0.123516845703125,3.795376586914063
1.8729999999999265,12.588400268554688,0.2800811767578125,2.4745239257812504
1.8829999999999167,9.444851684570311,-0.4290191650390625,-0.176751708984375
1.8929999999999083,5.685513305664063,-0.4062896728515625,1.1967376708984376
1.9039999999999893,6.234011840820313,-0.48748779296875,7.269848632812501
1.91399999999998,6.543701171875001,-1.4413787841796877,11.44654235839844
1.923999999999971,10.35986328125,-1.4605194091796876,8.5618408203125
1.933999999999962,9.23056640625,-0.378326416015625,4.779623413085938
1.94399999999996,7.102368164062501,0.384307861328125,6.612637329101563
1.953999999999944,5.6049133300781255,0.2803802490234375,10.264309692382811
1.963999999999935,3.907977294921875,0.1475921630859375,8.634066772460939
1.9739999999999256,6.010455322265625,0.8357574462890626,3.83470458984375
1.9839999999999165,9.007308959960938,0.98394775390625,3.784609985351562
1.993999999999908,10.963690185546875,0.1547698974609375,4.519281005859376
2.0039999999998983,9.805831909179688,-0.0267669677734375,3.7366088867187504
2.014000000000003,7.0030761718750005,0.2567535400390625,6.819595336914063
2.023999999999994,4.740444946289063,-0.394476318359375,6.283209228515625
2.0339999999999847,3.6407562255859376,-0.85355224609375,6.468933105468751
2.043999999999976,9.343765258789062,-1.317413330078125,6.728079223632813
2.054999999999943,14.264849853515626,-0.84757080078125,5.948098754882813
2.0649999999999338,11.40302734375,-0.34752197265625,3.7876007080078127
2.0749999999999247,8.047586059570314,-0.8134765625000001,3.244036865234375
2.084999999999916,6.489868164062501,-0.7352691650390626,15.412091064453126
2.0949999999999065,-1.6598510742187502,-0.441131591796875,12.28394470214844
2.1049999999998974,3.668569946289063,0.7568023681640625,2.28251953125
2.115000000000002,14.099911499023438,1.5825408935546876,4.549038696289063
2.125,13.692874145507814,0.5665924072265626,-0.2331268310546875
2.134999999999984,7.607949829101563,0.3805694580078125,1.6401123046875
2.1449999999999747,7.829711914062501,0.3108856201171875,9.0594970703125
2.1549999999999656,6.741537475585938,-0.429766845703125,10.922418212890626
2.1649999999999565,6.09210205078125,-0.8018127441406251,9.119610595703126
2.1749999999999474,6.1919921875,-0.213836669921875,4.347613525390625
2.1859999999999147,13.611676025390626,0.383111572265625,2.7731475830078125
2.1959999999999056,8.95362548828125,-0.65496826171875,-0.7434936523437501
2.2059999999998965,6.180328369140626,-0.672613525390625,1.1720642089843751
2.216000000000001,6.572561645507813,-0.539227294921875,8.043698120117188
2.225999999999999,5.0475921630859375,-0.4015045166015625,11.57947998046875
2.23599999999999,10.714263916015623,0.203369140625,6.981243896484376
2.245999999999974,9.366195678710938,-0.5945556640625,5.308981323242188
2.2559999999999647,6.53831787109375,-0.0584686279296875,6.734509277343751
2.265999999999956,5.755197143554688,0.006878662109375,9.611434936523438
2.2759999999999465,4.686163330078125,-0.08314208984375,9.190640258789063
2.2859999999999374,5.709140014648438,0.367559814453125,5.133575439453125
2.2959999999999283,8.090054321289063,0.7825225830078125,4.359875488281251
2.3059999999999192,10.723983764648438,0.248828125,3.8370971679687504
2.315999999999917,10.52435302734375,-0.88465576171875,1.2285888671875
2.325999999999908,4.338192749023438,-0.6552673339843751,3.076556396484375
2.336999999999989,5.418142700195313,-1.0491455078125,7.304241943359376
2.346999999999973,9.442160034179688,-1.2668701171875,11.719894409179688
2.356999999999964,11.726922607421876,-0.5583679199218751,7.544097900390626
2.3669999999999547,11.59607849121094,0.1682281494140625,2.6708648681640628
2.3769999999999456,8.104559326171875,-0.563751220703125,1.1859710693359375
2.3869999999999365,8.718704223632812,-0.3991119384765625,15.689779663085938
2.3969999999999274,-1.594952392578125,-0.4083831787109375,11.312707519531251
2.4069999999999183,0.33197021484375,0.16209716796875,-1.490576171875
2.416999999999909,11.260220336914063,1.6728607177734376,8.770443725585938
2.4269999999999,18.494180297851564,1.7993682861328126,3.4387329101562503
2.436999999999884,7.463796997070313,1.4660522460937502,2.0887207031250004
2.446999999999996,6.749911499023438,1.2581970214843752,7.887881469726563
2.4569999999999865,7.0898071289062505,-0.7239044189453125,10.821630859375
2.466999999999977,6.856082153320313,-0.09630126953125,7.6095947265625
2.4779999999999447,6.794921875000001,0.8973663330078125,2.651724243164063
2.487999999999936,12.770385742187502,-0.375933837890625,1.1787933349609376
2.4979999999999265,8.175888061523438,-1.2410003662109377,0.052337646484375
2.5079999999999174,6.690396118164063,-0.9308624267578126,3.1582031250000004
2.5179999999999083,5.992062377929688,-1.3694519042968751,7.910311889648438
2.527999999999899,5.841180419921876,-2.140609741210937,11.857467651367188
2.538000000000004,7.83031005859375,-2.0736175537109376,10.045986938476563
2.5479999999999947,8.895904541015625,-0.2534637451171875,5.024563598632813
2.5579999999999856,8.624795532226564,0.1583587646484375,4.226937866210938
2.5679999999999765,7.950238037109376,0.285614013671875,7.085919189453126
2.5779999999999674,5.767459106445313,0.442626953125,8.046240234375
2.5879999999999583,3.2220550537109376,0.9017028808593752,6.696228027343751
2.597999999999949,8.109643554687501,1.4600708007812502,4.77139892578125
2.607999999999933,12.644775390625002,1.4880340576171875,4.927365112304688
2.617999999999931,10.276870727539062,0.9953125,0.9568817138671876
2.627999999999922,6.780416870117188,-0.056524658203125,5.502032470703125
2.639000000000003,3.545950317382813,-0.013458251953125,5.948248291015625
2.648999999999994,3.359030151367188,-0.8701507568359376,8.980841064453125
2.6589999999999847,10.725479125976562,-1.5514373779296875,9.029739379882812
2.668999999999976,16.6822509765625,-0.28232421875,7.523760986328125
2.6789999999999665,10.856622314453126,-0.748577880859375,0.490478515625
2.688999999999957,4.491018676757813,-0.3844573974609375,0.399261474609375
2.6989999999999483,9.985275268554688,-0.58319091796875,19.951708984375003
2.7089999999999392,-1.697085571289063,-0.8725433349609376,9.121405029296875
2.71899999999993,-0.532049560546875,-0.6802398681640626,-2.895318603515625
2.728999999999921,5.6382598876953125,0.403448486328125,6.010754394531251
2.738999999999919,26.88719482421876,0.474029541015625,7.197622680664063
2.74899999999991,8.295367431640626,-0.4631134033203125,-1.4023498535156251
2.7589999999998938,4.871289062500001,0.0234771728515625,8.717059326171876
2.7689999999999984,6.207992553710938,0.1583587646484375,15.871914672851563
2.7799999999999656,2.983694458007813,0.2201171875,7.383795166015625
2.7899999999999565,12.32402038574219,0.379522705078125,3.749468994140625
2.7999999999999474,10.592691040039064,-0.3481201171875,0.1233673095703125
2.8099999999999383,8.438772583007813,-0.8528045654296875,-0.7678680419921876
2.819999999999929,6.296368408203126,-0.619976806640625,0.4897308349609375
2.829999999999913,8.254244995117189,-0.423785400390625,4.093551635742188
2.839999999999918,7.830609130859376,-1.069482421875,15.822418212890629
2.849999999999909,6.820492553710938,-1.0597625732421876,10.259823608398438
2.859999999999893,8.866296386718751,0.8548980712890626,4.080691528320313
2.869999999999997,7.327719116210938,0.5314514160156251,4.246527099609375
2.8799999999999883,6.991412353515625,-0.2047149658203125,7.358523559570313
2.88999999999998,4.772296142578125,-0.153424072265625,10.559494018554688
2.899999999999963,3.982745361328125,0.8785247802734376,6.275283813476563
2.9109999999999374,7.990463256835938,0.8320190429687501,5.1859130859375
2.9209999999999283,12.001321411132814,0.60113525390625,5.759234619140625
2.9309999999999192,11.659780883789065,-0.618780517578125,1.37752685546875
2.940999999999917,7.254147338867188,-0.6323883056640626,4.754949951171875
2.950999999999908,6.167767333984376,-0.5716766357421875,7.645333862304688
2.960999999999892,4.410867309570313,-1.09639892578125,8.282955932617188
2.9709999999999965,3.808535766601562,-0.7736999511718751,2.8305694580078127
2.9809999999999874,6.532635498046876,-0.5310028076171875,3.8071899414062496
2.9909999999999783,13.701397705078126,-0.3434844970703125,7.090853881835938
3.000999999999969,13.78349304199219,-0.2136871337890625,6.309078979492188
3.010999999999968,8.825473022460939,1.433453369140625,5.581884765625
3.020999999999958,7.200762939453125,-0.109161376953125,11.170498657226563
3.030999999999942,4.428213500976563,-0.4179534912109375,15.947131347656253
3.040999999999933,0.0109161376953125,-0.1326385498046875,4.085476684570313
3.0519999999999,4.409970092773438,0.7261474609375,2.690304565429688
3.061999999999884,16.543930053710938,0.1586578369140625,3.4420227050781254
3.071999999999996,10.829855346679688,-0.993817138671875,-0.6033782958984375
3.0819999999999865,7.603762817382813,0.385205078125,2.619873046875
3.091999999999977,8.961700439453125,0.1691253662109375,9.290380859375
3.1019999999999683,6.338238525390626,-1.09281005859375,14.14552001953125
3.1119999999999592,7.212127685546876,-0.8332153320312501,7.19388427734375
3.12199999999995,6.635366821289063,0.6796417236328125,3.201568603515625
3.131999999999941,11.769241333007812,0.1969390869140625,1.4216400146484376
3.141999999999932,6.974066162109375,-0.5583679199218751,-0.2570526123046875
3.151999999999923,6.561495971679688,-0.3043060302734375,5.712429809570313
3.1619999999999138,3.409722900390625,-0.40733642578125,9.395355224609377
3.1719999999999047,9.745269775390623,-0.366363525390625,7.768252563476563
3.181999999999896,10.68585205078125,-0.701025390625,7.495797729492188
3.1929999999999765,7.706643676757813,0.4024017333984375,6.138906860351563
3.2029999999999674,6.671405029296875,-0.044561767578125,8.145532226562501
3.2129999999999583,5.50592041015625,-0.08673095703125,10.011444091796877
3.222999999999949,5.700765991210938,0.3600830078125,6.117074584960938
3.232999999999933,6.285601806640625,0.64420166015625,3.796124267578125
3.242999999999931,8.973663330078125,0.4095794677734375,4.454531860351563
3.252999999999922,11.857766723632814,-0.642706298828125,1.4331542968750002
3.26299999999992,8.729470825195314,-0.5474517822265625,3.8203491210937504
3.272999999999904,6.82303466796875,0.0563751220703125,8.040856933593751
3.2829999999998947,4.111196899414063,0.3158203125,8.486474609375001
3.293,4.652517700195313,-0.1748077392578125,5.152267456054688
3.3029999999999973,9.183462524414065,0.292791748046875,5.854339599609375
3.312999999999988,13.052111816406253,-0.3360076904296875,7.117919921875001
3.322999999999972,11.519815063476564,-0.432757568359375,4.792333984375
3.332999999999963,8.911904907226564,-0.71298828125,3.0473968505859377
3.342999999999954,5.429208374023438,-0.941778564453125,15.154888916015626
3.353999999999921,-0.456085205078125,-1.036285400390625,11.046682739257813
3.363999999999919,4.1873107910156255,0.57242431640625,2.13238525390625
3.37399999999991,10.699160766601564,0.7079040527343751,5.815310668945313
3.384999999999984,14.924453735351564,-0.4557861328125,1.0316497802734377
3.3939999999999984,8.19757080078125,-0.7959808349609375,1.9178009033203127
3.4039999999999893,7.830160522460938,0.1523773193359375,8.351892089843751
3.41399999999998,6.731518554687501,-0.1649383544921875,10.815350341796876
3.423999999999971,6.359622192382813,-0.5333953857421876,9.73480224609375
3.433999999999962,7.045843505859375,0.1825836181640625,3.612643432617188
3.44399999999996,12.385928344726564,0.0808990478515625,1.9702880859375
3.453999999999944,8.204299926757812,-0.6060699462890625,-0.1774993896484375
3.4639999999999347,7.186257934570313,-0.207257080078125,2.242742919921876
3.4739999999999256,5.679531860351563,-0.135479736328125,9.19751892089844
3.484999999999893,5.4718261718750005,0.106170654296875,9.493899536132814
3.494999999999997,9.969573974609377,0.51141357421875,7.601071166992188
3.5049999999999883,9.046038818359376,0.2827728271484375,5.838040161132813
3.51499999999998,7.703054809570313,-0.409429931640625,5.462255859375
3.524999999999963,6.097036743164063,-0.3431854248046875,9.172994995117188
3.534999999999961,4.52615966796875,-0.459674072265625,9.244921875
3.544999999999959,6.21531982421875,-0.157611083984375,5.1847167968750005
3.554999999999943,7.959808349609376,0.64898681640625,4.4624572753906255
3.5649999999999338,10.741180419921877,0.1888641357421875,4.69005126953125
3.5749999999999247,10.580130004882813,-0.8230468750000001,1.236962890625
3.584999999999916,7.91763916015625,-0.3194091796875,5.190997314453125
3.5949999999999065,5.786599731445313,-0.16748046875,9.536218261718751
3.6049999999998974,3.436639404296875,-0.8329162597656251,6.516036987304688
3.615000000000002,4.539019775390625,-1.173858642578125,4.0751586914062505
3.625,11.369830322265626,-0.2047149658203125,6.581085205078126
3.6359999999999673,14.955557250976565,-0.0121124267578125,6.263470458984376
3.645999999999958,9.875814819335938,-0.5055816650390625,1.4213409423828125
3.655999999999942,7.086367797851563,0.33077392578125,6.796865844726563
3.665999999999933,4.4539337158203125,0.3282318115234375,19.49562377929688
3.675999999999924,-0.7277923583984376,-0.22550048828125,8.57559814453125
3.685999999999914,4.2984161376953125,0.75784912109375,3.33824462890625
3.6959999999999056,17.737078857421878,1.1197265625,2.181881713867188
3.705999999999897,11.926104736328126,-0.274249267578125,-0.3605316162109375
3.716000000000001,7.491012573242188,0.8572906494140625,1.7920410156250002
3.725999999999999,8.640048217773439,0.7047637939453125,8.17364501953125
3.73599999999999,4.2695556640625005,-0.5582183837890625,14.353076171875
3.745999999999974,7.163079833984376,-0.9906768798828126,8.4781005859375
3.7559999999999647,6.2404418945312505,0.6335845947265626,3.769506835937501
3.765999999999956,13.531375122070314,0.5725738525390626,2.596246337890625
3.7759999999999465,8.345162963867189,-0.8877960205078126,-0.5893218994140625
3.7869999999999138,7.139453125,-0.61907958984375,1.7580963134765626
3.7969999999999047,6.587814331054688,-0.6720153808593751,7.851992797851563
3.806999999999896,3.982296752929688,-1.3365539550781251,10.967129516601563
3.816999999999993,10.6816650390625,-1.2238037109375002,7.178182983398438
3.826999999999998,8.984429931640626,-0.7170257568359375,5.844918823242188
3.836999999999989,7.171453857421875,0.3090911865234375,4.664480590820313
3.846999999999973,6.7653137207031255,0.321502685546875,8.211776733398438
3.856999999999964,4.82164306640625,-0.08314208984375,10.41055603027344
3.866999999999954,5.96170654296875,0.95045166015625,5.4479003906250005
3.8769999999999456,7.464395141601563,0.9495544433593752,4.098187255859376
3.886999999999937,10.488763427734376,0.4556365966796875,5.319000244140625
3.896999999999928,11.60086364746094,-0.2226593017578125,2.5856292724609378
3.9069999999999183,7.841375732421875,-0.1475921630859375,4.816558837890625
3.9179999999999993,6.049932861328125,0.03648681640625,7.306634521484375
3.927999999999997,5.518182373046876,-0.81168212890625,8.489614868164063
3.937999999999988,4.216769409179688,-0.7612884521484375,4.419989013671875
3.947999999999972,5.55496826171875,-0.539825439453125,3.212783813476563
3.957999999999963,12.352282714843753,-0.7569519042968751,6.58377685546875
3.967999999999954,14.453863525390624,-0.7436431884765625,7.57310791015625
3.9779999999999447,9.440963745117188,-0.4699920654296875,5.317953491210938
3.987999999999936,6.138458251953126,-0.10706787109375,8.149420166015625
3.997999999999928,5.407376098632813,0.0366363525390625,13.282247924804688
4.007999999999917,1.2671691894531252,0.2595947265625,8.039959716796876
4.017999999999908,2.458224487304688,0.645697021484375,2.4731781005859377
4.027999999999899,14.309411621093751,1.06290283203125,3.661093139648438
4.038000000000004,13.750296020507813,-0.4664031982421875,-0.241949462890625
4.047999999999995,9.33509216308594,0.6878662109375,5.646035766601563
4.057999999999986,5.382852172851563,0.211444091796875,12.229812622070312
4.0679999999999765,6.097784423828125,-1.5825408935546876,11.473159790039062
4.078999999999944,8.762368774414064,-1.1451477050781251,6.537271118164063
4.088999999999935,6.542803955078125,0.077459716796875,3.3508056640625004
4.098999999999926,11.338427734375,-0.1266571044921875,1.0029388427734376
4.1089999999999165,7.909564208984375,-0.7481292724609375,-0.1263580322265625
4.118999999999907,7.364804077148438,-0.427374267578125,2.4009521484375003
4.128999999999898,5.675344848632813,-0.191107177734375,9.573452758789063
4.139000000000003,6.380258178710938,0.4813568115234375,10.007406616210938
4.148999999999994,10.468127441406253,0.3386993408203125,8.044595336914064
4.158999999999985,8.780462646484375,0.270660400390625,5.591156005859375
4.168999999999976,7.1095458984375,0.1927520751953125,5.347561645507813
4.178999999999967,5.560650634765626,0.3174652099609375,8.926559448242188
4.188999999999957,5.014096069335938,-0.5553771972656251,8.585617065429688
4.198999999999948,6.070568847656251,-0.0035888671875,4.966094970703125
4.209999999999916,8.465240478515625,0.4104766845703125,4.266415405273438
4.21899999999993,10.043444824218753,-0.73990478515625,5.182772827148438
4.229999999999897,10.085464477539062,-0.94447021484375,4.990170288085938
4.240000000000002,8.601766967773438,-0.494366455078125,4.9110656738281255
4.25,6.738247680664063,-0.1852752685546875,6.885690307617188
4.259999999999984,6.465045166015625,-0.5493957519531251,6.711630249023438
4.269999999999975,4.319949340820313,-0.95284423828125,5.300906372070313
4.279999999999966,4.547393798828125,-0.6599029541015625,2.968740844726563
4.2899999999999565,10.829855346679688,0.25540771484375,5.946005249023438
4.299999999999947,14.2131103515625,-0.08673095703125,7.880554199218751
4.309999999999938,9.758279418945314,0.9953125,5.030245971679688
4.319999999999929,6.944607543945313,0.4092803955078125,7.308279418945313
4.329999999999913,5.738449096679688,0.2576507568359375,14.514425659179688
4.339999999999918,3.331515502929688,0.008673095703125,9.0403564453125
4.349999999999909,2.0450561523437503,0.25899658203125,2.1250579833984378
4.359999999999893,10.0201171875,0.8384490966796876,4.36107177734375
4.370999999999974,16.025936889648438,-0.6886138916015625,1.04495849609375
4.380999999999965,8.787789916992189,0.0705810546875,4.30963134765625
4.390999999999956,5.199819946289063,0.7763916015625001,8.896951293945314
4.402999999999899,6.411511230468751,-1.1387176513671875,11.598471069335938
4.410999999999937,9.607247924804687,-1.212139892578125,7.876516723632813
4.420999999999928,6.661087036132813,0.557171630859375,3.456228637695313
4.430999999999919,10.9807373046875,0.557470703125,1.9046417236328128
4.440999999999917,8.454623413085939,-0.3931304931640625,-0.1840789794921875
4.450999999999908,7.885937500000001,-0.4006072998046875,2.844625854492188
4.460999999999892,3.5924560546875,-0.4430755615234375,10.999728393554689
4.4709999999999965,6.275881958007813,-0.623565673828125,6.709835815429688
4.480999999999987,9.99185485839844,-0.890936279296875,9.17837829589844
4.490999999999978,9.540255737304689,-0.5962005615234376,5.749514770507813
4.502999999999922,7.451684570312499,-0.0046356201171875,4.756744384765625
4.5119999999999365,5.967538452148438,0.1721160888671875,9.17254638671875
4.521999999999927,5.539865112304688,-0.4302154541015625,9.132769775390626
4.531999999999918,5.762075805664063,0.1876678466796875,5.241390991210938
4.541999999999909,7.615127563476563,0.9559844970703124,3.5090148925781253
4.5519999999999,10.315301513671876,0.3467742919921875,4.972225952148438
4.561999999999884,10.689141845703126,-0.4206451416015625,3.7485717773437504
4.571999999999996,7.691690063476563,0.542816162109375,5.795422363281251
4.5819999999999865,6.730770874023438,0.1457977294921875,7.16038818359375
4.591999999999977,6.0509796142578125,-1.1959899902343751,8.391220092773438
4.601999999999968,4.243984985351563,-0.105572509765625,4.25579833984375
4.611999999999959,4.964151000976563,-0.2468841552734375,4.0566162109375
4.62199999999995,11.97305908203125,-0.4681976318359375,6.773837280273438
4.631999999999941,14.397787475585938,-0.5163482666015625,6.653909301757813
4.641999999999932,9.349447631835938,-0.0275146484375,4.224545288085938
4.651999999999923,6.583477783203126,0.474029541015625,7.44749755859375
4.663000000000004,5.358926391601563,-0.2944366455078125,13.809063720703126
4.672999999999995,2.416204833984376,-0.0483001708984375,6.55087890625
4.682999999999986,2.93868408203125,0.493170166015625,2.624807739257813
4.6929999999999765,11.0764404296875,0.2415008544921875,5.639456176757813
4.702999999999967,15.26883544921875,-0.907086181640625,3.2216064453125
4.712999999999958,7.435983276367188,-0.1496856689453125,5.3526458740234375
4.722999999999949,5.728131103515626,0.12979736328125,8.796463012695312
4.732999999999933,7.606753540039063,-1.6214202880859376,10.97894287109375
4.742999999999931,9.32447509765625,-0.781475830078125,5.537771606445313
4.752999999999922,6.668563842773438,0.68009033203125,3.0070220947265627
4.76299999999992,10.146176147460938,-0.1392181396484375,0.8365051269531251
4.772999999999904,8.380154418945313,-0.585882568359375,0.3117828369140625
4.782999999999895,8.06717529296875,0.03768310546875,6.327770996093751
4.792999999999999,3.493612670898438,-0.0925628662109375,9.9638916015625
4.803999999999967,8.365649414062501,0.83680419921875,6.292330932617188
4.813999999999957,10.183111572265624,-0.4272247314453125,8.897100830078125
4.823999999999948,8.454922485351563,0.60233154296875,5.428759765625
4.833999999999939,6.307882690429688,0.4773193359375,5.811273193359376
4.84399999999993,5.757589721679688,-0.5671905517578125,8.836239624023438
4.853999999999921,5.555267333984375,-0.53773193359375,8.396752929687501
4.863999999999919,6.477456665039063,0.064300537109375,4.785903930664063
4.87399999999991,8.369985961914063,0.4149627685546875,4.0367279052734375
4.883999999999894,10.092193603515623,-0.0426177978515625,5.14105224609375
4.893999999999998,9.956414794921876,-0.377130126953125,4.769903564453125
4.903999999999989,7.216314697265625,-0.6180328369140625,6.740191650390625
4.91399999999998,6.6406005859375,-0.708203125,7.253549194335938
4.923999999999971,7.203753662109375,-0.7080535888671875,6.612637329101563
4.933999999999962,6.388333129882813,-0.4855438232421875,4.638162231445313
4.94399999999996,3.6435974121093753,-0.20396728515625,2.77120361328125
4.954999999999913,7.676586914062501,-0.110955810546875,5.615231323242188
4.964999999999918,13.130169677734376,-0.448309326171875,9.03497314453125
4.974999999999909,11.779409790039065,0.613995361328125,5.1956329345703125
4.984999999999893,7.920779418945313,1.1608489990234376,5.569174194335938
4.994999999999997,6.443511962890626,-0.2711090087890625,12.87012634277344
5.004999999999988,5.294775390625,-0.13936767578125,11.168255615234376
5.014999999999979,2.008270263671875,0.2284912109375,3.1852691650390628
5.024999999999963,5.698223876953126,0.5314514160156251,3.0533782958984377
5.034999999999961,14.74112243652344,-0.1197784423828125,3.161941528320313
5.044999999999959,10.545138549804689,-0.63223876953125,3.903790283203125
5.054999999999943,5.537322998046875,0.6892120361328126,7.403384399414063
5.064999999999934,7.484732055664063,-0.2045654296875,9.742428588867188
5.074999999999925,9.11392822265625,-1.063201904296875,9.752447509765624
5.084999999999916,7.937228393554688,0.3529052734375,4.569973754882813
5.0959999999999965,8.892166137695312,0.5347412109375,1.8443786621093752
5.105999999999987,9.27064208984375,0.0797027587890625,0.374139404296875
5.115999999999978,7.849600219726563,-0.443524169921875,4.069924926757813
5.125999999999969,3.874481201171875,-0.5036376953125,8.680871582031251
5.135999999999967,5.447601318359375,-1.0199859619140623,6.313714599609376
5.145999999999958,10.191934204101564,-1.06708984375,8.379556274414064
5.155999999999942,9.81958923339844,-0.8456268310546876,6.845465087890625
5.165999999999933,7.74656982421875,0.2507720947265625,5.644091796875
5.175999999999924,6.062493896484376,0.1807891845703125,8.375518798828125
5.185999999999915,5.836843872070313,-0.1514801025390625,9.228024291992188
5.195999999999906,5.651867675781251,0.2932403564453125,6.165374755859376
5.2059999999998965,7.0628906250000005,0.799420166015625,3.644644165039063
5.216000000000001,9.094189453125,0.45458984375,4.406979370117188
5.226999999999968,11.44549560546875,0.203668212890625,2.679388427734376
5.236999999999959,7.897152709960938,0.3431854248046875,6.415249633789063
5.24699999999995,6.064288330078125,-0.3433349609375,8.9015869140625
5.256999999999941,7.268203735351563,-0.7476806640625,6.744079589843751
5.266999999999932,5.8501525878906255,-0.356195068359375,5.198025512695313
5.276999999999923,3.2450836181640628,-0.19798583984375,3.341384887695313
5.286999999999914,8.715713500976562,-0.5927612304687501,5.362814331054688
5.296999999999905,15.587496948242189,-0.44920654296875,7.535873413085938
5.306999999999896,12.086856079101564,-0.5348907470703126,5.0495361328125
5.316999999999993,6.756491088867188,0.218023681640625,6.383099365234376
5.326999999999998,5.8606201171875005,0.2304351806640625,13.051663208007811
5.336999999999989,4.0087646484375,-0.0351409912109375,11.559890747070312
5.346999999999973,-0.2767913818359375,0.2863616943359375,2.6378173828125
5.356999999999964,5.462106323242188,0.628948974609375,4.036578369140625
5.366999999999955,18.591528320312506,0.4720855712890625,3.091510009765625
5.376999999999946,9.50272216796875,-0.7766906738281251,-0.880169677734375
5.3869999999999365,8.572009277343751,0.7301849365234375,7.486825561523438
5.397999999999904,4.672854614257813,-0.328082275390625,15.344052124023438
5.407999999999895,8.00137939453125,-1.8582855224609376,9.302044677734376
5.417999999999999,6.953579711914063,-0.35709228515625,4.1394592285156255
5.427999999999997,11.173788452148438,0.3712982177734375,1.250421142578125
5.437999999999988,7.898348999023438,-0.433355712890625,-0.40135498046875
5.447999999999972,7.367495727539063,-0.4523468017578125,0.9872375488281252
5.457999999999963,6.2362548828125,0.031103515625,10.755087280273438
5.467999999999954,5.467788696289063,0.1033294677734375,7.760028076171875
5.477999999999945,10.529586791992188,0.696539306640625,8.576943969726564
5.487999999999936,10.042098999023438,-0.2950347900390625,6.720303344726563
5.497999999999927,6.895858764648438,0.8463745117187501,5.206997680664063
5.508999999999894,5.386441040039063,0.148638916015625,8.280114746093751
5.518999999999998,5.246774291992188,-0.569732666015625,9.135311889648438
5.528999999999989,6.099728393554688,-0.5084228515625,5.810675048828125
5.53899999999998,7.883245849609375,0.1063201904296875,3.466546630859375
5.548999999999971,9.819290161132812,0.234771728515625,4.520028686523438
5.558999999999962,9.775924682617188,-0.2543609619140625,5.24632568359375
5.56899999999996,8.294171142578126,-0.2426971435546875,6.130981445312501
5.578999999999944,6.538916015625,-0.238360595703125,7.780215454101563
5.588999999999935,6.838287353515626,-0.11783447265625,6.800305175781251
5.598999999999926,6.768453979492188,-0.377130126953125,4.81207275390625
5.6089999999999165,4.01175537109375,-0.2954833984375,3.122015380859376
5.618999999999907,6.818997192382813,-0.46834716796875,4.268359375
5.628999999999898,13.544982910156252,-0.6347808837890625,7.436880493164063
5.639000000000003,12.055752563476563,-0.2474822998046875,7.098031616210938
5.648999999999994,7.249511718750001,0.68726806640625,5.658895874023438
5.658999999999985,4.985833740234376,2.17904052734375,12.246710205078124
5.669999999999952,4.78934326171875,1.117333984375,13.137347412109376
5.679999999999943,3.825732421875,-0.29727783203125,4.540066528320313
5.689999999999934,7.959359741210938,-0.36785888671875,1.7213104248046875
5.699999999999925,13.016223144531253,-0.0251220703125,0.399261474609375
5.709999999999916,10.0260986328125,0.6195281982421875,6.531588745117188
5.7199999999999065,5.55736083984375,0.066693115234375,8.806781005859376
5.729999999999897,6.108401489257813,-0.6036773681640626,8.302694702148438
5.740000000000002,9.850991821289064,-0.6361267089843751,8.42606201171875
5.749999999999993,8.72513427734375,-1.029107666015625,6.802249145507813
5.759999999999984,8.154205322265625,0.1902099609375,1.401153564453125
5.769999999999975,7.86978759765625,0.133087158203125,3.643746948242188
5.779999999999966,7.293325805664063,0.170770263671875,6.045745849609375
5.7899999999999565,5.245129394531251,-0.4137664794921875,4.523019409179688
5.799999999999947,5.339935302734375,-0.5701812744140625,6.349304199218751
5.810999999999915,9.1264892578125,-0.5015441894531251,8.343069458007813
5.820999999999906,10.448089599609377,-1.038677978515625,7.990164184570313
5.8309999999998965,7.711428833007813,0.1550689697265625,4.785006713867188
5.841000000000001,5.803945922851563,0.4634124755859375,7.162930297851563
5.850999999999992,5.494406127929688,0.3055023193359375,10.127334594726562
5.860999999999983,5.610595703125,0.39178466796875,8.11622314453125
5.870999999999974,6.93907470703125,0.4197479248046875,3.6407562255859376
5.880999999999965,9.051870727539065,0.469842529296875,4.125701904296875
5.890999999999956,10.53272705078125,0.5371337890625001,5.022918701171875
5.9009999999999465,7.966836547851563,0.5802001953125,6.049932861328125
5.910999999999937,6.320892333984376,0.69923095703125,7.249063110351563
5.920999999999928,6.306387329101563,-0.6198272705078125,7.914349365234376
5.930999999999919,6.713723754882813,-1.0240234375,6.701760864257813
5.94099999999991,5.290139770507813,-0.278436279296875,3.9226318359375
5.950999999999901,4.4564758300781255,-0.5923126220703125,3.6929443359375
5.960999999999892,10.758526611328126,0.0713287353515625,6.340032958984375
5.971999999999973,13.860803222656251,-1.3479187011718752,8.522512817382813
5.981999999999964,9.639846801757812,-0.418701171875,5.227633666992188
5.991999999999955,5.837292480468751,0.5462554931640625,7.4068237304687505
6.003999999999898,4.671957397460938,-0.5147033691406251,12.670495605468751
6.0119999999999365,5.009310913085938,0.4690948486328125,9.409112548828126
6.021999999999927,5.070321655273438,3.90050048828125,1.927371215820313
6.031999999999918,8.973663330078125,2.6529205322265628,2.2258453369140625
6.041999999999909,11.05191650390625,-2.2472290039062504,8.049380493164064
6.0519999999999,7.894610595703125,0.5045349121093751,6.358276367187501
6.061999999999891,6.236553955078126,0.9491058349609376,6.29307861328125
6.071999999999996,7.855282592773438,-1.4080322265625,9.885086059570312
6.0819999999999865,9.285595703125,-1.6130462646484376,8.887530517578126
6.092999999999954,8.159289550781251,-0.0213836669921875,2.41710205078125
6.103999999999921,8.344863891601562,-0.1227691650390625,1.1186798095703123
6.112999999999936,7.756887817382813,-0.8137756347656251,4.834951782226563
6.122999999999927,6.377117919921876,-0.676800537109375,5.900097656250001
6.132999999999917,4.679882812500001,-0.0372344970703125,5.134472656250001
6.142999999999908,7.284652709960938,0.91396484375,7.894012451171876
6.152999999999899,10.0595947265625,0.5704803466796875,9.3633544921875
6.163000000000004,9.148321533203124,0.2800811767578125,6.444857788085938
6.172999999999995,6.731219482421875,0.7373626708984375,5.098434448242188
6.182999999999986,5.6046142578125,0.18123779296875,9.0283935546875
6.1929999999999765,5.302102661132813,0.28292236328125,9.53128356933594
6.203999999999944,5.6871582031250005,0.292791748046875,5.61717529296875
6.212999999999958,8.011846923828125,0.1760040283203125,3.416900634765625
6.222999999999949,10.340423583984377,-0.00897216796875,4.789044189453126
6.23299999999994,9.64508056640625,-0.7251007080078126,5.289691162109375
6.242999999999931,6.944458007812501,-0.198883056640625,6.560748291015625
6.252999999999922,6.387585449218751,-0.195294189453125,7.9197326660156255
6.264000000000003,6.545944213867188,-0.9437225341796877,7.791729736328126
6.273999999999994,5.800506591796875,-0.911572265625,4.822839355468751
6.283999999999985,3.890631103515626,-0.54371337890625,2.656658935546876
6.293999999999976,8.669058227539063,0.4945159912109375,5.539566040039063
6.303999999999967,13.635601806640626,0.366064453125,8.236151123046875
6.313999999999957,10.724880981445311,0.173760986328125,5.541360473632813
6.323999999999948,6.148925781250001,1.097894287109375,6.500784301757813
6.333999999999939,4.771249389648438,-0.113946533203125,13.1699462890625
6.34399999999993,5.39227294921875,0.133685302734375,11.819186401367189
6.353999999999921,5.27982177734375,1.015200805664063,2.810382080078125
6.363999999999912,7.939920043945313,1.5891204833984376,0.5830413818359376
6.373999999999903,10.832546997070311,0.7629333496093751,7.529293823242188
6.383999999999894,8.37940673828125,-1.2199157714843751,7.180126953125001
6.393999999999998,6.350949096679688,0.9497039794921877,4.617077636718751
6.404999999999966,7.309176635742188,0.1712188720703125,8.886334228515626
6.4149999999999565,9.34840087890625,-1.5631011962890626,9.940713500976564
6.424999999999947,9.170452880859376,0.069085693359375,3.787301635742188
6.434999999999938,8.359817504882812,0.33436279296875,1.2885528564453126
6.444999999999929,8.201608276367189,0.64539794921875,4.276135253906251
6.45499999999992,6.372930908203125,-0.9861907958984376,5.918341064453125
6.464999999999911,4.425372314453125,-0.4079345703125,5.5605010986328125
6.474999999999902,5.7604309082031255,-0.4221405029296875,7.098330688476563
6.484999999999893,10.052267456054688,-0.39178466796875,8.512045288085938
6.494999999999997,9.754092407226564,-0.3265869140625,6.96658935546875
6.504999999999988,7.579238891601563,0.3973175048828125,5.133425903320313
6.514999999999979,5.800506591796875,0.66334228515625,8.225085449218751
6.52499999999997,5.438479614257813,0.1819854736328125,9.956863403320312
6.535999999999937,5.3043457031250005,0.506927490234375,7.145135498046876
6.544999999999952,7.393515014648438,0.3880462646484375,3.368600463867188
6.555999999999919,9.857272338867189,0.3132781982421875,4.09549560546875
6.56599999999991,9.897946166992188,0.1197784423828125,5.622259521484375
6.575999999999901,7.874722290039063,0.3692047119140625,5.761477661132813
6.585999999999892,5.992062377929688,0.198583984375,7.504620361328126
6.5959999999999965,6.410763549804688,-0.746185302734375,8.062240600585938
6.605999999999987,6.156253051757813,-0.6045745849609375,6.185711669921876
6.615999999999978,3.988876342773438,0.4332061767578125,2.77120361328125
6.625999999999969,6.503176879882813,-0.080450439453125,3.825881958007813
6.63599999999996,14.395095825195314,-0.448907470703125,7.86978759765625
6.645999999999951,13.108636474609376,-0.511114501953125,7.39366455078125
6.655999999999942,7.421627807617188,0.2283416748046875,5.451937866210938
6.665999999999933,3.632980346679688,-0.283221435546875,10.639645385742188
6.6769999999999,4.0856262207031255,-0.6428558349609376,13.417578125
6.686999999999891,3.841583251953125,0.6778472900390625,6.1357666015625005
6.696999999999996,7.5503784179687505,4.38499755859375,0.575115966796875
6.7069999999999865,11.071505737304689,0.2322296142578125,0.98873291015625
6.716999999999977,10.663870239257813,-2.074813842773437,9.768298339843753
6.726999999999968,6.538916015625,-0.0509918212890625,6.682620239257813
6.736999999999959,6.5619445800781255,-0.04725341796875,7.969378662109375
6.74699999999995,8.543148803710938,-1.008770751953125,11.99563903808594
6.756999999999941,9.62952880859375,-0.8614776611328125,5.220156860351563
6.766999999999932,8.089755249023439,0.015252685546875,0.0835906982421875
6.776999999999923,8.147775268554689,0.01973876953125,2.1527221679687503
6.786999999999914,6.50841064453125,0.0381317138671875,5.971127319335938
6.796999999999905,4.777679443359375,-0.0201873779296875,5.780917358398438
6.806999999999896,5.973519897460938,0.3840087890625,4.922879028320313
6.817,8.805734252929689,1.2700103759765626,10.553213500976565
6.827999999999967,10.88323974609375,0.00179443359375,7.997940063476563
6.837999999999958,8.292526245117188,0.0007476806640625,5.4120117187500005
6.847999999999949,5.693289184570313,0.4816558837890625,7.31650390625
6.85799999999994,4.811026000976563,-0.098394775390625,9.492404174804689
6.867999999999931,4.756146240234376,-0.1789947509765625,7.783804321289063
6.877999999999922,6.623852539062501,0.182733154296875,4.27135009765625
6.887999999999913,9.730316162109377,0.123516845703125,3.487481689453125
6.897999999999904,10.50880126953125,-0.12022705078125,5.045947265625
6.907999999999895,8.730068969726563,-0.5007965087890626,5.8695922851562505
6.917999999999999,6.488223266601563,0.2145843505859375,7.5728088378906255
6.92799999999999,6.233712768554688,-0.01734619140625,8.473165893554688
6.937999999999981,6.635366821289063,-0.93131103515625,6.578842163085938
6.947999999999972,4.913906860351563,-0.4705902099609375,3.1284454345703128
6.957999999999963,4.672705078125,-0.420794677734375,2.4129150390625003
6.967999999999954,10.822079467773438,0.605023193359375,6.325827026367188
6.977999999999945,13.36539001464844,-0.1146942138671875,9.062487792968753
6.988999999999912,9.567770385742188,0.9183013916015624,5.4662933349609375
6.998999999999903,5.427563476562501,0.7224090576171875,8.772387695312501
7.008999999999894,4.984637451171875,-0.483001708984375,14.45595703125
7.018999999999998,4.974917602539063,0.4475616455078125,9.456216430664064
7.028999999999989,5.644540405273438,0.7571014404296875,1.0546783447265626
7.03899999999998,9.235800170898438,0.59754638671875,0.4574310302734375
7.048999999999971,11.21640625,0.1451995849609375,7.1541076660156255
7.058999999999962,7.571014404296876,-0.347821044921875,6.826922607421875
7.068999999999953,5.907275390625,0.7469329833984375,5.802001953125
7.078999999999944,8.435632324218751,0.1311431884765625,9.898992919921875
7.088999999999935,9.07669372558594,-0.6213226318359375,9.92022705078125
7.098999999999926,8.879306030273439,0.129498291015625,1.974923706054688
7.109999999999893,8.054165649414063,1.69813232421875,2.4805053710937504
7.119999999999997,7.261325073242188,-0.9677978515625,5.324832153320313
7.129999999999988,5.777478027343751,-0.4655059814453125,5.3312622070312505
7.139999999999979,4.060055541992188,-0.6119018554687501,5.269354248046875
7.14999999999997,7.564434814453126,-0.59814453125,7.441366577148438
7.159999999999961,10.428948974609376,-0.4843475341796875,8.368341064453126
7.169999999999952,9.49554443359375,-1.0847351074218752,5.9969970703125
7.179999999999943,6.959561157226563,0.6775482177734375,6.128439331054688
7.189999999999934,5.774188232421875,0.5555267333984375,9.87955322265625
7.199999999999925,5.366403198242188,0.2213134765625,9.046487426757814
7.209999999999916,5.845965576171875,0.6057708740234375,4.94366455078125
7.2209999999999965,7.804888916015625,0.3958221435546875,3.4617614746093754
7.229999999999897,9.801046752929688,0.3485687255859375,4.8138671875000005
7.240999999999978,9.62698669433594,0.4622161865234375,4.715771484375001
7.249999999999993,7.171902465820313,0.5857330322265626,6.864306640625
7.26099999999996,6.458914184570313,0.194097900390625,8.009454345703126
7.270999999999951,6.26915283203125,-0.7880554199218751,7.332055664062499
7.280999999999942,4.258340454101563,-0.2151824951171875,4.993460083007813
7.290999999999933,4.7331176757812505,-0.1392181396484375,3.9513427734375
7.300999999999924,11.917730712890624,-0.5625549316406251,6.157299804687501
7.310999999999915,14.747253417968752,-0.53773193359375,6.858624267578126
7.321999999999996,9.071609497070312,0.100189208984375,5.295523071289063
7.330999999999896,4.555319213867188,0.402252197265625,8.367742919921875
7.341000000000001,3.7886474609375,-0.4605712890625,12.491052246093751
7.350999999999992,4.459765625,0.2244537353515625,9.832000732421877
7.360999999999983,6.036474609375,0.6664825439453126,1.3853027343750002
7.370999999999974,10.260421752929688,2.05821533203125,1.0310516357421875
7.380999999999965,11.45132751464844,-0.47672119140625,9.779513549804689
7.390999999999956,7.21781005859375,-1.007275390625,7.3679443359375005
7.400999999999946,6.081185913085938,0.582891845703125,5.577249145507813
7.411999999999914,7.665521240234375,-0.8237945556640626,10.349993896484376
7.421999999999905,9.393411254882814,-1.0911651611328126,7.625146484375
7.431999999999896,8.324078369140626,0.1227691650390625,1.5230255126953125
7.442,8.176187133789064,-0.0593658447265625,1.4002563476562502
7.451999999999991,7.9086669921875,-0.2106964111328125,4.868597412109375
7.461999999999982,5.811572265625,-0.118731689453125,6.998141479492188
7.471999999999973,5.623904418945313,0.474627685546875,4.892373657226563
7.481999999999964,7.051376342773438,1.4679962158203126,8.657095336914063
7.491999999999955,10.111184692382814,0.173162841796875,8.901138305664062
7.501999999999946,8.699563598632814,-0.1072174072265625,6.246423339843751
7.511999999999936,6.642843627929688,0.497357177734375,5.272195434570313
7.521999999999927,5.645437622070313,0.39298095703125,8.673693847656251
7.531999999999918,5.341580200195313,-0.4436737060546875,9.055010986328126
7.542999999999999,5.841180419921876,0.0713287353515625,5.4647979736328125
7.5519999999999,8.238992309570314,0.253912353515625,3.766665649414063
7.562999999999981,10.313058471679687,-0.4125701904296875,4.944561767578126
7.572999999999972,9.53726501464844,-0.6545196533203126,5.725888061523438
7.582999999999963,6.982290649414063,0.0862823486328125,6.7398925781250005
7.592999999999954,6.470278930664063,-0.02572021484375,7.557556152343751
7.602999999999945,6.382650756835938,-0.432159423828125,7.22977294921875
7.612999999999936,5.611044311523438,-0.384307861328125,4.869046020507813
7.6229999999999265,3.287252807617188,-0.4559356689453125,2.8579345703125
7.632999999999917,8.166018676757814,-0.0393280029296875,4.840933227539063
7.642999999999908,14.87510681152344,0.8196075439453125,8.171102905273438
7.652999999999899,12.453219604492189,-0.215631103515625,7.158892822265625
7.663000000000004,6.382202148437501,0.62745361328125,5.807684326171875
7.673999999999971,3.7603851318359376,0.0390289306640625,11.57529296875
7.682999999999986,4.4083251953125,-0.25540771484375,13.460345458984376
7.692999999999976,4.4310546875000005,0.93310546875,5.534481811523438
7.703999999999944,7.597482299804688,2.8698974609375,-0.1134979248046875
7.713999999999935,11.68594970703125,-1.199578857421875,0.7998687744140626
7.723999999999926,10.421472167968751,-0.728240966796875,9.780261230468753
7.7339999999999165,5.786300659179688,0.7508209228515625,7.274185180664063
7.743999999999907,7.249511718750001,1.3749847412109375,6.174197387695313
7.753999999999898,8.465689086914063,-0.5564239501953125,11.610733032226562
7.764000000000003,8.893063354492188,-0.588873291015625,5.915350341796875
7.773999999999994,7.790234375000001,2.047149658203125,0.692352294921875
7.783999999999985,8.286096191406251,0.18482666015625,2.822195434570313
7.793999999999976,6.753201293945313,-1.661196899414063,6.586917114257813
7.8039999999999665,5.046694946289063,-0.576611328125,5.398553466796876
7.813999999999957,5.3641601562500005,-0.6751556396484375,6.50302734375
7.823999999999948,9.714315795898438,-0.8614776611328125,8.34710693359375
7.833999999999939,10.091744995117187,-0.91336669921875,8.512194824218751
7.844999999999906,7.581332397460938,-0.2558563232421875,5.154510498046875
7.854999999999897,5.945108032226563,0.649884033203125,6.446502685546876
7.865000000000002,5.8857421875,0.38819580078125,9.74078369140625
7.874999999999993,5.561099243164063,0.4098785400390625,7.809674072265626
7.884999999999984,6.667367553710938,0.6984832763671875,3.3295715332031253
7.894999999999975,8.934335327148439,0.5973968505859375,4.048989868164063
7.904999999999966,10.512838745117188,0.62745361328125,5.504724121093751
7.914999999999956,8.305386352539063,0.6922027587890626,6.674993896484375
7.924999999999947,6.600225830078125,0.4619171142578125,6.883895874023438
7.934999999999938,6.703704833984376,-0.6754547119140626,7.966238403320313
7.944999999999929,6.289041137695313,-0.699530029296875,6.940719604492188
7.95499999999992,5.2280822753906255,0.107965087890625,4.243984985351563
7.964999999999911,3.446359252929688,-0.4598236083984375,3.273944091796875
7.974999999999902,8.994000244140626,-0.7451385498046875,5.524761962890626
7.984999999999893,15.129168701171876,-0.8717956542968751,8.206692504882813
7.995999999999974,11.943600463867188,-0.5573211669921876,6.021371459960938
8.005999999999965,6.897503662109376,0.8598327636718751,6.399697875976563
8.015999999999956,3.8593780517578127,-0.431561279296875,12.166558837890626
8.025999999999947,3.814517211914063,-0.171966552734375,11.97889099121094
8.035999999999937,3.5106597900390626,0.8534027099609376,4.272247314453125
8.045999999999928,8.361163330078126,4.792782592773438,0.9661529541015624
8.05599999999992,11.902926635742189,0.316119384765625,2.104122924804688
8.06599999999991,9.595285034179687,-1.91824951171875,10.087408447265624
8.075999999999901,6.487924194335938,0.5205352783203125,4.996450805664063
8.085999999999892,6.92471923828125,0.079852294921875,9.48462829589844
8.095999999999997,8.640945434570312,-1.71607666015625,11.019467163085938
8.105999999999987,8.506362915039062,-0.682781982421875,3.8581817626953128
8.115999999999978,8.2675537109375,-0.04127197265625,0.066094970703125
8.126999999999946,8.171551513671876,-0.5908172607421875,3.0170410156250003
8.136999999999937,6.481494140625,-0.8922821044921876,6.951486206054688
8.146999999999927,5.520275878906251,-0.1571624755859375,4.1633850097656255
8.156999999999918,5.793927001953126,0.7962799072265626,7.599426269531251
8.16699999999991,9.564181518554689,1.709048461914063,9.297857666015624
8.1769999999999,9.96912536621094,-0.296380615234375,7.913003540039063
8.186999999999891,7.515237426757813,1.0687347412109376,5.3192993164062505
8.196999999999996,5.87078857421875,0.7859619140625,7.345214843750001
8.206999999999987,5.2887939453125,-0.097796630859375,9.372177124023438
8.216999999999977,5.313766479492188,0.140863037109375,6.9582153320312505
8.226999999999968,6.989169311523438,0.261090087890625,3.7153747558593753
8.23699999999996,9.6241455078125,0.0922637939453125,4.118075561523438
8.24699999999995,10.275225830078126,-1.0229766845703123,5.275485229492188
8.256999999999941,8.026651000976564,-0.6956420898437501,6.804641723632813
8.266999999999932,6.622805786132813,-0.143255615234375,7.3365417480468755
8.276999999999923,6.648974609375,-0.8818145751953126,7.703652954101563
8.288000000000004,6.259283447265625,-0.4643096923828125,6.034979248046875
8.297999999999995,3.824237060546875,-0.41092529296875,3.457125854492188
8.307999999999986,5.947799682617188,0.2250518798828125,3.9845397949218753
8.317999999999977,12.469070434570314,0.7617370605468751,7.237249755859375
8.327999999999967,11.9281982421875,0.4236358642578125,6.851446533203125
8.337999999999958,8.141345214843751,1.4232849121093751,5.866751098632813
8.34799999999995,5.1014251708984375,0.47313232421875,11.241079711914065
8.35799999999994,5.58367919921875,-0.0777587890625,13.01188659667969
8.367999999999931,4.943365478515625,0.85953369140625,5.163034057617188
8.377999999999922,7.308877563476563,0.3935791015625,1.358685302734375
8.387999999999913,10.068417358398438,-0.484796142578125,5.589959716796876
8.397999999999904,9.740933227539063,-0.6270050048828125,6.069223022460938
8.407999999999895,6.156402587890626,0.4403839111328125,5.325131225585938
8.418,7.275381469726563,-0.0189910888671875,6.894512939453126
8.428999999999967,8.584271240234376,-1.02581787109375,10.388723754882813
8.438999999999957,9.06592712402344,-0.1208251953125,5.679531860351563
8.448999999999948,8.506362915039062,0.430963134765625,1.7557037353515623
8.45899999999994,8.399444580078125,0.3614288330078125,4.377072143554688
8.46899999999993,6.331658935546876,-0.085235595703125,6.867596435546876
8.478999999999921,5.087518310546876,-0.082244873046875,6.0089599609375
8.488999999999912,5.442965698242188,0.1912567138671875,5.826974487304688
8.498999999999903,9.0427490234375,0.4556365966796875,7.413702392578125
8.508999999999894,9.4805908203125,-0.362176513671875,7.057208251953125
8.518999999999998,8.25260009765625,-0.386700439453125,5.583230590820313
8.52899999999999,6.407025146484376,0.7092498779296875,7.805038452148438
8.53899999999998,5.864208984375001,-0.116937255859375,9.541751098632814
8.548999999999971,5.84805908203125,-0.091217041015625,7.310671997070313
8.558999999999962,6.954476928710938,0.255706787109375,4.203460693359375
8.56999999999993,8.512344360351562,0.17047119140625,4.463055419921876
8.57999999999992,9.427804565429687,0.0474029541015625,4.883251953125001
8.589999999999911,8.236300659179689,-0.1816864013671875,5.907723999023438
8.599999999999902,6.983337402343751,0.6159393310546876,7.103863525390626
8.609999999999893,7.041506958007813,-0.1143951416015625,7.75015869140625
8.619999999999997,6.2524047851562505,-0.1404144287109375,6.495251464843751
8.629999999999988,3.117828369140625,0.665435791015625,3.9658477783203128
8.63999999999998,5.206399536132813,0.2109954833984375,5.540313720703125
8.64999999999997,13.807568359375,-0.2787353515625,7.706643676757813
8.659999999999961,14.118304443359376,-0.30924072265625,5.475714111328125
8.669999999999952,8.587411499023439,0.1541717529296875,4.116729736328125
8.679999999999943,4.2109375,-0.3841583251953125,10.211224365234376
8.689999999999934,3.946408081054688,-0.7454376220703125,13.3158935546875
8.699999999999925,3.6243072509765626,0.52457275390625,7.033731079101563
8.709999999999916,6.872381591796875,0.8051025390625001,0.496160888671875
8.720999999999997,11.5621337890625,1.9958587646484376,2.0677856445312504
8.730999999999987,10.4591552734375,-2.0674865722656253,10.059295654296877
8.740999999999978,6.319247436523438,-0.105572509765625,5.7619262695312505
8.75099999999997,6.850698852539063,0.126806640625,7.236502075195313
8.76099999999996,8.298956298828125,-0.9166564941406252,11.377157592773438
8.770999999999951,8.9925048828125,-0.6663330078125,5.2210540771484375
8.780999999999942,8.258132934570312,0.1096099853515625,0.6165374755859375
8.790999999999933,8.882745361328126,0.2163787841796875,2.1886108398437503
8.800999999999924,6.977804565429688,-0.10467529296875,6.66153564453125
8.810999999999915,5.633923339843751,-0.01614990234375,4.533786010742188
8.822999999999972,5.2834106445312505,0.82962646484375,6.715069580078126
8.830999999999896,8.735003662109376,1.2589447021484377,9.559844970703123
8.841999999999977,10.119708251953126,0.0674407958984375,7.724139404296875
8.850999999999992,8.051324462890626,0.274249267578125,5.178436279296875
8.86199999999996,5.863162231445313,0.32718505859375,7.114480590820313
8.87199999999995,5.468835449218751,-0.2456878662109375,9.6624267578125
8.881999999999941,4.970132446289063,-0.402850341796875,7.773486328125
8.891999999999932,6.881353759765625,0.0417205810546875,4.278079223632813
8.901999999999923,9.246566772460938,0.112152099609375,4.225741577148438
8.911999999999914,10.499380493164065,-0.4532440185546875,4.6991729736328125
8.922999999999995,8.225982666015625,-0.278436279296875,6.1252990722656255
8.931999999999896,6.385940551757813,0.058319091796875,7.589108276367188
8.942,6.537570190429688,-0.050543212890625,7.815655517578126
8.951999999999991,6.820791625976563,-0.5641998291015625,6.458615112304688
8.961999999999982,4.239797973632813,0.112750244140625,3.4297607421875003
8.971999999999973,4.7050048828125,0.3935791015625,3.4170501708984378
8.981999999999964,12.28409423828125,0.4892822265625,7.82193603515625
8.991999999999955,14.068658447265626,0.1317413330078125,7.898947143554688
9.002999999999922,9.147274780273438,0.747381591796875,4.282266235351563
9.012999999999913,4.245330810546875,-0.0192901611328125,8.591748046875
9.022999999999904,4.669564819335938,-0.8199066162109375,14.181857299804689
9.032999999999896,3.7979187011718754,0.0466552734375,8.705545043945314
9.043,6.379360961914063,0.417803955078125,0.6059204101562501
9.05299999999999,10.29765625,1.1929992675781251,0.7745971679687501
9.06299999999998,11.48377685546875,-0.5467041015625,8.480194091796875
9.072999999999972,6.6038146972656255,-0.57720947265625,8.003323364257813
9.082999999999965,6.359323120117188,0.555975341796875,5.500088500976563
9.092999999999954,8.339031982421876,0.0028411865234375,11.054608154296876
9.102999999999945,9.469226074218753,0.05682373046875,7.814608764648438
9.112999999999936,8.291778564453125,0.5142547607421876,0.6506317138671875
9.122999999999928,7.966986083984375,2.308688354492188,2.1684234619140628
9.132999999999916,7.519873046875,-1.2644775390625,5.705850219726563
9.143999999999998,5.903088378906251,-0.6400146484375,5.369393920898438
9.1529999999999,4.99869384765625,-0.318212890625,6.274984741210938
9.16399999999998,8.335891723632812,-0.874188232421875,8.191738891601563
9.173999999999973,10.432687377929687,-0.6461456298828125,8.601766967773438
9.183999999999962,8.28968505859375,-0.457879638671875,5.354888916015625
9.193999999999953,6.141000366210938,0.04964599609375,6.056063842773438
9.203999999999944,5.36356201171875,0.2382110595703125,9.486123657226564
9.213999999999936,5.3821044921875005,-0.02691650390625,8.722741699218751
9.223999999999926,6.348556518554688,0.3792236328125,4.278378295898438
9.233999999999916,8.874072265625001,0.5546295166015626,3.9852874755859378
9.243999999999907,10.204644775390626,0.6826324462890625,5.493508911132813
9.253999999999898,8.994000244140626,1.0519866943359375,5.498294067382813
9.264000000000005,6.580935668945313,0.487188720703125,7.173098754882813
9.273999999999994,6.44560546875,-0.005084228515625,8.133718872070313
9.283999999999985,6.703704833984376,-0.4975067138671875,6.712677001953126
9.293999999999976,5.2434844970703125,-0.0838897705078125,4.1403564453125
9.304999999999945,2.9938629150390628,0.59754638671875,2.9036926269531254
9.314999999999934,9.321633911132814,-0.747381591796875,6.260479736328126
9.324999999999925,15.80581970214844,-1.0789031982421875,8.377313232421876
9.334999999999916,12.32596435546875,-0.046954345703125,5.433096313476563
9.344999999999906,5.740692138671875,-0.0895721435546875,6.698321533203125
9.354999999999896,3.635821533203125,-0.8220001220703126,13.417279052734376
9.365000000000002,3.621466064453125,-0.35350341796875,12.964932250976563
9.377999999999922,3.272747802734376,0.6201263427734376,1.949801635742188
9.384999999999984,9.355728149414062,4.869644165039063,1.04974365234375
9.394999999999976,12.201251220703126,-0.2501739501953125,0.8728424072265626
9.404999999999966,8.91175537109375,-1.926324462890625,10.345657348632812
9.414999999999957,5.817852783203126,0.1036285400390625,6.492858886718751
9.425999999999924,7.782159423828125,-0.3081939697265625,9.689044189453126
9.435999999999916,9.237445068359376,-1.3017120361328125,12.267794799804689
9.445999999999906,8.823828125,-0.3796722412109375,2.4325042724609376
9.455999999999896,7.422824096679688,-0.156414794921875,-0.0477020263671875
9.466,7.786944580078125,-0.1356292724609375,3.354244995117188
9.475999999999992,5.825479125976563,-0.4972076416015625,7.648324584960938
9.485999999999985,5.270999145507813,-0.0088226318359375,3.770553588867188
9.495999999999974,6.875222778320313,1.026116943359375,7.031338500976563
9.505999999999965,10.623794555664062,0.9975555419921877,9.592892456054688
9.515999999999956,10.237841796875,0.189013671875,7.690194702148438
9.525999999999948,6.666470336914063,0.9503021240234376,5.398403930664063
9.535999999999936,5.1323791503906255,0.48868408203125,8.070315551757814
9.545999999999928,5.022470092773438,-0.3686065673828125,9.552218627929689
9.55599999999992,5.115631103515625,-0.2583984375,6.555664062500001
9.56599999999991,7.627688598632813,0.198583984375,3.172109985351563
9.5759999999999,10.120755004882811,0.0466552734375,4.413259887695313
9.585999999999892,10.445697021484376,-0.5646484375,5.104415893554688
9.596999999999973,7.465890502929688,-0.474029541015625,7.065283203125
9.606999999999964,6.198123168945313,0.008074951171875,7.858273315429688
9.616999999999956,6.827969360351563,-0.5743682861328125,7.675540161132813
9.626999999999946,6.258236694335938,-0.7331756591796875,5.58487548828125
9.636999999999937,3.8593780517578127,-0.39896240234375,2.918048095703125
9.646999999999927,6.825726318359376,0.7837188720703125,3.9040893554687504
9.656999999999918,13.026541137695313,0.39716796875,7.588360595703126
9.66699999999991,11.3791015625,-0.095404052734375,6.612338256835938
9.6769999999999,6.865802001953125,0.7882049560546875,6.195730590820313
9.686999999999893,4.710089111328125,-0.1894622802734375,11.960198974609376
9.696999999999996,5.965145874023438,-0.0315521240234375,13.286584472656251
9.706999999999988,5.235110473632813,0.9951629638671876,4.702911376953125
9.716999999999976,7.836740112304688,0.3596343994140625,0.494366455078125
9.726999999999968,10.343713378906251,-0.124114990234375,5.502481079101563
9.737999999999936,8.86151123046875,0.096600341796875,6.401043701171876
9.747999999999928,5.696279907226563,1.10357666015625,5.916995239257813
9.757999999999916,7.543649291992188,0.63822021484375,7.140499877929688
9.767999999999908,9.344662475585938,-0.5133575439453125,10.179522705078126
9.7779999999999,9.467880249023438,0.1472930908203125,4.976412963867188
9.788000000000004,8.56961669921875,0.50543212890625,1.5810455322265626
9.797999999999996,8.132522583007812,0.3760833740234375,4.327426147460938
9.807999999999986,5.908023071289063,-0.8436828613281251,6.564785766601563
9.817999999999977,4.3607727050781255,-0.6631927490234375,6.0749053955078125
9.827999999999967,5.454629516601563,-0.9404327392578126,6.158944702148438
9.839999999999913,9.9208251953125,-0.241650390625,7.5010314941406255
9.84799999999995,10.281207275390626,-0.707305908203125,6.8864379882812505
9.858999999999916,7.709036254882813,-0.18123779296875,5.7708984375000005
9.868999999999907,5.715121459960938,0.6029296875000001,8.35308837890625
9.877999999999922,5.454031372070313,0.305352783203125,9.991107177734376
9.889000000000005,5.838787841796876,0.42647705078125,7.3105224609375
9.898999999999994,7.333700561523438,0.7346710205078125,3.4524902343750004
9.908999999999985,9.237145996093751,0.5296569824218751,3.992913818359375
9.918999999999976,9.605154418945313,0.4338043212890625,5.05791015625
9.928999999999968,7.926611328125,0.8746368408203126,5.845516967773438
9.939999999999934,6.164028930664063,0.03887939453125,7.901638793945313
9.948999999999948,6.892718505859375,-0.7080535888671875,7.913153076171875
9.95899999999994,7.021319580078125,-0.6413604736328126,6.121859741210938
9.96899999999993,5.21881103515625,-0.1392181396484375,4.4322509765625
9.97899999999992,4.173104858398438,-0.438739013671875,4.565338134765625
9.988999999999912,10.568765258789064,-0.5148529052734375,6.710882568359375
9.998999999999905,14.25303649902344,-0.6473419189453126,6.9635986328125
10.008999999999894,9.6050048828125,0.134881591796875,4.906579589843751
10.019999999999976,5.346514892578125,0.5456573486328126,7.857376098632813
10.029999999999966,4.680780029296876,-0.0883758544921875,12.370227050781253
10.039999999999957,4.368099975585938,0.24464111328125,8.275778198242188
10.049999999999947,5.613287353515625,2.740997314453125,1.8777252197265624
10.059999999999938,9.6313232421875,1.574017333984375,3.941622924804688
10.06999999999993,11.439962768554688,-2.165731811523438,7.805337524414063
10.07999999999992,7.233511352539063,0.8051025390625001,7.0658813476562505
10.089999999999913,5.725289916992188,0.333465576171875,6.91514892578125
10.099999999999902,8.056707763671875,-1.59644775390625,9.473562622070313
10.109999999999893,9.3705322265625,-0.9462646484375,7.526751708984375
10.119999999999996,8.107998657226563,-0.0647491455078125,2.0882720947265625
10.129999999999988,8.360415649414064,-0.2380615234375,1.5432128906250002
10.13999999999998,8.035025024414063,-0.8970672607421876,4.598385620117188
10.14999999999997,6.147579956054688,-0.4882354736328125,6.445755004882813
10.160999999999936,5.160940551757813,0.3923828125,5.513845825195313
10.170999999999928,7.338784790039063,1.5705780029296876,8.438174438476564
10.18099999999992,10.173690795898438,0.6074157714843751,8.254992675781251
10.19099999999991,9.23834228515625,0.322998046875,6.046643066406251
10.2009999999999,6.597235107421875,0.8557952880859375,5.698223876953126
10.210999999999892,5.334103393554688,0.4415802001953125,8.7412841796875
10.220999999999997,4.832708740234375,-0.2926422119140625,9.081329345703123
10.230999999999987,5.473471069335938,0.032000732421875,6.427362060546876
10.240999999999978,8.407818603515626,0.204266357421875,3.940127563476562
10.25099999999997,10.404873657226563,-0.3790740966796875,5.034732055664063
10.26099999999996,9.745269775390623,-0.6811370849609375,5.132528686523438
10.270999999999953,7.294522094726563,-0.4127197265625,6.350051879882813
10.280999999999942,5.980099487304688,-0.3877471923828125,7.940219116210938
10.290999999999933,6.5873657226562505,-0.5682373046875,7.203005981445313
10.300999999999924,6.355734252929688,-0.3313720703125,4.69005126953125
10.311999999999893,4.305294799804688,-0.4083831787109375,2.8220458984375
10.321999999999996,7.405477905273438,0.3204559326171875,5.1492767333984375
10.331999999999988,13.2441162109375,0.5728729248046875,8.193383789062501
10.341999999999976,11.516375732421876,0.2486785888671875,6.581683349609375
10.351999999999968,6.5114013671875,0.5854339599609375,6.53831787109375
10.36199999999996,4.320996093750001,0.0387298583984375,11.94778747558594
10.37199999999995,5.06448974609375,0.172564697265625,11.92386169433594
10.38199999999994,5.4408721923828125,0.9805084228515626,3.574362182617188
10.391999999999932,7.914498901367188,2.4609161376953126,0.6510803222656251
10.401999999999925,10.669253540039064,-0.414813232421875,6.18900146484375
10.411999999999914,9.003720092773438,-1.367059326171875,7.3589721679687505
10.421999999999905,6.472372436523438,1.1026794433593752,5.871685791015626
10.431999999999896,6.8131652832031255,0.2432952880859375,9.117666625976565
10.442999999999977,9.15101318359375,-0.966900634765625,9.643585205078123
10.451999999999993,9.3729248046875,-0.09989013671875,4.141104125976563
10.462999999999958,8.551373291015626,0.3138763427734375,1.036135864257813
10.47299999999995,8.177682495117189,0.268267822265625,3.42198486328125
10.48299999999994,5.8677978515625,-0.36845703125,6.485531616210938
10.492999999999933,4.967739868164063,-0.5671905517578125,4.772744750976563
10.502999999999922,5.304046630859375,-0.495263671875,7.605856323242188
10.512999999999913,9.515432739257813,-0.2406036376953125,8.527447509765626
10.522999999999904,10.397845458984376,-0.7928405761718751,6.991711425781251
10.532999999999896,7.910461425781251,-0.040374755859375,6.106607055664063
10.543,5.736654663085938,0.932806396484375,8.161532592773439
10.55299999999999,5.2146240234375005,0.3147735595703125,9.342269897460938
10.56299999999998,5.3175048828125,0.2456878662109375,7.208538818359376
10.572999999999972,7.223193359375,0.6802398681640626,3.631036376953125
10.582999999999965,9.522760009765626,0.4382904052734375,3.8178070068359378
10.59399999999993,10.166064453125,0.193798828125,4.9083740234375
10.602999999999945,8.057604980468751,0.5295074462890625,6.271994018554688
10.613999999999912,6.255096435546876,0.323895263671875,8.07196044921875
10.623999999999905,6.426614379882813,-0.7357177734375,7.854684448242188
10.633999999999894,6.602618408203125,-0.7895507812500001,6.070269775390625
10.643999999999998,4.926617431640626,0.218621826171875,3.70849609375
10.65399999999999,4.530645751953125,-0.538031005859375,3.524566650390625
10.66399999999998,11.545086669921876,-0.6883148193359375,6.546691894531251
10.673999999999973,15.010437011718752,-0.203070068359375,8.144335937500001
10.683999999999962,9.596331787109376,0.154620361328125,6.1046630859375
10.693999999999953,4.729379272460938,0.282623291015625,8.003323364257813
10.703999999999944,3.754254150390625,-0.2447906494140625,12.453668212890626
10.713999999999936,4.174600219726563,0.363671875,9.305035400390626
10.723999999999926,5.67041015625,2.3508575439453128,1.8532012939453129
10.733999999999916,9.645977783203126,2.0420654296875003,0.6102569580078125
10.744999999999996,11.664416503906253,-2.056869506835937,7.441665649414063
10.754999999999988,7.482937622070313,-0.22669677734375,9.928451538085938
10.76499999999998,6.000735473632813,0.4472625732421875,5.83250732421875
10.77499999999997,8.014688110351564,-0.6540710449218751,9.864450073242187
10.78499999999996,9.63311767578125,-1.8075927734375,8.297311401367189
10.794999999999952,8.386434936523438,-0.150732421875,1.5393249511718752
10.804999999999945,7.71187744140625,-0.0997406005859375,0.9286193847656252
10.814999999999934,7.761822509765626,-0.4699920654296875,4.195535278320313
10.824999999999925,5.334851074218751,-0.438140869140625,7.284652709960938
10.834999999999916,5.898751831054688,0.3434844970703125,4.458120727539063
10.844999999999906,7.094143676757813,1.2030181884765625,8.765658569335939
10.854999999999896,10.816696166992188,1.1774475097656252,8.729022216796876
10.865000000000002,9.178079223632814,0.0276641845703125,6.581085205078126
10.874999999999991,6.390576171875001,0.8800201416015626,5.8924713134765625
10.884999999999984,5.334103393554688,0.8025604248046876,8.4123046875
10.894999999999976,5.0042266845703125,-0.2726043701171875,8.596981811523438
10.905999999999942,5.727383422851563,-0.2953338623046875,5.320794677734376
10.915999999999933,8.410211181640626,0.1529754638671875,3.5932037353515627
10.925999999999924,10.2701416015625,-0.3050537109375,5.142098999023438
10.935999999999916,9.871627807617188,-0.986639404296875,5.405133056640626
10.945999999999906,7.065283203125,-0.3240447998046875,7.303643798828125
10.955999999999896,6.347958374023438,-0.1224700927734375,7.931097412109375
10.966,6.516336059570313,-0.8516082763671876,7.355831909179688
10.975999999999992,6.717312622070313,-0.198284912109375,5.173352050781251
10.985999999999985,5.402142333984376,0.3847564697265625,3.4776123046875003
10.995999999999974,3.986334228515626,-0.75784912109375,3.560006713867188
11.005999999999965,9.648220825195311,0.8936279296875,6.331060791015625
11.015999999999956,13.959347534179688,0.72315673828125,8.858670043945313
11.025999999999948,11.028738403320313,0.5145538330078125,6.194085693359376
11.036999999999914,6.300405883789063,0.8728424072265626,7.539611816406251
11.046999999999905,4.561300659179688,-0.3787750244140625,13.213311767578126
11.056999999999896,4.431802368164063,-0.0773101806640625,10.32681579589844
11.067,5.044750976562501,1.1481384277343751,2.123861694335938
11.076999999999993,8.495596313476563,1.7132354736328126,0.8665618896484376
11.086999999999982,11.311212158203126,-1.6994781494140627,6.716864013671875
11.096999999999973,8.674142456054689,-0.5634521484375,6.097634887695313
11.106999999999964,6.091802978515625,0.8873474121093751,6.141000366210938
11.116999999999956,7.82193603515625,0.3578399658203125,9.1264892578125
11.126999999999946,8.532980346679688,-1.12630615234375,10.874566650390626
11.136999999999937,8.8489501953125,0.13697509765625,3.5704742431640626
11.146999999999927,8.596533203125,0.469842529296875,0.9194976806640626
11.156999999999918,7.748364257812501,0.6944458007812501,4.231573486328125
11.168,5.593548583984376,-0.6178833007812501,5.820095825195313
11.17799999999999,4.227236938476563,-0.390887451171875,5.52745361328125
11.18799999999998,6.526504516601563,-0.5283111572265625,7.502825927734375
11.197999999999972,10.784695434570311,-0.1658355712890625,7.925564575195313
11.207999999999965,10.024453735351564,-1.0250701904296875,6.944009399414063
11.217999999999954,7.181622314453126,0.30684814453125,6.099130249023438
11.227999999999945,5.6763916015625,0.7274932861328125,8.791528320312501
11.237999999999936,5.0117034912109375,0.088525390625,9.248660278320314
11.247999999999928,5.4646484375,0.2905487060546875,6.206646728515626
11.257999999999916,7.635015869140625,0.5384796142578125,3.1416046142578127
11.267999999999908,9.96448974609375,0.3099884033203125,4.0557189941406255
11.2779999999999,9.691735839843751,0.267669677734375,5.545697021484376
11.288000000000004,7.673745727539063,0.7117919921875,6.486578369140625
11.297999999999996,6.492858886718751,0.31522216796875,7.797113037109375
11.307999999999986,6.174197387695313,-0.8848052978515626,7.669558715820313
11.317999999999977,5.38150634765625,-0.2914459228515625,5.278326416015625
11.327999999999967,3.371142578125,0.0151031494140625,2.8945709228515626
11.341,8.519522094726563,-0.8154205322265625,4.622610473632813
11.348999999999926,16.030422973632813,-0.3500640869140625,7.990911865234375
11.358999999999916,12.354675292968752,-0.3437835693359375,7.0045715332031255
11.368999999999907,5.768804931640625,0.249127197265625,6.405828857421875
11.378999999999898,3.02720947265625,-0.17645263671875,11.9234130859375
11.389000000000005,3.4705841064453127,-0.1161895751953125,13.614068603515626
11.398999999999994,4.113888549804688,2.1310394287109378,3.9220336914062495
11.408999999999985,8.72034912109375,3.5558197021484377,0.3351104736328125
11.418999999999976,12.41972351074219,-1.9466613769531247,0.13099365234375
11.428999999999968,9.643136596679687,-0.8200561523437501,9.786691284179687
11.44099999999991,5.190847778320313,0.0671417236328125,9.469076538085938
11.448999999999948,7.598828125000001,0.104974365234375,6.852792358398438
11.45899999999994,8.677880859375001,-1.2804779052734376,12.136502075195311
11.469999999999906,9.36395263671875,-1.0513885498046875,4.134674072265625
11.479999999999896,7.445852661132813,-0.1179840087890625,-0.090618896484375
11.490000000000002,7.975360107421875,-0.268865966796875,2.390036010742188
11.499999999999991,6.002828979492188,-0.7669708251953126,7.245175170898438
11.509999999999984,5.740243530273438,0.0207855224609375,5.128341674804688
11.519999999999976,6.376968383789063,0.8851043701171876,6.5903564453125005
11.529999999999966,9.988864135742189,1.6300933837890623,8.994000244140626
11.540999999999933,10.189541625976563,0.3210540771484375,7.957266235351563
11.549999999999947,7.250259399414063,0.49825439453125,5.272494506835938
11.559999999999938,5.389431762695313,0.87149658203125,6.852792358398438
11.56999999999993,5.169912719726563,-0.08194580078125,9.3561767578125
11.57999999999992,5.204605102539063,-0.3551483154296875,7.440917968750001
11.589999999999913,6.957318115234376,-0.1583587646484375,3.8550415039062496
11.599999999999902,9.569564819335938,-0.0019439697265625,4.414306640625
11.610999999999985,10.67568359375,-0.8557952880859375,5.6083526611328125
11.620999999999974,8.165570068359376,-0.6763519287109375,6.942214965820313
11.630999999999965,6.522915649414063,0.346923828125,6.928607177734375
11.640999999999956,6.474465942382813,-0.6166870117187501,7.5728088378906255
11.650999999999948,6.54190673828125,-0.602630615234375,6.425717163085938
11.660999999999936,6.229675292968751,0.470440673828125,4.127346801757813
11.670999999999928,3.5869232177734376,-0.3644195556640625,2.9291137695312504
11.68099999999992,7.109695434570313,0.2397064208984375,5.031890869140625
11.69099999999991,13.428643798828126,0.9052917480468752,8.843865966796876
11.7009999999999,12.562829589843751,0.3730926513671875,7.52525634765625
11.710999999999892,8.146578979492189,1.1331848144531251,5.407974243164063
11.720999999999997,4.635171508789063,-0.0294586181640625,11.605349731445314
11.730999999999987,4.415951538085938,-0.4868896484375,12.728964233398438
11.741999999999956,4.37841796875,0.7662231445312501,5.215969848632813
11.75099999999997,6.589907836914063,0.1987335205078125,0.064599609375
11.761999999999937,11.084814453125,-0.7046142578125001,2.0396728515625
11.771999999999927,10.640093994140626,-0.3883453369140625,8.119064331054688
11.781999999999918,6.4874755859375,0.5423675537109376,6.497494506835938
11.79199999999991,6.709088134765626,0.7400543212890626,7.688549804687501
11.8019999999999,8.528195190429688,-0.2815765380859375,11.126834106445314
11.811999999999893,8.644982910156251,-0.2669219970703125,7.457666015625
11.821999999999996,8.269946289062501,1.5598114013671875,0.954937744140625
11.831999999999988,8.059100341796876,0.8209533691406251,2.8727386474609378
11.841999999999976,6.818249511718751,-1.3696014404296877,5.802749633789063
11.851999999999968,4.895513916015625,-0.2555572509765625,5.216567993164063
11.86199999999996,5.504275512695313,-0.5378814697265626,6.302349853515626
11.87199999999995,9.485675048828126,-0.0076263427734375,7.540658569335938
11.88199999999994,10.218850708007814,-0.91695556640625,7.9825378417968755
11.891999999999932,8.23345947265625,-0.8420379638671875,6.247021484375001
11.9029999999999,6.0544189453125,0.7333251953125001,7.325326538085938
11.913000000000004,5.692391967773438,0.521881103515625,9.1970703125
11.922999999999996,5.194735717773438,-0.1326385498046875,7.465292358398438
11.932999999999986,6.381753540039063,0.2582489013671875,4.258489990234375
11.942999999999977,8.709133911132813,0.655865478515625,3.8628173828125
11.952999999999967,10.4854736328125,0.4170562744140625,4.5047760009765625
11.962999999999958,8.668161010742189,0.3913360595703125,6.508709716796876
11.97299999999995,6.95462646484375,0.9304138183593752,7.412356567382813
11.98299999999994,6.09569091796875,-0.3811676025390625,7.558901977539063
11.992999999999933,5.517135620117188,-0.368157958984375,6.55386962890625
12.002999999999922,3.348263549804688,0.1855743408203125,4.433895874023438
12.012999999999913,6.949990844726563,-0.3207550048828125,4.335501098632813
12.022999999999904,14.877947998046876,-0.5088714599609375,6.56583251953125
12.032999999999896,13.082019042968753,-0.6799407958984376,6.250161743164063
12.043999999999976,6.781912231445313,0.5001983642578125,5.9507904052734375
12.053999999999968,3.335104370117188,-0.3662139892578125,10.331002807617187
12.063999999999956,4.285556030273438,-0.4007568359375,12.590942382812502
12.073999999999948,4.319949340820313,0.5926116943359375,6.132028198242188
12.08399999999994,8.132522583007812,0.8916839599609375,-0.0997406005859375
12.09399999999993,11.408410644531251,1.7142822265625002,3.9459594726562495
12.10399999999992,10.264608764648438,-1.891482543945313,9.929348754882811
12.113999999999912,5.429058837890626,0.4415802001953125,6.3241821289062505
12.123999999999905,6.517532348632813,0.5046844482421875,7.567575073242188
12.133999999999894,8.748461914062501,-1.2378601074218751,10.26954345703125
12.143999999999998,9.42017822265625,-0.49466552734375,4.625302124023438
12.15399999999999,8.067623901367188,0.057421875,0.6522766113281251
12.16399999999998,8.420379638671875,0.460870361328125,3.099136352539063
12.173999999999973,6.646133422851563,-1.0666412353515626,6.867745971679688
12.183999999999962,6.013595581054688,0.0179443359375,5.294476318359376
12.19499999999993,5.58128662109375,0.6377716064453125,6.917391967773438
12.20499999999992,9.030636596679688,1.079052734375,8.284002685546875
12.214999999999913,9.6432861328125,-0.12620849609375,7.563537597656251
12.224999999999902,7.922274780273438,0.4317108154296875,4.982394409179688
12.234999999999893,6.200515747070313,0.5387786865234375,6.867596435546876
12.244999999999996,5.305093383789063,0.2495758056640625,9.252548217773438
12.254999999999988,5.511004638671875,-0.031103515625,7.496096801757813
12.26499999999998,6.739144897460938,-0.1954437255859375,4.614535522460938
12.27499999999997,9.066226196289064,0.0937591552734375,4.976263427734375
12.28499999999996,10.105352783203124,-0.2355194091796875,5.3526458740234375
12.294999999999952,8.739041137695313,-0.7751953125000001,5.843722534179688
12.304999999999945,6.680377197265625,0.1616485595703125,7.114331054687501
12.314999999999934,6.370687866210938,-0.2199676513671875,7.378561401367188
12.324999999999925,6.4515869140625,-0.6231170654296876,6.289041137695313
12.334999999999916,6.0304931640625,0.0369354248046875,4.525262451171876
12.345999999999997,3.5257629394531254,-0.304754638671875,3.668719482421875
12.355999999999987,8.072857666015626,0.120526123046875,5.488275146484376
12.365999999999978,14.324514770507813,0.5905181884765626,8.385836791992189
12.37599999999997,12.258972167968752,0.459075927734375,6.793276977539063
12.38599999999996,6.836193847656251,0.8791229248046876,5.7279815673828125
12.395999999999953,3.942819213867188,-0.191107177734375,11.692977905273438
12.405999999999942,4.126150512695313,-0.3955230712890625,12.048275756835938
12.415999999999933,4.7320709228515625,0.8746368408203126,4.931552124023438
12.425999999999924,7.831207275390626,0.8735900878906251,-0.123516845703125
12.435999999999916,11.98367614746094,0.6956420898437501,3.2263916015625003
12.445999999999906,10.102362060546875,-1.7805267333984376,8.573504638671876
12.457999999999965,5.694485473632813,0.4294677734375,6.609048461914063
12.466,7.065432739257813,0.51380615234375,7.556210327148438
12.476999999999968,8.060296630859376,-0.7095489501953125,11.2295654296875
12.48699999999996,8.800201416015625,-0.173162841796875,4.427166748046876
12.49699999999995,8.091549682617188,1.0494445800781251,0.9126190185546876
12.50699999999994,8.238244628906251,1.2884033203125,4.013699340820313
12.516999999999932,6.967935180664063,-1.2110931396484377,6.359921264648438
12.526999999999925,4.845419311523438,-0.197686767578125,5.278924560546876
12.536999999999914,6.03587646484375,-0.563751220703125,6.78714599609375
12.546999999999905,9.558349609375,-0.5108154296875,8.691937255859376
12.557999999999986,9.621902465820312,-0.5956024169921875,7.4157958984375005
12.567,7.745822143554688,-0.1182830810546875,4.82822265625
12.576999999999993,6.0101562500000005,0.0049346923828125,7.667764282226563
12.586999999999982,5.621063232421875,0.5731719970703125,9.332101440429687
12.596999999999973,5.654708862304688,0.4684967041015625,6.605908203125001
12.606999999999964,6.884194946289063,0.093011474609375,3.916500854492188
12.616999999999956,9.29217529296875,0.4807586669921875,4.7081451416015625
12.626999999999946,9.976004028320313,0.38101806640625,5.4244232177734375
12.637999999999913,8.395706176757812,0.401055908203125,6.321939086914063
12.647999999999904,6.698620605468751,0.6838287353515625,7.497293090820313
12.657999999999896,6.465493774414063,-0.3739898681640625,7.890423583984376
12.668,6.033932495117188,-0.6936981201171876,6.14952392578125
12.67799999999999,5.06927490234375,-0.07237548828125,4.392324829101563
12.68799999999998,3.769805908203125,-0.31761474609375,3.964501953125
12.697999999999972,10.315151977539063,-0.7672698974609375,6.286199951171875
12.707999999999965,15.223526000976564,-0.6436035156250001,7.850347900390625
12.717999999999954,11.132067871093753,0.1087127685546875,5.09080810546875
12.727999999999945,5.8677978515625,0.5612091064453125,6.976458740234375
12.737999999999936,3.569577026367188,-0.4673004150390625,12.254486083984377
12.747999999999928,3.870294189453125,0.2528656005859375,10.077838134765626
12.758999999999894,4.720257568359376,1.265374755859375,2.9220855712890628
12.768999999999998,9.26331481933594,3.309683227539063,0.6969879150390625
12.77899999999999,11.997433471679688,-1.7894989013671876,7.372879028320313
12.78899999999998,8.209234619140625,-0.4056915283203125,9.528143310546875
12.798999999999973,6.097933959960938,0.9790130615234376,5.542108154296876
12.808999999999962,7.395758056640625,-0.4629638671875,9.935031127929689
12.818999999999953,9.142041015625,-1.36317138671875,8.78076171875
12.828999999999944,8.400042724609376,-0.0130096435546875,2.0320465087890627
12.838999999999936,8.040707397460938,0.4478607177734375,0.8837585449218751
12.848999999999926,8.202804565429688,-0.6329864501953125,3.8249847412109377
12.858999999999916,6.098233032226563,-1.1400634765625002,6.620861816406251
12.868999999999907,5.591305541992188,-0.0527862548828125,5.094696044921875
12.878999999999898,6.665423583984375,0.8269348144531251,8.533129882812501
12.889000000000005,9.915142822265626,0.6841278076171875,9.08985290527344
12.898999999999994,9.267352294921876,-0.1571624755859375,6.554916381835938
12.908999999999985,7.185211181640626,0.774298095703125,5.378964233398438
12.918999999999976,5.517135620117188,0.5625549316406251,8.269647216796876
12.929999999999945,5.0964904785156255,0.204266357421875,8.67130126953125
12.939999999999934,5.459115600585938,0.216827392578125,5.881256103515625
12.949999999999925,7.598678588867188,0.1757049560546875,4.3981567382812505
12.959999999999916,10.014285278320314,0.1736114501953125,4.936785888671875
12.969999999999906,9.99903259277344,-0.7538116455078125,5.240493774414063
12.979999999999896,7.802496337890625,-0.4278228759765625,6.954925537109376
12.990000000000002,6.449792480468751,-0.11424560546875,7.754196166992188
12.999999999999991,6.329714965820313,-0.729736328125,6.800903320312501
13.009999999999984,5.5107055664062505,-0.8925811767578126,5.173052978515625
13.019999999999976,3.756198120117188,-0.63822021484375,3.909622192382813
13.029999999999966,8.133569335937501,0.3911865234375,5.00108642578125
13.039999999999957,14.1365478515625,0.2929412841796875,7.1490234375
13.049999999999947,11.326763916015626,-0.0638519287109375,6.136215209960938
13.060999999999916,6.433044433593751,0.8420379638671875,6.572262573242188
13.070999999999906,3.919940185546875,-0.0174957275390625,11.577386474609376
13.080999999999896,5.009609985351563,0.17764892578125,11.861056518554689
13.091,5.1129394531250005,1.1400634765625002,3.9890258789062494
13.100999999999992,8.418136596679688,3.6283447265625,1.3649658203125
13.110999999999985,11.34964294433594,-1.3253387451171876,6.234161376953126
13.120999999999974,9.30518493652344,-0.72315673828125,7.223193359375
13.130999999999965,5.699420166015625,1.18851318359375,6.065335083007813
13.140999999999956,6.644488525390625,0.153424072265625,8.55047607421875
13.150999999999948,8.811715698242189,-1.4760711669921875,9.243875122070314
13.160999999999936,9.02420654296875,0.1734619140625,4.185366821289063
13.170999999999928,8.426809692382813,0.511114501953125,1.3000671386718752
13.181999999999896,8.541952514648438,0.4107757568359375,3.862966918945313
13.19099999999991,6.887335205078125,-1.0367340087890626,6.525607299804688
13.2009999999999,4.755099487304688,-0.4960113525390625,6.136663818359375
13.211999999999982,6.053073120117188,-0.4373931884765625,6.370986938476563
13.221999999999973,9.204248046875,-0.5304046630859376,8.320489501953126
13.231999999999964,9.395953369140626,-0.5001983642578125,7.487423706054688
13.241999999999956,7.53243408203125,0.2106964111328125,4.97716064453125
13.251999999999946,6.108551025390625,0.3840087890625,7.353140258789063
13.261999999999937,5.821441650390625,0.3327178955078125,9.672894287109376
13.271999999999927,5.786898803710938,0.7261474609375,7.314260864257813
13.281999999999918,6.989468383789063,0.5882751464843751,3.829321289062501
13.29199999999991,9.3418212890625,0.30804443359375,4.322940063476563
13.3019999999999,9.813308715820312,0.1610504150390625,5.6751953125000005
13.311999999999893,8.001229858398439,0.4038970947265625,6.286648559570313
13.321999999999996,6.695480346679688,0.174658203125,7.0832275390625
13.331999999999988,6.6337219238281255,-0.5595642089843751,7.873825073242188
13.341999999999976,6.73570556640625,-0.5277130126953126,6.412109375000001
13.351999999999968,6.0304931640625,-0.2117431640625,4.7126312255859375
13.362999999999936,3.581988525390625,-0.050543212890625,3.960165405273438
13.372999999999928,6.615029907226563,-0.74468994140625,5.630633544921875
13.382999999999916,14.072695922851564,-0.5794525146484375,8.00616455078125
13.392999999999908,13.1101318359375,0.0683380126953125,6.081784057617188
13.4029999999999,8.440118408203126,0.9784149169921876,5.1787353515625005
13.413000000000004,4.374978637695313,0.0275146484375,10.45242614746094
13.422999999999996,4.058709716796876,-0.2459869384765625,12.0023681640625
13.432999999999986,3.4850891113281253,1.020135498046875,5.216567993164063
13.442999999999977,7.300354003906251,4.504476928710938,1.634280395507813
13.452999999999967,11.022158813476564,-1.3754333496093751,4.127197265625
13.462999999999958,10.47650146484375,-1.38291015625,9.400289916992188
13.47299999999995,6.448745727539063,0.2883056640625,5.365505981445313
13.48299999999994,6.862213134765626,-0.61907958984375,7.844515991210938
13.492999999999933,8.389126586914063,-1.9142120361328123,10.664617919921875
13.503999999999898,8.513092041015625,-0.9607696533203126,5.537921142578125
13.514000000000005,8.118914794921876,0.0634033203125,0.4646087646484375
13.523999999999994,8.826519775390626,-0.2666229248046875,2.0528320312500004
13.533999999999985,7.053768920898438,-0.3072967529296875,6.727182006835938
13.543999999999976,5.5331359863281255,-0.02811279296875,4.952038574218751
13.553999999999968,5.681326293945313,1.2583465576171875,6.791482543945313
13.563999999999956,8.519671630859376,1.9424743652343752,9.3011474609375
13.573999999999948,9.80299072265625,0.3084930419921875,8.289834594726564
13.58399999999994,7.956967163085938,0.8557952880859375,5.421582031250001
13.59399999999993,6.4372314453125,0.4409820556640625,6.551028442382813
13.60399999999992,5.554071044921876,-0.0043365478515625,9.041104125976563
13.613999999999912,5.301803588867188,-0.3541015625,7.472470092773438
13.623999999999905,6.554019165039063,-0.32359619140625,4.057363891601563
13.633999999999894,9.148770141601563,-0.3026611328125,4.282864379882813
13.643999999999998,10.14931640625,-1.0364349365234375,5.392572021484376
13.654999999999966,8.5857666015625,-0.7579986572265626,6.408520507812501
13.664999999999957,6.826473999023438,-0.2286407470703125,7.2393432617187505
13.674999999999947,6.401940917968751,-0.1161895751953125,7.556808471679688
13.684999999999938,6.206048583984376,-0.2672210693359375,6.547140502929688
13.69499999999993,4.5171875,-0.1909576416015625,4.509411621093751
13.70499999999992,4.6049652099609375,0.4777679443359375,3.3283752441406254
13.714999999999913,11.570657348632814,1.1689239501953126,6.071017456054688
13.724999999999902,14.142230224609376,0.16748046875,8.102316284179688
13.734999999999893,9.638351440429688,1.2197662353515626,5.359524536132813
13.744999999999996,5.100527954101563,1.0594635009765625,7.902386474609376
13.754999999999988,4.518533325195313,-0.5459564208984375,13.625433349609375
13.765999999999956,4.438232421875,-0.05443115234375,9.642538452148438
13.775999999999948,5.6651763916015625,0.471038818359375,1.814620971679688
13.785999999999936,9.617266845703126,-0.5223297119140625,0.5938079833984375
13.795999999999928,11.75712890625,-1.108062744140625,7.975808715820313
13.80599999999992,7.272839355468751,-0.2053131103515625,6.704901123046875
13.81599999999991,5.6177734375,0.7068572998046876,5.914154052734375
13.8259999999999,8.298059082031251,-0.1170867919921875,8.556307983398439
13.835999999999892,9.0738525390625,-0.6012847900390625,9.754391479492188
13.845999999999997,8.527148437500001,0.5444610595703125,2.2832672119140627
13.855999999999987,7.9708740234375,2.5808441162109377,1.932904052734375
13.865999999999978,7.9445556640625,-0.8381500244140626,5.4408721923828125
13.87599999999997,6.024661254882813,-0.337054443359375,6.840829467773438
13.88599999999996,4.587319946289063,0.000897216796875,5.90189208984375
13.895999999999953,7.840478515625,0.07117919921875,6.103466796875001
13.905999999999942,9.746466064453124,-0.8732910156250001,8.912353515625
13.915999999999933,8.863006591796875,-0.820654296875,6.609945678710938
13.925999999999924,6.653161621093751,0.2887542724609375,5.189950561523438
13.935999999999916,6.020773315429688,0.0701324462890625,8.598776245117188
13.946999999999996,5.756393432617188,-0.212939453125,9.278268432617187
13.957999999999965,6.155953979492188,0.165087890625,5.303448486328126
13.966999999999976,7.80638427734375,0.35589599609375,3.385348510742188
13.976999999999968,9.950283813476563,0.2743988037109375,4.895364379882813
13.98699999999996,9.07205810546875,0.52576904296875,6.3654541015625
13.99699999999995,7.271493530273438,0.5330963134765625,6.456372070312501
14.00699999999994,6.6166748046875,0.4188507080078125,7.390524291992188
14.016999999999932,6.607852172851563,-0.07357177734375,7.386785888671875
14.026999999999925,5.154660034179688,-0.25181884765625,5.620465087890626
14.036999999999914,3.373983764648438,0.1016845703125,4.016241455078125
14.046999999999905,8.941513061523438,-0.1027313232421875,5.980548095703125
14.057999999999986,14.833685302734375,-0.7164276123046875,7.413104248046875
14.067999999999977,11.396597290039065,-0.3049041748046875,4.94366455078125
14.077999999999967,6.15550537109375,0.4125701904296875,6.522915649414063
14.087999999999958,4.039569091796875,-0.4024017333984375,11.823074340820312
14.09799999999995,4.510906982421876,-0.145648193359375,10.181765747070314
14.10799999999994,5.021871948242188,0.7768402099609376,2.6046203613281254
14.117999999999933,8.609393310546876,0.6449493408203125,2.559161376953125
14.127999999999922,11.537460327148438,-0.1227691650390625,7.242633056640625
14.137999999999913,7.971920776367188,-0.6479400634765625,8.076446533203125
14.147999999999904,6.15311279296875,1.27225341796875,6.210684204101563
14.157999999999896,7.172500610351563,-0.5274139404296876,9.080282592773438
14.168,9.385186767578126,-0.8439819335937501,8.191140747070314
14.17799999999999,8.396902465820313,0.1437042236328125,3.3641143798828126
14.18799999999998,7.996444702148438,0.6270050048828125,1.61080322265625
14.197999999999972,8.305834960937501,-0.451898193359375,3.6966827392578128
14.207999999999965,6.755294799804688,-0.6293975830078126,6.379660034179688
14.217999999999954,5.187408447265625,0.1224700927734375,6.497644042968751
14.22899999999992,6.90079345703125,1.5034362792968752,6.796267700195313
14.238999999999912,9.654202270507811,0.0490478515625,8.20654296875
14.248999999999905,9.19647216796875,0.030804443359375,6.9037841796875
14.258999999999894,6.925765991210938,0.3820648193359375,5.699719238281251
14.268999999999998,5.579342651367188,0.0610107421875,7.776327514648438
14.27899999999999,5.598184204101563,-0.2787353515625,8.864053344726564
14.28899999999998,5.619418334960938,-0.0468048095703125,6.765164184570313
14.298999999999973,7.585369873046876,0.360980224609375,4.142300415039063
14.308999999999962,9.666912841796876,-0.2056121826171875,4.747772216796875
14.318999999999953,9.583172607421876,-0.3156707763671875,5.818301391601563
14.328999999999944,7.66103515625,0.076263427734375,6.364108276367188
14.338999999999936,6.6322265625000005,-0.282025146484375,7.343569946289063
14.348999999999926,6.6202636718750005,-0.1933502197265625,6.940869140625001
14.359999999999893,6.12320556640625,-0.4880859375,5.298065185546875
14.369999999999996,3.976016235351562,-0.7390075683593751,3.9806518554687504
14.379999999999988,7.151266479492188,0.162396240234375,5.287747192382813
14.38999999999998,13.262210083007814,0.5662933349609376,7.347158813476563
14.39999999999997,12.285440063476564,-0.463861083984375,6.3167053222656255
14.40999999999996,6.696527099609376,-0.04725341796875,6.301452636718751
14.419999999999952,3.944464111328125,0.07177734375,10.515231323242189
14.429999999999945,4.7899414062500005,0.307745361328125,11.689089965820314
14.439999999999934,5.418740844726563,1.5931579589843752,5.0760040283203125
14.449999999999925,8.033828735351562,2.048944091796875,0.6554168701171875
14.459999999999916,10.857369995117187,-0.5082733154296876,5.6931396484375005
14.469999999999906,9.5284423828125,-0.6762023925781251,8.097830200195313
14.479999999999896,6.2003662109375,2.0069244384765628,6.914700317382813
14.490000000000002,6.526654052734376,0.198284912109375,8.220300292968751
14.499999999999991,8.655749511718751,-1.102081298828125,8.530587768554689
14.51099999999996,8.9661865234375,0.210546875,4.8168579101562505
14.520999999999953,8.208636474609376,1.2676177978515626,1.802059936523437
14.530999999999942,8.122802734375,-0.2941375732421875,3.642251586914063
14.540999999999933,6.728826904296875,-0.67291259765625,6.616824340820313
14.550999999999924,5.639456176757813,-1.024172973632813,6.763519287109376
14.560999999999916,6.701910400390625,-0.5263671875,6.043054199218751
14.570999999999906,9.0439453125,-0.1589569091796875,7.0138427734375
14.580999999999896,9.101217651367188,-1.1568115234375,7.203604125976563
14.591,7.437329101562501,-0.3096893310546875,6.115130615234375
14.600999999999992,5.82353515625,0.4347015380859375,6.82841796875
14.610999999999985,5.818450927734375,0.263482666015625,8.163775634765626
14.620999999999974,6.176889038085938,0.27454833984375,7.854534912109376
14.630999999999965,7.037170410156251,1.0466033935546877,5.106658935546875
14.640999999999956,8.712872314453126,0.6956420898437501,4.436737060546875
14.650999999999948,9.407318115234377,0.186322021484375,5.993408203125
14.661999999999914,8.287591552734376,0.9359466552734376,6.727481079101563
14.671999999999905,6.814810180664063,0.2510711669921875,6.700863647460938
14.681999999999896,6.80150146484375,-0.514105224609375,6.705648803710938
14.692,6.7787719726562505,-0.3360076904296875,6.371585083007813
14.701999999999993,6.0479888916015625,-0.185723876953125,5.134173583984375
14.711999999999982,3.457723999023438,-0.3058013916015625,4.002783203125
14.721999999999973,6.556411743164063,-0.9520965576171876,5.9587158203125
14.731999999999964,14.173184204101563,-0.6471923828125,8.249459838867189
14.741999999999956,13.49952392578125,-0.4421783447265625,6.222348022460938
14.751999999999946,8.081979370117189,0.2875579833984375,5.29178466796875
14.761999999999937,4.074411010742188,0.0764129638671875,10.150363159179689
14.771999999999927,4.072317504882813,-0.10946044921875,11.56153564453125
14.781999999999918,3.60740966796875,1.3778259277343752,4.423727416992188
14.79199999999991,7.180725097656251,4.61588134765625,1.3878448486328123
14.80299999999999,10.9472412109375,-1.70889892578125,5.720205688476563
14.81299999999998,10.697366333007814,-0.9470123291015624,8.331106567382813
14.822999999999972,6.424072265625001,1.1086608886718752,6.728079223632813
14.832999999999965,6.453082275390625,-0.57421875,8.855679321289063
14.842999999999954,8.721694946289062,-1.713983154296875,9.89869384765625
14.852999999999945,8.666366577148438,-0.748876953125,5.100228881835938
14.862999999999936,7.909564208984375,-0.1015350341796875,0.70521240234375
14.872999999999928,8.410958862304689,-0.423187255859375,1.858135986328125
14.882999999999916,7.080984497070313,-1.0742675781250002,6.267208862304688
14.892999999999908,5.988772583007813,-0.3315216064453125,5.242437744140625
14.9029999999999,5.826077270507813,0.8363555908203125,6.973019409179688
14.913000000000004,8.793023681640626,1.8002655029296877,8.832650756835939
14.922999999999996,10.211074829101562,0.2755950927734375,8.050128173828126
14.932999999999986,7.826721191406251,1.05572509765625,5.83489990234375
14.942999999999977,5.883798217773438,0.8689544677734375,6.476858520507813
14.953999999999944,5.30255126953125,0.1224700927734375,8.784649658203126
14.963999999999936,5.072265625,-0.42528076171875,8.017678833007814
14.973999999999926,6.4886718750000005,0.2504730224609375,4.659097290039063
14.983999999999916,9.3035400390625,0.0381317138671875,4.0367279052734375
14.993999999999907,10.496090698242188,-1.0113128662109376,5.237054443359376
15.004999999999988,8.419482421875001,-0.5333953857421876,6.543551635742188
15.014000000000005,6.593347167968751,-0.605322265625,7.124798583984376
15.023999999999994,6.533084106445313,-0.7494750976562501,7.351345825195313
15.033999999999985,6.321640014648438,-0.46954345703125,6.17105712890625
15.043999999999976,3.725692749023438,-0.234771728515625,3.5517822265625
15.053999999999968,5.990866088867188,0.4771697998046875,4.09429931640625
15.063999999999956,13.022055053710938,1.00787353515625,7.302896118164063
15.0759999999999,12.731207275390624,0.40853271484375,6.799856567382813
15.084999999999916,7.896853637695313,0.8937774658203126,5.6692138671875005
15.094999999999906,4.371389770507813,-0.00418701171875,10.910604858398438
15.104999999999896,4.988674926757813,-0.145050048828125,13.155291748046876
15.115000000000002,4.8198486328125005,0.6808380126953125,5.613885498046876
15.124999999999991,7.446749877929688,0.5344421386718751,0.8034576416015625
15.134999999999984,10.594934082031251,0.7240539550781251,5.019329833984376
15.144999999999976,9.91663818359375,-1.238458251953125,7.025656127929688
15.154999999999966,5.873330688476563,0.3647186279296875,6.123504638671875
15.164999999999957,6.820193481445313,0.4532440185546875,7.492807006835938
15.175999999999924,8.652011108398439,-1.014752197265625,10.141241455078124
15.184999999999938,9.350942993164065,0.188116455078125,5.391824340820313
15.19499999999993,8.505316162109375,0.8133270263671876,1.4053405761718751
15.20499999999992,8.556756591796876,0.7307830810546876,3.380563354492188
15.214999999999913,6.589010620117188,-0.86671142578125,6.209487915039063
15.224999999999902,4.7450805664062505,-0.4649078369140625,6.337490844726563
15.234999999999893,5.140155029296875,-0.405242919921875,6.430801391601563
15.245999999999974,9.135162353515623,0.060113525390625,7.959808349609376
15.255999999999965,10.070062255859376,-0.236865234375,7.124649047851563
15.265999999999956,8.398397827148438,-0.3524566650390625,5.579641723632813
15.275999999999948,5.860919189453125,0.6537719726562501,7.464694213867188
15.285999999999936,5.607006835937501,0.1801910400390625,9.391317749023438
15.295999999999928,5.618072509765625,-0.05802001953125,7.766607666015625
15.30599999999992,7.0090576171875005,0.430963134765625,4.18701171875
15.31599999999991,9.07923583984375,0.551190185546875,3.8276763916015626
15.3259999999999,10.0572021484375,0.157012939453125,4.592105102539063
15.335999999999892,8.144635009765626,0.2352203369140625,6.653909301757813
15.345999999999997,6.206497192382813,0.538330078125,7.586865234375001
15.355999999999987,6.660488891601563,-0.5825927734375,7.89610595703125
15.365999999999978,7.230520629882813,-0.7508209228515625,6.878063964843751
15.37599999999997,6.7937255859375005,0.389691162109375,4.989871215820313
15.386999999999937,4.5829833984375,0.337353515625,3.95732421875
15.396999999999927,4.280621337890626,-0.57421875,4.807736206054688
15.406999999999918,11.465084838867188,-0.2438934326171875,7.335195922851563
15.41699999999991,14.757421875,-0.2403045654296875,7.43553466796875
15.4269999999999,10.481884765625,0.411224365234375,4.9454589843750005
15.436999999999893,5.642596435546875,0.4200469970703125,7.97745361328125
15.446999999999996,3.666925048828125,-0.536236572265625,12.287982177734376
15.456999999999988,3.303701782226563,0.193499755859375,8.471221923828125
15.466999999999976,5.081387329101563,2.0583648681640625,2.4728790283203126
15.476999999999968,9.837384033203126,2.4639068603515626,0.9166564941406252
15.48699999999996,11.506057739257812,-2.5162445068359376,8.455670166015626
15.49699999999995,7.679876708984375,-0.8732910156250001,8.920578002929688
15.50699999999994,6.501980590820313,0.2989227294921875,6.168365478515626
15.516999999999932,7.95592041015625,-1.2707580566406251,10.44046325683594
15.5279999999999,9.12529296875,-1.161746215820313,7.956967163085938
15.538000000000004,8.088259887695314,0.0716278076171875,1.3474700927734375
15.547999999999996,8.397650146484375,-0.017047119140625,0.7034179687500001
15.557999999999986,7.838684082031251,-0.24942626953125,4.368249511718751
15.567999999999977,5.469732666015625,-0.02572021484375,7.0593017578125
15.577999999999967,5.99161376953125,0.4964599609375,4.489523315429688
15.587999999999958,7.523760986328125,1.5831390380859376,8.979046630859376
15.59799999999995,10.258627319335938,1.257598876953125,8.833697509765626
15.60799999999994,8.825173950195314,-0.0910675048828125,6.610394287109376
15.617999999999933,6.455624389648438,0.506927490234375,5.887985229492188
15.627999999999922,5.299261474609375,0.052935791015625,8.38538818359375
15.637999999999913,4.931103515625001,-0.5725738525390626,8.455221557617188
15.647999999999904,5.79422607421875,-0.50064697265625,5.5750061035156255
15.657999999999896,8.494549560546876,0.0527862548828125,3.9849884033203127
15.668999999999976,10.391415405273438,-0.2932403564453125,4.641302490234375
15.678999999999968,9.60321044921875,-0.7256988525390625,5.619119262695313
15.688999999999956,6.9635986328125,-0.0512908935546875,7.393066406250001
15.698999999999948,6.432595825195313,-0.1260589599609375,7.957565307617188
15.70899999999994,6.525457763671875,-0.3043060302734375,6.916345214843751
15.71899999999993,6.4482971191406255,0.1143951416015625,4.817755126953125
15.72899999999992,4.23187255859375,-0.03349609375,3.387591552734375
15.738999999999912,6.61607666015625,0.2420989990234375,4.507318115234376
15.748999999999905,12.97196044921875,0.9045440673828126,7.270147705078125
15.758999999999894,12.094033813476564,-0.413018798828125,7.514938354492188
15.768999999999998,7.409515380859376,0.3814666748046875,6.389978027343751
15.77899999999999,4.728631591796876,0.1481903076171875,10.713815307617187
15.78899999999998,4.954132080078125,-0.4175048828125,12.821527099609376
15.798999999999973,5.109051513671876,0.707305908203125,5.644390869140626
15.808999999999962,7.149920654296875,0.6850250244140625,0.32060546875
15.81999999999993,10.655496215820314,0.6376220703125001,4.534085083007813
15.82999999999992,10.006060791015626,-1.2073547363281252,6.573159790039063
15.839999999999913,6.152664184570313,0.9613677978515626,6.801052856445313
15.849999999999902,7.024758911132813,1.1955413818359375,7.333102416992188
15.859999999999893,8.453128051757814,-0.9996490478515626,10.283001708984376
15.869999999999996,9.098974609375,0.0243743896484375,5.7339630126953125
15.879999999999988,8.426809692382813,1.5782043457031252,1.6972351074218752
15.88999999999998,8.24542236328125,-0.088824462890625,3.4812011718750004
15.89999999999997,6.3080322265625,-0.6168365478515625,6.661386108398438
15.90999999999996,4.92691650390625,-0.66932373046875,6.361267089843751
15.919999999999952,5.5690246582031255,-0.911572265625,5.750112915039063
15.929999999999945,9.235650634765626,0.02930908203125,7.3021484375
15.939999999999934,9.91529235839844,-0.7029693603515625,7.405926513671876
15.949999999999925,8.249908447265625,-0.78775634765625,5.8558349609375
15.959999999999916,6.028698730468751,0.7753448486328126,7.045843505859375
15.970999999999997,5.722747802734375,0.216827392578125,9.2604736328125
15.980999999999987,5.66263427734375,0.2524169921875,7.861712646484375
15.990999999999978,6.8296142578125005,0.6975860595703125,4.404885864257813
16.00099999999997,8.574551391601563,0.5797515869140626,3.988876342773438
16.01099999999996,10.005911254882813,0.5938079833984375,4.8198486328125005
16.02099999999995,8.4350341796875,0.504833984375,6.526803588867188
16.030999999999942,6.71536865234375,0.6566131591796875,7.22977294921875
16.040999999999933,6.6471801757812505,-0.6234161376953126,7.687652587890626
16.050999999999924,6.678732299804688,-0.7726531982421876,6.970776367187501
16.060999999999915,6.350949096679688,0.060113525390625,5.475265502929688
16.070999999999906,3.765020751953125,-0.2160797119140625,4.224694824218751
16.080999999999896,5.18052978515625,-0.590667724609375,4.3126220703125
16.091,13.309463500976564,-0.448907470703125,7.153509521484375
16.10199999999997,14.503958129882813,-0.8312713623046876,7.234707641601563
16.11199999999996,9.738241577148438,0.6936981201171876,4.496701049804688
16.12199999999995,4.852447509765625,0.34931640625,8.631524658203126
16.13199999999994,3.6407562255859376,-0.7599426269531251,13.285986328125
16.141999999999932,3.303851318359375,0.5884246826171875,9.093890380859376
16.151999999999923,5.236157226562501,5.467788696289063,2.214031982421876
16.161999999999914,11.064776611328126,-0.3261383056640625,0.3098388671875
16.171999999999905,11.694024658203126,-2.0779541015625003,8.011697387695314
16.181999999999896,6.876119995117188,-0.25181884765625,8.279217529296876
16.192,6.482540893554688,0.49765625,6.113186645507813
16.20199999999999,7.7761779785156255,-1.0946044921875,11.471514892578126
16.211999999999982,9.297259521484376,-1.38291015625,7.571612548828125
16.221999999999973,8.173046875,0.1069183349609375,0.8282806396484376
16.231999999999964,8.772387695312501,-0.2630340576171875,0.585882568359375
16.241999999999955,7.1885009765625005,-0.68487548828125,5.3212432861328125
16.251999999999946,5.436535644531251,-0.2208648681640625,6.875970458984376
16.262999999999913,5.205801391601563,0.174658203125,5.12669677734375
16.272999999999904,8.14014892578125,1.732525634765625,9.003570556640625
16.282999999999895,10.552166748046876,0.6942962646484375,8.534027099609375
16.293,8.872726440429688,0.183929443359375,6.373977661132813
16.30299999999999,6.0091094970703125,0.9858917236328124,6.0849243164062505
16.31299999999998,5.055517578125,0.0165985107421875,8.836389160156251
16.322999999999972,4.940823364257813,-0.355596923828125,8.621356201171876
16.332999999999963,6.064736938476563,-0.0131591796875,5.317056274414063
16.342999999999954,8.82801513671875,0.1852752685546875,3.3763763427734377
16.352999999999945,10.570858764648438,-0.203369140625,4.671359252929688
16.362999999999936,9.289334106445311,-0.959722900390625,6.007165527343751
16.372999999999927,6.652114868164063,-0.0979461669921875,7.443460083007813
16.383999999999894,6.241040039062501,-0.443524169921875,7.794720458984376
16.394,6.8176513671875005,-0.6099578857421876,6.909915161132813
16.40399999999999,6.672900390625,-0.0764129638671875,5.084228515625
16.41399999999998,3.8845001220703126,-0.2438934326171875,3.2643737792968754
16.42399999999997,6.430053710937501,0.5015441894531251,4.422830200195313
16.433999999999962,12.556100463867187,0.43724365234375,8.164971923828126
16.443999999999953,11.896197509765626,-0.046356201171875,7.189697265625001
16.453999999999944,7.959808349609376,1.1810363769531251,5.435787963867188
16.463999999999935,5.316159057617188,0.17764892578125,10.975204467773438
16.473999999999926,5.514294433593751,-0.119329833984375,13.070953369140629
16.483999999999916,4.684368896484376,0.989630126953125,5.104714965820313
16.493999999999907,7.216464233398438,0.5793029785156251,0.4964599609375
16.50499999999999,10.71575927734375,-0.3303253173828125,4.748669433593751
16.51499999999998,9.650015258789065,-0.560760498046875,7.14842529296875
16.523999999999994,6.240890502929688,1.070977783203125,6.027203369140626
16.533999999999985,7.146780395507813,0.6455474853515626,6.790286254882813
16.544999999999952,8.458212280273438,-1.21961669921875,10.54468994140625
16.553999999999967,8.696572875976564,0.0659454345703125,6.096737670898438
16.564999999999934,8.359667968750001,0.6878662109375,1.6015319824218752
16.574999999999925,8.69044189453125,0.4191497802734375,3.603970336914063
16.584999999999916,6.505718994140626,-0.7077545166015625,6.351995849609375
16.594999999999906,4.505673217773438,-0.5848358154296875,6.082681274414063
16.604999999999897,5.309878540039063,-0.5609100341796875,6.273489379882813
