time,ax,ay,az
0.0,14.212960815429687,0.1676300048828125,8.631823730468751
0.0109999999999672,8.237347412109376,0.385504150390625,8.132373046875001
0.0210000000000185,2.543161010742188,0.6587066650390625,5.122061157226563
0.0310000000000059,3.0593597412109377,1.4196960449218752,12.65479431152344
0.0409999999999968,7.242483520507813,2.022775268554688,12.257626342773438
0.0509999999999877,8.412155151367188,0.6276031494140626,6.381454467773438
0.0609999999999786,7.440170288085938,0.57720947265625,-0.172564697265625
0.0709999999999695,12.53337097167969,0.38341064453125,2.0970947265625
0.0810000000000172,10.481286621093751,-0.152825927734375,6.370388793945313
0.0910000000000081,5.680429077148438,0.0109161376953125,4.692742919921876
0.100999999999999,6.243731689453125,0.7509704589843751,3.5764556884765626
0.1109999999999864,9.75693359375,-0.3241943359375,4.133627319335938
0.1209999999999809,10.279263305664063,-2.66533203125,8.56961669921875
0.1309999999999753,4.1630859375,-2.44820556640625,14.954061889648438
0.1409999999999627,5.8356475830078125,0.2715576171875,-0.6640899658203125
0.1519999999999868,7.789785766601563,-1.021630859375,1.863519287109375
0.1619999999999777,13.617208862304688,-3.112594604492188,6.522616577148438
0.1719999999999686,6.545944213867188,-1.4688934326171876,3.726739501953125
0.1820000000000163,1.7576477050781252,0.4616180419921875,5.555416870117188
0.1920000000000072,9.57315368652344,1.2164764404296875,19.96142883300781
0.2019999999999981,4.520327758789063,-0.0964508056640625,13.100112915039064
0.211999999999989,4.874429321289063,0.399859619140625,2.3291748046875003
0.2219999999999764,7.5040222167968755,0.6425567626953126,3.2911407470703127
0.2319999999999744,10.740582275390626,1.173858642578125,4.937982177734376
0.2420000000000186,7.997940063476563,0.442327880859375,6.817202758789063
0.2520000000000095,5.964398193359376,0.0725250244140625,3.129043579101563
0.2620000000000004,12.061734008789063,-0.26497802734375,3.1686706542968754
0.2719999999999913,7.260128784179688,-2.1534698486328128,9.9854248046875
0.2819999999999822,6.3750244140625005,-1.320254516601563,5.947650146484375
0.2919999999999731,7.355233764648438,-1.87757568359375,3.609503173828125
0.3029999999999972,7.761224365234375,-2.2230041503906253,6.800006103515625
0.3129999999999882,5.977108764648438,-1.900006103515625,10.696170043945314
0.3229999999999791,6.6501708984375005,-0.6060699462890625,4.045700073242188
0.33299999999997,6.945654296875,0.7935882568359376,4.644891357421876
0.3430000000000177,7.946350097656251,1.4228363037109375,9.483731079101563
0.3530000000000086,5.632876586914063,0.5630035400390625,4.9444122314453125
0.3630000000000031,5.248867797851563,0.047552490234375,1.1058197021484375
0.3729999999999904,9.72882080078125,1.0947540283203123,8.3632568359375
0.3829999999999813,8.91474609375,-0.5196380615234375,7.025207519531251
0.3929999999999722,10.443753051757811,-0.5773590087890625,7.592098999023438
0.4029999999999631,7.662979125976563,1.02103271484375,9.930245971679687
0.4130000000000144,6.153561401367188,-1.6018310546875,13.017419433593751
0.4230000000000018,6.92471923828125,-0.3529052734375,7.514788818359375
0.4339999999999691,6.1716552734375005,-0.8746368408203126,0.8563934326171876
0.4440000000000168,8.665768432617188,-1.5089691162109375,3.20665283203125
0.4540000000000077,7.415347290039063,0.1529754638671875,4.708892822265625
0.4639999999999986,5.773739624023438,1.0913146972656251,7.021618652343751
0.473999999999986,8.401388549804688,1.3797698974609376,6.680825805664063
0.4839999999999804,12.479089355468751,-0.5007965087890626,4.728631591796876
0.4939999999999749,7.427908325195313,-0.152227783203125,9.075946044921876
0.5039999999999623,4.5650390625,0.463262939453125,4.960562133789063
0.51400000000001,8.689993286132813,-0.2998199462890625,2.805148315429688
0.5240000000000009,8.590252685546876,-1.6643371582031252,3.782666015625
0.5339999999999883,5.566781616210938,-1.6096069335937502,7.096984863281251
0.5439999999999827,4.411614990234376,-0.7917938232421876,7.485031127929688
0.5539999999999772,7.016683959960938,-1.489678955078125,11.574993896484376
0.5659999999999776,6.079241943359375,-0.064300537109375,11.450430297851565
0.5749999999999886,8.353686523437501,-0.4741790771484375,5.597137451171875
0.584999999999976,8.166018676757814,0.6566131591796875,3.8364990234375
0.594999999999974,8.401538085937501,1.5753631591796875,7.4202819824218755
0.6050000000000182,6.652264404296876,0.8599822998046875,4.152767944335938
0.6150000000000091,4.3343048095703125,0.3934295654296875,1.4934173583984376
0.625,3.1730072021484377,0.3074462890625,1.2427947998046875
0.6349999999999909,8.065231323242188,-0.9667510986328126,5.783609008789063
0.6449999999999818,16.566510009765626,-1.7841156005859375,11.534768676757814
0.6549999999999727,15.687835693359377,-1.1390167236328126,9.545339965820313
0.6659999999999968,7.860665893554688,-1.9291656494140623,7.7881408691406255
0.6750000000000149,-0.143853759765625,-1.246533203125,12.831845092773438
0.6850000000000023,-1.2668701171875,-0.3069976806640625,13.770782470703129
0.6949999999999896,3.448751831054688,0.9811065673828124,0.1736114501953125
0.7049999999999841,9.2221923828125,0.06041259765625,1.134979248046875
0.7160000000000082,15.245059204101564,-1.0131072998046875,3.520828247070313
0.7249999999999659,12.145773315429688,-0.2516693115234375,6.280667114257813
0.7359999999999864,7.259979248046876,0.7261474609375,5.043255615234376
0.7459999999999809,8.283853149414064,1.0056304931640625,5.843722534179688
0.7559999999999754,11.582769775390624,0.95882568359375,6.766360473632813
0.7659999999999627,9.295614624023438,0.5450592041015625,3.432452392578125
0.776000000000014,5.0550689697265625,-0.002392578125,0.6679779052734376
0.7860000000000014,0.9772186279296876,0.1323394775390625,2.4360931396484378
0.7959999999999887,3.5290527343750004,-0.844281005859375,8.040109252929689
0.8059999999999832,3.833657836914063,-1.7883026123046877,15.159674072265624
0.8159999999999776,12.363348388671875,-0.5239746093750001,1.2740478515625
0.825999999999965,12.357965087890626,-2.542413330078125,6.524859619140625
0.8360000000000127,9.415093994140626,-2.9588714599609376,17.37355651855469
0.8460000000000001,5.634970092773438,-0.6820343017578125,13.006951904296876
0.8569999999999744,4.609002685546876,0.0010467529296875,1.7711059570312502
0.8670000000000186,7.361813354492188,0.2453887939453125,4.120767211914063
0.8770000000000095,5.9986419677734375,0.1481903076171875,6.3678466796875
0.8870000000000005,6.755743408203125,0.5148529052734375,1.866061401367188
0.8969999999999914,8.646926879882812,0.8478698730468751,1.5971954345703123
0.9069999999999824,9.962994384765626,0.7442413330078126,5.200717163085938
0.9169999999999732,10.605551147460938,0.70401611328125,7.423123168945313
0.9269999999999604,8.5618408203125,0.3911865234375,5.6756439208984375
0.9370000000000154,2.7581939697265625,-1.3875457763671877,11.285641479492188
0.9470000000000028,7.289437866210938,-0.5040863037109375,6.2721435546875
0.9569999999999936,3.2734954833984378,-0.8409912109375001,3.523818969726563
0.9669999999999844,3.666925048828125,-1.011761474609375,2.696136474609375
0.976999999999979,18.02015075683594,-1.42777099609375,7.328765869140626
0.9880000000000032,11.574395751953126,-0.6156402587890626,7.675540161132813
0.9970000000000176,6.071615600585938,-0.9942657470703126,9.035870361328126
1.0079999999999814,1.1894104003906252,-1.51270751953125,14.011984252929688
1.0179999999999725,4.4220825195312505,0.5857330322265626,9.352886962890626
1.0279999999999632,8.222094726562501,0.316119384765625,2.057916259765625
1.0380000000000145,10.507754516601564,0.120526123046875,2.5135528564453127
1.0480000000000018,10.550820922851564,0.4744781494140625,4.715472412109375
1.0579999999999892,9.815850830078126,0.9589752197265624,5.5543701171875
1.0679999999999872,6.526953125,0.6261077880859376,4.420138549804688
1.077999999999978,7.725784301757813,0.2447906494140625,6.842324829101563
1.0879999999999654,3.785208129882813,-0.50782470703125,17.086297607421876
1.0980000000000132,7.5796875,0.3638214111328125,3.7288330078125
1.1080000000000003,13.148114013671876,0.6998291015625,2.3638671875000004
1.117999999999995,5.119668579101563,-0.8095886230468751,1.4854919433593752
1.127999999999986,5.01903076171875,-1.101931762695313,3.7425903320312495
1.1379999999999768,6.699218750000001,-1.3989105224609375,4.129141235351563
1.149000000000001,9.278717041015623,-1.4784637451171876,4.000540161132813
1.1589999999999885,10.689141845703126,-1.5113616943359376,5.802151489257813
1.1689999999999827,7.322335815429688,-2.266220092773437,16.087844848632812
1.1789999999999772,6.162384033203126,-0.942974853515625,11.677575683593751
1.1889999999999643,2.79034423828125,0.413018798828125,8.554214477539062
1.1990000000000125,4.868447875976563,1.454837036132813,6.130084228515625
1.2090000000000032,10.446145629882814,0.5567230224609375,3.6136901855468753
1.218999999999994,7.8703857421875005,0.0177947998046875,3.257644653320313
1.228999999999985,9.133816528320311,0.454888916015625,1.8409393310546875
1.2389999999999797,8.072857666015626,0.6356781005859375,3.656756591796875
1.2489999999999668,8.395855712890626,0.674407958984375,6.195880126953125
1.259000000000018,5.612091064453125,1.3539001464843752,9.249557495117188
1.2690000000000057,9.847103881835938,-0.4299163818359375,7.08861083984375
1.2799999999999727,7.208090209960938,-2.398260498046876,7.0225158691406255
1.28999999999996,5.719009399414063,-1.1772979736328126,7.035076904296876
1.300000000000015,3.29039306640625,-1.0555755615234377,4.022821044921876
1.3100000000000025,3.184072875976563,-1.01385498046875,4.862615966796875
1.3199999999999896,9.24671630859375,-2.144796752929688,6.879110717773438
1.329999999999984,14.05325622558594,-0.772802734375,7.661633300781251
1.3399999999999783,12.253887939453126,0.6141448974609376,5.6046142578125
1.349999999999966,8.179476928710939,-0.960919189453125,9.936825561523438
1.3600000000000172,3.665728759765625,-0.4484588623046875,14.474798583984375
1.3700000000000043,2.4679443359375,0.66693115234375,13.90028076171875
1.3799999999999957,5.338589477539063,0.93310546875,0.7568023681640625
1.3899999999999864,9.501974487304688,0.7180725097656251,3.480902099609376
1.3999999999999773,11.560787963867188,0.8228973388671875,3.9434173583984378
1.4099999999999682,8.218655395507813,0.6425567626953126,3.442620849609375
1.4200000000000197,7.008309936523438,0.6249114990234376,4.126300048828125
1.4300000000000068,9.108993530273438,0.9405822753906252,6.054568481445313
1.4409999999999776,8.306881713867188,-0.248828125,9.0283935546875
1.450999999999965,7.538265991210938,-0.6256591796875001,6.043951416015625
1.4610000000000127,9.049777221679689,-1.0554260253906251,2.372091674804688
1.471,4.85513916015625,-1.4180511474609376,1.2535614013671876
1.4809999999999943,8.159439086914062,-0.80091552734375,5.087368774414063
1.4909999999999854,4.820745849609375,-0.8385986328125,3.0447052001953128
1.5009999999999764,8.484381103515625,-0.0394775390625,5.113687133789063
1.5109999999999673,8.471670532226563,-0.6593048095703126,10.52435302734375
1.5210000000000186,5.761477661132813,-1.1639892578125002,22.108020019531253
1.531000000000006,7.009805297851563,-0.042767333984375,4.719808959960938
1.5409999999999968,8.687301635742188,0.000299072265625,6.881353759765625
1.5509999999999875,4.7320709228515625,1.6643371582031252,5.193838500976563
1.5609999999999786,7.374822998046875,1.1384185791015626,4.66253662109375
1.5720000000000027,7.53721923828125,0.4430755615234375,2.0951507568359378
1.5819999999999936,8.98353271484375,-0.07476806640625,2.746978759765625
1.5919999999999843,8.4111083984375,-0.413018798828125,4.611096191406251
1.601999999999979,7.064086914062501,-1.463809204101563,6.31700439453125
1.6119999999999663,5.08243408203125,-0.9218902587890626,6.398800659179688
1.6220000000000176,5.30015869140625,-1.6613464355468752,8.32557373046875
1.632000000000005,9.588854980468753,-2.570974731445313,9.96807861328125
1.6419999999999924,12.843807983398438,-0.47373046875,8.451931762695313
1.6519999999999868,8.934036254882812,0.2112945556640625,3.7572448730468753
1.6619999999999775,4.339688110351563,-0.7745971679687501,7.226333618164063
1.6719999999999686,0.8824127197265625,-0.7843170166015626,12.772479248046876
1.6820000000000164,5.32169189453125,0.8258880615234375,8.3082275390625
1.6920000000000073,9.369186401367188,0.1069183349609375,1.35958251953125
1.7019999999999982,12.650457763671875,0.5643493652343751,4.0865234375
1.711999999999989,12.8529296875,1.1759521484375002,6.06937255859375
1.7230000000000132,8.090802001953126,0.91575927734375,5.511752319335938
1.7330000000000003,5.059854125976563,1.6695709228515627,8.051025390625
1.742999999999995,1.3180114746093752,0.8215515136718751,7.101919555664063
1.752999999999986,7.440020751953125,-0.6388183593750001,7.954275512695313
1.7629999999999768,12.841116333007813,-0.7517181396484376,3.281570434570313
1.7729999999999675,7.294821166992188,-0.8187103271484376,0.5259185791015626
1.783000000000019,7.751654052734375,-0.707305908203125,3.9028930664062496
1.7930000000000064,7.404132080078125,-1.3823120117187502,4.714724731445313
1.8029999999999973,7.20823974609375,-1.6419067382812502,4.6834716796875
1.812999999999988,7.648922729492188,-2.996554565429688,14.196063232421876
1.822999999999979,8.346209716796876,-1.813275146484375,8.870034790039064
1.83299999999997,9.361560058593753,-1.0824920654296877,4.363763427734376
1.8430000000000173,4.233966064453125,-0.1954437255859375,7.307830810546876
1.8530000000000089,2.3665588378906253,0.5085723876953125,13.710818481445314
1.86399999999998,8.131027221679688,0.6452484130859375,6.769500732421876
1.8739999999999668,7.642193603515626,0.109759521484375,4.266714477539063
1.884000000000018,10.455715942382811,0.5582183837890625,2.8869445800781253
1.8940000000000048,10.5261474609375,0.916058349609375,4.0602050781250005
1.9039999999999964,6.704153442382813,-0.28172607421875,6.8251281738281255
1.9139999999999875,4.627096557617188,-0.7083526611328126,10.0930908203125
1.9239999999999784,7.2886901855468755,0.352606201171875,5.7843566894531255
1.933999999999969,9.159237670898438,-1.4635101318359376,2.853598022460938
1.9440000000000168,7.22020263671875,-1.720562744140625,4.85992431640625
1.954000000000008,5.361618041992188,-0.93968505859375,4.853045654296875
1.9639999999999984,4.758837890625,-0.8777770996093751,5.27264404296875
1.973999999999986,5.974566650390625,-1.5049316406250002,7.147229003906251
1.9850000000000168,10.363003540039063,-0.99830322265625,8.650515747070314
1.993999999999975,13.061083984375,0.367559814453125,6.502728271484376
2.0039999999999623,9.4542724609375,0.2229583740234375,5.125201416015625
2.0149999999999864,4.990170288085938,0.312530517578125,10.218252563476565
2.0249999999999773,3.458172607421876,0.8707489013671875,9.605453491210938
2.034999999999968,5.44132080078125,1.31412353515625,7.920928955078126
2.0450000000000195,7.601818847656251,0.9562835693359376,3.93160400390625
2.055000000000007,11.102459716796876,0.4858428955078125,4.83958740234375
2.0659999999999776,10.216159057617189,0.7974761962890625,5.941668701171875
2.0749999999999886,7.287344360351563,0.363372802734375,7.483685302734376
2.084999999999976,5.594595336914063,-0.3736907958984375,6.890026855468751
2.094999999999974,6.7099853515625005,-1.603924560546875,7.353588867187501
2.105000000000018,8.84476318359375,-1.8647155761718752,5.124603271484375
2.115000000000009,8.877960205078125,-1.2888519287109377,2.858981323242188
2.125,7.457217407226563,-1.50732421875,2.660845947265625
2.134999999999991,7.5318359375,-1.430911254882813,4.273892211914063
2.144999999999982,6.154010009765625,-1.4795104980468752,9.955816650390624
2.1549999999999727,5.292233276367188,-0.14176025390625,8.438922119140626
2.165999999999997,8.137307739257814,1.0204345703125002,7.086965942382813
2.175999999999988,8.034576416015625,0.581396484375,7.303793334960938
2.185999999999978,7.623501586914063,0.3386993408203125,8.965139770507813
2.195999999999969,5.635418701171876,1.10596923828125,6.762322998046876
2.2060000000000173,6.591104125976563,0.7382598876953126,6.176290893554688
2.216000000000008,7.503573608398438,0.8438323974609375,5.594744873046875
2.225999999999999,7.894909667968751,0.1161895751953125,4.35748291015625
2.2359999999999864,8.615823364257814,0.008673095703125,3.9546325683593753
2.245999999999981,8.92730712890625,-1.0552764892578126,6.05980224609375
2.255999999999976,7.7178588867187505,-2.0547760009765628,7.665521240234375
2.2659999999999627,6.661685180664063,-1.0711273193359376,7.695278930664063
2.276000000000014,4.82822265625,-1.3530029296875,6.210983276367188
2.2869999999999777,4.6359191894531255,-1.0654449462890625,6.043054199218751
2.2959999999999887,5.6357177734375,-0.6148925781250001,5.158099365234375
2.3070000000000164,10.269094848632813,-0.465655517578125,5.624203491210938
2.317000000000008,13.184002685546876,0.6679779052734376,5.688055419921875
2.326999999999998,10.92630615234375,0.6925018310546875,6.884494018554688
2.336999999999989,3.4017974853515627,-0.3481201171875,9.464739990234376
2.3469999999999764,3.2144287109375003,-0.386700439453125,11.486468505859376
2.3569999999999744,5.7051025390625005,0.6075653076171875,8.056109619140626
2.367000000000018,8.888278198242189,-0.7744476318359376,2.0792999267578125
2.377000000000009,10.736843872070311,0.1356292724609375,3.656756591796875
2.3870000000000005,10.307376098632814,0.672314453125,4.915103149414063
2.396999999999992,6.299658203125,0.247332763671875,9.311764526367188
2.4069999999999823,3.4895751953125003,0.1490875244140625,10.424761962890626
2.416999999999973,9.11377868652344,-1.265972900390625,6.288143920898438
2.4269999999999605,9.175387573242189,-1.9127166748046875,4.892373657226563
2.437000000000016,9.438870239257811,-0.45877685546875,3.2388031005859377
2.447999999999979,7.252203369140625,0.616986083984375,2.9923675537109378
2.45799999999997,6.945654296875,0.2938385009765625,3.4014984130859376
2.4680000000000177,6.144290161132813,-0.5636016845703126,6.206796264648438
2.4780000000000086,5.637063598632813,-1.2208129882812502,10.486968994140623
2.488000000000003,8.036370849609376,-1.3373016357421876,5.977108764648438
2.4979999999999905,9.3729248046875,-0.3536529541015625,7.01683349609375
2.5079999999999814,7.269100952148438,-1.16279296875,8.524157714843751
2.5179999999999723,6.063839721679688,0.1146942138671875,9.429150390625
2.527999999999963,4.0003906250000005,0.6223693847656251,7.5144897460937505
2.5380000000000145,7.524508666992188,0.7406524658203125,5.84686279296875
2.548000000000002,8.0390625,0.2639312744140625,3.720758056640625
2.557999999999989,9.247912597656253,-0.4406829833984375,3.285308837890625
2.569000000000017,9.013589477539064,0.1888641357421875,4.139608764648438
2.577999999999978,7.66641845703125,0.125311279296875,8.036669921875001
2.588999999999998,6.557757568359375,-0.503338623046875,8.382546997070314
2.598999999999986,7.139303588867188,-0.29488525390625,7.192987060546876
2.6089999999999804,7.395309448242188,-1.16578369140625,6.740939331054688
2.618999999999975,7.242184448242188,-1.14783935546875,5.843423461914063
2.6289999999999623,5.439376831054688,-0.22669677734375,5.418292236328125
2.63900000000001,4.58238525390625,-0.6359771728515625,5.199819946289063
2.649000000000001,6.05322265625,-0.3808685302734375,6.558505249023438
2.6589999999999883,10.755087280273438,-0.178546142578125,7.693634033203126
2.6689999999999827,11.824868774414064,-0.2023223876953125,4.910168457031251
2.678999999999977,9.330157470703126,0.307745361328125,5.7577392578125
2.6889999999999645,5.223895263671875,-0.13099365234375,10.455715942382811
2.6990000000000123,5.046694946289063,-0.22550048828125,9.821383666992189
2.709000000000003,5.903836059570313,0.8031585693359375,6.369342041015625
2.718999999999994,8.168261718750001,0.18662109375,3.796871948242188
2.730000000000018,10.482781982421876,-0.7748962402343751,5.668466186523438
2.740000000000009,9.095236206054688,-0.6383697509765626,6.764416503906251
2.75,6.760528564453126,-0.174957275390625,5.435488891601563
2.759999999999991,5.539566040039063,0.0348419189453125,7.954724121093751
2.769999999999982,7.22977294921875,-1.1907562255859376,7.779617309570313
2.7799999999999727,8.928652954101564,-1.1242126464843751,4.7186126708984375
2.78999999999996,9.143386840820312,-0.485992431640625,3.151324462890625
2.800000000000015,8.161532592773439,-0.5348907470703126,3.2222045898437504
2.8100000000000023,7.558901977539063,0.0994415283203125,4.2743408203125
2.8199999999999896,4.990768432617188,-0.5402740478515625,9.964190673828126
2.829999999999984,5.681924438476563,0.2639312744140625,7.996594238281251
2.8399999999999785,7.886087036132813,0.2906982421875,7.293624877929688
2.849999999999966,8.608346557617189,0.1825836181640625,6.931896972656251
2.860000000000017,7.10057373046875,-0.4361968994140625,7.491162109375001
2.870999999999981,5.547192382812501,0.026019287109375,8.308377075195313
2.880999999999976,6.367098999023438,-0.2118927001953125,7.343270874023438
2.8909999999999627,7.369140625000001,-0.398065185546875,5.268606567382813
2.901000000000014,8.501129150390625,0.1878173828125,4.2206573486328125
2.9110000000000014,9.186453247070313,-0.06160888671875,3.719561767578125
2.9209999999999887,8.555859375,-1.06409912109375,4.940823364257813
2.930999999999983,6.717312622070313,-0.690557861328125,8.507858276367188
2.9409999999999776,4.861569213867188,-0.3662139892578125,6.588113403320313
2.950999999999965,4.6188720703125,0.3455780029296875,5.8247314453125005
2.9610000000000127,6.06339111328125,-0.3620269775390625,5.624203491210938
2.971,11.075094604492188,-0.8215515136718751,6.760977172851563
2.9839999999999804,13.37391357421875,0.7068572998046876,6.882998657226563
2.990999999999985,8.586514282226563,0.8734405517578125,6.194683837890626
3.0009999999999764,2.591012573242188,-0.8374023437500001,9.653005981445313
3.0120000000000005,4.075756835937501,-1.3664611816406251,12.848443603515626
3.021999999999992,6.316256713867188,-1.3171142578125,5.324234008789063
3.0319999999999823,8.892465209960939,-0.8843566894531251,1.738955688476563
3.041999999999973,11.263211059570311,-0.4610198974609375,3.652569580078125
3.0519999999999605,9.910357666015626,0.8350097656250001,5.1268463134765625
3.062000000000016,6.980197143554688,0.07716064453125,6.116925048828126
3.0720000000000027,3.0725189208984376,-0.9830505371093752,12.293365478515629
3.08299999999997,9.175537109375,-1.406536865234375,8.535971069335938
3.0919999999999845,9.692184448242188,-0.1697235107421875,3.774291992187501
3.101999999999979,8.244973754882814,0.65137939453125,2.743988037109375
3.1119999999999663,7.430001831054688,0.4457672119140625,2.9919189453125004
3.1220000000000176,7.66043701171875,0.6238647460937501,4.231274414062501
3.132000000000005,4.406680297851563,-0.4780670166015625,9.236996459960938
3.1419999999999924,6.747219848632813,-0.20277099609375,6.941168212890625
3.151999999999987,8.164224243164064,-0.94447021484375,7.286895751953126
3.1630000000000145,9.170004272460938,-0.954937744140625,7.814160156250001
3.173000000000002,7.5043212890625,-1.3214508056640626,6.4994384765625
3.182999999999989,5.584576416015626,0.3050537109375,8.945401000976563
3.192999999999987,5.0818359375,-0.6793426513671875,7.837338256835938
3.202999999999978,7.161734008789063,-0.192901611328125,6.0838775634765625
3.212999999999965,7.986874389648438,0.0671417236328125,3.92562255859375
3.223000000000013,9.186752319335938,-0.1009368896484375,3.439031982421876
3.2330000000000005,9.3848876953125,0.3385498046875,4.214077758789063
3.242999999999995,7.26805419921875,0.1481903076171875,8.069717407226562
3.252999999999986,6.370388793945313,0.342437744140625,9.166265869140624
3.262999999999977,6.8131652832031255,0.0471038818359375,7.2387451171875
3.272999999999968,7.008309936523438,-0.6113037109375,5.097238159179688
3.2839999999999883,6.336444091796875,-0.4987030029296875,5.331112670898438
3.2939999999999827,4.995852661132813,-0.6790435791015625,4.639657592773438
3.303999999999977,6.557757568359375,-1.2715057373046876,6.0046234130859375
3.3139999999999645,11.249603271484377,-0.8605804443359376,8.685656738281251
3.3240000000000123,11.68056640625,-0.41571044921875,7.175640869140626
3.334000000000003,7.593893432617188,-0.52576904296875,5.75115966796875
3.343999999999994,4.1204681396484375,0.15491943359375,9.038562011718753
3.353999999999985,4.3417816162109375,0.5001983642578125,8.996542358398438
3.3639999999999795,6.199468994140625,0.414215087890625,4.293630981445313
3.373999999999967,8.587112426757812,0.1203765869140625,3.5187347412109378
3.384000000000018,10.354928588867187,-0.814373779296875,8.330657958984375
3.394000000000005,9.579434204101563,-0.1454986572265625,9.908712768554688
3.4039999999999964,7.553967285156251,-0.0477020263671875,4.849456787109375
3.413999999999988,6.390875244140625,0.428570556640625,7.6356140136718755
3.423999999999978,6.726135253906251,-0.0378326416015625,7.442413330078126
3.433999999999969,7.900143432617188,-0.8613281250000001,3.786703491210938
3.444000000000017,8.205346679687501,-1.06170654296875,2.158554077148437
3.454999999999984,8.827117919921875,-0.64599609375,3.588568115234376
3.4649999999999785,7.685858154296875,-0.766522216796875,4.361819458007813
3.474999999999966,6.577197265625,-0.438140869140625,6.075653076171875
3.485000000000017,5.002432250976563,0.143853759765625,12.951773071289065
3.4950000000000045,8.604159545898439,-0.4655059814453125,7.518826293945313
3.5049999999999955,8.792724609375,-0.2803802490234375,5.199819946289063
3.5149999999999864,6.984832763671876,-0.1567138671875,6.188851928710938
3.5249999999999773,5.0176849365234375,-0.2839691162109375,8.559298706054689
3.534999999999968,5.018881225585938,-0.018841552734375,8.243777465820314
3.5450000000000195,6.756790161132813,0.1580596923828125,5.898153686523438
3.555000000000007,8.808425903320312,0.578704833984375,4.663134765625
3.5649999999999977,10.074996948242188,0.155816650390625,3.9414733886718754
3.5749999999999886,9.41898193359375,-0.4245330810546875,4.608404541015625
3.5860000000000127,6.748864746093751,-0.344232177734375,8.713769531250001
3.596,5.373132324218751,-0.74468994140625,6.636413574218751
3.6059999999999945,4.680780029296876,-0.5164978027343751,5.252456665039063
3.6159999999999854,5.34442138671875,-0.0518890380859375,4.889682006835938
3.625999999999976,8.097381591796875,-1.2133361816406252,4.401745605468751
3.6359999999999673,13.464233398437502,-0.0976470947265625,8.222991943359375
3.6460000000000186,11.020065307617188,0.37802734375,7.51748046875
3.656000000000006,4.862765502929688,-1.3576385498046877,8.5857666015625
3.665999999999997,2.7809234619140626,-1.0457061767578126,11.226275634765626
3.675999999999988,4.2408447265625,-0.6527252197265625,11.360110473632814
3.685999999999978,8.878259277343751,-0.5456573486328126,2.051336669921876
3.6959999999999695,10.210626220703126,-0.2184722900390625,2.1234130859375
3.706000000000017,11.483029174804688,0.7285400390625001,4.3223419189453125
3.716000000000008,8.396304321289064,1.0772583007812502,5.433694458007813
3.725999999999999,6.829165649414063,0.622967529296875,4.6707611083984375
3.7369999999999663,3.64150390625,-0.4414306640625,14.608035278320314
3.7470000000000176,6.322836303710938,0.1772003173828125,7.265960693359376
3.757000000000005,13.253536987304688,0.1305450439453125,3.6108489990234376
3.766999999999992,6.983038330078125,-0.5819946289062501,1.3524047851562502
3.776999999999987,6.720751953125,0.38819580078125,4.015643310546875
3.7869999999999777,7.015637207031251,-0.500347900390625,4.385745239257813
3.7969999999999686,5.777777099609375,-2.1205718994140628,8.754592895507812
3.807000000000016,6.317752075195313,-1.965802001953125,8.95362548828125
3.8170000000000073,9.965835571289062,-1.9118194580078127,5.831460571289063
3.826999999999998,8.37222900390625,-1.0853332519531251,7.063040161132813
3.836999999999989,6.2817138671875,-0.1399658203125,8.9135498046875
3.846999999999976,5.249166870117188,-0.1604522705078125,8.313760375976564
3.8569999999999744,5.9635009765625,-0.0203369140625,9.138003540039064
3.867999999999995,7.474114990234375,0.431561279296875,4.8860931396484375
3.877999999999986,8.842520141601563,0.7654754638671876,3.206503295898438
3.887999999999977,9.306231689453126,1.0554260253906251,3.870742797851563
3.897999999999968,8.425613403320312,0.6400146484375,5.490817260742188
3.908000000000019,6.516336059570313,0.7212127685546875,6.051278686523438
3.9180000000000064,7.152911376953125,0.470440673828125,6.655853271484376
3.927999999999997,7.7675048828125,-1.3105346679687502,6.562542724609376
3.937999999999988,7.471871948242188,-1.811181640625,7.323532104492188
3.947999999999979,6.907672119140625,-1.439883422851563,7.536770629882813
3.95799999999997,5.302700805664063,-1.1959899902343751,4.446755981445313
3.9680000000000177,4.713229370117188,-1.0956512451171876,5.410366821289063
3.9780000000000086,4.936785888671875,-0.8508605957031251,5.8175537109375
3.988000000000003,10.441360473632812,-1.051089477539063,6.002529907226563
3.9979999999999913,14.608633422851565,0.1422088623046875,6.782211303710938
4.009000000000018,11.131170654296875,-0.2406036376953125,5.837890625
4.0190000000000055,4.737005615234375,-0.3210540771484375,9.95252685546875
4.028999999999996,2.148236083984376,1.063201904296875,11.468075561523438
4.038999999999987,3.791488647460938,1.7942840576171877,9.244921875
4.048999999999978,7.684661865234376,0.4655059814453125,2.693145751953125
4.058999999999969,11.215957641601562,0.2696136474609375,3.5754089355468754
4.069000000000017,11.98487243652344,0.5070770263671875,3.9567260742187504
4.079000000000008,7.963546752929688,0.63702392578125,5.00108642578125
4.088999999999999,4.787100219726563,-0.204266357421875,10.259524536132814
4.098999999999986,4.84556884765625,-0.5105163574218751,11.184255981445313
4.1089999999999804,9.862506103515626,-1.6912536621093752,5.613735961914063
4.118999999999975,9.97510681152344,-1.2771881103515623,1.693646240234375
4.128999999999962,8.037118530273439,-1.128997802734375,1.8295745849609373
4.13900000000001,7.114779663085938,-1.316815185546875,3.13009033203125
4.149000000000001,5.982192993164063,-1.1073150634765625,4.634274291992188
4.158999999999988,4.067831420898438,-1.2314300537109375,12.7033935546875
4.17000000000002,7.391720581054688,0.4795623779296875,8.650814819335938
4.180000000000007,10.85572509765625,-0.6721649169921875,6.572860717773438
4.189999999999998,7.719802856445313,0.65137939453125,6.927410888671876
4.199999999999989,5.700765991210938,0.9293670654296876,6.712677001953126
4.209999999999976,4.297967529296876,0.8483184814453125,8.873175048828125
4.219999999999974,6.411660766601563,0.1712188720703125,7.654904174804688
4.230000000000018,8.711526489257814,0.236566162109375,3.8130218505859377
4.240000000000009,9.503469848632813,0.05921630859375,2.667724609375
4.25,9.290380859375,-0.16448974609375,4.035980224609375
4.259999999999991,8.118914794921876,-0.208154296875,3.964801025390625
4.269999999999982,6.130682373046875,-1.4916229248046875,10.3514892578125
4.279999999999973,5.036825561523438,-1.2109436035156251,10.435379028320312
4.290999999999997,6.400296020507813,-1.2015228271484375,3.718814086914063
4.300999999999988,6.078045654296876,-0.466552734375,3.02242431640625
4.310999999999979,7.60899658203125,-0.8312713623046876,6.622207641601563
4.3209999999999695,11.389120483398438,-0.01495361328125,7.670306396484375
4.331000000000017,10.8228271484375,0.774298095703125,8.137905883789063
4.341000000000008,5.869442749023438,-0.7738494873046876,7.454824829101563
4.350999999999999,3.1262023925781253,-0.57242431640625,10.456912231445314
4.360999999999986,5.056713867187501,0.072076416015625,7.969378662109375
4.370999999999981,8.573953247070314,-0.54132080078125,2.5953491210937503
4.380999999999975,9.98706970214844,0.27694091796875,3.8036010742187503
4.390999999999963,11.037261962890623,0.9748260498046876,6.039166259765626
4.401000000000014,7.652810668945313,0.2525665283203125,8.138055419921876
4.411000000000001,3.893173217773438,-0.222210693359375,9.871478271484376
4.420999999999989,8.316152954101563,-0.484796142578125,6.893914794921876
4.430999999999983,8.094390869140625,-1.9061370849609376,6.42825927734375
4.440999999999978,8.713320922851564,-0.352606201171875,3.53084716796875
4.451999999999998,8.376715087890625,0.6866699218750001,2.9573760986328126
4.461999999999989,7.167117309570313,-0.117236328125,3.724197387695313
4.471999999999976,6.825576782226563,0.1733123779296875,4.167422485351563
4.4830000000000005,6.33255615234375,-0.3337646484375,5.7290283203125005
4.492000000000019,6.043353271484375,-1.7074035644531251,12.312954711914063
4.5020000000000095,9.902731323242188,-1.62635498046875,6.55626220703125
4.5120000000000005,8.284451293945313,-0.7905975341796876,5.4251708984375
4.521999999999991,6.5380187988281255,0.4972076416015625,7.461703491210938
4.531999999999982,4.088018798828125,0.9441711425781252,9.540106201171875
4.541999999999973,5.380010986328125,-0.2791839599609375,8.208038330078125
4.5519999999999605,7.925863647460938,0.2201171875,4.648629760742188
4.562000000000015,9.635958862304689,-0.098394775390625,3.397311401367188
4.572000000000003,9.499282836914062,0.2426971435546875,3.8083862304687504
4.584000000000003,8.6611328125,0.414813232421875,5.094247436523438
4.593000000000018,5.0650878906250005,-0.5313018798828125,10.764208984375
4.603000000000009,6.8385864257812505,-0.172265625,8.313012695312501
4.613000000000003,7.950387573242188,-0.8209533691406251,4.626049804687501
4.622999999999991,7.253250122070313,-1.122866821289063,4.680331420898438
4.632999999999981,5.603118896484375,-0.1927520751953125,5.006170654296875
4.642999999999972,3.894668579101563,-0.7674194335937501,4.847662353515625
4.652999999999963,6.805538940429688,-1.2733001708984375,6.981243896484376
4.663000000000015,13.454812622070314,-0.6433044433593751,9.384439086914064
4.673000000000002,11.824868774414064,0.088525390625,6.266162109375
4.682999999999989,6.929354858398438,-0.432757568359375,6.802996826171875
4.692999999999987,3.2449340820312504,0.33974609375,10.624093627929687
4.702999999999978,4.568478393554688,0.439337158203125,9.500030517578123
4.712999999999965,6.9088684082031255,0.7026702880859376,3.552828979492188
4.723999999999986,9.052169799804688,0.5150024414062501,2.815914916992188
4.7339999999999804,11.577984619140626,-0.9538909912109376,5.804843139648438
4.743999999999975,9.701754760742189,0.654669189453125,5.540911865234375
4.753999999999962,4.580889892578125,-0.15252685546875,9.8059814453125
4.76400000000001,5.7459259033203125,-0.2950347900390625,8.549578857421876
4.774000000000001,8.268151855468751,-1.3386474609375,8.010501098632814
4.783999999999988,9.74183044433594,-1.128399658203125,2.698529052734376
4.793999999999983,7.712176513671875,-0.8990112304687501,2.0588134765625004
4.803999999999977,7.489218139648438,-0.6373229980468751,3.734664916992188
4.8139999999999645,6.508709716796876,0.17406005859375,4.722201538085938
4.824000000000012,5.486032104492188,-0.396868896484375,8.432641601562501
4.834000000000003,5.826376342773438,-0.2715576171875,9.532330322265626
4.843999999999994,11.65589294433594,-0.6751556396484375,6.429156494140625
4.853999999999985,7.514788818359375,0.1090118408203125,7.519723510742188
4.86399999999998,5.8924713134765625,0.4149627685546875,6.962850952148438
4.875,5.01663818359375,0.4412811279296875,9.113629150390626
4.884999999999991,6.181973266601563,-0.2513702392578125,7.5402099609375
4.894999999999982,8.143887329101563,-0.0261688232421875,3.9710815429687503
4.904999999999973,8.785995483398438,0.5833404541015625,3.1673248291015628
4.91499999999996,9.08701171875,0.270660400390625,4.177890014648438
4.925000000000015,8.006314086914063,-1.2507202148437502,6.310125732421875
4.935000000000002,6.200665283203126,-0.8260375976562501,10.568466186523438
4.94499999999999,6.468484497070313,-0.8284301757812501,6.197674560546876
4.954999999999984,6.309527587890625,-0.6436035156250001,4.659097290039063
4.9649999999999785,5.009609985351563,-0.269464111328125,4.239498901367188
4.974999999999966,5.227783203125,-0.813177490234375,4.248770141601563
4.985000000000017,12.042443847656251,-0.25361328125,7.437478637695313
4.9950000000000045,14.343057250976564,0.9410308837890624,8.514437866210939
5.005999999999975,8.323928833007812,-0.28052978515625,7.839730834960938
5.014999999999986,2.67550048828125,-0.6582580566406251,10.260272216796876
5.026000000000014,2.215078735351563,-0.40494384765625,12.395349121093751
5.036000000000001,6.146832275390626,-0.4218414306640625,5.995352172851563
5.045999999999989,9.305035400390626,-0.6552673339843751,0.4469635009765625
5.055999999999983,11.57349853515625,-0.4798614501953125,3.1060150146484378
5.065999999999978,10.395901489257811,0.8351593017578126,5.67938232421875
5.075999999999965,7.353140258789063,0.5646484375,4.825082397460938
5.086000000000013,6.472821044921876,0.49227294921875,4.588815307617188
5.096,5.760580444335938,-1.882958984375,17.118447875976564
5.1059999999999945,7.249063110351563,-0.402850341796875,7.525405883789063
5.1159999999999854,12.291720581054689,-0.702520751953125,2.619125366210937
5.125999999999976,4.745529174804688,-0.115142822265625,1.5805969238281252
5.135999999999967,7.112835693359376,0.500347900390625,3.9274169921875
5.146000000000019,6.002230834960938,-0.273052978515625,4.085476684570313
5.156999999999982,6.458465576171876,0.1496856689453125,3.140557861328125
5.166999999999973,9.024505615234377,0.003289794921875,4.5650390625
5.1769999999999605,10.24905700683594,-1.5639984130859377,10.626785278320312
5.187000000000015,7.236801147460938,-1.6934967041015627,13.192974853515626
5.197000000000003,4.977908325195313,-1.41939697265625,8.331704711914064
5.206999999999994,4.525411987304688,-1.0259674072265623,9.78863525390625
5.2169999999999845,6.176290893554688,0.08433837890625,7.996743774414063
5.226999999999979,7.301400756835938,0.095404052734375,2.4489532470703126
5.236999999999966,11.041299438476564,0.5060302734375001,2.3246887207031253
5.247000000000018,9.420925903320311,0.2056121826171875,3.87059326171875
5.257000000000005,7.714868164062499,0.84876708984375,5.705401611328125
5.266999999999992,4.436737060546875,0.5860321044921876,7.377963256835938
5.276999999999987,9.18555603027344,-0.1727142333984375,6.624151611328125
5.286999999999978,8.507858276367188,-0.9132171630859376,5.8175537109375
5.296999999999969,7.197772216796875,-0.772802734375,5.66861572265625
5.307999999999989,4.8397369384765625,-0.590667724609375,4.936785888671875
5.317999999999987,3.5855773925781254,-0.9778167724609376,6.9181396484375
5.327999999999978,5.152267456054688,-1.358984375,6.327023315429688
5.337999999999965,10.833444213867187,-1.0703796386718751,6.490017700195313
5.348000000000013,14.3686279296875,0.38460693359375,7.412506103515626
5.3580000000000005,10.53138122558594,0.220416259765625,5.3466644287109375
5.367999999999995,4.56683349609375,-0.9610687255859376,9.840823364257814
5.377999999999986,2.2533599853515627,0.285614013671875,11.8205322265625
5.387999999999977,4.442269897460938,1.1728118896484376,7.486526489257813
5.399999999999977,8.124746704101563,0.057122802734375,2.002587890625
5.408000000000019,10.713815307617187,0.12860107421875,3.0936035156250004
5.418000000000006,11.650808715820313,-0.1203765869140625,4.954580688476563
5.427999999999997,7.523910522460938,0.2739501953125,6.4372314453125
5.437999999999988,3.41002197265625,-0.4143646240234375,12.914389038085938
5.449000000000012,8.250656127929688,-0.3611297607421875,7.894760131835938
5.459000000000003,7.986724853515626,-1.3731903076171876,6.4252685546875
5.468999999999994,9.714315795898438,-0.6658843994140625,1.2931884765625
5.478999999999985,7.826123046875001,-0.760540771484375,2.164236450195313
5.48899999999998,7.569967651367188,-0.4616180419921875,3.703561401367188
5.5,6.224740600585938,-0.0396270751953125,4.204806518554688
5.509000000000018,5.592053222656251,-0.3581390380859375,7.898648071289063
5.5190000000000055,6.267208862304688,0.1966400146484375,11.913693237304688
5.528999999999996,10.96817626953125,-0.8112335205078126,7.097283935546876
5.538999999999987,6.862063598632813,-0.1801910400390625,5.902789306640625
5.548999999999978,6.745724487304688,0.209649658203125,7.868890380859375
5.558999999999969,4.4445129394531255,-0.16209716796875,8.6790771484375
5.569000000000017,6.047091674804688,0.01435546875,7.2483154296875005
5.579000000000008,7.77169189453125,0.5127593994140626,4.053924560546875
5.5899999999999785,9.39385986328125,-0.020635986328125,3.133230590820313
5.599999999999966,9.846505737304687,-0.1818359375,4.398007202148438
5.610000000000021,8.275927734375001,-0.6494354248046875,5.33006591796875
5.6200000000000045,5.702410888671875,-0.710296630859375,10.348199462890626
5.629999999999996,5.130435180664063,-0.7083526611328126,5.9627532958984375
5.639999999999986,4.987179565429688,-0.3605316162109375,4.519580078125
5.649999999999977,5.978903198242188,-0.6270050048828125,4.854391479492188
5.659999999999968,11.0919921875,-0.416009521484375,5.979351806640626
5.670000000000016,13.831643676757814,0.4795623779296875,7.401141357421875
5.680000000000007,8.379705810546875,0.0755157470703125,7.484732055664063
5.689999999999998,3.1105010986328128,-1.2921417236328123,10.749703979492187
5.699999999999989,2.6777435302734376,-0.9060394287109376,13.310211181640629
5.70999999999998,6.851596069335938,-0.480908203125,5.453732299804688
5.71999999999997,9.086114501953126,-0.5863311767578125,1.3844055175781251
5.7309999999999945,11.229415893554688,-0.005084228515625,3.5269592285156253
5.7409999999999854,9.499133300781253,0.8267852783203126,5.202960205078125
5.750999999999976,7.031188964843751,0.4855438232421875,4.554571533203125
5.760999999999967,6.377716064453126,0.1879669189453125,5.9533325195312505
5.771000000000015,3.6548126220703128,-0.853253173828125,17.201739501953128
5.781000000000006,14.34171142578125,-0.7774383544921876,3.6619903564453127
5.790999999999997,7.002178955078126,-0.9069366455078126,2.90997314453125
5.800999999999988,6.428109741210938,0.6226684570312501,2.663687133789063
5.810999999999979,7.167565917968751,0.6823333740234375,3.660345458984376
5.8209999999999695,6.158197021484376,-0.2229583740234375,4.5207763671875005
5.831000000000017,5.7140747070312505,-0.70880126953125,3.6271484375
5.841000000000008,8.665170288085939,-1.6656829833984377,14.148211669921876
5.850999999999999,9.429449462890624,-1.82254638671875,6.871185302734376
5.86099999999999,6.960308837890626,-1.6782440185546876,7.232015991210938
5.872000000000021,5.485433959960938,0.0668426513671875,9.309222412109376
5.882000000000005,5.333355712890626,0.508123779296875,9.174639892578126
5.891999999999996,7.636959838867188,0.7243530273437501,4.611544799804688
5.901999999999987,8.03427734375,0.198284912109375,2.8869445800781253
5.911999999999978,9.085964965820311,0.0889739990234375,3.147137451171876
5.921999999999969,9.087609863281251,0.5351898193359376,3.357534790039063
5.932000000000016,7.2770263671875,0.6166870117187501,8.154504394531251
5.942000000000007,5.451788330078125,0.2205657958984375,10.348049926757811
5.951999999999998,8.461352539062501,-0.5852844238281251,7.402487182617188
5.961999999999989,7.764813232421876,-1.092959594726563,5.5543701171875
5.97199999999998,6.759033203125001,-1.538577270507813,6.194235229492188
5.981999999999971,4.836447143554688,-0.6077148437500001,5.1657257080078125
5.992000000000019,4.176693725585938,-1.0772583007812502,3.9758666992187504
6.002999999999986,6.0654846191406255,-1.5877746582031251,5.799310302734376
6.0120000000000005,12.627279663085938,-0.8258880615234375,7.930499267578125
6.022999999999968,14.274420166015624,0.0390289306640625,6.649722290039063
6.033000000000016,9.419580078125,-0.6136962890625001,5.367599487304688
6.043000000000006,3.298019409179688,0.15372314453125,11.114123535156253
6.052999999999997,2.164535522460937,1.04794921875,11.814849853515623
6.062999999999988,4.162786865234375,1.248626708984375,6.2763305664062505
6.072999999999979,8.291180419921876,0.249725341796875,2.1844238281250004
6.08299999999997,12.2105224609375,0.6092102050781251,3.4566772460937503
6.093000000000018,11.45985107421875,0.8098876953125,5.531491088867188
6.103000000000009,7.235006713867188,0.7095489501953125,5.170361328125001
6.113,3.6660278320312494,-0.1819854736328125,12.517520141601564
6.122999999999991,7.891918945312501,-0.1638916015625,9.854730224609376
6.132999999999981,8.440118408203126,-1.469342041015625,5.208493041992188
6.142999999999972,9.233856201171877,-1.073968505859375,1.1300445556640626
6.152999999999963,8.356976318359376,-1.3148712158203126,1.890435791015625
6.163000000000011,6.926513671875001,-1.61319580078125,3.3062438964843754
6.173999999999978,5.868246459960938,-0.9197967529296877,4.279125976562501
6.183999999999969,5.646932983398438,-0.5737701416015626,8.615823364257814
6.194000000000017,7.016983032226563,-0.34273681640625,13.799044799804689
6.204000000000008,11.202200317382813,-0.8901885986328125,6.968383789062501
6.213999999999999,7.156649780273438,0.45638427734375,6.480447387695313
6.2239999999999895,4.66612548828125,0.9042449951171876,5.837442016601563
6.2339999999999804,5.404385375976563,1.2164764404296875,7.674044799804688
6.243999999999971,5.7604309082031255,0.259893798828125,7.999584960937501
6.253999999999962,8.362808227539062,0.1024322509765625,3.511856079101563
6.26400000000001,10.245318603515626,0.3156707763671875,3.0218261718750004
6.274000000000001,9.826318359375,0.0195892333984375,3.6654296875
6.283999999999992,8.257534790039063,-0.2752960205078125,5.270101928710938
6.293999999999983,5.472573852539063,-1.3941253662109376,11.701052856445314
6.305000000000007,5.027853393554688,-1.3396942138671877,9.37696228027344
6.314999999999998,6.268405151367188,-1.7960784912109375,4.544253540039063
6.324999999999989,5.766860961914063,-1.0786041259765626,3.3943206787109377
6.33499999999998,6.938476562500001,-0.8160186767578126,4.5197296142578125
6.34499999999997,11.960049438476563,0.2654266357421875,6.929055786132813
6.355000000000018,11.6195556640625,0.4490570068359375,8.112783813476563
6.365000000000009,7.066629028320313,-0.493170166015625,8.477502441406251
6.375,3.7218048095703127,0.026019287109375,10.980438232421877
6.384999999999991,4.814465332031251,0.2561553955078125,8.55885009765625
6.394999999999982,7.019076538085938,-0.07357177734375,3.8370971679687504
6.404999999999973,8.8046875,-0.179144287109375,2.092160034179688
6.414999999999964,10.72876892089844,0.381317138671875,4.621115112304688
6.425000000000011,8.74786376953125,0.636724853515625,6.718508911132813
6.435000000000002,4.8068389892578125,0.345428466796875,10.826864624023438
6.444999999999993,7.778421020507813,-1.1877655029296876,6.398651123046876
6.454999999999984,8.541952514648438,-1.63173828125,7.469778442382813
6.466000000000008,8.880950927734375,-1.0319488525390623,4.3772216796875005
6.475999999999999,7.911956787109376,0.570928955078125,3.036181640625
6.48599999999999,7.437927246093751,0.4029998779296875,2.9515441894531254
6.495999999999981,7.237698364257813,-0.5280120849609375,4.631582641601563
6.505999999999972,5.0040771484375,-0.9691436767578124,10.182363891601565
6.515999999999963,6.127093505859375,-0.859234619140625,7.082031250000001
6.5260000000000105,9.328662109375,-0.9754241943359376,6.375323486328125
6.536000000000001,9.159237670898438,-1.1089599609375,8.26875
6.545999999999992,7.436431884765626,-0.2630340576171875,6.779370117187501
6.555999999999983,4.841381835937501,0.5374328613281251,8.176187133789064
6.565999999999981,5.334103393554688,0.8477203369140626,7.758084106445313
6.575999999999965,6.732116699218751,0.2428466796875,6.038418579101563
6.586000000000013,8.419931030273439,-0.411224365234375,3.8178070068359378
6.59699999999998,9.820635986328126,0.0611602783203125,3.478958129882813
6.606999999999971,9.6767822265625,-0.154620361328125,3.99141845703125
6.617000000000019,7.185809326171875,0.1909576416015625,6.8798583984375
6.6270000000000095,4.53214111328125,-0.203369140625,11.765054321289064
6.6370000000000005,7.466189575195313,-1.1162872314453125,6.417941284179688
6.646999999999991,6.798062133789063,-0.82962646484375,5.075405883789063
6.656999999999982,6.025708007812501,-0.9226379394531252,4.235610961914063
6.666999999999973,6.520822143554688,-0.7268951416015625,5.395263671875
6.676999999999964,9.543096923828124,-0.791943359375,8.400491333007814
6.687000000000012,10.834939575195314,-0.3668121337890625,6.722845458984375
6.697000000000003,8.076296997070314,0.0835906982421875,6.018231201171876
6.706999999999994,5.131033325195313,0.435150146484375,8.603411865234376
6.7169999999999845,5.271597290039063,0.747381591796875,8.670703125000001
6.726999999999975,6.617721557617188,0.451300048828125,5.031591796875
6.738,8.043099975585939,0.0079254150390625,5.3705902099609375
6.747999999999991,9.495245361328124,0.0201873779296875,7.865301513671875
6.757999999999981,9.549526977539063,-0.619976806640625,6.220404052734375
6.767999999999972,7.984930419921875,-0.6270050048828125,5.738897705078125
6.777999999999963,6.246871948242188,0.0868804931640625,8.134616088867189
6.788000000000011,6.691293334960938,-0.666632080078125,6.940270996093751
6.798000000000002,7.780514526367188,-1.18970947265625,3.928463745117188
6.807999999999993,9.1982666015625,-0.94207763671875,3.580642700195313
6.817999999999984,8.811865234375,-0.883160400390625,3.722702026367188
6.827999999999975,7.574902343750001,-0.9745269775390626,5.4887237548828125
6.837999999999965,5.608053588867188,0.449505615234375,7.44869384765625
6.848000000000013,6.606954956054688,0.6802398681640626,8.129083251953126
6.858000000000004,7.757336425781251,-0.1401153564453125,6.864306640625
6.867999999999995,8.56961669921875,-0.4143646240234375,6.73570556640625
6.878999999999962,6.958364868164063,-0.0130096435546875,6.811221313476563
6.88900000000001,5.666671752929688,-0.2086029052734375,8.89739990234375
6.899999999999977,4.77738037109375,-0.1030303955078125,8.213421630859376
6.908999999999992,6.719705200195313,0.0327484130859375,6.476260375976563
6.918999999999983,8.759078979492188,0.216827392578125,4.915402221679688
6.928999999999981,9.878955078125,-0.338250732421875,3.8836029052734378
6.9389999999999645,9.062188720703126,-0.164190673828125,4.248620605468751
6.949000000000012,6.966290283203126,-0.418402099609375,7.208688354492188
6.959000000000003,5.655157470703125,-1.3180114746093752,6.808978271484375
6.968999999999994,5.236007690429688,0.0297576904296875,5.75714111328125
6.978999999999985,4.837045288085938,-0.2615386962890625,4.801007080078126
6.988999999999976,8.850146484375001,-0.9992004394531252,6.386837768554688
7.000999999999976,13.906860351562502,0.5641998291015625,8.667413330078126
7.009000000000015,9.860113525390624,0.3614288330078125,6.0958404541015625
7.019999999999982,4.181927490234376,-0.9042449951171876,8.56363525390625
7.029999999999973,2.706903076171875,-0.98873291015625,12.462490844726563
7.039999999999964,5.884695434570313,-1.187615966796875,7.408917236328126
7.050000000000011,8.544793701171876,-0.5254699707031251,1.5955505371093752
7.060000000000002,10.415939331054688,-0.340045166015625,2.7964752197265628
7.069999999999993,11.477645874023438,0.5748168945312501,5.044601440429688
7.079999999999984,7.981640625000001,0.8033081054687501,5.499789428710938
7.089999999999975,5.164678955078125,0.01375732421875,9.567471313476563
7.099999999999966,2.979058837890625,-0.022430419921875,10.904025268554689
7.110000000000021,13.155142211914065,-0.4197479248046875,5.8535919189453125
7.1200000000000045,8.487222290039064,-0.7101470947265626,1.538427734375
7.129999999999996,6.916943359375001,0.160302734375,2.4236816406250004
7.139999999999986,8.115924072265626,0.5683868408203125,4.597787475585938
7.149999999999977,5.110546875000001,-1.3097869873046877,9.335690307617188
7.159999999999968,6.00836181640625,-1.006378173828125,6.753051757812501
7.170999999999992,8.664422607421876,-1.52646484375,5.991314697265626
7.180999999999983,8.773135375976564,-1.440032958984375,8.591299438476563
7.190999999999981,8.223739624023438,-0.9640594482421876,6.901092529296876
7.200999999999965,5.929107666015625,0.1604522705078125,7.10655517578125
7.211000000000013,5.069873046875,-0.13218994140625,9.731661987304689
7.221000000000004,6.148776245117188,-0.1625457763671875,7.646530151367188
7.230999999999994,7.372879028320313,0.128900146484375,5.0650878906250005
7.2409999999999854,9.362008666992187,0.6808380126953125,3.1523712158203128
7.250999999999976,9.762615966796876,0.687567138671875,4.034783935546876
7.260999999999967,8.160784912109376,0.398065185546875,5.600576782226563
7.271000000000015,6.749761962890625,0.7086517333984376,6.50841064453125
7.281000000000006,6.385491943359376,-0.5627044677734375,7.9182373046875005
7.290999999999997,7.012197875976563,-1.8229949951171875,8.221197509765625
7.301999999999964,7.075003051757813,-1.060061645507813,6.029446411132813
7.310999999999979,6.142346191406251,-0.8664123535156251,3.911865234375
7.322000000000003,4.83599853515625,-0.9012542724609376,4.417596435546876
7.331999999999994,4.9873291015625005,-1.09759521484375,6.228778076171875
7.341999999999984,11.821429443359376,-1.0011444091796875,8.324227905273439
7.351999999999975,13.790969848632814,0.0767120361328125,6.890026855468751
7.361999999999966,9.461749267578126,-1.0507904052734376,5.42935791015625
7.372000000000021,4.141104125976563,-0.145947265625,10.820285034179689
7.382000000000005,2.8675048828125003,0.93968505859375,11.780606079101563
7.391999999999996,5.084378051757813,1.2380096435546877,6.364706420898438
7.401999999999987,7.024459838867188,0.3401947021484375,2.0392242431640626
7.411999999999978,12.439910888671877,0.6249114990234376,3.731076049804688
7.421999999999969,10.880847167968753,0.8347106933593751,4.922280883789063
7.432000000000016,7.547537231445313,0.7696624755859376,4.442568969726563
7.442000000000007,4.421783447265625,0.1120025634765625,10.509848022460938
7.4529999999999745,5.673699951171876,-0.2549591064453125,11.826663208007814
7.462999999999965,9.961648559570314,-1.443023681640625,5.678485107421875
7.473000000000013,9.331802368164062,-1.320254516601563,1.1505310058593752
7.483000000000004,7.769598388671875,-1.0400238037109375,1.9166046142578128
7.492999999999995,7.2154174804687505,-1.6266540527343751,3.220260620117188
7.502999999999986,5.92880859375,-1.5263153076171876,5.563491821289063
7.512999999999977,3.709243774414063,-1.161297607421875,13.609582519531251
7.522999999999968,8.760424804687501,-0.280230712890625,7.090255737304688
7.533000000000015,10.201654052734376,-0.446514892578125,6.951785278320313
7.543000000000006,7.941265869140626,1.2013732910156252,6.765014648437501
7.552999999999997,5.257092285156251,1.40264892578125,6.25479736328125
7.562999999999988,4.918243408203125,0.9495544433593752,8.489614868164063
7.572999999999979,6.796267700195313,0.337054443359375,7.584024047851563
7.58299999999997,8.351593017578125,0.41331787109375,3.7277862548828127
7.593000000000018,9.532778930664064,0.2412017822265625,2.60791015625
7.603999999999985,9.223986816406253,-0.131292724609375,4.333856201171876
7.613999999999976,8.079287719726564,-0.9103759765625,5.340084838867188
7.623999999999967,5.432498168945313,-1.65028076171875,12.543090820312502
7.6340000000000146,5.49395751953125,-1.412518310546875,7.495050048828125
7.644000000000005,6.599179077148438,-1.7081512451171876,4.176992797851563
7.653999999999996,5.611492919921876,-0.552984619140625,3.07625732421875
7.663999999999987,6.969131469726563,-0.5985931396484375,5.755197143554688
7.673999999999978,11.981283569335938,0.1215728759765625,7.882797241210938
7.683999999999969,11.858963012695312,0.7657745361328125,7.193136596679688
7.694000000000017,6.178085327148438,-0.258697509765625,7.653857421875
7.704000000000008,3.4616119384765627,-0.4677490234375,11.317941284179687
7.713999999999999,4.741342163085938,0.30565185546875,9.02420654296875
7.724999999999966,7.903732299804688,-0.18721923828125,3.1045196533203128
7.735000000000021,9.524105834960938,0.2193695068359375,2.672958374023437
7.745000000000003,11.236294555664063,0.97796630859375,5.573361206054688
7.7549999999999955,8.107998657226563,0.394775390625,5.946453857421876
7.764999999999986,3.481051635742188,-0.700726318359375,11.02066345214844
7.774999999999977,8.668310546875,-0.480010986328125,7.094442749023438
7.784999999999968,8.363107299804689,-2.2457336425781254,7.190744018554688
7.795000000000016,9.0714599609375,-0.8619262695312501,4.057513427734375
7.805000000000007,8.065081787109376,0.6555664062500001,2.518637084960938
7.814999999999998,7.804141235351563,0.0773101806640625,3.1822784423828128
7.824999999999989,6.728228759765625,-0.225201416015625,4.514047241210938
7.8349999999999795,5.518182373046876,-0.8433837890625001,7.0628906250000005
7.84499999999997,5.713925170898438,-1.2475799560546876,11.201751708984377
7.855000000000018,9.612631225585938,-1.5421661376953126,6.757537841796876
7.865000000000009,9.532928466796877,-0.15791015625,5.975314331054688
7.875,6.501980590820313,0.6989318847656251,6.713125610351563
7.885999999999967,4.683920288085938,1.1774475097656252,8.797061157226564
7.896000000000015,5.112490844726563,0.0835906982421875,8.706143188476563
7.906000000000006,7.518975830078125,-0.3222503662109375,5.2375030517578125
7.916999999999973,9.271838378906253,0.013458251953125,3.0294525146484377
7.925999999999988,9.88433837890625,-0.0276641845703125,3.818106079101563
7.935999999999979,8.583972167968751,0.3578399658203125,4.522421264648438
7.9459999999999695,6.603216552734375,-0.325390625,8.448043823242188
7.956000000000017,5.110397338867188,-0.8125793457031251,10.818939208984377
7.966000000000008,8.111737060546876,-1.6125976562500002,5.968884277343751
7.975999999999999,7.302746582031251,-0.9343017578125,3.6974304199218753
7.98599999999999,5.920135498046875,-0.6410614013671876,4.485186767578125
7.995999999999981,4.291238403320313,-0.6865203857421875,5.2150726318359375
8.005999999999972,7.176089477539063,-1.4990997314453125,7.6101928710937505
8.017999999999972,13.696463012695313,0.0234771728515625,9.50257263183594
8.026999999999987,11.428448486328126,-0.1326385498046875,4.8748779296875
8.036999999999978,6.695181274414063,0.01614990234375,7.268801879882813
8.046999999999969,3.0536773681640628,0.9960601806640624,10.49429626464844
8.057000000000016,4.080990600585938,0.706707763671875,8.655001831054689
8.067000000000007,6.411062622070313,0.5462554931640625,3.043060302734375
8.076999999999998,9.916937255859375,0.52935791015625,3.247625732421876
8.086999999999989,12.117361450195313,0.185125732421875,5.501583862304688
8.09699999999998,8.503970336914064,-0.1640411376953125,9.515283203125
8.106999999999971,5.7792724609375,-0.286212158203125,7.277175903320313
8.117000000000019,5.599978637695313,-0.8145233154296876,9.449935913085938
8.12700000000001,7.988818359375,-0.9435729980468752,6.905728149414063
8.137999999999977,9.0475341796875,-1.6247100830078127,1.959820556640625
8.146999999999991,8.630178833007813,-0.7258483886718751,2.2837158203125
8.156999999999982,7.457965087890625,-1.1565124511718752,3.728533935546875
8.166999999999973,6.909317016601563,-0.557769775390625,4.536477661132813
8.177999999999997,5.949594116210938,0.0897216796875,5.66741943359375
8.187999999999988,5.171408081054688,-0.58558349609375,15.097616577148438
8.197999999999979,10.041799926757813,-0.0596649169921875,5.8845458984375005
8.20799999999997,10.0583984375,-0.076861572265625,6.168515014648438
8.218000000000018,4.292733764648438,1.23038330078125,5.666671752929688
8.228000000000009,5.59324951171875,0.3790740966796875,7.602566528320313
8.238,5.154959106445313,0.0059814453125,9.465188598632814
8.24799999999999,7.845114135742188,-0.2926422119140625,4.82164306640625
8.257999999999981,9.415542602539062,0.5653961181640625,2.9265716552734378
8.267999999999972,9.686053466796876,0.0127105712890625,4.09429931640625
8.277999999999963,8.401986694335939,-0.8785247802734376,5.088116455078126
8.288000000000011,5.831460571289063,-1.2003265380859376,11.713015747070314
8.298000000000002,5.550930786132813,-1.2251495361328126,7.162332153320313
8.308999999999969,6.202459716796875,-1.0445098876953125,2.931356811523438
8.319000000000017,5.366403198242188,-0.2531646728515625,4.226937866210938
8.329000000000008,7.164126586914063,-0.649884033203125,5.677737426757813
8.338999999999999,12.839471435546876,0.372943115234375,7.862609863281251
8.34899999999999,12.471762084960938,0.5027404785156251,7.264315795898438
8.35899999999998,5.7720947265625,-0.9435729980468752,8.192037963867188
8.368999999999971,2.9032440185546875,-0.417803955078125,11.75054931640625
8.378999999999962,3.8665557861328126,0.1638916015625,9.83828125
8.38900000000001,7.905825805664063,-0.4347015380859375,2.905935668945313
8.399000000000001,9.540255737304689,-0.1314422607421875,2.177694702148438
8.408999999999992,11.299996948242187,0.340643310546875,4.860372924804688
8.418999999999983,8.941064453125001,0.8257385253906251,4.458120727539063
8.42899999999998,6.905728149414063,0.4661041259765625,5.173651123046875
8.439999999999998,3.2794769287109378,-0.990826416015625,14.870919799804687
8.449000000000012,9.723138427734376,-0.9556854248046877,8.458062744140626
8.45999999999998,9.267053222656251,-1.3942749023437502,3.493463134765625
8.46999999999997,8.453277587890625,0.304754638671875,1.453790283203125
8.480000000000018,7.656250000000001,0.6471923828125,3.251214599609375
8.490000000000009,6.084027099609376,-0.1634429931640625,4.227984619140625
8.5,5.235858154296875,-1.4183502197265625,9.095086669921876
8.509999999999991,5.9850341796875,-0.811383056640625,9.42496337890625
8.519999999999982,10.268048095703126,-1.939035034179688,6.607553100585938
8.529999999999973,9.82392578125,-0.9106750488281252,5.486032104492188
8.539999999999964,6.304592895507813,0.4134674072265625,8.044296264648438
8.550000000000011,4.833755493164063,0.9924713134765626,7.529592895507813
8.560000000000002,5.347412109375,0.1200775146484375,8.23944091796875
8.569999999999993,7.417889404296876,-0.048150634765625,6.715667724609376
8.579999999999984,8.652758789062501,0.0318511962890625,2.852252197265625
8.589999999999975,10.038211059570314,0.1604522705078125,3.666177368164063
8.600999999999999,8.750704956054689,0.4406829833984375,4.3667541503906255
8.61099999999999,7.071862792968751,0.090618896484375,7.731466674804688
8.620999999999981,3.450396728515625,-0.6467437744140625,11.876608276367188
8.630999999999972,8.628982543945312,-1.2490753173828126,6.297714233398438
8.640999999999963,8.507260131835938,-1.0486968994140626,4.112841796875
8.65100000000001,6.354089355468751,-1.011163330078125,3.968389892578125
8.661000000000001,4.523916625976563,-1.214532470703125,4.786203002929688
8.670999999999992,4.363763427734376,-1.6087097167968751,7.185958862304688
8.680999999999983,10.639495849609377,-1.0757629394531252,9.365597534179688
8.690999999999981,13.231405639648438,-0.0121124267578125,5.645587158203125
8.700999999999965,10.421023559570314,-0.3901397705078125,3.987380981445313
8.711000000000013,5.81695556640625,0.2615386962890625,8.415744018554689
8.721000000000004,1.2089996337890625,1.0163970947265626,14.65274658203125
8.730999999999995,5.850900268554688,1.4509490966796876,5.85882568359375
8.742000000000019,6.817202758789063,0.1724151611328125,2.9482543945312503
8.75200000000001,11.888870239257812,0.724951171875,4.1977783203125005
8.762,11.811859130859377,1.024322509765625,4.4838409423828125
8.771999999999991,5.175445556640625,1.1152404785156251,6.262722778320313
8.781999999999982,6.177337646484376,0.459075927734375,8.999832153320312
8.791999999999973,6.8559326171875,-1.1097076416015623,11.273678588867188
8.801999999999964,8.7532470703125,-1.7144317626953127,4.009512329101563
8.812000000000012,9.574798583984377,-1.3534515380859375,2.050140380859375
8.822000000000003,7.944705200195313,-0.8720947265625001,2.9765167236328125
8.831999999999994,7.54439697265625,-1.30814208984375,3.5854278564453126
8.841999999999985,5.878115844726563,-1.3465728759765625,4.500888061523438
8.851999999999975,4.768707275390625,-1.152325439453125,13.062579345703126
8.861999999999966,8.092446899414064,-0.44442138671875,7.665222167968751
8.872000000000021,9.898245239257813,-0.457879638671875,6.993954467773438
8.882999999999981,6.792828369140626,0.641510009765625,6.617572021484375
8.892999999999972,5.969183349609375,0.834112548828125,6.955374145507813
8.902999999999963,5.102621459960938,0.9876861572265626,8.876763916015626
8.913000000000011,6.61607666015625,0.5036376953125,6.764266967773438
8.923000000000002,8.381649780273438,0.5073760986328125,3.884649658203125
8.932999999999993,9.531881713867188,0.2794830322265625,2.8245880126953127
8.942999999999984,8.982037353515626,0.3635223388671875,4.347015380859375
8.952999999999975,7.095639038085938,-1.2721038818359376,8.63062744140625
8.962999999999965,6.1063079833984375,-1.7135345458984377,8.516381835937501
8.973000000000013,6.29307861328125,-1.2788330078125,4.491616821289063
8.983000000000004,4.905682373046876,-1.350161743164063,5.022769165039063
8.992999999999995,5.778225708007813,-1.6206726074218751,5.591006469726563
9.002999999999986,11.478991699218753,-0.44083251953125,7.424917602539063
9.012999999999977,13.446289062500002,0.3739898681640625,6.9372802734375005
9.024,7.706793212890625,-0.8154205322265625,6.193786621093751
9.033999999999992,2.816513061523437,-0.524871826171875,11.710922241210938
9.043999999999984,2.5856292724609378,1.1548675537109376,12.454266357421876
9.05399999999998,7.537368774414063,0.3473724365234375,4.17325439453125
9.063999999999965,9.891217041015626,0.3026611328125,2.241845703125
9.074000000000012,11.58291931152344,0.4318603515625,4.136618041992188
9.084000000000003,9.897796630859377,0.8217010498046876,4.878317260742188
9.093999999999994,6.682321166992188,0.603826904296875,3.9333984375
9.103999999999983,6.151168823242188,0.137872314453125,5.653512573242188
9.113999999999976,3.6474853515625,-0.931011962890625,17.163308715820314
9.123999999999969,12.37486267089844,-0.4586273193359375,4.965347290039063
9.134000000000016,8.829510498046876,-1.18013916015625,2.8796173095703126
9.144000000000004,5.907574462890626,-0.319708251953125,2.40513916015625
9.153999999999996,6.404632568359376,-0.1164886474609375,3.539968872070313
9.163999999999987,7.016085815429688,-1.139764404296875,4.527056884765625
9.173999999999978,7.710830688476563,-1.2625335693359376,3.820050048828125
9.185000000000002,7.698120117187501,-2.588919067382813,14.961389160156251
9.194999999999991,9.183612060546876,-1.0068267822265626,6.501232910156251
9.204999999999984,8.488418579101562,-0.964208984375,6.666171264648438
9.216999999999985,2.776885986328125,1.2620849609375,8.428454589843751
9.224999999999966,4.892971801757813,1.1592041015625,8.127587890625001
9.23500000000002,8.564981079101564,1.36556396484375,5.959313964843751
9.245000000000005,8.484381103515625,0.3988128662109375,3.4792572021484376
9.254999999999995,9.763513183593751,0.113348388671875,3.1282958984375004
9.264999999999986,9.2724365234375,0.45279541015625,3.9144073486328126
9.274999999999975,7.499685668945313,0.3321197509765625,5.568276977539063
9.284999999999968,3.1087066650390627,-0.9242828369140624,13.053457641601565
9.295000000000016,9.038412475585938,-0.8746368408203126,7.884442138671876
9.305999999999983,8.367144775390626,-1.6616455078125,3.974819946289063
9.317000000000007,6.6352172851562505,-1.4406311035156252,5.4064788818359375
9.325999999999963,4.0138488769531255,-1.4733795166015626,4.847662353515625
9.336000000000013,4.303051757812501,-1.0606597900390626,4.9518890380859375
9.346000000000004,8.6934326171875,-1.3986114501953126,8.029043579101563
9.355999999999996,15.321472167968752,-0.2044158935546875,7.849600219726563
9.365999999999984,12.131118774414062,0.491973876953125,5.050732421875001
9.375999999999976,6.173599243164063,0.2839691162109375,5.8965087890625005
9.385999999999967,0.6590057373046876,0.5217315673828126,14.64736328125
9.396000000000017,2.400503540039063,1.6435516357421875,9.364102172851563
9.406000000000006,7.334149169921876,0.43126220703125,1.6875152587890627
9.416999999999971,10.775723266601563,0.2859130859375,3.4388824462890626
9.425999999999988,13.019064331054688,0.246136474609375,4.121066284179688
9.437000000000012,9.048281860351564,0.02093505859375,6.353341674804688
9.44599999999997,5.966790771484376,0.3288299560546875,4.306341552734375
9.456000000000016,4.8724853515625,-1.1804382324218752,14.602053833007814
9.466999999999985,7.745672607421875,-0.7731018066406251,8.6982177734375
9.476999999999975,9.638351440429688,-1.56654052734375,2.459271240234376
9.486999999999966,7.754495239257813,-0.4813568115234375,0.9963592529296876
9.49700000000002,8.3991455078125,-1.0564727783203125,2.419943237304688
9.507000000000003,6.699667358398438,-0.7348205566406251,4.277780151367188
9.516999999999996,6.291732788085938,0.0095703125,4.53214111328125
9.526999999999989,7.837039184570313,0.5036376953125,4.921084594726563
9.536999999999978,8.826968383789064,-0.6304443359375,16.91492919921875
9.546999999999969,8.06597900390625,-0.2883056640625,7.61796875
9.557000000000016,6.752005004882813,-0.9854431152343752,7.268353271484376
9.567000000000007,3.1145385742187504,-0.3805694580078125,9.815850830078126
9.576999999999998,4.427316284179688,-0.0743194580078125,8.387481689453125
9.586999999999987,7.42955322265625,0.320306396484375,4.179385375976563
9.59699999999998,9.890020751953124,0.213836669921875,2.2406494140625
9.608000000000004,10.421023559570314,0.2669219970703125,3.568679809570313
9.617999999999997,9.398345947265623,-0.052935791015625,4.5686279296875005
9.627999999999986,7.494003295898438,-0.31641845703125,5.074060058593751
9.637999999999977,6.443511962890626,-0.1200775146484375,8.403033447265626
9.647999999999968,5.97666015625,-0.902899169921875,5.418292236328125
9.658000000000015,5.380010986328125,-0.875982666015625,7.374374389648438
9.668000000000006,4.873980712890625,-0.2237060546875,4.113589477539063
9.677999999999995,6.981842041015626,-0.1912567138671875,4.5506835937500005
9.687999999999988,12.867584228515629,0.0243743896484375,9.36499938964844
9.69799999999998,12.003265380859377,0.6293975830078126,9.15699462890625
9.70799999999997,6.415847778320313,-0.5214324951171876,7.820440673828125
9.718999999999994,3.037826538085937,-1.0129577636718752,12.17508239746094
9.728000000000009,4.25579833984375,-0.6959411621093751,9.153256225585938
9.738999999999976,7.989566040039063,-0.8224487304687501,1.861575317382813
9.748999999999969,8.916390991210939,-0.375634765625,1.9435211181640624
9.759000000000016,10.665963745117187,0.0297576904296875,4.228433227539063
9.769000000000004,9.342568969726564,0.7061096191406251,5.5328369140625
9.778999999999996,7.462750244140626,0.316119384765625,5.002133178710938
9.788999999999987,4.378118896484375,-1.570428466796875,13.891607666015624
9.798999999999978,10.158587646484376,-1.0415191650390625,9.494497680664065
9.808999999999967,9.783251953125,-1.1684753417968752,3.414508056640625
9.819000000000017,5.572015380859376,0.3931304931640625,2.2102935791015628
9.829000000000008,6.786398315429688,0.5040863037109375,3.308636474609376
9.839,7.601968383789063,0.5643493652343751,3.6847198486328128
9.84899999999999,6.3211914062500005,-0.538031005859375,6.878662109375001
9.85899999999998,6.384744262695313,-0.3856536865234375,9.5356201171875
9.868999999999971,9.84844970703125,-1.0706787109375,7.278073120117188
9.878999999999962,8.573355102539063,-0.74588623046875,6.8439697265625
9.889999999999986,6.630581665039063,-0.15372314453125,8.058801269531251
9.899999999999975,4.591357421875,0.2600433349609375,9.146228027343753
9.909999999999968,5.962155151367188,-0.2513702392578125,7.3248779296875
9.920000000000016,7.706195068359375,-0.106768798828125,4.479055786132813
9.930000000000009,8.472567749023439,-0.4595245361328125,2.9536376953125
9.939999999999998,9.264361572265626,0.01375732421875,3.9911193847656254
9.949999999999989,8.517727661132813,0.2190704345703125,5.0306945800781255
9.95999999999998,6.799258422851563,0.018841552734375,10.198214721679689
9.96999999999997,6.912457275390626,0.174359130859375,8.474810791015626
9.980000000000018,7.57908935546875,-0.2612396240234375,5.805889892578126
9.990000000000007,7.334747314453126,-0.9710876464843752,5.7792724609375
10.0,5.75115966796875,-0.8498138427734375,5.600875854492188
10.009999999999993,4.610647583007813,-0.6032287597656251,4.350454711914063
10.019999999999987,4.910916137695313,-0.831121826171875,4.9107666015625
10.031000000000006,10.271487426757814,-0.9283203125,7.788888549804688
10.040999999999997,13.280902099609376,-0.0399261474609375,7.555911254882813
10.050999999999988,10.089801025390626,-0.701025390625,5.703158569335938
10.06099999999998,5.529397583007813,-0.4936187744140625,9.393112182617188
10.07099999999997,3.830517578125,0.488385009765625,11.179022216796875
10.081000000000016,5.242437744140625,0.9589752197265624,7.270297241210938
10.091000000000008,6.814361572265626,0.369354248046875,2.618975830078125
10.101,10.588653564453123,0.0435150146484375,3.682327270507813
10.11099999999999,10.301095581054687,0.7908966064453126,7.463198852539063
10.12099999999998,7.440170288085938,-0.260791015625,6.738845825195313
10.130999999999972,6.124850463867188,-0.0312530517578125,7.249661254882813
10.140999999999964,6.801351928710938,0.049346923828125,9.49539489746094
10.15100000000001,8.837435913085939,-1.32369384765625,4.799511718750001
10.161999999999978,9.2987548828125,-0.9482086181640624,2.70660400390625
10.171999999999969,8.054763793945312,-0.755157470703125,2.837298583984375
10.182000000000016,7.445404052734376,-1.0845855712890626,3.648980712890625
10.192000000000007,5.395263671875,-1.2970764160156252,8.481240844726564
10.201999999999998,4.698873901367188,-0.2723052978515625,8.856427001953126
10.211999999999987,7.526751708984375,0.1111053466796875,7.975210571289063
10.22199999999998,9.952676391601564,-0.179144287109375,5.871087646484376
10.231999999999973,8.308975219726562,-0.096600341796875,6.963150024414063
10.24200000000002,5.889031982421876,0.3784759521484375,8.808575439453126
10.25200000000001,5.06448974609375,0.229388427734375,8.138055419921876
10.262,6.500933837890625,0.2835205078125,6.5499816894531255
10.271999999999984,7.769000244140625,0.602630615234375,4.216320800781251
10.283000000000015,9.213369750976565,0.1858734130859375,3.341085815429688
10.29199999999998,9.449337768554688,-0.1948455810546875,4.004876708984376
10.301999999999964,8.227926635742188,-0.4756744384765625,5.354739379882813
10.312999999999988,5.583978271484376,-1.0475006103515625,11.246463012695314
10.32299999999998,5.475863647460938,-1.40504150390625,6.983187866210938
10.33400000000001,6.150570678710938,-1.0956512451171876,3.8237884521484378
10.343000000000018,5.1667724609375005,-1.0763610839843751,4.214825439453126
10.353000000000009,8.580084228515625,-0.7828216552734376,5.722747802734375
10.363,13.249200439453126,0.46595458984375,7.937677001953125
10.37299999999999,11.006307983398438,-0.38221435546875,7.731466674804688
10.382999999999988,5.128042602539063,-0.5982940673828125,9.350494384765623
10.39299999999998,2.9310577392578128,-0.3997100830078125,11.245565795898438
10.402999999999963,4.6842193603515625,0.9055908203125,8.830258178710938
10.413000000000013,7.846310424804688,0.1900604248046875,2.4383361816406253
10.423000000000002,10.04703369140625,-0.001495361328125,2.195489501953125
10.433999999999967,10.974606323242188,0.6041259765625,4.2785278320312505
10.442999999999984,8.614178466796876,0.538330078125,5.275485229492188
10.454000000000008,6.557608032226563,0.426177978515625,5.7459259033203125
10.464,3.619073486328125,-0.247930908203125,16.016516113281252
10.47399999999999,11.529833984375,-0.7565032958984376,6.451437377929688
10.48399999999998,8.131326293945314,-1.25849609375,3.7811706542968753
10.493999999999971,6.994702148437501,-0.0659454345703125,1.6483367919921876
10.503999999999962,8.007211303710939,-0.46236572265625,2.8078399658203126
10.51400000000001,6.501083374023438,-1.0609588623046875,5.300607299804688
10.524,5.171109008789063,-1.3438812255859376,9.926657104492188
10.533999999999985,7.135266113281251,-1.44930419921875,6.547439575195313
10.543999999999984,9.506161499023438,-0.7004272460937501,7.870086669921876
10.55399999999998,8.792724609375,-0.49586181640625,6.560000610351563
10.563999999999965,7.052871704101563,0.7696624755859376,6.899746704101563
10.57400000000002,4.78575439453125,0.90618896484375,8.368490600585938
10.58400000000001,6.001782226562501,0.3648681640625,8.317947387695312
10.593999999999994,6.916644287109375,0.2471832275390625,4.375875854492188
10.603999999999983,8.933438110351563,0.1981353759765625,3.768011474609376
10.615000000000007,9.373373413085938,0.064300537109375,3.5135009765625003
10.625,9.129180908203123,0.0572723388671875,4.991815185546876
10.634999999999993,5.576950073242188,-0.1039276123046875,10.499380493164065
10.644999999999987,6.580487060546876,-0.8230468750000001,8.78494873046875
10.65499999999998,7.572210693359375,-1.37752685546875,6.145187377929688
10.664999999999964,7.230969238281251,-1.45169677734375,5.6357177734375
10.675000000000018,5.4000488281250005,-1.1236145019531252,3.724346923828125
10.68500000000001,4.189703369140625,-0.9191986083984376,4.107308959960938
10.694999999999991,5.572015380859376,-1.4650054931640626,5.57769775390625
10.704999999999984,13.134954833984375,-0.7261474609375,9.115423583984375
10.714999999999977,14.265447998046875,0.38580322265625,7.679876708984375
10.724999999999966,9.1013671875,-0.36307373046875,5.9448089599609375
10.73599999999999,3.6600463867187503,0.319708251953125,10.406817626953126
10.74599999999998,2.3251373291015627,1.2383087158203123,11.9138427734375
10.755999999999972,4.0709716796875,1.2909454345703126,5.720953369140625
10.765999999999964,8.094839477539063,0.304156494140625,1.54739990234375
10.77600000000001,12.356320190429688,0.6428558349609376,3.3364501953125
10.786999999999978,11.2989501953125,0.7364654541015625,5.458966064453126
10.795999999999992,6.981243896484376,0.287109375,4.368548583984375
10.805999999999983,6.22130126953125,-0.2555572509765625,7.737149047851563
10.81599999999998,4.178488159179688,-1.5737182617187502,17.109475708007814
10.825999999999963,10.221841430664064,-1.21124267578125,4.530346679687501
10.83600000000002,8.506661987304689,-1.337152099609375,1.6967864990234376
10.84600000000001,7.644287109375001,-0.6433044433593751,0.6776977539062501
10.855999999999996,7.169659423828126,-1.6314392089843752,3.436639404296875
10.865999999999984,5.632427978515626,-0.969891357421875,4.2565460205078125
10.875999999999976,6.755145263671875,0.3931304931640625,4.866952514648438
10.885999999999967,6.765463256835938,-0.5707794189453126,17.462380981445314
10.896999999999984,10.678375244140623,-0.2806793212890625,5.515789794921876
10.906999999999982,9.741531372070312,0.0432159423828125,7.137060546875
10.91699999999998,2.1320861816406254,1.0614074707031251,7.39964599609375
10.926999999999964,5.378665161132813,0.6936981201171876,7.480245971679688
10.93700000000002,6.931149291992188,0.9186004638671876,6.803146362304688
10.94700000000001,7.975958251953125,-0.2308837890625,3.654214477539063
10.956999999999994,9.864599609375,0.25421142578125,3.0904632568359376
10.966999999999985,9.343914794921876,-0.333465576171875,4.415802001953125
10.976999999999975,7.984780883789063,-0.9314605712890626,5.2041564941406255
10.986999999999966,6.076550292968751,-1.6284484863281252,10.030136108398438
10.99700000000002,4.347015380859375,-1.1321380615234375,10.6170654296875
11.007000000000003,5.98563232421875,-1.18133544921875,2.8772247314453128
11.016999999999996,6.303396606445313,-0.7016235351562501,3.2399993896484376
11.026999999999989,9.672146606445311,-0.22490234375,5.633624267578125
11.038000000000013,13.45107421875,0.3241943359375,7.005169677734376
11.048000000000002,9.11856384277344,0.7579986572265626,7.867544555664063
11.057999999999993,3.760684204101562,-0.5719757080078125,10.756433105468751
11.067999999999984,3.0783508300781253,-0.1140960693359375,11.43173828125
11.077999999999976,5.928060913085938,0.26796875,6.8430725097656255
11.087999999999964,9.2652587890625,-0.4364959716796875,1.8428833007812504
11.09800000000002,10.529287719726565,-0.3004180908203125,3.737356567382813
11.108000000000011,10.473211669921875,0.29488525390625,4.765866088867188
11.117999999999997,7.756439208984376,0.8306732177734376,4.6093017578125
11.127999999999986,4.450643920898438,-0.9553863525390626,11.408560180664065
11.137999999999977,5.0834808349609375,-0.8586364746093751,9.443356323242188
11.147999999999968,11.192031860351562,-1.7645263671875002,5.278775024414063
11.158000000000015,9.312063598632813,0.08314208984375,2.1712646484375
11.168000000000006,7.557705688476563,0.499749755859375,2.580096435546875
11.177999999999995,7.07724609375,0.26856689453125,4.188656616210938
11.188999999999965,4.823736572265625,-1.035687255859375,10.423416137695312
11.19900000000002,5.359375,-0.7316802978515625,7.549481201171876
11.20900000000001,8.438772583007813,-0.49945068359375,5.310925292968751
11.218999999999994,9.87820739746094,-0.7213623046875001,7.995547485351563
11.228999999999983,8.425912475585939,-0.7663726806640626,6.34451904296875
11.238999999999976,5.335897827148438,0.35111083984375,7.85244140625
11.248999999999969,4.820895385742188,0.613995361328125,8.280264282226563
11.259000000000016,6.279769897460938,-0.188116455078125,7.59105224609375
11.269000000000004,8.124148559570314,-0.5372833251953125,4.5556182861328125
11.278999999999996,9.393411254882814,-0.0865814208984375,2.924179077148437
11.288999999999987,9.830953979492188,-0.1758544921875,4.318005371093751
11.298999999999978,7.882797241210938,0.4643096923828125,4.32518310546875
11.308999999999967,4.93289794921875,-0.57720947265625,12.1124267578125
11.319999999999991,6.261825561523438,-0.2011260986328125,8.607748413085938
11.329999999999984,8.310470581054688,-1.163690185546875,5.597735595703125
11.339999999999977,7.317401123046875,-0.5324981689453125,3.7206085205078128
11.349999999999966,5.541510009765625,-0.22789306640625,3.863265991210938
11.36000000000002,4.216619873046875,-0.7745971679687501,5.638409423828126
11.370000000000005,8.334097290039063,-1.1281005859375002,9.015533447265623
11.379999999999995,12.354226684570314,-0.0968994140625,7.523760986328125
11.389999999999986,10.314703369140624,-0.421392822265625,4.817007446289063
11.399999999999975,7.0419555664062505,0.17705078125,9.30712890625
11.409999999999968,5.013348388671876,0.37384033203125,10.657589721679688
11.420000000000016,5.469433593750001,0.34871826171875,7.553369140625
11.430000000000009,6.501531982421875,0.7553070068359375,3.294879150390625
11.439999999999998,9.644631958007814,0.34632568359375,3.856536865234376
11.450999999999963,9.9878173828125,-0.0506927490234375,5.478405761718751
11.46100000000002,7.450637817382813,-0.1562652587890625,6.317303466796876
11.47100000000001,5.379711914062501,-0.109759521484375,7.729971313476563
11.480999999999996,7.007412719726563,-0.638519287109375,9.151760864257811
11.490999999999984,9.180621337890626,-1.6954406738281251,6.633273315429688
11.500999999999976,9.336587524414064,-0.9651062011718752,3.5929046630859376
11.510999999999967,8.652758789062501,-0.6177337646484375,2.850457763671875
11.521000000000017,6.900344848632813,-0.2145843505859375,3.440228271484376
11.531000000000006,5.6771392822265625,-0.8936279296875,7.290036010742188
11.540999999999997,3.734515380859375,-0.32957763671875,9.551620483398438
11.550999999999988,8.695376586914064,-0.0752166748046875,7.007263183593751
11.56099999999998,8.497241210937501,0.255706787109375,5.81396484375
11.57099999999997,9.047683715820312,-0.1416107177734375,7.014889526367188
11.581000000000016,5.792282104492188,0.5794525146484375,8.825473022460939
11.591000000000008,5.415151977539063,-0.19080810546875,8.955270385742189
11.601,6.944009399414063,-0.2755950927734375,6.553570556640626
11.61099999999999,7.972967529296875,0.28651123046875,4.196432495117188
11.62200000000002,8.5379150390625,0.28232421875,3.0894165039062504
11.632000000000003,8.589505004882813,-0.323297119140625,3.498397827148438
11.641999999999996,7.670156860351563,-1.2103454589843752,6.407025146484376
11.651999999999989,5.069723510742188,-0.8405426025390625,10.363003540039063
11.661999999999978,5.715420532226563,-0.5339935302734375,5.073760986328125
11.671999999999969,5.78704833984375,-0.2660247802734375,4.452288818359375
11.682000000000016,8.397201538085938,-0.90618896484375,6.930252075195313
11.692000000000007,12.976745605468752,0.2962310791015625,8.225234985351562
11.701999999999998,10.875762939453123,0.5613586425781251,5.986529541015625
11.711999999999987,4.946057128906251,-0.6084625244140626,7.708737182617188
11.72199999999998,2.643499755859376,-1.0228271484375,10.688394165039064
11.731999999999973,3.948052978515625,-0.7026702880859376,10.682113647460938
11.742999999999997,8.256039428710938,-0.521282958984375,1.2481781005859376
11.752999999999986,10.754638671875,-0.405242919921875,3.153268432617188
11.762999999999977,12.108538818359376,0.3952239990234375,4.875326538085938
11.772999999999968,8.832501220703126,0.905889892578125,5.576950073242188
11.783000000000015,5.691793823242188,0.0426177978515625,8.024407958984376
11.793000000000006,2.00438232421875,-0.5408721923828126,12.20155029296875
11.802999999999995,11.250650024414064,-0.5275634765625,6.253302001953125
11.812999999999988,9.076095581054688,-0.7029693603515625,2.3605773925781253
11.82299999999998,7.8509460449218755,0.0405242919921875,2.129843139648438
11.83400000000001,8.197122192382814,0.4517486572265625,3.2115875244140626
11.843000000000018,6.911410522460938,-0.0779083251953125,6.491812133789063
11.853000000000009,4.3365478515625,-1.3438812255859376,10.702151489257814
11.863,7.550527954101563,-1.67659912109375,6.848455810546875
11.87299999999999,10.014883422851565,-1.119876098632813,6.7219482421875005
11.882999999999988,8.520718383789063,-1.2408508300781251,6.249114990234376
11.89299999999998,6.656002807617188,-0.12860107421875,6.894662475585938
11.903999999999996,4.388436889648438,0.055328369140625,8.741583251953125
11.913999999999987,5.413656616210938,-0.4119720458984375,9.028543090820314
11.923999999999978,6.897952270507813,0.1514801025390625,6.514541625976563
11.933999999999967,9.30653076171875,0.475225830078125,4.0068206787109375
11.944000000000017,9.999630737304688,-0.0118133544921875,3.195138549804688
11.954000000000008,9.3035400390625,0.5558258056640626,4.962506103515626
11.964,6.0849243164062505,1.1601013183593751,6.902438354492188
11.97399999999999,6.137112426757813,0.337652587890625,7.029095458984376
11.98399999999998,7.0533203125,-1.0431640625,7.0225158691406255
11.993999999999971,6.6097961425781255,-1.4410797119140626,6.182571411132813
12.003999999999962,6.674246215820313,-1.1554656982421876,3.907080078125
12.01400000000001,4.7136779785156255,-1.00428466796875,5.069424438476563
12.024,7.681072998046876,-1.605419921875,8.321835327148438
12.034999999999968,12.353030395507814,-0.277838134765625,8.706292724609376
12.045000000000016,10.549624633789064,-0.5945556640625,5.631082153320313
12.055000000000009,6.511102294921876,-0.088525390625,6.872680664062501
12.064999999999998,4.291986083984376,0.6156402587890626,10.23245849609375
12.074999999999989,5.215521240234375,0.6911560058593751,8.59234619140625
12.08499999999998,6.901092529296876,0.4789642333984375,3.5649414062500004
12.09499999999997,9.380401611328123,0.2189208984375,3.2598876953125004
12.105000000000018,10.595083618164065,0.8345611572265625,7.968032836914063
12.115000000000007,7.751354980468751,0.335260009765625,7.885787963867188
12.125,6.260330200195313,0.161199951171875,6.142944335937501
12.134999999999993,6.444857788085938,-0.0803009033203125,8.339929199218751
12.144999999999987,8.695077514648439,-1.6857208251953126,6.087017822265626
12.15499999999998,8.839529418945313,-1.3456756591796877,3.83590087890625
12.164999999999964,8.07435302734375,-0.880169677734375,2.7193145751953125
12.175000000000018,7.803692626953126,-0.7879058837890626,3.690103149414063
12.18599999999998,6.329266357421876,-1.018191528320313,4.526907348632813
12.19599999999997,4.784259033203125,-0.7074554443359375,11.933132934570311
12.206000000000016,7.1095458984375,0.119329833984375,7.076199340820313
12.216000000000008,9.5021240234375,-0.1096099853515625,5.731869506835938
12.226,8.587860107421875,-0.33795166015625,7.099826049804688
12.23599999999999,5.756243896484375,0.256005859375,9.240585327148438
12.24599999999998,4.735809326171875,0.6317901611328125,7.779617309570313
12.255999999999972,6.576000976562501,0.5344421386718751,6.934140014648438
12.265999999999964,7.746121215820313,0.36068115234375,4.701416015625
12.27600000000001,9.290679931640623,0.2044158935546875,3.610101318359375
12.286,9.0810302734375,0.262286376953125,3.6563079833984378
12.295999999999992,8.20355224609375,-0.5964996337890626,5.260232543945313
12.305999999999983,5.9642486572265625,-1.36376953125,11.46927185058594
12.31599999999998,5.95811767578125,-1.365115356445313,6.622357177734376
12.325999999999963,6.352145385742188,-0.5875274658203126,3.4139099121093754
12.336999999999987,5.426815795898438,-0.5686859130859375,4.886242675781251
12.34699999999998,7.182968139648438,-1.0898193359375,5.464498901367188
12.356999999999973,12.359310913085938,0.130096435546875,8.506961059570314
12.36700000000002,12.345852661132811,0.2546600341796875,7.612286376953126
12.37700000000001,6.1686645507812505,-1.0612579345703126,7.874572753906251
12.387,2.0544769287109377,-0.5304046630859376,9.7904296875
12.396999999999984,3.002984619140625,0.2962310791015625,10.95740966796875
12.406999999999982,7.999136352539063,-0.2050140380859375,2.4025970458984376
12.41699999999998,10.2821044921875,-0.2232574462890625,2.1933959960937504
12.426999999999964,12.035565185546876,0.405242919921875,4.526010131835938
12.43700000000002,9.786990356445314,0.8200561523437501,5.891424560546875
12.44700000000001,6.719256591796875,0.186322021484375,6.494503784179688
12.456999999999994,1.919894409179688,-0.3361572265625,15.354071044921875
12.468000000000018,9.830953979492188,-0.309539794921875,5.95572509765625
12.478000000000009,8.298956298828125,-1.01385498046875,3.596942138671875
12.488,9.0929931640625,-0.2923431396484375,1.534539794921875
12.49799999999999,7.892816162109375,0.5235260009765625,3.095697021484375
12.507999999999988,6.870736694335938,-0.0734222412109375,5.4479003906250005
12.51799999999998,4.5974884033203125,-1.5628021240234375,10.641589355468753
12.527999999999963,7.584921264648438,-1.5508392333984375,6.934140014648438
12.538000000000013,9.572854614257814,-1.0594635009765625,5.005572509765625
12.548000000000002,9.602014160156251,-1.245486450195313,6.539065551757813
12.557999999999993,6.599777221679688,-0.2095001220703125,6.401193237304688
12.567999999999984,4.7002197265625005,0.033795166015625,9.961798095703124
12.577999999999976,4.411614990234376,-0.1466949462890625,8.963793945312501
12.587999999999964,6.576599121093751,-0.0686370849609375,8.052670288085938
12.59800000000002,8.434136962890626,0.3007171630859375,4.3544921875
12.608000000000011,10.960250854492188,0.3961212158203125,3.4215362548828128
12.618999999999971,8.807229614257814,0.781475830078125,3.7572448730468753
12.628999999999962,7.984332275390625,0.7004272460937501,5.052825927734375
12.63900000000001,4.612142944335938,0.6335845947265626,7.660586547851563
12.649,7.852890014648438,-0.6335845947265626,6.212628173828126
12.658999999999985,7.663577270507813,-1.51749267578125,7.816403198242188
12.668999999999984,7.266857910156251,-0.988134765625,5.608651733398438
12.67899999999998,5.675344848632813,-1.459771728515625,4.200619506835938
12.688999999999965,4.213031005859375,-1.6296447753906251,6.64957275390625
12.69900000000002,5.673699951171876,-1.4950622558593751,7.08621826171875
12.70900000000001,12.239382934570314,-0.1538726806640625,7.635464477539063
12.718999999999994,14.11142578125,0.1344329833984375,6.365753173828126
12.728999999999983,9.308624267578123,-0.245538330078125,5.047891235351563
12.738999999999976,2.577105712890625,-0.6403137207031251,11.019616699218751
12.750999999999976,1.878173828125,1.0614074707031251,12.5287353515625
12.759999999999993,4.9861328125,1.2203643798828123,6.186758422851563
12.769999999999987,9.5427978515625,0.225799560546875,2.32977294921875
12.77999999999998,12.105099487304688,0.8037567138671876,2.953338623046875
12.789999999999964,11.402877807617188,0.9138153076171877,5.714672851562501
12.800000000000018,7.1813232421875,0.6132476806640625,5.1093505859375
12.81000000000001,6.182870483398438,0.78297119140625,6.846511840820313
12.819999999999991,2.0254669189453125,-0.3147735595703125,9.348251342773438
12.829999999999984,12.008050537109376,-1.1270538330078126,7.808328247070313
12.839999999999977,9.524853515625,-1.3936767578125,2.056271362304688
12.851999999999975,7.598977661132813,-1.4934173583984376,1.529156494140625
12.86000000000002,7.585818481445313,-1.341339111328125,4.200619506835938
12.87099999999998,5.9652954101562505,-0.8441314697265626,3.990371704101563
12.879999999999995,6.473419189453126,-1.1665313720703123,8.334396362304688
12.890999999999964,6.612637329101563,-0.19320068359375,14.691326904296876
12.90100000000001,11.000326538085938,-1.128997802734375,5.256045532226563
12.911,7.523910522460938,-0.5700317382812501,6.141299438476563
12.920999999999992,3.940576171875,-0.3186614990234375,10.156643676757811
12.930999999999983,4.978207397460938,0.0853851318359375,8.668011474609376
12.94099999999998,6.957467651367188,0.12501220703125,7.117321777343751
12.951999999999998,8.153607177734376,0.442327880859375,3.8795654296875
12.96100000000002,9.878506469726563,0.1806396484375,2.9842926025390626
12.97100000000001,9.297857666015624,0.1852752685546875,3.28441162109375
12.980999999999996,7.517630004882813,-0.42049560546875,7.387832641601563
12.990999999999984,6.588562011718751,-1.0956512451171876,6.64658203125
13.000999999999976,6.650469970703125,-1.0972961425781251,6.5090087890625
13.010999999999967,5.231671142578126,-1.078155517578125,5.843273925781251
13.021999999999984,4.936636352539063,-0.6258087158203125,4.348062133789063
13.031999999999982,6.072811889648438,-0.1493865966796875,4.447055053710938
13.04199999999998,12.983175659179688,0.09031982421875,7.473367309570313
13.051999999999964,14.022900390625,0.941778564453125,8.251104736328125
13.06200000000002,7.2387451171875,0.2500244140625,7.999584960937501
13.07200000000001,2.6240600585937504,-0.490478515625,10.29825439453125
13.081999999999994,1.8415374755859373,0.1173858642578125,14.204287719726564
13.091999999999985,7.197174072265626,-0.7496246337890625,2.9347961425781253
13.101999999999975,9.121554565429689,-0.695343017578125,1.19150390625
13.111999999999966,11.064627075195313,-0.5359375000000001,3.55477294921875
13.12200000000002,11.019467163085938,0.5935089111328126,5.411712646484375
13.132000000000003,7.463348388671876,0.5347412109375,5.43115234375
13.141999999999996,6.443960571289063,0.0016448974609375,4.066336059570313
13.151999999999989,5.849703979492188,-2.777334594726563,16.191921997070313
13.161999999999978,7.186407470703125,-0.487786865234375,7.663726806640626
13.173000000000002,11.592340087890626,-0.5701812744140625,2.387493896484376
13.182000000000016,4.78575439453125,-0.086431884765625,1.935296630859375
13.192999999999984,7.566378784179688,0.5692840576171876,3.8323120117187504
13.202999999999976,7.001281738281251,0.378326416015625,4.770053100585938
13.212999999999964,7.200762939453125,0.499749755859375,3.4209381103515626
13.22300000000002,9.539059448242188,0.30206298828125,4.847064208984375
13.233000000000011,7.287792968750001,-2.386895751953125,15.03540954589844
13.242999999999997,4.190899658203126,-0.6120513916015625,8.0952880859375
13.252999999999986,8.816799926757813,0.342138671875,6.301602172851563
13.262999999999977,4.475765991210938,-1.5856811523437502,11.003466796875
13.272999999999968,6.909765625,-0.279034423828125,6.162683105468751
13.283000000000015,8.48408203125,-0.462664794921875,2.8078399658203126
13.293000000000006,9.764111328125,-0.070880126953125,1.885052490234375
13.302999999999995,9.690689086914062,0.4565338134765625,4.715472412109375
13.312999999999988,6.808230590820313,-0.8228973388671875,9.31116638183594
13.32299999999998,6.32896728515625,0.315521240234375,9.001177978515626
13.33400000000001,7.430300903320313,-0.1435546875,5.800955200195313
13.343999999999994,7.228576660156251,-1.0917633056640623,7.073059082031251
13.353999999999983,6.5395141601562505,-0.5710784912109376,5.7960205078125
13.363999999999976,5.070770263671875,-0.268267822265625,3.4001525878906254
13.373999999999969,5.17813720703125,-1.021630859375,3.910519409179688
13.384000000000016,7.472320556640626,-0.9615173339843752,7.454824829101563
13.394000000000004,12.311608886718751,-0.7180725097656251,8.274581909179688
13.403999999999996,12.228317260742188,-0.2226593017578125,5.439974975585938
13.413999999999987,7.716213989257813,-0.8997589111328126,7.212725830078125
13.423999999999978,3.8436767578125,0.1915557861328125,10.978494262695314
13.433999999999967,4.3582305908203125,0.7606903076171876,9.286642456054688
13.444999999999991,6.011801147460938,0.9721343994140624,4.675845336914063
13.454999999999984,8.849847412109376,0.55447998046875,3.2175689697265626
13.464999999999977,11.083767700195311,0.2513702392578125,4.858578491210938
13.474999999999966,8.078540039062501,1.093408203125,8.142990112304688
13.48500000000002,6.392669677734376,0.855047607421875,7.407122802734375
13.495000000000005,6.283657836914063,0.1221710205078125,7.177883911132813
13.504999999999995,8.651712036132814,-1.827630615234375,7.481143188476563
13.514999999999986,8.789584350585939,-1.4916229248046875,4.273443603515625
13.524999999999975,8.806481933593751,-0.7168762207031251,2.99849853515625
13.534999999999968,7.619165039062499,-1.2716552734375002,3.423480224609375
13.545000000000016,6.571514892578126,-1.3094879150390626,4.073214721679688
13.555000000000009,4.942617797851563,-0.9882843017578126,9.562985229492188
13.564999999999998,5.75115966796875,-0.2438934326171875,7.820590209960938
13.575999999999963,9.479095458984377,-0.024224853515625,6.943710327148438
13.58499999999998,8.435333251953125,-0.5825927734375,7.814758300781251
13.59499999999997,6.976907348632813,0.0934600830078125,8.800350952148438
13.605999999999996,5.396011352539063,1.0289581298828123,7.522415161132813
13.615999999999984,5.843273925781251,0.624761962890625,7.334896850585938
13.625999999999976,7.142892456054688,0.9034973144531252,5.538967895507813
13.635999999999967,8.717507934570314,0.352008056640625,3.398208618164063
13.646000000000017,9.176882934570314,0.047552490234375,3.6108489990234376
13.656000000000006,9.012991333007813,0.03170166015625,4.730725097656251
13.665999999999997,6.704153442382813,-1.136773681640625,8.237197875976562
13.675999999999988,5.273541259765626,-1.5037353515625,8.646328735351563
13.68599999999998,5.413058471679688,-0.6694732666015626,5.2375030517578125
13.69599999999997,5.403637695312501,-1.179541015625,4.9723754882812505
13.706000000000016,9.0439453125,-0.8332153320312501,6.769351196289063
13.716000000000008,12.950128173828126,0.1640411376953125,7.024160766601563
13.726999999999975,10.3837890625,-0.0342437744140625,5.9036865234375
13.73599999999999,4.489224243164063,-1.0681365966796876,8.823379516601562
13.74700000000002,2.7016693115234376,-0.8605804443359376,11.27203369140625
13.757000000000003,5.098434448242188,-0.496160888671875,8.567373657226563
13.766999999999996,8.9685791015625,-0.1975372314453125,1.801760864257813
13.776999999999989,10.348348999023438,0.21234130859375,3.0040313720703127
13.786999999999978,11.373419189453124,0.8064483642578125,5.28759765625
13.796999999999969,7.764663696289063,0.8489166259765626,5.9730712890625
13.807000000000016,3.0014892578125,0.6869689941406251,13.131216430664065
13.817000000000007,7.335644531250001,-0.01734619140625,6.415249633789063
13.826999999999998,10.1983642578125,-1.3259368896484376,5.818899536132813
13.836999999999987,8.366546630859375,-0.6282012939453125,3.365011596679688
13.84699999999998,7.561294555664063,0.5109649658203126,3.070574951171875
13.856999999999973,7.605258178710938,0.2322296142578125,3.929660034179688
13.86700000000002,6.225936889648438,-1.4207427978515623,7.925265502929688
13.877999999999986,5.903536987304688,-1.713983154296875,8.315853881835938
13.887,7.936331176757813,-1.5936065673828126,5.384347534179688
13.897999999999968,9.302493286132814,-1.2619354248046877,7.216165161132813
13.906999999999982,7.800253295898438,-0.8692535400390625,7.1334716796875
13.918000000000006,6.235058593750001,-0.11304931640625,7.655502319335938
13.927999999999995,5.045498657226563,0.8070465087890626,8.873773193359376
13.937999999999988,6.189898681640625,0.350811767578125,8.83758544921875
13.94799999999998,6.485382080078126,0.3440826416015625,5.524014282226563
13.95799999999997,9.766354370117188,0.408233642578125,3.427816772460938
13.968000000000018,9.363653564453124,0.313427734375,3.6503265380859378
13.978000000000009,9.45606689453125,0.7140350341796875,4.022970581054688
13.988,5.807385253906251,0.8608795166015626,7.076797485351563
13.99799999999999,7.260876464843751,0.112451171875,6.977655029296876
14.007999999999988,6.542056274414063,-1.95174560546875,8.2029541015625
14.01799999999998,6.423175048828125,-1.831967163085937,6.7354064941406255
14.027999999999963,5.959613037109375,-1.7326751708984376,4.472177124023438
14.038999999999987,5.168865966796876,-1.3577880859375,4.764520263671876
14.048999999999978,8.570364379882813,-1.083538818359375,7.512396240234375
14.058999999999967,12.74287109375,-0.145050048828125,8.760424804687501
14.069000000000017,10.65101013183594,-0.2259490966796875,5.907275390625
14.079000000000008,5.683270263671876,-0.241351318359375,6.555664062500001
14.089,3.1761474609375004,0.7834197998046876,11.582620239257814
14.09899999999999,5.0401153564453125,1.2522155761718752,6.970776367187501
14.10899999999998,7.207192993164063,0.4882354736328125,3.406881713867188
14.118999999999971,10.089501953125,0.4305145263671875,3.429312133789063
14.128999999999962,11.29102478027344,0.8104858398437501,6.550729370117188
14.13900000000001,6.992010498046875,0.7023712158203126,10.873370361328126
14.149,6.895709228515625,0.122918701171875,6.722994995117188
14.158999999999985,6.738247680664063,-0.244342041015625,6.183319091796876
14.170000000000016,7.8479553222656255,-1.762432861328125,6.359024047851563
14.17899999999998,8.181420898437501,-1.1541198730468751,3.464004516601563
14.189999999999998,8.235253906250001,-1.0699310302734375,2.5464508056640627
14.199999999999989,8.43623046875,-1.3687042236328126,3.7648712158203126
14.20999999999998,7.212725830078125,-1.1539703369140626,5.0176849365234375
14.21999999999997,4.778277587890625,-0.6347808837890625,11.29237060546875
14.230000000000018,7.080087280273438,0.5420684814453125,7.942013549804688
14.240000000000007,9.256585693359376,0.36666259765625,5.9383789062500005
14.25200000000001,8.3919677734375,-0.3623260498046875,6.449343872070313
14.259999999999993,6.047091674804688,0.4275238037109375,7.919134521484375
14.269999999999987,4.8452697753906255,0.6108551025390625,7.983883666992188
14.27999999999998,5.5500335693359375,0.2260986328125,7.406973266601563
14.289999999999964,7.389178466796875,0.432757568359375,5.68895263671875
14.300000000000018,9.5786865234375,0.238360595703125,4.132730102539063
14.31000000000001,9.953723144531253,-0.3835601806640625,3.75634765625
14.32099999999997,8.739489746093751,-0.5265167236328125,5.6636810302734375
14.329999999999984,5.743084716796876,-1.0525848388671877,9.61517333984375
14.341000000000008,5.941220092773438,-1.436444091796875,6.725238037109375
14.351999999999975,5.618670654296875,-1.161746215820313,4.554721069335938
14.36099999999999,5.266513061523438,-0.8089904785156251,4.160394287109376
14.37099999999998,7.279867553710938,-0.4687957763671875,5.008712768554688
14.380999999999972,12.552212524414063,0.1395172119140625,8.417687988281251
14.390999999999964,12.5502685546875,0.3997100830078125,8.140298461914064
14.40100000000001,6.659442138671875,-0.7632324218750001,7.833151245117188
14.411,2.0136535644531253,-0.611004638671875,9.810168457031253
14.420999999999992,2.623162841796875,0.5329467773437501,11.362652587890626
14.430999999999983,7.7196533203125,0.02452392578125,2.7656707763671875
14.44099999999998,9.925460815429688,-0.3303253173828125,1.5951019287109376
14.451999999999998,11.433233642578124,-0.0273651123046875,4.800558471679688
14.46100000000002,10.631121826171876,1.0576690673828126,5.918341064453125
14.47199999999998,7.306784057617188,0.6428558349609376,5.253204345703125
14.481999999999973,4.644143676757813,-0.987835693359375,14.843255615234376
14.49200000000002,2.5042816162109376,-0.1320404052734375,8.393313598632814
14.50200000000001,14.236138916015626,-0.3506622314453125,3.812423706054688
14.512,7.553817749023438,-0.8215515136718751,0.8644683837890625
14.521999999999984,6.980047607421875,-0.034393310546875,2.560357666015625
14.531999999999982,7.065283203125,0.366363525390625,4.8247833251953125
14.54199999999998,7.135415649414063,-0.40015869140625,3.7415435791015614
14.551999999999964,7.18790283203125,-2.3116790771484377,10.255636596679688
14.56200000000002,7.682568359375001,-1.3806671142578126,10.73370361328125
14.57200000000001,10.101614379882813,-1.5005950927734375,6.3774169921875
14.581999999999994,6.210684204101563,-0.440533447265625,5.6871582031250005
14.591999999999985,5.155557250976563,0.1039276123046875,9.187350463867189
14.601999999999975,4.641152954101563,0.0897216796875,8.983233642578126
14.611999999999966,6.395660400390626,0.6933990478515626,6.697723388671876
14.62299999999999,8.47989501953125,0.51260986328125,3.67440185546875
14.632000000000003,10.13675537109375,0.1164886474609375,3.6181762695312494
14.64299999999998,9.716259765625,0.4032989501953125,3.55955810546875
14.652999999999963,7.694830322265625,0.9796112060546877,6.702059936523438
14.663000000000013,5.762225341796875,0.37384033203125,7.201510620117188
14.673000000000002,7.127340698242188,-1.044659423828125,7.600323486328126
14.682999999999993,6.652713012695313,-1.607363891601563,7.897900390625001
14.692999999999984,7.137359619140626,-1.4973052978515626,4.709341430664063
14.702999999999976,5.829965209960938,-0.7602416992187501,4.289743041992188
14.712999999999964,4.563693237304688,-1.4391357421875002,5.2345123291015625
14.72300000000002,6.25120849609375,-1.4016021728515626,7.334149169921876
14.733000000000011,12.952371215820314,0.05921630859375,8.943756103515625
14.742999999999997,13.23977966308594,-0.2600433349609375,5.978604125976563
14.753999999999962,8.409014892578126,-0.8728424072265626,6.201263427734376
14.76400000000001,2.911917114257813,0.5508911132812501,10.774078369140623
14.774,2.8869445800781253,1.2110931396484377,10.037313842773438
14.783999999999985,4.913308715820313,0.8930297851562501,5.408123779296876
14.793999999999984,8.819491577148439,0.4104766845703125,2.0899169921875003
14.80399999999998,12.640737915039065,0.8556457519531251,3.89451904296875
14.813999999999965,10.803985595703123,1.0486968994140626,5.35159912109375
14.82400000000002,7.089059448242188,0.6148925781250001,5.6098480224609375
14.83400000000001,3.375030517578125,-0.375933837890625,13.795904541015624
14.843999999999994,6.058905029296875,-0.8765808105468751,10.002770996093751
14.853999999999983,10.555157470703126,-1.01983642578125,3.581838989257813
14.863999999999976,8.651712036132814,-1.1929992675781251,0.902001953125
14.873999999999969,8.433837890625,-1.498651123046875,2.009616088867188
14.884000000000016,6.715817260742188,-1.52467041015625,3.85264892578125
14.894000000000004,5.806637573242188,-0.783270263671875,4.643545532226563
14.90499999999998,4.606610107421876,-0.9592742919921876,13.1986572265625
14.914999999999964,8.835940551757814,0.368157958984375,9.158489990234376
14.925000000000018,10.965634155273438,-0.6563140869140626,7.074554443359376
14.93500000000001,5.9851837158203125,0.9197967529296877,5.581585693359376
14.944999999999991,6.126943969726563,0.902899169921875,6.851296997070313
14.954999999999984,4.723995971679688,0.8967681884765626,7.779318237304688
14.964999999999977,6.061746215820313,-0.026617431640625,7.738345336914063
14.974999999999966,8.623300170898439,0.1359283447265625,3.90648193359375
14.98500000000002,9.930844116210938,0.505133056640625,3.4961547851562504
14.995000000000005,9.084619140625,-1.142755126953125,4.676593017578125
15.004999999999995,7.869638061523438,-0.271258544921875,5.037423706054688
15.014999999999986,4.646685791015625,-1.6384674072265626,12.183157348632813
15.024999999999975,5.204006958007813,-0.8010650634765626,5.716766357421875
15.034999999999968,6.164627075195313,-1.42896728515625,3.7120849609375
15.045000000000016,7.626193237304688,-0.665435791015625,4.702911376953125
15.055999999999983,12.383984375,-0.0623565673828125,7.319793701171876
15.06599999999998,11.590695190429688,0.77100830078125,6.717910766601563
15.075999999999963,5.5929504394531255,-0.62745361328125,7.942611694335938
15.08600000000002,2.2626312255859378,-0.8227478027343751,11.094683837890626
15.09600000000001,3.742739868164063,0.213836669921875,10.849295043945313
15.105999999999996,8.802444458007812,-0.1197784423828125,3.148483276367188
15.115999999999984,10.546932983398438,-0.183331298828125,2.1977325439453126
15.125999999999976,12.04423828125,0.5785552978515626,4.66971435546875
15.135999999999967,9.039010620117187,1.284814453125,5.982342529296876
15.146000000000017,5.759234619140625,0.201873779296875,7.265213012695313
15.156000000000006,1.7890502929687502,-0.1051239013671875,12.725674438476563
15.168999999999984,7.735653686523438,-0.468646240234375,5.981594848632813
15.175999999999988,12.476846313476564,-0.533245849609375,2.2916412353515625
15.18700000000002,7.994052124023438,-1.0956512451171876,1.92542724609375
15.19700000000001,7.742980957031251,0.4678985595703125,3.947454833984376
15.206999999999994,6.219805908203125,-0.902001953125,6.507513427734375
15.216999999999985,5.2887939453125,-1.9180999755859376,11.073748779296876
15.226999999999975,7.562789916992188,-1.5663909912109375,5.64110107421875
15.236999999999966,8.994598388671875,-0.80689697265625,6.21292724609375
15.24700000000002,8.644085693359376,-0.9697418212890626,7.1660705566406255
15.257000000000003,6.781015014648438,0.2947357177734375,6.710284423828125
15.26799999999998,4.553524780273438,-0.0264678955078125,8.460305786132814
15.276999999999989,5.8456665039062505,0.1586578369140625,9.206640625
15.286999999999978,6.896755981445313,0.292193603515625,7.056460571289063
15.296999999999969,9.455319213867188,0.5393768310546876,3.504229736328125
15.307000000000016,9.429000854492188,0.24822998046875,3.525314331054688
15.317999999999984,9.315353393554688,0.442327880859375,3.927117919921875
15.327999999999976,6.710284423828125,0.7686157226562501,6.14114990234375
15.337999999999964,4.875326538085938,0.1873687744140625,7.084573364257813
15.34800000000002,7.371084594726563,-1.4676971435546875,7.421328735351563
15.358000000000011,6.99888916015625,-1.4004058837890625,6.247171020507813
15.367999999999997,6.36844482421875,-1.4437713623046875,3.9314544677734378
15.377999999999986,4.777081298828126,-1.5318481445312502,5.646932983398438
15.387999999999977,7.81834716796875,-1.5092681884765626,8.03726806640625
15.397999999999968,13.022354125976564,0.1447509765625,9.841720581054688
15.408000000000015,10.576840209960938,0.15252685546875,5.492312622070313
15.418000000000006,6.123953247070313,-0.032598876953125,6.584674072265625
15.427999999999995,3.0651916503906254,0.1251617431640625,11.281454467773438
15.437999999999988,5.146884155273438,0.7433441162109375,7.871133422851563
15.44799999999998,6.799557495117188,0.8182617187500001,3.740646362304688
15.45799999999997,9.614874267578124,0.154022216796875,2.974722290039063
15.468999999999994,12.383535766601565,0.380718994140625,5.225390625
15.478999999999983,7.361813354492188,0.8432342529296876,7.459161376953125
15.488999999999976,6.7309204101562505,-0.1981353759765625,6.537869262695313
15.498999999999969,5.5136962890625005,-0.4954132080078125,10.683908081054687
15.509000000000016,7.713671875,-2.0060272216796875,7.433590698242188
15.519000000000004,8.832052612304688,-1.5759613037109377,2.265621948242188
15.528999999999996,8.381500244140625,-0.6939971923828125,2.70421142578125
15.538999999999987,8.34710693359375,-0.7061096191406251,3.372189331054688
15.548999999999978,6.869390869140625,-0.428271484375,4.136019897460938
15.558999999999967,5.677288818359376,-0.7672698974609375,8.148822021484376
15.569000000000017,5.539715576171876,0.6552673339843751,12.953717041015626
15.579000000000008,10.115521240234376,-0.2920440673828125,6.493008422851563
15.589,8.593243408203126,0.12261962890625,4.806988525390626
15.59899999999999,6.397604370117188,0.90858154296875,7.001132202148438
15.60899999999998,4.676892089843751,0.2165283203125,7.756439208984376
15.618999999999971,5.442218017578125,-0.2785858154296875,8.595486450195313
15.629999999999995,7.523013305664063,-0.0632537841796875,5.19847412109375
15.639999999999986,9.428402709960938,0.20755615234375,3.470285034179688
15.649999999999975,9.817196655273438,-0.36666259765625,4.056915283203125
15.659999999999968,8.003323364257813,-1.0427154541015626,6.643441772460938
15.670000000000016,6.2927795410156255,-0.9884338378906252,9.49793701171875
15.680000000000009,6.439923095703126,-0.9316101074218752,6.724938964843751
15.689999999999998,6.401492309570313,-0.4194488525390625,5.265615844726563
15.699999999999989,5.61478271484375,0.229986572265625,3.7892456054687504
15.70999999999998,5.013198852539063,-0.075665283203125,4.451541137695313
15.71999999999997,8.840875244140626,-0.125909423828125,6.741986083984376
15.730000000000018,13.482327270507811,0.4655059814453125,8.112783813476563
15.740000000000007,10.73355407714844,0.9018524169921877,7.833749389648438
15.750999999999976,4.960861206054688,-0.36546630859375,8.787490844726562
15.760999999999967,3.1613433837890628,-0.9030487060546876,11.070458984375
15.771000000000017,4.760931396484375,-1.1683258056640626,9.331802368164062
15.781000000000006,8.205346679687501,-0.8931793212890625,1.8608276367187504
15.790999999999997,9.858767700195314,-0.7861114501953126,2.541067504882813
15.800999999999988,11.13446044921875,-0.2926422119140625,4.605563354492188
15.81099999999998,8.050576782226564,0.67530517578125,4.412362670898438
15.82099999999997,6.052175903320313,-0.6044250488281251,7.72264404296875
15.831000000000016,4.966244506835938,-1.505679321289063,13.908505249023438
15.841000000000008,9.893460083007811,-1.82254638671875,6.893765258789063
15.851,9.236697387695314,0.2974273681640625,2.84716796875
15.86099999999999,7.4445068359375,0.593060302734375,2.808587646484375
15.87099999999998,7.565032958984376,0.6718658447265625,3.399703979492188
15.880999999999972,6.770098876953125,0.6225189208984375,4.501486206054688
15.890999999999964,3.274093627929688,-0.7022216796875,11.523403930664063
15.901999999999989,8.85194091796875,-0.0025421142578125,6.666619873046876
15.911999999999978,9.727774047851565,-1.418499755859375,6.181973266601563
15.921999999999969,8.53372802734375,-0.3285308837890625,6.785202026367188
15.932000000000016,6.322387695312501,0.098992919921875,6.55028076171875
15.942000000000007,4.86351318359375,-0.059515380859375,9.362457275390623
15.951999999999998,5.640652465820313,-1.0800994873046876,8.361013793945313
15.961999999999987,7.862759399414063,-0.3572418212890625,4.47711181640625
15.97199999999998,9.053515625,0.1577606201171875,3.0581634521484378
15.981999999999973,9.5571533203125,-0.12142333984375,3.877172851562501
15.99200000000002,8.374322509765626,0.38759765625,4.798913574218751
16.00200000000001,5.16856689453125,-0.46715087890625,11.304931640625
16.012,6.594393920898438,0.38580322265625,8.595635986328126
16.021999999999984,8.080035400390626,-0.0375335693359375,5.9252197265625
16.031999999999982,7.309326171875001,-0.483599853515625,3.787002563476563
16.04199999999998,5.609249877929688,-0.6119018554687501,4.212432861328125
16.051999999999964,3.725543212890625,-0.8952728271484376,4.87786865234375
16.062999999999988,6.714022827148438,-1.828677368164063,7.355084228515626
16.07299999999998,13.83433532714844,-0.5157501220703126,9.223837280273438
16.08299999999997,12.704589843750002,-0.5764617919921875,5.777926635742188
16.093000000000018,7.222894287109375,-1.4989501953125002,6.030343627929688
16.10300000000001,2.796923828125,0.149835205078125,11.728268432617188
16.113,3.2699066162109376,1.17056884765625,11.581124877929687
16.12299999999999,6.248965454101563,0.6407623291015625,3.2699066162109376
16.13299999999999,9.369186401367188,0.3672607421875,2.1636383056640627
16.14299999999998,12.527688598632814,0.432757568359375,4.371987915039063
16.152999999999963,10.021612548828124,0.9513488769531252,5.5280517578125
16.16300000000001,6.572860717773438,0.6234161376953126,4.637713623046875
16.173000000000002,3.628494262695313,0.6782958984375,15.53306579589844
16.182999999999993,6.3271728515625005,-0.0186920166015625,7.518377685546875
16.194000000000017,10.290328979492188,-1.0920623779296876,3.958670043945313
16.204000000000008,8.398248291015626,-0.72315673828125,0.847271728515625
16.214,8.463894653320313,-1.3853027343750002,2.648284912109375
16.22399999999999,6.807931518554688,-1.457379150390625,4.0805419921875
16.23399999999998,5.680429077148438,-1.629345703125,6.45457763671875
16.24399999999997,5.094097900390626,-1.0403228759765626,13.197161865234376
16.253999999999962,9.995892333984376,-0.66334228515625,6.437979125976563
16.26400000000001,8.611785888671875,-0.159405517578125,6.058157348632813
16.274,7.084872436523438,0.7158294677734376,6.424969482421876
16.283999999999985,4.843475341796875,0.5468536376953126,7.984780883789063
16.293999999999983,5.396908569335938,0.5269653320312501,9.51767578125
16.30399999999998,7.024758911132813,0.7843170166015626,5.472872924804688
16.313999999999965,9.025103759765626,0.228192138671875,2.782418823242188
16.32400000000002,9.633566284179688,0.7529144287109375,3.6332794189453126
16.33400000000001,8.616421508789063,0.4089813232421875,4.8512512207031255
16.34499999999997,6.419287109375,-1.3239929199218752,10.523306274414065
16.355000000000018,6.7473693847656255,-1.31890869140625,7.959658813476563
16.36500000000001,7.210482788085938,-1.09759521484375,5.757440185546876
16.375,5.814712524414063,-1.48519287109375,5.06688232421875
16.38499999999999,4.789642333984375,-1.1159881591796876,4.297219848632813
16.39499999999999,5.140304565429688,-0.932806396484375,4.40054931640625
16.40499999999998,11.312258911132814,-0.2331268310546875,7.527050781250001
16.414999999999964,14.50425720214844,0.43963623046875,7.907022094726563
16.42500000000002,9.557601928710938,-0.19140625,7.176986694335938
16.43500000000001,3.01763916015625,-0.200079345703125,9.34840087890625
16.444999999999993,2.04625244140625,-0.1614990234375,11.676379394531253
16.454999999999984,5.17454833984375,0.78895263671875,7.530789184570313
16.464999999999975,8.983682250976564,-0.0897216796875,1.051089477539063
16.476,10.905969238281251,0.0375335693359375,2.618826293945313
16.48599999999999,11.986965942382811,0.6679779052734376,5.74517822265625
16.49599999999998,8.214318847656251,0.90977783203125,5.721102905273438
16.505999999999972,6.530691528320313,0.3961212158203125,5.42218017578125
16.515999999999963,2.925973510742188,-1.5260162353515625,17.956597900390626
16.52600000000001,5.687008666992188,-0.136376953125,4.4537841796875
16.536,13.923309326171877,0.101983642578125,3.037677001953125
16.545999999999992,6.616375732421876,-0.742596435546875,1.0923614501953125
16.555999999999983,7.127041625976563,-1.0518371582031252,3.754702758789063
16.56599999999998,7.144537353515625,-0.7907470703125,4.529449462890625
16.575999999999965,7.257138061523438,-0.2968292236328125,3.790890502929688
16.58600000000002,8.682666015625001,-0.4212432861328125,6.051876831054688
16.59600000000001,8.135513305664062,-2.4990478515625,15.641180419921875
16.605999999999995,7.90328369140625,-1.6384674072265626,6.751705932617188
16.61700000000002,6.136514282226563,-0.0160003662109375,5.7260375976562505
16.62700000000001,3.185418701171875,0.3976165771484375,10.792471313476565
