time,ax,ay,az
0.0,0.48868408203125,9.959255981445311,2.92791748046875
0.009999999999998,-0.5688354492187501,8.634664916992188,3.192745971679688
0.0199999999999818,1.059014892578125,9.861309814453126,2.53912353515625
0.0300000000000864,0.265277099609375,9.002374267578126,2.83699951171875
0.0400000000000773,0.5775085449218751,9.35916748046875,2.9161041259765628
0.0500000000000753,0.8855529785156251,9.287838745117188,3.170465087890625
0.0600000000000662,-0.401953125,8.963046264648439,3.3715911865234376
0.07000000000005,0.8414398193359376,9.590350341796876,3.1936431884765626
0.0800000000000409,-0.6895111083984375,9.112881469726563,3.0445556640625
0.0900000000000318,0.0506927490234375,9.190939331054688,3.0500885009765626
0.1000000000000227,-0.0488983154296875,9.726577758789062,2.786007690429688
0.1100000000000136,-1.017144775390625,8.58157958984375,2.931954956054688
0.1200000000000045,0.557171630859375,9.955517578125,2.7541564941406254
0.1299999999999954,-0.9419281005859376,7.602566528320313,3.3775726318359376
0.1410000000000764,-0.168975830078125,9.253445434570311,3.0798461914062503
0.1510000000000673,-0.494366455078125,10.854229736328126,2.9587219238281253
0.1610000000000582,0.8439819335937501,9.109442138671875,3.976315307617188
0.1710000000000491,-0.0853851318359375,7.930050659179688,4.013250732421875
0.18100000000004,-2.445065307617188,7.482489013671875,5.261727905273438
0.191000000000038,1.4273223876953125,12.166558837890626,4.9245239257812505
0.2010000000000218,0.35888671875,10.11148376464844,1.82972412109375
0.2110000000000127,-2.6777435302734376,9.041104125976563,-1.622317504882813
0.2210000000000036,2.60850830078125,8.917288208007813,-2.283865356445313
0.2309999999999945,0.4074859619140625,6.984384155273438,2.649481201171876
0.2409999999999854,0.2244537353515625,9.668408203125,8.202505493164063
0.25100000000009,-1.3349090576171876,12.17642822265625,8.485427856445312
0.2610000000000809,-0.8154205322265625,8.729022216796876,4.179385375976563
0.2710000000000718,2.083636474609375,8.694778442382812,0.4080841064453125
0.2810000000000627,2.2677154541015625,9.606649780273438,0.1694244384765625
0.2920000000000371,0.3712982177734375,9.499880981445314,1.280029296875
0.3020000000000209,0.1054229736328125,9.108843994140626,1.9366424560546875
0.3120000000000118,0.1758544921875,8.616122436523439,2.440280151367188
0.3220000000000027,0.9843963623046876,7.721746826171875,4.22589111328125
0.3319999999999936,-1.68616943359375,10.708282470703123,5.577847290039063
0.3419999999999845,-2.80888671875,10.573101806640626,4.788446044921876
0.3520000000000891,-0.9410308837890624,8.25738525390625,3.219961547851563
0.36200000000008,0.0046356201171875,8.776574707031251,2.814718627929688
0.372000000000078,-1.1414093017578126,9.653305053710938,2.6116485595703125
0.3820000000000618,-0.8100372314453126,8.799304199218751,2.0902160644531254
0.3930000000000362,1.0137054443359377,10.3084228515625,1.045257568359375
0.40300000000002,0.6747070312500001,8.177682495117189,2.62047119140625
0.4130000000000109,1.1055206298828126,9.613079833984376,4.649826049804688
0.4230000000000018,-0.3680084228515625,9.550274658203126,5.3551879882812505
0.4329999999999927,-0.063104248046875,9.340176391601563,3.617578125
0.4429999999999836,1.451995849609375,9.025552368164064,1.526165771484375
0.4530000000000882,0.4553375244140625,8.511148071289064,1.346124267578125
0.4630000000000791,0.6063690185546875,10.17802734375,2.444915771484375
0.4730000000000771,-0.3013153076171875,8.477801513671876,3.7078979492187503
0.483000000000068,-0.365765380859375,7.786944580078125,3.790591430664063
0.4930000000000518,-0.5036376953125,9.321334838867188,3.9007995605468753
0.5030000000000427,-0.102880859375,11.161825561523438,4.2755371093750005
0.5130000000000337,-0.0898712158203125,10.470819091796876,3.1402587890625004
0.5230000000000246,-4.303500366210938,7.859170532226563,2.631536865234376
0.5330000000000155,0.6536224365234375,9.170602416992187,2.42427978515625
0.5430000000000064,2.069281005859376,9.59109802246094,2.163787841796875
0.5529999999999973,-1.0729217529296875,7.584173583984375,1.616336059570313
0.5629999999999953,1.272402954101563,11.919973754882813,1.4446685791015623
0.5740000000000762,1.9441192626953123,7.987322998046875,3.836798095703125
0.5840000000000671,1.09998779296875,9.01702880859375,6.555813598632813
0.5940000000000509,-0.475823974609375,10.797406005859376,6.866549682617188
0.6040000000000418,-1.1251098632812502,8.71197509765625,3.5187347412109378
0.6140000000000327,0.7846160888671876,8.909661865234376,-0.7022216796875
0.6240000000000236,0.79493408203125,8.979046630859376,-1.897463989257813
0.6340000000000146,0.355596923828125,10.385882568359376,0.5161987304687501
0.6440000000000055,-1.2015228271484375,9.2461181640625,4.175497436523438
0.6539999999999964,-1.454388427734375,9.563583374023438,6.319696044921876
0.6639999999999873,0.6889129638671876,7.885787963867188,5.6333251953125005
0.6739999999999782,-0.9338531494140626,8.321536254882814,4.0591583251953125
0.6840000000000828,-0.4194488525390625,10.727273559570314,2.1741058349609377
0.6940000000000737,0.6418090820312501,8.632421875,1.2209625244140625
0.7050000000000409,0.6639404296875,9.655398559570314,2.24603271484375
0.7150000000000318,0.080450439453125,8.944952392578125,4.482644653320313
0.7259999999999991,-0.182135009765625,8.807528686523439,5.307186889648438
0.7350000000000136,0.1849761962890625,9.857720947265626,3.203363037109375
0.7450000000000045,-0.2441925048828125,8.818444824218751,1.0866790771484376
0.7549999999999955,1.0935577392578126,9.727774047851565,0.3055023193359375
0.7649999999999864,0.5419189453125001,9.44111328125,2.2382568359375004
0.7749999999999773,-0.3641204833984375,9.21680908203125,4.744931030273438
0.7850000000000819,0.2447906494140625,9.08880615234375,5.464498901367188
0.7950000000000728,-0.6500335693359376,7.377066040039063,4.201367187500001
0.8050000000000637,-0.4089813232421875,6.0524749755859375,2.2529113769531253
0.8150000000000546,-1.7670684814453126,9.604556274414064,2.0691314697265626
0.8260000000000218,1.1880645751953125,16.068405151367188,4.545001220703125
0.8360000000000127,1.9879333496093752,12.238037109375,4.103720092773438
0.8460000000000036,-4.9758148193359375,5.889630126953126,2.391082763671875
0.8559999999999945,-0.8545989990234376,6.813314819335938,1.8001159667968751
0.8659999999999854,2.880514526367188,7.586566162109375,1.6268035888671877
0.87600000000009,-0.6316406250000001,9.060543823242188,0.28292236328125
0.886000000000081,0.05802001953125,13.238882446289065,-0.306549072265625
0.8960000000000719,2.205807495117188,9.593490600585938,3.136520385742188
0.9060000000000628,2.3842041015625,6.684713745117188,10.2031494140625
0.9160000000000535,-1.4487060546875,11.193377685546876,12.478042602539064
0.9260000000000446,-5.747570800781251,7.825823974609375,5.803497314453125
0.9360000000000356,0.1197784423828125,8.675787353515625,-2.1441986083984377
0.9460000000000264,5.454629516601563,8.962298583984376,-4.75584716796875
0.9560000000000172,3.936239624023438,11.184255981445313,-3.7457305908203127
0.9660000000000082,-3.281121826171875,10.424911499023438,1.2254486083984375
0.9759999999999992,-5.288046264648438,8.721395874023438,5.374179077148438
0.98700000000008,1.8377990722656248,6.6202636718750005,7.455871582031251
0.997000000000078,2.4959075927734378,8.318695068359375,6.44022216796875
1.0070000000000618,-2.272201538085937,11.220892333984375,2.5640960693359376
1.0170000000000528,-2.565740966796876,9.384439086914064,0.413616943359375
1.0270000000000437,2.820550537109375,10.25758056640625,1.8463226318359376
1.0370000000000346,1.9387359619140627,7.766757202148438,5.94854736328125
1.0470000000000257,-0.9679473876953124,8.341275024414063,7.693035888671876
1.0570000000000164,-2.474822998046875,8.976055908203126,4.500439453125001
1.0670000000000073,-0.0249725341796875,9.50137634277344,0.382513427734375
1.076999999999991,2.572320556640625,10.188644409179688,-1.8681549072265624
1.0869999999999962,1.839593505859375,10.377508544921875,0.0324493408203125
1.096999999999987,-0.32000732421875,10.348348999023438,3.5135009765625003
1.1070000000000846,-1.7204132080078127,7.461553955078125,5.63751220703125
1.1170000000000757,0.3548492431640625,7.159341430664063,5.657101440429688
1.1280000000000427,0.9645080566406252,6.104962158203126,3.405685424804688
1.1380000000000337,-1.08443603515625,7.632324218750001,1.6632904052734376
1.1480000000000246,0.1987335205078125,15.158926391601565,2.8932250976562504
1.1580000000000157,2.633779907226563,15.212310791015629,5.597137451171875
1.1680000000000064,-3.1683715820312504,8.449240112304688,4.284060668945313
1.1779999999999973,-3.6044189453125,5.172006225585938,3.0303497314453125
1.1879999999999953,2.4591217041015625,6.973617553710938,0.9763214111328126
1.1979999999999862,1.9197448730468751,7.703204345703125,-0.8466735839843751
1.2080000000000837,2.4369903564453126,12.18106384277344,-2.3412872314453126
1.2180000000000746,-0.5809478759765625,11.845205688476565,0.177947998046875
1.2280000000000657,-2.248275756835937,6.917242431640625,7.054217529296875
1.2380000000000564,2.460467529296875,9.517227172851562,15.2443115234375
1.2480000000000473,-4.118374633789063,9.645828247070312,12.67094421386719
1.2580000000000453,-5.433395385742188,6.839633178710938,1.9400817871093752
1.2680000000000362,2.935992431640625,11.064776611328126,-4.3712402343750005
1.2789999999999964,4.462606811523438,8.11383056640625,-5.97008056640625
1.2889999999999873,1.69813232421875,11.5788818359375,-2.786007690429688
1.2989999999999782,-5.4662933349609375,10.726376342773438,2.211639404296875
1.3090000000000828,-0.9914245605468752,6.835147094726563,5.502481079101563
1.3190000000000737,3.949697875976563,7.776776123046876,7.54678955078125
1.3290000000000646,2.877523803710938,9.107498168945312,5.040713500976563
1.3390000000000557,1.0977447509765623,10.079931640625,2.1228149414062503
1.3490000000000464,0.7406524658203125,11.647967529296876,0.9775177001953126
1.3590000000000373,-2.14434814453125,8.677880859375001,2.474822998046875
1.3690000000000282,1.1871673583984377,8.015435791015626,5.399899291992188
1.379000000000019,1.3522552490234376,7.893563842773438,6.397454833984376
1.38900000000001,-2.4884307861328128,8.462847900390626,3.6543640136718754
1.399000000000001,-2.023822021484375,9.990658569335938,0.3318206787109375
1.410000000000082,-0.1012359619140625,9.611135864257813,0.08194580078125
1.4200000000000728,-0.7976257324218751,11.080776977539063,2.7857086181640627
1.4300000000000637,-2.964254760742188,8.339779663085938,6.291134643554688
1.4400000000000546,-1.1541198730468751,9.48358154296875,6.0719146728515625
1.4500000000000457,0.413616943359375,7.765560913085938,3.017938232421875
1.4600000000000364,0.532049560546875,6.38040771484375,-0.1087127685546875
1.4700000000000273,1.9888305664062504,7.019375610351563,-0.7684661865234376
1.480000000000011,1.5539794921875,10.826715087890626,2.7961761474609377
1.490000000000009,4.062448120117188,17.526980590820315,7.913452148437501
1.5,2.0480468750000003,13.006802368164063,6.904531860351563
1.509999999999998,-4.2531066894531255,2.3969146728515627,3.0756591796875004
1.5199999999999818,-0.6383697509765626,7.459759521484376,0.193499755859375
1.5300000000000864,0.57362060546875,5.2389984130859375,0.372943115234375
1.5400000000000773,-0.8076446533203125,12.45576171875,-0.6925018310546875
1.5510000000000446,-2.4710845947265625,13.517019653320313,-1.1257080078125
1.5610000000000357,0.0662445068359375,8.030538940429688,3.1133422851562504
1.5710000000000264,3.583184814453125,6.56583251953125,10.863052368164062
1.5819999999999936,-1.739404296875,10.282254028320311,15.221432495117188
1.5910000000000082,-7.427758789062499,8.415145874023438,6.731518554687501
1.6059999999999943,-1.2218597412109375,10.185952758789064,-2.08154296875
1.610999999999997,5.786001586914063,8.46015625,-5.2864013671875005
1.620999999999988,6.405380249023438,9.86160888671875,-4.203311157226563
1.6310000000000855,2.9675445556640625,11.45147705078125,0.440533447265625
1.6410000000000764,-4.116131591796876,9.130078125,4.774838256835938
1.6510000000000673,-3.543109130859375,5.457620239257813,6.656451416015625
1.6610000000000582,0.7868591308593751,9.580181884765626,5.6288391113281255
1.6710000000000491,3.39327392578125,10.43582763671875,3.1157348632812503
1.68100000000004,-0.15013427734375,11.372073364257814,1.5879241943359377
1.691000000000038,-2.4920196533203125,10.28016052246094,1.4890808105468751
1.7010000000000218,0.2944366455078125,6.166421508789063,4.009362792968751
1.7119999999999962,0.481207275390625,8.91773681640625,5.823834228515626
1.721999999999987,-1.577008056640625,7.952182006835938,4.630087280273438
1.7320000000000846,-1.2048126220703126,9.753494262695312,1.7993682861328126
1.7420000000000757,1.8198547363281248,10.3562744140625,0.3153717041015625
1.7520000000000664,-0.7026702880859376,9.121853637695311,2.620770263671876
1.7620000000000573,-0.8625244140625,9.766055297851564,6.103466796875001
1.772000000000041,-1.4650054931640626,8.991757202148438,6.5927490234375
1.782000000000039,-0.1084136962890625,8.986672973632814,3.2694580078125
1.7920000000000371,1.2368133544921875,8.810968017578126,-1.0681365966796876
1.802000000000021,2.00557861328125,9.475057983398438,-2.2047607421875
1.812000000000012,1.699627685546875,7.825674438476563,0.934002685546875
1.8220000000000027,-0.5336944580078126,6.540261840820313,5.047442626953125
1.833000000000084,-0.771307373046875,9.852786254882814,8.308526611328126
1.8430000000000744,2.6702667236328126,14.365936279296877,9.528890991210938
1.8530000000000653,-2.151974487304688,10.81923828125,4.284359741210938
1.8630000000000564,-5.58487548828125,8.611636352539064,-0.8680572509765626
1.8730000000000475,2.5295532226562503,7.809524536132813,-2.362521362304688
1.8830000000000453,1.786807250976563,6.957168579101563,0.7572509765625001
1.893000000000036,-1.5675872802734376,9.299053955078126,3.4765655517578127
1.90300000000002,0.5115631103515625,12.510940551757814,1.9360443115234376
1.913000000000011,1.906884765625,6.190795898437501,1.91346435546875
1.9230000000000016,1.3582366943359376,9.613677978515623,6.318798828125001
1.9329999999999927,-1.971185302734375,11.425009155273438,9.82437438964844
1.942999999999984,-3.067434692382813,8.444305419921875,7.361514282226563
1.953000000000088,0.2567535400390625,10.01697692871094,1.406985473632813
1.9630000000000791,2.3507080078125,7.5743041992187505,-2.94466552734375
1.9730000000000767,1.927072143554688,8.304190063476563,-2.7181182861328126
1.9840000000000373,-2.5881713867187504,12.736291503906251,1.0522857666015626
1.994000000000028,-2.0111114501953127,8.645880126953125,4.251312255859375
2.0030000000000427,2.6342285156250003,8.753695678710939,6.443960571289063
2.01400000000001,1.771405029296875,8.781210327148438,6.390426635742188
2.024000000000001,-1.3773773193359375,8.417687988281251,3.0710235595703126
2.033999999999992,-0.875982666015625,10.382891845703126,0.4107757568359375
2.0439999999999827,1.6275512695312502,9.58466796875,0.184228515625
2.054000000000088,2.4226348876953128,9.05531005859375,2.54271240234375
2.064000000000071,1.1152404785156251,8.900241088867189,5.359375
2.074000000000076,-2.3351562500000003,8.263964843750001,6.136663818359375
2.084000000000067,-1.6190277099609376,9.191986083984377,4.16129150390625
2.094000000000051,-0.2403045654296875,8.475857543945313,2.354147338867188
2.104000000000042,-0.1305450439453125,10.816845703125,1.0319488525390623
2.1140000000000327,-1.6335327148437502,9.032730102539062,2.59893798828125
2.12600000000009,-0.5755645751953126,10.3586669921875,4.242489624023438
2.134999999999998,-0.7786346435546876,8.742630004882812,4.1339263916015625
2.144999999999982,-0.2977264404296875,7.950387573242188,2.787353515625
2.1550000000000864,1.15621337890625,8.286544799804688,1.2567016601562502
2.1650000000000773,-0.01375732421875,5.301803588867188,1.383209228515625
2.175000000000076,0.66094970703125,9.63894958496094,3.660494995117188
2.1850000000000662,2.5673858642578127,16.298541259765628,7.553219604492188
2.19500000000005,2.331716918945313,14.01273193359375,6.373229980468751
2.205000000000041,-3.452340698242188,6.424969482421876,1.43734130859375
2.215000000000032,-0.605322265625,4.3727355957031255,-0.94207763671875
2.225999999999999,2.2005737304687503,6.437081909179688,0.20396728515625
2.2350000000000136,-0.3623260498046875,10.569662475585938,1.9207916259765627
2.2450000000000045,-2.9469085693359376,13.949478149414064,0.9589752197265624
2.2549999999999955,0.4499542236328125,9.724334716796877,1.8843048095703123
2.2649999999999864,3.234765625,5.410067749023438,8.163027954101564
2.2749999999999773,0.359783935546875,10.979092407226563,12.835733032226564
2.286000000000058,-6.922027587890626,8.298358154296876,8.187252807617188
2.296000000000049,-3.670065307617188,9.634014892578126,-0.6480895996093751
2.30600000000004,4.720556640625,9.212023925781253,-4.680181884765625
2.316000000000038,6.0150909423828125,8.71197509765625,-3.815115356445313
2.326000000000022,3.7292816162109377,11.634359741210938,0.098095703125
2.3360000000000127,-2.911618041992188,9.875515747070311,5.060302734375
2.346000000000004,-3.6800842285156254,6.501531982421875,7.099975585937501
2.3559999999999945,-1.4422760009765625,8.055960083007813,5.710784912109375
2.365999999999985,1.520632934570313,9.866693115234376,3.359329223632813
2.37600000000009,3.10496826171875,11.682061767578126,0.9544891357421876
2.386000000000081,-1.731927490234375,9.696969604492187,0.7487274169921876
2.396000000000072,0.1981353759765625,8.633020019531251,2.995358276367188
2.4060000000000628,0.508123779296875,7.170855712890625,5.703158569335938
2.4160000000000537,-1.50074462890625,8.622702026367188,5.499191284179688
2.427000000000021,-0.8541503906250001,9.696670532226562,2.7303802490234377
2.437000000000012,0.409429931640625,9.46563720703125,0.5921630859375
2.4470000000000027,0.9353485107421876,10.276721191406253,1.3245910644531251
2.4569999999999936,-1.5183898925781252,9.122152709960938,4.807586669921875
2.4669999999999845,-1.5651947021484376,9.034674072265624,6.853988647460938
2.477000000000089,-0.473431396484375,9.338830566406251,4.572216796875001
2.48700000000008,-0.3063995361328125,8.23585205078125,1.0652954101562502
2.497000000000078,2.57979736328125,9.992303466796876,-1.697085571289063
2.507000000000062,0.8010650634765626,8.389575195312501,-0.325689697265625
2.5170000000000528,0.2966796875,6.07176513671875,3.459219360351563
2.527000000000044,-0.6835296630859375,8.169009399414064,6.7668090820312505
2.5370000000000346,0.8468231201171875,14.241522216796875,10.33414306640625
2.548000000000002,0.5643493652343751,14.068209838867189,6.295172119140625
2.5579999999999927,-5.624353027343751,7.016683959960938,-0.0418701171875
2.567999999999984,0.5954528808593751,6.925167846679688,-2.744735717773437
2.578000000000088,3.744384765625,7.439572143554688,-0.4406829833984375
2.588000000000079,1.4321075439453126,8.80169677734375,2.6671264648437503
2.598000000000077,-0.29129638671875,14.003460693359376,1.4832489013671877
2.608000000000068,-1.271356201171875,6.900494384765626,1.1430541992187502
2.618000000000052,3.6256530761718753,7.1421447753906255,6.593048095703126
2.6280000000000427,0.1535736083984375,12.321627807617189,11.274127197265626
2.6380000000000337,-5.561099243164063,8.713320922851564,8.812911987304688
2.648000000000025,-2.807241821289063,9.664520263671877,0.7345214843750001
2.6580000000000155,0.19619140625,7.135714721679688,-2.6665283203125
2.6680000000000064,4.01773681640625,9.654052734375,-2.36566162109375
2.6779999999999973,2.5403198242187504,11.056851196289063,1.05692138671875
2.687999999999996,-2.8678039550781254,10.671646118164062,4.163983154296876
2.699000000000076,-2.094403076171876,7.267456054687501,5.570071411132813
2.709000000000067,1.7281890869140626,8.641992187500001,5.127294921875
2.719000000000051,2.177694702148438,9.166714477539063,2.9451141357421875
2.729000000000042,-0.2438934326171875,9.775775146484376,0.745587158203125
2.7390000000000327,1.535586547851563,10.712319946289064,0.97437744140625
2.749000000000024,2.6031250000000004,8.537466430664063,3.005975341796875
2.7590000000000146,-1.326235961914063,8.419033813476563,5.510256958007813
2.769000000000005,-1.6127471923828127,8.961700439453125,5.738897705078125
2.7789999999999964,-1.32728271484375,8.441912841796876,3.5375762939453126
2.788999999999988,-0.7831207275390626,9.661380004882814,1.49835205078125
2.798999999999978,-0.6608001708984376,10.077838134765626,1.014154052734375
2.8090000000000828,-0.8752349853515625,9.576593017578126,3.2283355712890627
2.8190000000000737,-1.5412689208984376,9.49060974121094,4.781716918945313
2.829000000000065,-1.3244415283203126,8.379107666015626,4.593301391601563
2.8390000000000555,0.434552001953125,8.550625610351563,2.841036987304688
2.8500000000000227,1.33326416015625,9.123797607421876,1.3857513427734376
2.8600000000000136,1.2463836669921875,8.440866088867189,1.1031280517578126
2.8700000000000045,1.965203857421875,6.0928497314453125,2.547796630859376
2.8799999999999955,-0.9194976806640626,9.857571411132811,5.385992431640625
2.8899999999999864,3.278131103515625,16.520901489257813,7.807431030273438
2.8999999999999773,2.1983306884765628,12.076837158203126,3.983343505859376
2.910000000000082,-4.854541015625,5.65665283203125,-1.0937072753906252
2.9200000000000728,1.0584167480468751,6.225637817382813,-1.893426513671875
2.930000000000064,0.96719970703125,6.516934204101563,1.6842254638671876
2.9400000000000546,-4.149179077148438,11.2295654296875,3.939080810546875
2.950000000000045,-2.8021575927734377,13.138543701171876,2.8365509033203127
2.9600000000000364,2.150628662109375,7.672848510742188,3.1906524658203126
2.970000000000028,3.4512939453125004,7.5757995605468755,7.5503784179687505
2.980000000000011,-2.44222412109375,10.605700683593753,10.3969482421875
2.990999999999985,-6.129037475585938,8.619711303710938,5.718112182617188
3.00100000000009,-0.4414306640625,10.54947509765625,-0.7262969970703126
3.011000000000081,4.477410888671876,7.725784301757813,-3.535482788085938
3.021000000000072,4.7081451416015625,9.091497802734375,-2.605218505859375
3.0310000000000628,3.885546875,11.967825317382813,1.083538818359375
3.042000000000037,1.3254882812500002,8.773135375976564,4.665228271484375
3.051000000000045,-1.8355560302734373,7.240390014648438,5.498443603515625
3.0610000000000355,-2.8553924560546875,9.342568969726564,4.695135498046875
3.0710000000000264,-1.6988800048828123,9.179275512695312,3.242840576171876
3.0810000000000173,0.2331268310546875,11.67578125,2.49486083984375
3.091000000000008,0.2284912109375,9.603958129882812,2.374932861328125
3.100999999999999,-0.2811279296875,6.998291015625001,3.836050415039063
3.110999999999997,-0.4445709228515625,8.810818481445313,5.034732055664063
3.122000000000078,-1.32728271484375,7.926910400390626,4.431802368164063
3.132000000000062,-0.596051025390625,10.230215454101565,2.4665985107421875
3.1420000000000528,0.9606201171875,9.700857543945313,1.756900024414063
3.152000000000044,1.6078125,9.401187133789064,2.7276885986328128
3.1620000000000346,0.8220001220703126,9.322979736328126,4.605712890625
3.172000000000025,-2.3400909423828127,9.522909545898438,4.691397094726563
3.1820000000000164,-2.0731689453125,9.469375610351562,2.4226348876953128
3.192000000000008,0.468048095703125,8.27353515625,0.7548583984375
3.201999999999991,3.1188751220703126,10.056304931640623,0.5550781250000001
3.211999999999996,2.724847412109375,9.264361572265626,1.4979034423828126
3.221999999999987,0.5565734863281251,6.062045288085938,3.820797729492188
3.2320000000000846,-1.26806640625,7.901190185546875,5.121014404296876
3.2420000000000755,-3.546847534179688,8.552270507812501,7.607800292968751
3.2530000000000427,0.7944854736328125,16.333981323242188,7.28121337890625
3.2630000000000337,-2.819204711914063,11.66202392578125,1.6718139648437502
3.273000000000025,-2.990573120117188,6.208740234375001,-1.586279296875
3.2830000000000155,3.101678466796875,8.113381958007814,-0.938787841796875
3.2930000000000064,1.915109252929688,5.569772338867188,3.177642822265625
3.3029999999999973,2.8724395751953127,11.898291015625,3.516790771484376
3.312999999999996,-0.74708251953125,11.3731201171875,0.7705596923828125
3.322999999999986,0.7481292724609375,7.112835693359376,1.5037353515625
3.333000000000084,3.983642578125,9.880300903320313,7.274484252929688
3.3430000000000746,-2.283566284179688,10.478146362304688,10.691983032226563
3.353000000000065,-5.974118041992188,9.164620971679687,6.3833984375
3.3630000000000564,-1.7745452880859376,8.72393798828125,-0.2130889892578125
3.373000000000048,3.496453857421875,7.075601196289063,-2.7211090087890626
3.3830000000000453,4.175946044921876,10.163522338867187,-2.0973937988281253
3.393000000000036,-1.3788726806640623,12.465631103515626,1.7791809082031251
3.40300000000002,-4.318304443359375,8.967681884765625,4.847662353515625
3.413000000000011,-1.6767486572265626,7.400244140625,6.033184814453126
3.423999999999978,-0.413616943359375,8.923419189453126,4.7570434570312505
3.4340000000000828,3.6443450927734378,8.833248901367188,2.555123901367188
3.4440000000000737,2.9848907470703128,10.386181640625,0.7810272216796875
3.454000000000065,1.5482971191406252,10.012640380859375,0.7505218505859376
3.4640000000000555,1.0802490234375002,8.592944335937501,3.710440063476563
3.4740000000000464,-0.2237060546875,9.295166015625,6.448446655273438
3.4840000000000373,-1.2317291259765626,7.578790283203125,6.339285278320313
3.494000000000028,-1.785760498046875,9.043795776367189,3.4014984130859376
3.504000000000019,-0.511114501953125,10.422219848632814,0.2283416748046875
3.51400000000001,-1.2293365478515623,9.574948120117188,-0.5586669921875
3.524000000000001,-0.6817352294921876,9.914694213867188,2.56005859375
3.533999999999992,-1.8407897949218752,9.342269897460938,5.447003173828126
3.5450000000000728,-1.2481781005859376,8.143588256835939,5.8191986083984375
3.555000000000064,0.0991424560546875,8.313461303710938,3.4843414306640628
3.5650000000000546,0.5522369384765625,7.216464233398438,1.5801483154296876
3.575000000000045,1.9189971923828129,6.0405120849609375,1.182830810546875
3.5850000000000364,0.18482666015625,10.776171875,3.996801757812501
3.595000000000028,3.769805908203125,18.9205078125,7.180725097656251
3.605000000000011,3.217868041992188,11.502618408203126,4.373483276367188
3.615000000000009,-4.868896484375,4.202862548828126,-0.057122802734375
3.625,0.044561767578125,5.72484130859375,-1.2572998046875
3.634999999999998,0.5658447265625001,5.900994873046876,1.4032470703125002
3.644999999999982,-3.2461303710937504,11.624639892578124,2.6282470703125003
3.6550000000000864,-0.089422607421875,14.781048583984376,1.5542785644531252
3.665000000000077,1.7127868652343752,7.376019287109376,3.3416839599609376
3.6750000000000753,2.3649139404296875,7.091751098632813,9.768298339843753
3.685000000000066,-3.0726684570312504,10.696469116210938,12.792816162109377
3.6960000000000255,-4.680181884765625,8.270843505859375,6.29307861328125
3.706000000000017,-0.9425262451171876,9.19168701171875,-1.86561279296875
3.716000000000008,2.23765869140625,9.252398681640626,-5.266064453125001
3.725999999999999,5.630484008789063,9.7270263671875,-3.897360229492188
3.735999999999997,4.2157226562500005,11.163320922851565,-0.0049346923828125
3.745999999999988,0.107666015625,9.683810424804689,3.985586547851563
3.7560000000000855,-3.348712158203125,6.403436279296876,6.393118286132813
3.766000000000077,-2.3667083740234376,8.595635986328126,6.224591064453126
3.7760000000000673,-2.6415557861328125,9.384140014648438,3.735861206054688
3.786000000000058,0.2576507568359375,11.738735961914063,2.642303466796875
3.796000000000049,5.159146118164063,10.8395751953125,2.463308715820313
3.80600000000004,-0.12501220703125,6.7907348632812505,3.2921875000000003
3.816000000000038,-3.4034423828125004,8.043548583984375,4.59434814453125
3.826000000000022,-0.5636016845703126,8.352041625976563,4.235012817382813
3.8360000000000127,0.69384765625,9.094189453125,2.3045013427734378
3.846999999999987,0.793438720703125,10.967578125,0.6884643554687501
3.8570000000000846,-0.179443359375,9.091497802734375,2.397662353515625
3.867000000000076,-0.72076416015625,10.106997680664064,5.254998779296876
3.8770000000000655,-2.13896484375,8.413500976562501,6.423623657226563
3.887000000000057,-0.9932189941406252,9.344064331054687,3.802554321289063
3.897000000000041,0.8755340576171876,8.440417480468751,0.33914794921875
3.907000000000039,2.108758544921875,9.799102783203123,-1.1991302490234377
3.917000000000037,2.9590209960937504,8.495147705078125,0.2691650390625
3.927000000000021,0.6181823730468751,5.484835815429688,3.3041503906250003
3.937000000000012,-2.669818115234375,9.258230590820313,6.9342895507812505
3.9470000000000014,0.5244232177734376,15.103149414062502,10.048828125
3.9569999999999936,0.57122802734375,12.13919372558594,5.692691040039063
3.9680000000000746,-5.930902099609376,7.612286376953126,-0.63941650390625
3.977000000000089,0.710296630859375,6.805239868164063,-2.314669799804688
3.988000000000056,3.1502777099609376,6.816006469726563,0.1466949462890625
3.9980000000000473,2.2742950439453127,10.054510498046875,2.9288146972656253
4.008000000000045,0.318511962890625,12.901528930664064,1.7181701660156252
4.018000000000036,-2.014999389648437,7.079489135742188,1.376629638671875
4.02800000000002,1.8801177978515624,7.670156860351563,7.101470947265626
4.038000000000011,-0.4059906005859375,12.31265563964844,11.43338317871094
4.048999999999978,-5.037872314453125,8.417837524414063,7.878759765625
4.057999999999993,-2.5273101806640628,10.0954833984375,0.3949249267578125
4.067999999999984,3.320599365234376,7.037619018554688,-3.306991577148438
4.078000000000088,4.452139282226563,8.493502807617189,-2.518038940429688
4.088000000000079,2.78316650390625,12.74571228027344,0.705511474609375
4.098000000000077,-4.1547119140625,9.975704956054688,4.2281341552734375
4.108000000000068,-2.096945190429688,6.689199829101563,5.593099975585938
4.118000000000052,-1.6245605468750002,8.76700439453125,5.131481933593751
4.129000000000019,1.9975036621093751,9.204547119140626,3.6522705078125
4.13900000000001,3.639410400390626,10.65235595703125,1.3136749267578125
4.149000000000001,1.2925903320312502,9.38428955078125,0.7292877197265626
4.158999999999992,0.57720947265625,9.548779296875,2.483346557617188
4.168999999999983,-1.22918701171875,7.992706298828126,5.577847290039063
4.179000000000087,-1.0157989501953126,8.529241943359375,6.195132446289063
4.189000000000071,-0.5534332275390625,9.125143432617188,3.808984375
4.199000000000076,-1.8714447021484373,8.843716430664063,1.57730712890625
4.209000000000067,0.2035186767578125,10.920773315429688,0.9304138183593752
4.219000000000051,-1.1819335937500002,9.156845092773438,2.9201416015625004
4.229000000000042,-1.3456756591796877,9.705792236328126,4.738949584960938
4.239000000000033,-0.7071563720703126,8.851193237304688,4.159497070312501
4.249000000000024,-0.1332366943359375,7.624398803710938,2.6775939941406253
4.259999999999998,2.182180786132813,9.102862548828126,0.9902282714843752
4.269999999999982,0.6391174316406251,4.23546142578125,1.04974365234375
4.280000000000086,1.039126586914063,10.234103393554689,3.142501831054688
4.290000000000077,2.3580352783203127,16.93631286621094,7.705596923828126
4.300000000000075,4.1110473632812505,14.632708740234376,6.797463989257813
4.310000000000066,-4.336996459960938,5.890676879882813,1.9826995849609377
4.32000000000005,-1.9565307617187504,2.6067138671875,-0.1535736083984375
4.330000000000041,-1.5798492431640627,7.259530639648438,-0.2435943603515625
4.340000000000032,-2.314071655273437,9.567919921875,1.3812652587890626
4.350000000000023,1.5672882080078123,16.089190673828128,-0.0322998046875
4.360000000000014,1.152325439453125,9.91663818359375,0.9256286621093752
4.3700000000000045,0.7846160888671876,3.845022583007813,8.144784545898439
4.379999999999996,1.4045928955078126,11.7966064453125,15.144570922851564
4.389999999999986,-4.677041625976563,9.035870361328126,10.066921997070311
4.399999999999977,-1.9650543212890623,7.353289794921875,-0.165386962890625
4.410000000000082,-0.6627441406250001,11.018569946289062,-4.9574218750000005
4.421000000000049,4.474868774414063,7.89132080078125,-4.0591583251953125
4.43100000000004,4.873831176757813,12.277066040039063,-0.1936492919921875
4.442999999999984,2.5916107177734378,9.582723999023438,1.471435546875
4.451000000000022,0.2905487060546875,6.007464599609375,3.574362182617188
4.461000000000013,-1.47921142578125,9.355728149414062,3.5637451171875
4.471000000000004,-3.830218505859375,8.917886352539064,3.562399291992188
4.4809999999999945,-3.3412353515625,11.206387329101563,3.4813507080078128
4.4909999999999854,-0.6346313476562501,10.90821228027344,4.8277740478515625
4.50100000000009,4.6587982177734375,8.797958374023438,6.0472412109375
4.511000000000081,0.629248046875,6.2688537597656255,6.843670654296876
4.521000000000072,-3.881509399414063,8.160186767578125,4.750762939453125
4.531000000000063,-1.6852722167968752,9.9878173828125,1.48280029296875
4.542000000000037,2.246481323242188,9.548330688476565,0.0016448974609375
4.552000000000021,3.025863647460937,10.588653564453123,0.1188812255859375
4.562000000000012,-0.192303466796875,9.069964599609376,2.487533569335937
4.572000000000003,-2.5862274169921875,9.439318847656253,5.580838012695313
4.581999999999994,-2.3426330566406253,9.396701049804689,4.866204833984376
4.5919999999999845,0.11065673828125,7.826123046875001,2.268014526367188
4.602000000000089,3.0467987060546875,9.7988037109375,0.0668426513671875
4.61200000000008,1.5948028564453127,9.408065795898438,0.5615081787109375
4.622000000000078,0.5643493652343751,6.053970336914063,2.908029174804688
4.632000000000062,-1.084136962890625,6.95103759765625,5.263821411132813
4.642000000000053,-2.199676513671875,11.774176025390624,8.66531982421875
4.652000000000044,3.425125122070313,17.340957641601562,7.626193237304688
4.662000000000035,-3.5792968750000003,8.941213989257813,1.170718383789063
4.6720000000000255,-3.084033203125,4.918093872070313,-1.9865875244140627
4.682000000000016,0.399859619140625,8.012744140625001,-0.84278564453125
4.692999999999984,3.697729492187501,6.443511962890626,2.8141204833984377
4.703000000000088,1.8243408203125,13.574890136718752,2.1779937744140625
4.713000000000079,-2.983544921875,10.415191650390623,-0.4287200927734375
4.723000000000077,2.4070831298828126,5.984735107421876,3.175848388671876
4.733000000000068,4.073513793945313,10.754339599609375,11.0154296875
4.743000000000052,-3.426321411132813,11.012438964843753,12.8636962890625
4.753000000000043,-3.5224731445312503,9.029888916015626,4.4011474609375005
4.763000000000034,-2.633929443359375,7.219754028320313,-2.376129150390625
4.773000000000025,-1.09281005859375,6.840380859375,-3.5272583007812504
4.783000000000016,3.2121856689453128,12.479238891601565,-0.194097900390625
4.793000000000006,3.097341918945313,11.638397216796877,1.0316497802734377
4.802999999999997,1.1388671875,7.725784301757813,3.18870849609375
4.812999999999995,-1.6703186035156252,7.952481079101563,4.0262603759765625
4.822999999999986,-2.316763305664063,8.883792114257814,3.910818481445313
4.834000000000067,1.8104339599609376,8.743975830078126,3.122015380859376
4.844000000000051,1.78486328125,12.356768798828126,2.1021789550781254
4.854000000000042,1.3564422607421875,8.598626708984376,3.034088134765625
4.864000000000033,0.373541259765625,8.0809326171875,5.729925537109375
4.874000000000024,-1.0968475341796875,9.093740844726565,6.875073242187501
4.884000000000015,-1.7521148681640626,7.573556518554688,4.61767578125
4.8940000000000055,-1.1660827636718751,9.715811157226565,1.2383087158203123
4.903999999999996,0.4287200927734375,9.85547790527344,-0.336456298828125
4.913999999999987,0.1036285400390625,10.408312988281253,0.7215118408203125
4.923999999999978,-1.7163757324218751,9.567919921875,3.627447509765626
4.934000000000083,-2.225546264648438,9.218603515625,5.641549682617188
4.944000000000074,-0.2139862060546875,8.20953369140625,4.4059326171875
4.955000000000041,0.0865814208984375,8.020220947265626,2.0858795166015627
4.965000000000032,2.1871154785156253,9.24013671875,0.9921722412109376
4.975000000000023,1.9426239013671875,5.503826904296876,1.5257171630859376
4.985000000000014,-0.3177642822265625,8.736499023437501,4.219461059570313
4.9950000000000045,1.1153900146484377,16.844946289062502,8.191738891601563
5.004999999999996,3.8873413085937503,14.313748168945311,6.547439575195313
5.014999999999986,-3.9845397949218753,6.036624145507813,-0.0336456298828125
5.024999999999977,-3.5583618164062503,2.954684448242188,-1.9619140625
5.035000000000082,0.5852844238281251,8.311068725585939,-0.036187744140625
5.045000000000073,2.9291137695312504,9.536218261718751,2.906982421875
5.055000000000064,-3.0068725585937504,14.633157348632814,1.6505798339843751
5.065000000000055,-1.9041931152343752,9.376364135742188,1.7063568115234375
5.0750000000000455,3.583782958984376,5.328869628906251,7.505368041992188
5.085000000000036,3.0651916503906254,10.172344970703126,13.497879028320314
5.095000000000027,-3.670962524414063,11.960198974609376,8.78375244140625
5.105000000000011,-2.556021118164063,6.619964599609376,0.1888641357421875
5.115000000000009,-3.132034301757813,9.618911743164062,-4.064541625976563
5.12600000000009,2.487982177734376,9.0260009765625,-1.3749847412109375
5.136000000000081,3.8731353759765614,12.092239379882812,0.533544921875
5.146000000000072,2.5688812255859377,9.566424560546876,1.1494842529296876
5.156000000000063,1.8856506347656248,6.911859130859376,2.54869384765625
5.166000000000054,2.272650146484376,8.229571533203126,2.720660400390625
5.176000000000045,1.160400390625,9.090750122070313,2.086178588867188
5.186000000000036,-4.258489990234375,12.989456176757814,2.409176635742188
5.196000000000026,-3.3460205078125003,9.089703369140626,3.6424011230468754
5.206000000000017,-1.5518859863281251,6.9851318359375005,5.616278076171875
5.216000000000008,-1.4412292480468751,7.538714599609375,7.198669433593751
5.225999999999999,-1.373638916015625,8.2388427734375,6.515139770507813
5.235999999999997,1.928268432617188,10.314703369140624,3.550436401367188
5.245999999999988,3.3476654052734376,9.802691650390626,0.7517181396484376
5.2560000000000855,1.2072052001953126,9.577789306640623,0.3158203125
5.267000000000053,-2.389886474609375,10.396350097656253,2.5509368896484377
5.277000000000044,-3.552679443359376,8.217758178710938,5.017984008789063
5.287000000000035,0.98992919921875,10.582821655273438,3.2998138427734376
5.2970000000000255,1.6404113769531252,7.459759521484376,0.5203857421875
5.307000000000016,1.1535217285156252,10.083221435546877,-1.1997283935546876
5.317000000000007,0.969891357421875,8.864352416992189,1.89193115234375
5.326999999999991,0.1460968017578125,5.531939697265625,5.8008056640625005
5.336999999999996,-0.1410125732421875,7.496096801757813,8.009753417968751
5.346999999999987,-1.4292663574218751,12.276467895507814,9.738839721679687
5.359000000000037,2.0136535644531253,15.889709472656252,6.301751708984376
5.367000000000076,-3.376824951171875,10.306179809570311,-1.1446990966796875
5.378000000000043,-1.577456665039063,3.8309661865234377,-2.6749023437500004
5.387000000000057,1.5284088134765623,9.243576049804688,-1.8250885009765627
5.397000000000041,2.1555633544921875,5.7818145751953125,1.2266448974609376
5.408000000000016,2.29986572265625,13.698556518554687,1.4742767333984377
5.418000000000006,-2.6641357421875003,9.953872680664062,0.414215087890625
5.427999999999997,0.451898193359375,5.745626831054688,4.2774810791015625
5.437999999999995,4.519580078125,11.828009033203124,12.190634155273438
5.447999999999986,-2.576956176757813,10.340423583984377,13.287481689453124
5.459000000000067,-3.988726806640625,9.575845336914064,3.812124633789063
5.468000000000075,-2.525216674804688,6.325079345703125,-2.189208984375
5.4780000000000655,-2.1691711425781253,6.592449951171876,-3.3283752441406254
5.488000000000056,0.1614990234375,13.535711669921875,-0.7947845458984376
5.498000000000047,3.909622192382813,11.146871948242188,1.1372222900390625
5.508000000000045,2.2485748291015626,7.736999511718751,2.771502685546875
5.518000000000036,1.4442199707031251,8.272189331054689,4.30364990234375
5.52800000000002,-0.6003875732421875,8.58636474609375,3.7158233642578127
5.538000000000011,0.1583587646484375,9.445449829101562,2.3640167236328127
5.548999999999978,1.3163665771484376,11.058944702148438,2.4742248535156253
5.559000000000083,2.0009429931640628,9.172097778320314,3.5920074462890628
5.569000000000074,0.9046936035156252,7.334747314453126,6.003277587890626
5.579000000000065,-0.9812561035156252,9.900787353515623,6.419586181640626
5.589000000000056,-2.7659698486328126,7.394561767578126,4.413409423828125
5.599000000000046,-2.123712158203125,9.376065063476563,2.06658935546875
5.609000000000037,-0.195294189453125,10.650711059570312,0.7304840087890625
5.619000000000028,-1.17535400390625,9.701605224609375,1.0522857666015626
5.629000000000019,-1.0045837402343751,9.851889038085938,3.3041503906250003
5.63900000000001,-1.143353271484375,9.199462890625,4.572067260742188
5.649000000000001,-0.2435943603515625,7.68077392578125,3.741842651367188
5.658999999999992,1.1488861083984376,8.290731811523438,1.9822509765625
5.668999999999983,1.40145263671875,4.7903900146484375,1.2000274658203125
5.680000000000064,1.6712158203125,9.273782348632814,2.314669799804688
5.689000000000071,1.819705200195313,16.68509216308594,6.609497070312501
5.7000000000000455,3.966146850585938,17.059829711914062,6.763519287109376
5.710000000000036,-3.4649017333984378,6.005072021484375,1.71009521484375
5.720000000000027,-1.5642974853515623,0.6736602783203125,0.551788330078125
5.730000000000011,-1.6516265869140627,8.377911376953126,0.98634033203125
5.740000000000009,-2.052682495117188,7.445553588867188,2.4028961181640627
5.75,-2.668771362304688,16.712307739257813,0.0417205810546875
5.759999999999998,4.098934936523438,11.822476196289063,-0.552984619140625
5.769999999999982,2.6644348144531254,3.7558990478515626,5.481845092773438
5.780000000000086,2.3071929931640627,11.270837402343751,13.8422607421875
5.790000000000077,-4.254901123046875,8.995046997070313,12.304132080078126
5.800000000000075,-2.9750213623046875,8.137905883789063,1.2460845947265626
5.810000000000066,-2.5329925537109377,9.60560302734375,-3.929061889648438
5.82000000000005,1.7643768310546877,8.728125,-2.051486206054688
5.830000000000041,4.136767578125,13.001119995117188,0.42886962890625
5.841000000000008,2.4968048095703126,9.403729248046876,1.1859710693359375
5.850999999999999,1.9167541503906247,7.151565551757813,2.114889526367188
5.860999999999997,1.427920532226563,5.655307006835938,2.9708343505859376
5.870999999999988,2.238555908203125,10.407864379882811,1.263430786132813
5.8810000000000855,-3.2293823242187503,13.274771118164065,1.58927001953125
5.891000000000076,-4.309332275390625,10.20135498046875,2.7901947021484377
5.901000000000067,-1.748974609375,7.601370239257813,4.869046020507813
5.911000000000058,-1.257449340820313,6.173001098632813,7.164724731445313
5.921000000000049,-1.6105041503906252,8.621505737304688,7.208538818359376
5.93100000000004,1.224700927734375,9.261819458007814,4.949346923828125
5.941000000000038,3.3002624511718754,10.538259887695313,2.0066253662109377
5.951000000000022,1.447509765625,10.0189208984375,0.0112152099609375
5.961999999999996,-0.8001678466796875,9.175836181640626,2.021429443359376
5.971000000000004,-3.049639892578125,9.736447143554688,4.82523193359375
5.982000000000085,-1.5402221679687502,9.260174560546876,4.420437622070313
5.992000000000076,0.4293182373046875,8.430548095703125,1.3797698974609376
6.002000000000066,2.625106811523437,9.362008666992187,-1.5912139892578123
6.012000000000057,1.2380096435546877,8.013940429687501,-0.4689453125
6.022000000000041,1.0672393798828126,6.541757202148438,3.24852294921875
6.032000000000039,-1.2058593750000002,8.732461547851564,6.938626098632813
6.042000000000037,-0.3590362548828125,14.362945556640629,10.940213012695311
6.052000000000021,2.289697265625,13.999124145507814,7.787243652343751
6.062000000000012,-4.932150268554688,6.041409301757813,1.4090789794921876
6.072000000000003,-0.7565032958984376,7.335195922851563,-2.2306304931640626
6.081999999999994,2.907281494140625,6.948495483398438,-1.759442138671875
6.093000000000075,2.60252685546875,9.589453125,0.134283447265625
6.1030000000000655,-0.7901489257812501,13.164712524414064,0.4433746337890625
6.113000000000056,-2.7721008300781254,8.172747802734376,1.0941558837890626
6.123000000000047,2.055075073242188,6.081484985351563,6.351846313476563
6.133000000000045,3.1665771484375003,12.156689453125,13.323370361328124
6.143000000000036,-3.9733245849609378,10.436126708984377,9.976901245117189
6.15300000000002,-3.1134918212890628,8.047586059570314,1.3553955078125002
6.163000000000011,-2.96739501953125,8.3154052734375,-2.759539794921875
6.173000000000002,-0.4520477294921875,7.965191650390626,-2.382110595703125
6.182999999999993,3.690402221679688,12.607241821289064,0.8330657958984375
6.192999999999984,3.103323364257813,9.968228149414063,3.0828369140625003
6.203000000000088,1.5998870849609377,6.843222045898438,4.144992065429688
6.213000000000079,-1.059912109375,9.081927490234376,3.863116455078125
6.223000000000077,-0.3952239990234375,9.749307250976564,2.9380859375000004
6.233000000000068,0.87867431640625,9.564779663085938,2.1325347900390628
6.243000000000052,1.9324554443359376,11.317193603515626,1.890435791015625
6.253000000000043,1.2891510009765623,6.920083618164063,3.5797454833984377
6.26400000000001,0.366064453125,9.133816528320311,5.643792724609376
6.274000000000001,-2.737109375,8.973962402343751,5.469732666015625
6.285000000000082,-3.4073303222656253,8.180523681640626,3.107958984375
6.293999999999983,0.0856842041015625,9.887927246093753,1.648785400390625
6.304000000000087,0.366363525390625,9.578985595703124,2.2575469970703126
6.314000000000071,-1.2866088867187502,10.559344482421876,3.358880615234375
6.324000000000076,-2.441476440429688,8.547634887695313,4.5231689453125
6.334000000000067,-0.5324981689453125,9.499581909179687,3.5398193359375
6.344000000000051,0.9906768798828126,7.464993286132813,2.1077117919921875
6.354000000000042,1.1687744140625,6.620114135742188,1.40743408203125
6.364000000000033,2.643649291992188,7.027749633789063,1.4534912109375
6.374000000000024,2.2768371582031253,11.968124389648438,3.086126708984376
6.384999999999998,4.23306884765625,18.94368591308594,6.687106323242188
6.394999999999982,-0.405242919921875,11.319586181640624,4.638760375976563
6.405000000000086,-3.93040771484375,1.510614013671875,2.6319854736328128
6.413999999999987,-1.368106079101563,5.7601318359375,1.3824615478515625
6.425000000000075,-1.9647552490234377,6.64598388671875,1.143951416015625
6.435000000000066,-3.585128784179688,11.926254272460938,-0.3043060302734375
6.44500000000005,-2.47392578125,15.25806884765625,-1.155914306640625
6.455000000000041,3.02421875,8.013641357421875,3.307589721679688
6.465000000000032,4.875775146484376,5.966790771484376,12.414489746093752
6.475000000000023,2.4477569580078127,10.485922241210938,16.307064819335938
6.485000000000014,-3.851153564453125,8.988916015625001,5.614633178710938
6.4950000000000045,-3.1024261474609376,9.871478271484376,-2.506674194335938
6.504999999999996,-2.0900665283203126,6.570916748046876,-4.0053253173828125
6.514999999999986,2.88365478515625,12.686346435546875,-0.4892822265625
6.526000000000067,3.5164916992187503,11.023504638671875,0.09271240234375
6.535000000000082,2.388092041015625,8.048931884765626,0.2232574462890625
6.546000000000049,1.7548065185546875,5.154061889648438,0.59515380859375
6.55600000000004,2.7049591064453127,9.499432373046876,0.8671600341796876
6.566000000000038,-0.9365447998046876,12.89405212402344,1.2492248535156252
6.576000000000022,-3.8556396484375,10.68106689453125,1.868603515625
6.586000000000013,-2.9621612548828127,10.088455200195312,4.070672607421876
6.596000000000004,-0.438140869140625,3.6615417480468753,6.702508544921876
6.6059999999999945,-2.748773193359375,9.742727661132813,8.250207519531251
6.6159999999999854,-1.92183837890625,7.294970703125,7.269549560546875
6.62600000000009,-1.8270324707031247,9.787588500976565,4.174002075195313
6.636000000000081,3.595895385742188,11.549871826171875,1.8950714111328129
6.646000000000072,3.9818481445312495,8.955718994140625,1.917950439453125
6.656000000000063,2.0664398193359377,9.7389892578125,3.452191162109376
6.666000000000054,-0.7330261230468751,9.516329956054689,3.6981781005859378
6.676000000000045,-4.366006469726563,9.0439453125,1.2368133544921875
6.687000000000012,-2.279827880859376,8.097531127929688,-1.2981231689453123
6.697000000000003,3.89451904296875,10.048678588867189,-0.6791931152343751
6.706999999999994,2.8718414306640625,8.936578369140626,1.5284088134765623
6.7169999999999845,1.559063720703125,4.795474243164063,5.189950561523438
6.727000000000089,-1.3755828857421877,8.730966186523439,7.70469970703125
6.73700000000008,-3.1984283447265627,12.654345703125,10.798303222656251
6.747000000000078,0.3576904296875,15.321472167968752,7.193136596679688
6.759000000000015,-3.6201202392578127,8.567074584960938,0.0527862548828125
6.767000000000053,-0.8243927001953125,6.205599975585938,-2.14913330078125
6.777000000000044,3.3958160400390627,7.237997436523438,-1.5651947021484376
6.787000000000035,2.3949707031250003,7.691390991210938,1.1464935302734376
6.7970000000000255,2.1631896972656253,13.165011596679689,1.0024902343750002
6.807000000000016,-2.254107666015625,9.862356567382813,0.040972900390625
6.817000000000007,0.9428253173828126,5.793328857421876,4.90777587890625
6.826999999999991,3.3587310791015628,12.353778076171876,12.0262939453125
6.838000000000079,-4.264172363281251,9.8490478515625,11.30433349609375
6.846999999999987,-3.0968933105468754,8.600570678710938,2.755950927734375
6.859000000000037,-2.3245391845703125,6.913952636718751,-2.80230712890625
6.868000000000052,0.7865600585937501,8.550775146484376,-2.8452239990234376
6.878000000000043,4.012503051757813,12.824816894531253,0.1604522705078125
6.888000000000034,1.359283447265625,9.904226684570313,3.0399200439453127
6.898000000000025,-2.4002044677734378,8.031137084960939,4.88743896484375
6.908000000000016,-1.5728210449218751,8.136709594726563,5.492013549804688
6.918999999999983,1.7441894531250002,8.640496826171876,3.9878295898437504
6.927999999999997,1.5986907958984375,10.41788330078125,1.1481384277343751
6.939000000000071,0.3074462890625,10.41055603027344,0.0447113037109375
6.947999999999986,3.4423217773437504,9.24970703125,2.2276397705078126
6.959000000000067,0.171966552734375,8.03009033203125,5.546295166015625
6.969000000000051,-2.978460693359376,8.361013793945313,7.055114746093751
6.979000000000042,-1.25191650390625,9.0236083984375,4.691247558593751
6.989000000000033,-1.2258972167968751,8.6575439453125,1.7347686767578123
6.999000000000024,0.459075927734375,11.017971801757811,0.079254150390625
7.009000000000015,-0.4487579345703125,9.46085205078125,1.8787719726562504
7.0190000000000055,-2.06240234375,9.893609619140626,4.451541137695313
7.028999999999996,-1.561456298828125,8.935382080078126,4.783660888671875
7.038999999999987,-0.4007568359375,7.332952880859375,3.302056884765625
7.048999999999978,1.9249786376953129,9.3609619140625,1.5927093505859375
7.059000000000083,1.137820434570313,7.197622680664063,1.2293365478515623
7.069000000000074,1.6202239990234375,5.63212890625,2.464654541015625
7.079000000000065,0.1885650634765625,12.591241455078126,4.655358886718751
7.089000000000056,3.083883666992188,16.940798950195315,7.878759765625
7.099000000000046,2.458673095703125,13.657284545898438,4.088616943359376
7.110000000000014,-4.297369384765625,2.566488647460938,0.1377227783203125
7.1200000000000045,-1.28780517578125,4.211685180664063,-0.2035186767578125
7.129999999999996,-1.8922302246093752,7.785000610351563,1.6046722412109375
7.139999999999986,-2.744436645507813,10.173541259765626,2.367904663085937
7.149999999999977,-1.2140838623046877,16.811749267578126,0.4101776123046875
7.160000000000082,2.9931152343750003,6.391024780273438,1.7513671875
7.170000000000073,3.6038208007812496,6.540112304687501,9.255838012695314
7.180000000000064,1.818359375,12.105697631835938,13.676724243164063
7.190000000000055,-4.356585693359375,7.7911315917968755,6.766958618164063
7.2000000000000455,-3.3539459228515627,10.033425903320314,-1.97926025390625
7.210000000000036,-1.4730804443359375,6.862362670898438,-3.7049072265625
7.220000000000027,3.973922729492188,11.593087768554687,-0.260791015625
7.230000000000011,3.336749267578125,11.356222534179688,0.8577392578125
7.240000000000009,2.117132568359376,8.617019653320312,1.7924896240234376
7.25,1.5708770751953127,5.839984130859375,3.8801635742187504
7.261000000000081,2.020681762695313,8.628982543945312,1.6567108154296877
7.271000000000072,-0.2672210693359375,11.627032470703126,2.345623779296876
7.281000000000063,-4.18521728515625,11.58411560058594,2.4830474853515625
7.291000000000054,-3.471481323242188,9.991256713867188,3.754852294921875
7.301000000000045,-0.9615173339843752,5.504425048828125,5.0954437255859375
7.3110000000000355,-1.884454345703125,7.301699829101563,6.436035156250001
7.321000000000026,-1.992120361328125,9.177481079101565,5.1201171875
7.331000000000017,2.0906646728515628,9.944601440429688,3.4466583251953127
7.341000000000008,4.670162963867188,10.545138549804689,1.5610076904296877
7.350999999999999,2.117132568359376,9.16357421875,1.2378601074218751
7.363000000000056,-0.8761322021484376,9.810916137695314,3.611297607421875
7.370999999999988,-4.401745605468751,9.535321044921876,4.775137329101563
7.381000000000085,-1.7213104248046875,8.785397338867188,2.959918212890625
7.391000000000076,2.0972442626953125,8.606103515625001,0.5453582763671876
7.402000000000044,2.9824981689453125,9.553863525390623,-0.3452789306640625
7.411000000000058,1.502688598632813,10.051519775390624,1.26387939453125
7.4220000000000255,-0.9132171630859376,7.069171142578125,4.33714599609375
7.432000000000016,-1.502239990234375,5.468386840820313,6.522167968750001
7.442000000000007,-0.8559448242187501,9.4076171875,7.277325439453126
7.451999999999991,1.6330841064453123,14.9524169921875,7.185659790039063
7.461999999999996,-1.1369232177734376,14.472106933593752,2.0976928710937504
7.471999999999987,-4.698275756835938,5.768954467773438,-1.802059936523437
7.482000000000085,1.8104339599609376,7.162481689453125,-1.76033935546875
7.4920000000000755,2.829672241210938,6.1208129882812505,1.532595825195313
7.502000000000066,1.3214508056640626,9.659136962890626,3.1685211181640627
7.513000000000034,-0.457281494140625,13.453915405273438,1.2408508300781251
7.523000000000025,-0.5193389892578125,8.21790771484375,1.8787719726562504
7.532000000000039,3.3258331298828128,7.382449340820313,8.4158935546875
7.543000000000006,-1.07666015625,13.090393066406252,12.941156005859376
7.552999999999997,-4.021475219726563,7.389776611328125,8.029940795898439
7.562999999999995,-2.568133544921875,8.353536987304688,-1.0777069091796876
7.572999999999986,-1.3420867919921875,7.175640869140626,-3.605615234375
7.583000000000084,3.572418212890625,10.55411071777344,-0.7777374267578125
7.593000000000075,2.5329925537109377,12.479089355468751,0.060711669921875
7.6030000000000655,-1.1953918457031252,9.212322998046876,3.123062133789063
7.613000000000056,-1.4135650634765626,7.254745483398438,4.1384124755859375
7.623000000000047,1.5720733642578126,8.17783203125,3.5315948486328126
7.633000000000045,2.445513916015625,9.042599487304688,2.2692108154296875
7.644999999999982,0.536834716796875,11.253192138671876,0.906787109375
7.65300000000002,-1.9877838134765624,10.302740478515624,1.6229156494140626
7.663999999999987,1.60482177734375,8.669955444335939,3.839340209960938
7.673999999999978,2.816363525390625,7.303793334960938,7.7029052734375005
7.684000000000083,-0.87867431640625,9.669155883789063,7.297064208984375
7.694000000000074,-4.9459075927734375,7.786196899414063,3.2646728515625
7.704000000000065,-2.035635375976563,9.87476806640625,0.5435638427734375
7.714000000000055,3.299365234375,10.72757263183594,0.8722442626953125
7.724000000000046,0.8208038330078126,9.43154296875,2.5791992187500004
7.734000000000037,-4.13018798828125,10.063931274414063,4.0412139892578125
7.744000000000028,-2.3520538330078127,8.123849487304689,4.510159301757813
7.754000000000019,0.7736999511718751,7.656399536132813,2.700921630859375
7.76400000000001,2.2769866943359376,6.515737915039063,0.99830322265625
7.774999999999977,0.20037841796875,6.259432983398438,1.3887420654296876
7.783999999999992,1.2819732666015626,14.2346435546875,4.440774536132813
7.793999999999983,3.526809692382813,17.515316772460938,7.880853271484375
7.804000000000087,-0.3799713134765625,10.362106323242188,3.9046875
7.814000000000071,-3.683673095703125,2.002288818359375,1.0515380859375
7.824000000000076,-1.4262756347656251,4.700817871093751,0.7876068115234376
7.835000000000036,-0.7759429931640626,9.213519287109376,1.4590240478515626
7.845000000000027,3.827078247070313,12.35990905761719,0.855047607421875
7.855000000000011,0.95164794921875,14.698504638671876,-0.7105957031250001
7.865000000000009,-3.1475860595703127,6.097933959960938,3.0233215332031254
7.875,3.432601928710938,6.8619140625,10.9759521484375
7.884999999999998,-0.461468505859375,12.02554626464844,13.148263549804687
7.894999999999982,-3.855490112304688,6.4064270019531255,5.167071533203125
7.905000000000086,-3.0592102050781254,11.52310485839844,-2.6469390869140628
7.915000000000077,-0.2124908447265625,7.180426025390625,-3.3448242187500004
7.925000000000075,3.8828552246093753,11.95511474609375,-0.160302734375
7.935000000000066,2.866159057617188,10.627682495117188,0.8551971435546876
7.94500000000005,1.79383544921875,7.834497070312499,3.718814086914063
7.959000000000067,1.2885528564453126,6.217263793945313,3.022573852539063
7.966000000000008,0.334063720703125,9.685006713867187,2.277584838867188
7.975999999999999,-3.244036865234375,10.64039306640625,2.1621429443359377
7.985999999999997,-2.9759185791015628,11.618060302734376,2.726193237304688
7.995999999999988,2.314071655273437,9.825869750976564,4.104318237304688
8.006000000000085,2.5796478271484378,6.78056640625,5.502331542968751
8.016000000000076,-0.9247314453125,7.081134033203125,6.0609985351562505
8.026000000000067,-2.9871337890625003,9.540704345703126,3.741693115234375
8.036000000000058,-0.8743377685546876,9.62115478515625,1.5462036132812502
8.04600000000005,2.3489135742187504,10.392312622070314,1.155316162109375
8.05600000000004,1.6269531250000002,9.724334716796877,2.245135498046875
8.066000000000038,-2.769110107421876,8.486624145507813,5.286251831054688
8.076000000000022,-3.3520019531250003,9.701455688476564,5.995501708984375
8.086000000000013,-1.3097869873046877,8.641842651367188,3.0761077880859378
8.096999999999987,1.164886474609375,8.860464477539063,0.5133575439453125
8.107000000000085,2.9364410400390626,10.054360961914064,-0.2093505859375
8.117000000000075,1.878472900390625,6.807034301757813,1.0962493896484375
8.127000000000066,1.1065673828125,6.5798889160156255,3.1402587890625004
8.137000000000057,-2.294183349609375,11.2080322265625,6.511849975585938
8.147000000000041,1.3959197998046875,15.05455017089844,9.180322265625
8.157000000000039,-1.890435791015625,11.137899780273438,3.2577941894531253
8.167000000000037,-4.203012084960938,3.8441253662109376,-0.56943359375
8.177000000000021,0.1626953125,10.692282104492188,-1.0322479248046876
8.187000000000012,2.582638549804688,4.875924682617188,1.5438110351562502
8.197000000000003,4.0785980224609375,12.367984008789064,2.6574066162109378
8.206999999999994,2.7732971191406253,11.573648071289064,1.8742858886718752
8.216999999999985,0.0330474853515625,6.235357666015625,2.845672607421875
8.22700000000009,-2.470635986328125,10.3490966796875,8.202206420898438
8.23700000000008,-4.751959228515625,10.7582275390625,10.890716552734377
8.247000000000078,-2.152273559570313,8.431744384765626,5.149725341796875
8.258000000000045,-2.2976226806640625,9.031683349609375,-2.056869506835937
8.268000000000036,2.8598785400390625,7.5701171875,-3.82393798828125
8.27800000000002,4.406829833984375,9.898394775390626,-1.6185791015625002
8.288000000000011,2.204611206054688,11.556002807617189,3.2455322265625
8.298000000000002,-1.8300231933593751,9.421075439453126,6.061297607421875
8.307999999999993,-2.7556518554687504,6.9659912109375,6.948794555664063
8.317999999999984,1.116436767578125,9.49060974121094,5.052825927734375
8.328000000000088,2.356689453125,9.01209411621094,1.953240966796875
8.33800000000008,0.210845947265625,10.719049072265626,-0.240155029296875
8.348000000000077,2.08154296875,10.193280029296876,0.2106964111328125
8.358000000000068,1.386199951171875,7.4636474609375005,2.870196533203125
8.368000000000052,-1.90150146484375,9.319989013671876,5.406628417968751
8.379000000000019,-2.2686126708984378,8.04803466796875,5.814413452148438
8.388000000000034,-1.09400634765625,8.781060791015626,3.973175048828125
8.399000000000001,-0.597845458984375,10.176681518554688,2.300314331054688
8.408999999999992,-1.5968963623046877,9.891217041015626,2.2790802001953128
8.418999999999983,-0.35888671875,9.76590576171875,3.865209960937501
8.429000000000087,-1.51510009765625,9.111386108398438,4.179534912109375
8.439000000000071,-0.6497344970703125,8.365350341796876,2.989974975585937
8.449000000000076,1.358685302734375,7.704101562500001,1.2176727294921876
8.459000000000067,1.3160675048828123,4.752557373046876,0.31881103515625
8.469000000000051,1.3328155517578126,10.974905395507813,1.761834716796875
8.479000000000042,2.665032958984375,15.900625610351565,7.455273437500001
8.489000000000033,3.1806335449218754,15.503457641601564,6.9731689453125005
8.499000000000024,-4.1020751953125005,3.638812255859375,3.215475463867188
8.509000000000015,-2.098590087890625,4.356884765625001,0.5223297119140625
8.519000000000005,-1.4247802734375,6.772341918945313,0.1475921630859375
8.528999999999996,1.1959899902343751,10.087258911132814,0.765625
8.540000000000077,2.794830322265625,15.779501342773438,-0.6685760498046875
8.550000000000075,-2.72454833984375,10.116268920898438,0.8499633789062501
8.560000000000066,2.8966644287109378,4.183721923828125,8.636459350585938
8.57000000000005,0.2334259033203125,11.9234130859375,14.110079956054689
8.580000000000041,-4.265219116210938,7.136761474609376,9.88134765625
8.590000000000032,-2.78436279296875,9.735101318359376,-0.6791931152343751
8.600000000000023,-1.1740081787109375,8.851193237304688,-4.208544921875
8.610000000000014,4.04166259765625,10.688543701171875,-2.6334808349609378
8.620000000000005,3.66722412109375,10.571905517578124,-0.069384765625
8.629999999999995,2.445364379882813,9.46204833984375,1.6519256591796876
8.639999999999986,0.5211334228515625,6.781463623046876,3.636419677734376
8.649999999999977,-0.7448394775390625,8.359219360351563,3.2328216552734377
8.660000000000082,-2.739950561523438,9.807925415039064,2.6379669189453128
8.670000000000073,-0.657659912109375,11.128030395507814,2.6684722900390625
8.68100000000004,2.7450347900390626,10.638449096679688,4.76182861328125
8.691000000000038,0.3923828125,8.440567016601562,5.962902832031251
8.701000000000022,-2.5138519287109378,6.32896728515625,7.160687255859376
8.711000000000013,-1.2661224365234376,8.945550537109376,5.409170532226563
8.721000000000004,-0.8797210693359375,8.731713867187501,1.9492034912109373
8.730999999999995,0.20635986328125,10.544839477539064,-0.5785552978515626
8.740999999999985,1.4929687500000002,10.655645751953124,-0.30086669921875
8.75100000000009,-1.4066864013671876,8.572158813476562,2.765371704101563
8.761000000000081,-2.1788909912109378,9.641342163085938,5.774487304687501
8.771000000000072,-1.2072052001953126,8.860763549804688,5.417694091796875
8.781000000000063,-0.083441162109375,8.332601928710938,2.2430419921875
8.791000000000054,2.9947601318359376,9.568069458007812,0.276043701171875
8.801000000000045,2.2621826171875004,8.817547607421876,0.849066162109375
8.811000000000035,1.7331237792968752,5.702261352539063,2.6126953125
8.821000000000026,-1.8170135498046875,8.214318847656251,5.073013305664063
8.831999999999994,0.4711883544921875,15.169692993164064,9.2485107421875
8.841999999999985,1.289898681640625,14.74710388183594,5.939724731445313
8.85200000000009,-5.5380706787109375,5.371038818359375,-0.0874786376953125
8.86200000000008,-2.152273559570313,7.06827392578125,-1.9783630371093752
8.872000000000078,2.7581939697265625,7.125845336914063,0.2220611572265625
8.882000000000062,3.0924072265625004,8.970822143554688,2.4118682861328127
8.892000000000053,2.912216186523437,13.315594482421876,2.0543273925781254
8.902000000000044,-1.3553955078125002,9.213369750976565,1.5417175292968752
8.912000000000035,-2.684173583984375,5.807833862304688,7.073956298828126
8.922000000000025,-1.66822509765625,12.316693115234376,12.556100463867187
8.932000000000016,-2.744586181640625,8.752200317382814,9.11976013183594
8.942000000000007,-1.1581573486328125,9.569564819335938,0.4414306640625
8.953000000000088,2.080795288085937,7.75255126953125,-4.288546752929688
8.96300000000008,4.112393188476563,8.239739990234376,-4.055270385742188
8.973000000000077,3.999942016601562,12.225775146484375,-0.4984039306640625
8.983000000000068,-3.2981689453125003,10.884884643554688,3.167474365234375
8.993000000000052,-2.3967651367187504,5.311373901367188,5.1213134765625
9.003000000000043,0.0035888671875,10.335040283203126,5.3990020751953125
9.013000000000034,2.9884796142578125,8.494100952148438,3.731524658203125
9.023000000000025,1.2104949951171875,10.116717529296876,2.037130737304688
9.033000000000015,-0.6424072265625,11.42276611328125,1.6764495849609375
9.043000000000006,0.6896606445312501,7.660137939453126,3.932052612304688
9.052999999999995,0.2866607666015625,8.481838989257813,6.62265625
9.062999999999995,-1.4502014160156251,8.133270263671875,6.613983154296876
9.072999999999986,-2.1848724365234378,8.514138793945314,3.4551818847656253
9.083000000000084,-0.362176513671875,10.300646972656253,0.2836700439453125
9.094000000000053,-0.8453277587890625,9.863851928710938,-0.60950927734375
9.104000000000042,-0.7340728759765626,10.12464294433594,2.284912109375
9.114000000000033,-1.6015319824218752,8.904278564453126,5.637362670898438
9.124000000000024,-0.075665283203125,9.52545166015625,5.448199462890625
9.134000000000016,0.3395965576171875,7.666567993164063,2.6774444580078125
9.144000000000004,1.7211608886718752,8.19697265625,0.3264373779296875
9.153999999999996,1.5879241943359377,5.860769653320313,0.335260009765625
9.163999999999987,0.6178833007812501,8.677432250976564,3.7603851318359376
9.175000000000075,2.519235229492188,17.186785888671878,8.367294311523438
9.184000000000085,3.1866149902343754,14.443695068359377,7.471871948242188
9.194000000000074,-4.37542724609375,5.4419189453125005,1.5699798583984377
9.204000000000065,-1.2152801513671876,3.2002227783203128,-0.524273681640625
9.214000000000055,-1.0866790771484376,8.170355224609375,-0.05682373046875
9.224000000000046,-1.82613525390625,9.169406127929689,1.5616058349609376
9.234000000000036,0.3195587158203125,16.023095703125,0.533245849609375
9.244000000000028,-0.379522705078125,8.548233032226562,1.18851318359375
9.254999999999995,1.3873962402343751,6.367248535156251,6.319396972656251
9.264999999999986,2.1693206787109376,9.238641357421876,12.633709716796876
9.274999999999975,-4.29886474609375,10.620504760742188,8.556008911132814
9.285000000000082,-2.9889282226562504,7.876217651367188,0.3433349609375
9.295000000000073,2.9585723876953125,9.870132446289062,-3.388787841796875
9.305000000000064,5.2041564941406255,9.054263305664064,-3.545950317382813
9.315000000000056,3.5087158203125,10.585513305664064,0.5363861083984376
9.325000000000044,0.8731414794921876,10.477996826171877,4.777230834960938
9.335000000000036,-2.8020080566406254,6.549682617187501,5.874826049804688
9.345000000000027,-4.165777587890625,8.306283569335939,4.5930023193359375
9.355000000000013,0.7375122070312501,9.82093505859375,3.225494384765625
9.365000000000007,1.40982666015625,11.179620361328126,1.9785125732421875
9.37600000000009,-0.7490264892578126,11.311959838867187,1.5101654052734377
9.384999999999998,-0.226397705078125,6.627590942382813,3.2029144287109377
9.396000000000072,-0.1075164794921875,8.018576049804688,5.479901123046876
9.406000000000065,-1.3429840087890623,8.307330322265626,5.365805053710938
9.416000000000054,-1.062005615234375,8.958859252929688,3.1426513671875003
9.426000000000045,1.218719482421875,11.091244506835938,1.4216400146484376
9.436000000000035,1.0777069091796876,8.520718383789063,2.3089874267578128
9.446000000000026,0.6165374755859375,10.76181640625,4.1907501220703125
9.456000000000016,-2.8739349365234377,8.375668334960938,5.323037719726563
9.466000000000008,-1.5948028564453127,9.9495361328125,3.1344268798828128
9.476,0.8036071777343751,8.069567871093751,0.6715667724609375
9.485999999999995,2.8736358642578126,9.371429443359377,-0.405841064453125
9.495999999999988,3.06907958984375,8.107400512695314,0.4821044921875
9.506000000000084,0.299371337890625,5.0102081298828125,2.889935302734376
9.516000000000076,-2.8005126953125004,10.33414306640625,6.245077514648438
9.526000000000067,-0.8584869384765625,15.54263610839844,10.566970825195312
9.537000000000036,0.7642791748046875,12.754385375976565,6.690246582031251
9.547000000000024,-5.684765625000001,6.089859008789063,0.410028076171875
9.557000000000016,0.246136474609375,6.540560913085938,-1.91824951171875
9.567000000000007,3.1218658447265626,6.450689697265625,-0.7627838134765625
9.576999999999993,3.0985382080078128,10.432986450195314,1.277935791015625
9.586999999999996,2.518637084960938,13.590890502929687,0.7424468994140625
9.596999999999989,-2.161395263671875,8.120111083984376,1.6982818603515626
9.607000000000085,0.1664337158203125,6.0988311767578125,8.416192626953126
9.617000000000075,-0.301165771484375,12.718197631835938,13.595675659179689
9.627000000000066,-5.167520141601563,8.19158935546875,8.084371948242188
9.637000000000056,-2.3698486328125004,10.425808715820311,-1.0953521728515625
9.64700000000004,3.9268188476562496,6.7961181640625,-4.639059448242188
9.65700000000004,5.226138305664063,9.052468872070314,-3.129193115234376
9.668000000000006,1.87099609375,12.807919311523438,0.68009033203125
9.677999999999995,-3.732870483398438,9.066973876953126,4.472775268554688
9.687999999999995,-1.9012023925781247,7.306634521484375,5.571566772460938
9.697999999999986,-2.0679351806640627,8.476007080078126,4.566983032226563
9.708000000000084,-1.0172943115234376,8.505914306640626,3.186764526367188
9.718000000000076,3.873434448242188,12.440509033203126,2.0516357421875
9.728000000000064,3.550286865234375,9.010598754882814,2.6774444580078125
9.738000000000056,1.5388763427734375,8.909063720703125,3.913360595703125
9.748000000000047,-2.16588134765625,7.432693481445313,5.93658447265625
9.758000000000044,-2.479757690429688,8.561242675781251,5.600726318359375
9.768000000000036,0.1487884521484375,9.466085815429688,2.859579467773438
9.77800000000002,-0.8930297851562501,9.758428955078124,-0.020635986328125
9.788000000000013,-0.7587463378906251,10.638449096679688,-0.350811767578125
9.798999999999978,-1.253411865234375,8.973663330078125,3.4305084228515628
9.807999999999993,-0.9414794921875,9.523956298828123,6.2867980957031255
9.817999999999984,-0.8222991943359376,8.972467041015626,5.0665832519531255
9.829000000000065,-0.252716064453125,7.637408447265625,2.34652099609375
9.839000000000055,2.733969116210938,9.732858276367187,0.1075164794921875
9.849000000000046,0.7180725097656251,6.513494873046875,1.191204833984375
9.859000000000036,0.95164794921875,5.9012939453125,3.9921661376953126
9.869000000000028,0.149835205078125,13.49040222167969,6.9223266601562505
9.87900000000002,2.9645538330078125,16.185342407226564,8.309124755859376
9.88900000000001,-0.042169189453125,12.036611938476565,1.7760406494140626
9.899,-3.8936218261718754,2.3849517822265627,-1.5796997070312502
9.908999999999992,0.992620849609375,7.479946899414063,-0.1724151611328125
9.918999999999984,-0.418701171875,6.593347167968751,2.4830474853515625
9.929000000000087,-2.4854400634765628,12.426004028320314,2.9920684814453127
9.939000000000073,-0.2738006591796875,14.105145263671876,0.9151611328125
9.949000000000076,0.8103363037109376,5.506069946289063,2.015597534179688
9.960000000000036,3.218466186523438,7.988818359375,8.925213623046876
9.970000000000027,0.5431152343750001,12.177923583984375,11.070907592773438
9.980000000000013,-4.481747436523438,7.857525634765626,4.84796142578125
9.990000000000007,-2.5349365234375,9.498385620117189,-1.9137634277343751
10.0,1.2408508300781251,7.476208496093751,-3.236260986328125
10.009999999999998,4.782763671875,12.27676696777344,-1.2092987060546876
10.019999999999982,2.705108642578125,10.405172729492188,2.9261230468750004
10.030000000000086,1.6650848388671875,8.398248291015626,6.076699829101563
10.040000000000076,-1.68856201171875,6.865203857421876,4.821493530273438
10.050000000000075,-2.069281005859376,8.998486328125,3.450247192382813
10.060000000000066,-1.5795501708984376,10.427902221679688,1.47083740234375
10.07000000000005,-0.188116455078125,11.064028930664064,1.3519561767578123
10.08000000000004,1.9300628662109376,10.112081909179688,2.804550170898437
10.091999999999985,-0.381915283203125,6.533831787109375,4.683322143554688
10.101,-2.4130645751953126,8.211178588867188,6.362762451171876
10.110999999999995,0.1915557861328125,9.096133422851564,4.9723754882812505
10.120999999999988,-0.4921234130859375,8.962896728515625,2.058065795898438
10.131000000000084,1.40205078125,10.686300659179688,0.6189300537109376
10.141000000000076,1.0898193359375,9.606948852539062,1.8689025878906247
10.151000000000067,-1.039126586914063,9.242828369140623,4.671658325195313
10.161000000000058,-2.339791870117188,9.434085083007814,5.054470825195313
10.17100000000005,-0.6057708740234375,8.648721313476564,2.9841430664062503
10.18100000000004,1.07008056640625,8.94166259765625,0.4894317626953125
10.192000000000007,2.6976318359375,9.539657592773438,0.3892425537109375
10.201000000000022,1.6468414306640626,7.32607421875,1.5228759765625002
10.211000000000013,-0.538031005859375,6.060101318359376,3.5800445556640628
10.221000000000004,-3.5616516113281254,10.440313720703124,6.871633911132813
10.232000000000085,2.1095062255859376,16.385870361328127,9.402981567382811
10.242000000000075,-0.309539794921875,11.759222412109375,4.522421264648438
10.252000000000066,-5.446554565429688,4.4322509765625,-0.5640502929687501
10.262000000000056,0.2160797119140625,7.2172119140625,-1.9320068359375
10.27200000000004,3.2821685791015627,7.068423461914063,0.7559051513671875
10.28200000000004,3.4828460693359378,11.588003540039065,1.7410491943359376
10.293000000000006,2.0495422363281253,12.850537109375,1.1877655029296876
10.30200000000002,-1.6345794677734375,7.748812866210938,2.8248870849609378
10.312000000000012,-0.1568634033203125,7.289886474609376,9.21441650390625
10.322000000000005,-1.8532012939453129,11.285791015625,12.521707153320314
10.331999999999994,-4.72593994140625,8.858819580078126,5.579342651367188
10.341999999999985,-0.277838134765625,10.041650390625,-1.9759704589843752
10.35200000000009,4.037176513671875,6.557907104492188,-4.4086242675781255
10.36200000000008,4.623806762695313,10.032080078125,-2.5056274414062503
10.372000000000078,-1.0881744384765626,12.675729370117187,2.236013793945313
10.383000000000044,-3.626251220703125,7.724438476562501,5.22479248046875
10.393000000000036,-1.5077728271484376,7.4412170410156255,5.642596435546875
10.40300000000002,-1.7875549316406252,8.572906494140625,3.918893432617188
10.413000000000013,1.051089477539063,9.90228271484375,2.559909057617188
10.423000000000002,4.268658447265626,11.674884033203126,1.8689025878906247
10.432999999999993,2.784661865234375,9.250604248046876,2.489178466796876
10.442999999999984,0.9419281005859376,7.673596191406251,4.432699584960938
10.453000000000088,-1.2327758789062502,8.550177001953125,5.9754638671875
10.46300000000008,-2.092608642578125,7.719055175781251,5.101873779296875
10.473000000000075,-0.2818756103515625,10.265505981445314,2.22689208984375
10.483000000000068,-0.33436279296875,9.959704589843753,0.11484375
10.493000000000052,-1.3447784423828126,10.24920654296875,0.8599822998046875
10.503000000000045,-1.223504638671875,9.235800170898438,4.111346435546875
10.513000000000034,-1.9264739990234376,9.068768310546876,5.903088378906251
10.523000000000025,-0.7194183349609375,8.761770629882813,4.053924560546875
10.533999999999992,0.2767913818359375,8.089755249023439,1.2646270751953126
10.543999999999984,2.06658935546875,9.184808349609376,0.2528656005859375
10.554000000000087,0.9232360839843752,5.489471435546875,2.06240234375
10.564000000000073,0.7920928955078126,8.08990478515625,5.302850341796876
10.574000000000076,1.0681365966796876,15.704284667968752,8.548083496093751
10.584000000000067,3.3228424072265628,14.939407348632814,7.088760375976563
10.594000000000053,-3.199176025390625,7.882797241210938,-0.202471923828125
10.604000000000042,-1.8152191162109377,3.39207763671875,-1.725946044921875
10.614000000000033,2.327230834960938,7.629333496093751,0.1598541259765625
10.624000000000024,-0.9754241943359376,8.380154418945313,2.2751922607421875
10.634000000000016,-3.327627563476563,13.697808837890626,1.911968994140625
10.644000000000004,0.15252685546875,11.084814453125,0.8287292480468751
10.653999999999996,2.151974487304688,4.875326538085938,4.9758148193359375
10.663999999999987,3.5517822265625,10.519268798828126,11.6386962890625
10.675000000000075,-3.2805236816406254,12.189288330078126,9.894955444335938
10.685000000000066,-2.83221435546875,5.840582275390625,2.2274902343750003
10.69500000000005,-3.069378662109376,9.966433715820314,-2.8547943115234378
10.70500000000004,1.983148193359375,8.464343261718751,-2.481103515625
10.715000000000032,4.281817626953125,12.194671630859377,0.1245635986328125
10.725000000000025,2.8239898681640625,10.502072143554688,1.9937652587890624
10.735000000000014,1.7271423339843752,6.7386962890625,4.717266845703126
10.745000000000005,-1.3224975585937502,7.919583129882813,3.3735351562500004
10.754999999999995,-0.8006164550781251,9.2652587890625,3.350506591796876
10.764999999999986,-0.5323486328125,11.158685302734376,2.478262329101563
10.774999999999975,-1.974923706054688,10.641589355468753,2.2623321533203127
10.785000000000082,1.2498229980468751,8.3106201171875,4.013250732421875
10.795000000000073,0.8317199707031251,7.482339477539063,6.084625244140625
10.80600000000004,-2.65875244140625,8.28131103515625,6.010305786132813
10.816000000000038,-1.0588653564453123,9.236697387695314,3.6383636474609378
10.826000000000022,0.4880859375,10.036416625976564,0.9915740966796877
10.836000000000013,1.2429443359375,9.402084350585938,0.7855133056640625
10.846000000000004,-0.0707305908203125,10.64039306640625,2.2837158203125
10.855999999999996,-2.263079833984375,8.112634277343751,4.943963623046876
10.865999999999984,-0.9592742919921876,10.34730224609375,4.108206176757813
10.87600000000009,0.1434051513671875,7.670455932617188,2.0891693115234378
10.88600000000008,1.8777252197265624,9.615921020507812,0.6323883056640626
10.896000000000072,2.751763916015625,9.10660095214844,1.2070556640625
10.906000000000065,0.481207275390625,5.223297119140625,2.8215972900390627
10.916000000000054,-1.3051513671875,8.915792846679688,4.987927246093751
10.926000000000045,-1.4795104980468752,13.028036499023438,8.992205810546876
10.936000000000035,2.1210205078125,15.377847290039064,7.144387817382813
10.946000000000026,-4.769754028320313,7.85244140625,0.2848663330078125
10.956999999999994,-2.5747131347656254,4.27135009765625,-1.945614624023437
10.966999999999985,3.1414550781250004,9.6983154296875,-0.5000488281250001
10.97700000000009,1.9130157470703129,6.285003662109376,1.4093780517578125
10.98700000000008,4.696780395507813,14.455059814453126,2.355194091796875
10.997000000000078,1.1231658935546875,9.7533447265625,1.7785827636718752
11.007000000000062,-2.1217681884765627,6.273489379882813,6.062344360351563
11.017000000000053,-3.7261413574218754,11.226275634765626,11.22418212890625
11.027000000000044,-2.711688232421875,8.299703979492188,9.331951904296876
11.037000000000036,-2.1355255126953128,9.700408935546877,0.9129180908203126
11.047000000000024,0.8013641357421876,8.869137573242188,-3.452789306640625
11.057000000000016,4.900747680664063,8.167813110351563,-3.3639648437500003
11.067000000000007,3.70849609375,10.587008666992189,-0.2385101318359375
11.076999999999993,-0.639715576171875,11.352932739257811,4.288397216796875
11.086999999999996,-4.68646240234375,7.504769897460938,6.2972656250000005
11.098000000000075,-1.8155181884765623,8.190692138671876,5.4348907470703125
11.108000000000068,3.26168212890625,9.030337524414064,3.523968505859376
11.118000000000052,2.525067138671876,10.1349609375,1.1132965087890625
11.128000000000045,-0.5580688476562501,10.620803833007812,1.082940673828125
11.138000000000034,2.03668212890625,9.413150024414064,2.9335998535156254
11.148000000000025,-0.126806640625,6.859072875976563,5.3237854003906255
11.158000000000015,-2.0197845458984376,8.923867797851564,5.7489166259765625
11.168000000000006,-0.981854248046875,8.578887939453125,4.067532348632813
11.177999999999995,-1.4602203369140625,10.048678588867189,1.725048828125
11.187999999999995,-0.036187744140625,10.803836059570314,0.6117523193359375
11.197999999999986,-0.6353790283203126,8.965289306640626,2.4610656738281254
11.208000000000084,-1.395022583007813,9.22742614746094,4.828671264648438
11.218000000000076,-1.713983154296875,8.929998779296875,4.876522827148438
11.229000000000042,0.0088226318359375,8.293423461914063,2.8387939453125
11.239000000000033,2.2490234375,9.384439086914064,0.5175445556640625
11.249000000000024,1.493865966796875,6.492559814453125,0.7669708251953126
11.259000000000016,1.6036254882812502,6.415399169921876,3.1928955078125
11.269000000000004,-1.4093780517578125,13.178768920898438,6.694732666015626
11.278999999999996,3.4812011718750004,16.839114379882815,8.64857177734375
11.288999999999987,0.679791259765625,11.404971313476564,2.530450439453125
11.298999999999978,-4.032989501953125,1.1300445556640626,-1.2966278076171875
11.309000000000085,-0.84158935546875,8.616870117187501,-0.9757232666015626
11.319000000000074,0.3494659423828125,5.75235595703125,2.2829681396484376
11.329000000000065,-0.5924621582031251,13.633807373046876,2.588919067382813
11.339000000000055,-0.8889923095703126,13.29495849609375,0.8402435302734376
11.349000000000046,0.6238647460937501,5.857778930664063,3.151025390625
11.359000000000036,3.7910400390625,8.072708129882812,10.086959838867188
11.369000000000028,-1.3266845703125,12.118109130859375,11.617910766601565
11.37900000000002,-3.5869232177734376,7.6813720703125,4.431204223632813
11.389999999999986,-3.2012695312500004,9.398794555664065,-2.41710205078125
11.399999999999975,0.073870849609375,7.509854125976563,-2.9669464111328128
11.410000000000082,4.012054443359375,12.10166015625,-0.1727142333984375
11.420000000000073,2.887542724609375,10.372573852539062,1.06170654296875
11.430000000000064,2.75924072265625,8.484231567382814,4.299612426757813
11.440000000000056,0.94327392578125,6.543103027343751,3.640606689453125
11.450000000000044,-0.1670318603515625,9.525900268554688,2.9696380615234377
11.460000000000036,0.0979461669921875,9.953424072265626,2.6260040283203128
11.470000000000027,-3.51888427734375,12.24700927734375,2.4218872070312503
11.480000000000013,-2.925823974609376,9.231613159179688,3.157305908203125
11.490000000000007,2.894122314453125,6.338836669921876,5.62076416015625
11.5,0.4451690673828125,9.03601989746094,6.1895996093750005
11.51100000000008,-2.6451446533203127,8.280712890625,3.872238159179688
11.521000000000072,-1.4232849121093751,9.276922607421875,1.7301330566406252
11.531000000000065,2.9804046630859378,10.949185180664063,1.4264251708984377
11.541000000000054,1.093408203125,8.908166503906251,2.583236694335937
11.551000000000045,-2.1376190185546875,9.84246826171875,4.596292114257813
11.561000000000035,-2.6597991943359376,9.099871826171876,4.7983154296875
11.571000000000026,-0.0922637939453125,8.797509765625001,2.63482666015625
11.581000000000016,1.33565673828125,9.131124877929688,0.3461761474609375
11.593000000000076,2.0332427978515626,9.452926635742188,0.2839691162109375
11.601,1.91585693359375,8.509503173828126,1.4032470703125002
11.610999999999995,-0.1123016357421875,4.177590942382813,3.7671142578125
11.620999999999988,-2.74608154296875,10.690936279296876,6.409567260742188
11.631000000000084,1.1171844482421875,14.56766052246094,9.799252319335938
11.641000000000076,-0.2935394287109375,14.382684326171876,4.573263549804688
11.651000000000067,-5.28759765625,5.207745361328126,-0.9272735595703124
11.661000000000058,-0.8000183105468751,7.021618652343751,-1.7391052246093752
11.672000000000024,2.962759399414063,6.46654052734375,0.5061798095703125
11.682000000000016,3.49495849609375,10.20240173339844,2.5971435546875004
11.692999999999984,3.4687896728515626,12.7249267578125,1.4835479736328123
11.701999999999993,1.6463928222656252,8.279965209960938,1.3008148193359377
11.711999999999996,-1.149783325195313,7.675390625,7.862609863281251
11.721999999999989,-4.936187744140625,12.385479736328126,13.015774536132811
11.732000000000085,-2.1258056640625003,7.803543090820313,8.513092041015625
11.742000000000075,-2.596246337890625,9.068768310546876,-0.6963897705078126
11.752000000000066,0.0426177978515625,8.022164916992189,-4.6109466552734375
11.762000000000056,4.329519653320313,8.847305297851562,-3.0955474853515628
11.77200000000004,3.372637939453125,12.989456176757814,0.4888336181640625
11.78200000000004,-3.2072509765625004,9.30653076171875,3.79283447265625
11.793000000000006,-2.1848724365234378,6.484634399414063,5.8187500000000005
11.80200000000002,2.3545959472656253,10.0045654296875,5.647531127929688
11.812999999999995,1.2807769775390625,7.795916748046875,2.915057373046875
11.822999999999986,1.2401031494140626,11.03935546875,1.0169952392578123
11.833000000000084,1.5876251220703126,10.237841796875,1.4724822998046876
11.843000000000076,1.416107177734375,9.097479248046875,3.17794189453125
11.853000000000064,-1.081146240234375,7.89371337890625,5.980398559570313
11.863000000000056,-2.0004943847656254,7.8509460449218755,6.65555419921875
11.873000000000047,-1.290347290039063,9.2197998046875,3.942819213867188
11.883000000000044,-1.8214996337890623,9.128732299804687,1.292889404296875
11.893000000000036,0.1024322509765625,11.676379394531253,-0.1957427978515625
11.90300000000002,-0.246136474609375,8.636907958984375,2.001092529296875
11.913000000000013,-2.319454956054688,9.792971801757814,4.646087646484375
11.923000000000002,-1.0842864990234375,8.645880126953125,5.145687866210938
11.934000000000085,-0.3433349609375,7.714419555664063,3.367254638671876
11.94500000000005,2.6210693359375004,9.626239013671876,1.3011138916015623
11.954000000000065,1.547549438476563,6.501681518554688,0.79971923828125
11.964000000000055,1.9032958984375,6.184814453125001,2.930908203125
11.974000000000046,-0.1801910400390625,14.040246582031251,6.018829345703125
11.984000000000036,3.542959594726563,16.064367675781252,8.325274658203126
11.994000000000028,0.40972900390625,11.123843383789064,2.752960205078125
12.00400000000002,-4.3712402343750005,2.47332763671875,-0.9274230957031252
12.01400000000001,-1.2740478515625,6.743930053710938,-0.6491363525390625
12.024,-1.6782440185546876,8.094839477539063,1.9385864257812504
12.033999999999992,-0.98514404296875,12.057247924804688,2.404840087890625
12.043999999999984,0.8529541015625001,14.410049438476564,0.8676086425781251
12.054000000000087,0.4006072998046875,4.830615234375,3.380413818359376
12.064000000000073,3.2042602539062504,8.461053466796876,10.408013916015626
12.074000000000076,-1.431060791015625,12.491052246093751,11.405569458007813
12.084000000000067,-3.2269897460937504,6.286648559570313,3.8680511474609376
12.094000000000053,-3.1789886474609377,10.364498901367188,-2.6819305419921875
12.105000000000013,1.4546875,8.428903198242189,-2.605368041992188
12.115000000000007,4.336697387695313,11.982778930664065,-0.686370849609375
12.125,3.0112091064453126,10.069314575195314,1.073968505859375
12.134999999999998,2.802606201171875,7.934088134765625,4.77977294921875
12.144999999999982,1.0169952392578123,6.758435058593751,3.4489013671875
12.155000000000086,-0.41451416015625,8.83878173828125,3.2794769287109378
12.165000000000076,0.93011474609375,11.388372802734375,2.6080596923828128
12.175000000000075,-4.007418823242188,11.380596923828126,2.136871337890625
12.186000000000035,-3.968389892578125,8.710629272460938,3.3880401611328126
12.19500000000005,-0.7357177734375,6.356182861328126,6.195132446289063
12.20500000000004,0.3075958251953125,8.563186645507812,7.200762939453125
12.215000000000032,1.7615356445312502,9.542648315429688,4.9768615722656255
12.226,-1.5880737304687502,8.731863403320313,1.4108734130859375
12.235999999999995,0.6616973876953125,10.5668212890625,-0.0435150146484375
12.245000000000005,1.9791107177734373,10.251898193359375,1.4126678466796876
12.256000000000084,-1.1764007568359376,9.142190551757814,4.005026245117188
12.266000000000076,-2.056570434570313,9.524853515625,4.323687744140625
12.276000000000067,-0.066693115234375,8.413650512695312,2.5328430175781254
12.286000000000058,2.321099853515625,8.838931274414064,0.3940277099609375
12.29600000000005,2.1693206787109376,9.458309936523438,0.390887451171875
12.30600000000004,0.606817626953125,6.671704101562501,2.2769866943359376
12.316000000000038,-0.9553863525390626,6.172402954101563,5.069125366210938
12.326000000000022,-3.0907623291015627,11.986068725585938,8.9566162109375
12.336000000000013,2.113543701171875,16.371365356445313,9.701904296875
12.346000000000004,-2.5392730712890628,10.031930541992187,2.7586425781250004
12.355999999999996,-3.235214233398438,4.512252807617188,-1.8452758789062504
12.365999999999984,-0.046954345703125,8.471371459960938,-2.469290161132813
12.377000000000066,2.739801025390625,6.290835571289063,0.3955230712890625
12.387000000000056,3.559408569335938,12.699057006835938,1.2326263427734376
12.39700000000004,2.4670471191406254,12.0406494140625,0.9455169677734376
12.40700000000004,0.2483795166015625,5.757290649414063,3.5306976318359378
12.417000000000035,0.057421875,10.197616577148438,10.726226806640623
12.42700000000002,-4.103271484375,10.294964599609376,12.579876708984376
12.437000000000012,-2.4025970458984376,9.024954223632813,4.293630981445313
12.447000000000005,-2.537030029296876,8.00137939453125,-3.0183868408203125
12.456999999999994,2.413812255859375,8.899194335937501,-4.026858520507813
12.466999999999985,4.268359375,9.701156616210938,-1.1479888916015626
12.47700000000009,2.2108917236328125,11.774026489257814,2.6074615478515626
12.48700000000008,-3.242242431640625,8.529092407226564,5.110546875000001
12.497000000000078,-3.9502960205078126,7.116275024414063,6.099578857421875
12.508000000000044,0.826336669921875,9.207687377929688,4.637564086914063
12.518000000000036,3.5933532714843754,9.257183837890626,2.319454956054688
12.52800000000002,0.27813720703125,11.601910400390626,0.6350799560546876
12.538000000000013,1.753759765625,9.133517456054689,1.6309906005859376
12.548000000000002,1.3515075683593751,7.5743041992187505,4.5351318359375
12.557999999999993,-1.3658630371093752,8.894110107421875,5.991015625
12.567999999999984,-1.916305541992188,7.632025146484375,5.095294189453125
12.578000000000088,-0.7059600830078125,10.349993896484376,2.5802459716796875
12.58800000000008,-0.5624053955078125,9.918133544921876,0.8638702392578126
12.598000000000075,-0.43365478515625,10.405322265625,1.4319580078125
12.610000000000014,-1.174755859375,8.973962402343751,3.935043334960938
12.618000000000052,-2.49486083984375,9.068618774414062,4.788595581054688
12.628000000000045,-0.17406005859375,8.5953369140625,3.302505493164063
12.638000000000034,0.78775634765625,7.971771240234376,1.2765899658203126
12.648000000000025,1.845574951171875,7.044049072265626,0.7547088623046876
12.658000000000015,0.8886932373046875,6.088662719726563,2.6360229492187504
12.668000000000006,-0.2465850830078125,13.6867431640625,6.951486206054688
12.679000000000087,3.4258728027343754,17.887811279296876,9.044992065429687
12.689000000000073,-1.0443603515625002,9.420327758789064,3.1718109130859378
12.699000000000076,-4.5043273925781255,1.6247100830078127,-1.2568511962890625
12.709000000000067,2.4637573242187503,8.437127685546876,-0.8827117919921875
12.719000000000053,1.7726013183593752,5.478106689453125,1.0711273193359376
12.729000000000042,1.5337921142578126,15.181506347656253,1.191802978515625
12.739000000000033,-3.710888671875,12.568661499023438,0.1380218505859375
12.749000000000024,-0.0049346923828125,6.233563232421876,3.906332397460938
12.759999999999998,4.08353271484375,7.527200317382813,12.343609619140626
12.769000000000004,-1.47083740234375,11.680715942382813,13.020559692382813
12.778999999999996,-3.4888275146484378,8.227627563476563,3.66842041015625
12.790000000000076,-3.450247192382813,9.126040649414064,-2.8945709228515626
12.800000000000075,-1.247430419921875,6.935934448242188,-3.76591796875
12.810000000000066,3.6646820068359376,12.834088134765626,-0.078955078125
12.82000000000005,3.0738647460937503,10.471865844726564,1.0488464355468752
12.83000000000004,2.0013916015625,7.967285156250001,2.9528900146484376
12.840000000000032,1.523175048828125,6.178533935546875,3.664981079101562
12.850000000000025,1.2918426513671877,9.810617065429687,2.2067047119140626
12.860000000000014,0.3581390380859375,9.07205810546875,2.1560119628906254
12.870000000000005,-3.35140380859375,13.128076171875,2.4082794189453125
12.879999999999995,-2.015597534179688,8.481838989257813,4.341482543945313
12.889999999999986,2.739501953125,7.226483154296876,6.456521606445313
12.899999999999975,0.180938720703125,8.822183227539064,6.541757202148438
12.910000000000082,-4.050485229492188,7.082778930664063,3.589166259765625
12.920000000000073,-3.853247070312501,9.036318969726564,1.1998779296875002
12.930000000000064,-0.282025146484375,12.159829711914064,1.317263793945313
12.940000000000056,4.1822265625,9.376663208007812,2.570974731445313
12.951000000000022,2.4716827392578127,9.076394653320314,4.6990234375
12.961000000000013,-2.1379180908203126,9.29920349121094,4.856484985351563
12.971000000000004,-4.957571411132813,8.835342407226562,2.2544067382812503
12.980999999999996,-0.0100189208984375,8.830108642578125,0.437542724609375
12.990999999999984,4.291986083984376,9.845309448242189,0.3090911865234375
13.00100000000009,2.2934356689453126,5.680877685546875,1.7515167236328126
13.01100000000008,1.9145111083984376,6.237750244140625,4.884298706054688
13.021000000000072,1.6396636962890627,14.792413330078126,8.159588623046876
13.031000000000065,-1.9142120361328123,14.82620849609375,8.12818603515625
13.041000000000054,-5.161389160156251,8.735003662109376,1.7646759033203123
13.051000000000045,-1.338198852539063,4.8820556640625,-0.2346221923828125
13.062000000000012,3.567184448242188,7.597332763671876,-0.6880157470703125
13.071000000000026,2.3335113525390625,7.430300903320313,1.2613372802734375
13.081000000000016,1.2682159423828123,13.463037109375,1.353152465820313
13.091999999999985,-4.652667236328125,11.145376586914065,0.3527557373046875
13.10200000000009,0.2576507568359375,5.2579895019531255,5.025909423828125
13.11200000000008,3.5914093017578126,10.306777954101562,11.855224609375
13.122000000000078,-3.4180969238281254,11.754736328125,10.537213134765626
13.132000000000062,-3.563595581054688,6.552822875976563,2.5003936767578128
13.142000000000053,-1.7637786865234375,10.6960205078125,-3.3760772705078126
13.152000000000044,2.9095245361328126,6.7638183593750005,-3.884201049804688
13.162000000000036,4.486083984375,11.636602783203124,-0.3096893310546875
13.172000000000024,2.26756591796875,10.948138427734376,3.5123046875000004
13.182000000000016,-0.4616180419921875,7.745373535156251,5.542108154296876
13.192000000000007,-2.6583038330078126,8.378359985351564,4.748669433593751
13.201999999999993,-1.0992401123046875,8.650515747070314,3.392526245117188
13.211999999999996,1.90927734375,10.174588012695311,2.2514160156250003
13.221999999999989,1.8289764404296875,10.810266113281251,1.7262451171875002
13.233000000000068,1.2951324462890623,8.941213989257813,2.7418945312500003
13.243000000000052,0.341839599609375,7.481143188476563,4.835848999023438
13.253000000000045,-2.632733154296876,8.053567504882814,6.1552062988281255
13.263000000000034,-2.52596435546875,9.135910034179688,4.675994873046875
13.273000000000025,-1.2407012939453126,9.767550659179689,2.100384521484376
13.283000000000015,-0.160601806640625,9.706390380859377,1.094903564453125
13.293000000000006,0.3084930419921875,10.918829345703124,1.9913726806640624
13.302999999999995,-1.5886718750000002,8.045642089843751,4.2864532470703125
13.312999999999995,-1.2637298583984375,10.282852172851562,3.9816986083984376
13.322999999999986,-0.0800018310546875,7.486376953125,2.68626708984375
13.333000000000084,1.6803375244140626,9.1169189453125,1.4204437255859377
13.343000000000076,3.510809326171876,8.612384033203126,1.5992889404296875
13.353000000000064,1.7859100341796876,4.7435852050781255,2.955880737304688
13.363000000000056,1.4137145996093752,10.397247314453123,4.520477294921875
13.373000000000047,0.5582183837890625,15.699798583984377,6.9746643066406255
13.384000000000016,1.5194366455078123,15.230105590820314,4.7410430908203125
13.394000000000004,-3.887042236328125,5.332159423828125,-0.182733154296875
13.403999999999996,-2.062252807617188,3.5366790771484378,0.179144287109375
13.413999999999987,0.3144744873046875,8.525802612304688,1.72205810546875
13.423999999999978,-3.5303985595703127,8.305386352539063,3.361871337890625
13.434000000000085,-3.147137451171876,15.056045532226564,1.6837768554687502
13.444000000000074,1.5143524169921876,9.923666381835938,1.585382080078125
13.454000000000065,2.8443267822265628,4.8980560302734375,6.550729370117188
13.464000000000055,3.2899444580078128,11.970217895507814,11.378204345703123
13.474000000000046,-4.549935913085938,9.078488159179688,8.012594604492188
13.484000000000036,-3.060107421875,7.910012817382813,-0.4021026611328125
13.494000000000028,1.437042236328125,9.938470458984376,-3.744235229492188
13.50400000000002,5.241390991210938,8.874969482421875,-3.5075195312500003
13.514999999999986,4.328173828125,11.313604736328124,0.0073272705078125
13.524999999999975,2.952142333984375,9.655996704101565,4.361520385742188
13.535000000000082,0.2648284912109375,7.255044555664063,5.834002685546875
13.545000000000073,-2.866009521484376,7.322186279296876,4.917645263671876
13.555000000000064,-2.893673706054688,10.224832153320314,3.7557495117187503
13.565000000000056,-4.2958740234375,11.073300170898438,1.7195159912109377
13.575000000000044,0.165386962890625,10.574298095703126,2.4381866455078125
13.585000000000036,2.070028686523438,8.196224975585938,3.869097900390625
13.595000000000027,-0.7914947509765625,6.444857788085938,5.962603759765625
13.605000000000013,-1.782769775390625,9.387130737304688,5.659942626953125
13.615000000000007,-0.6032287597656251,8.6982177734375,3.148333740234375
13.625,0.8329162597656251,10.301992797851565,1.1722137451171877
13.634999999999998,3.15880126953125,10.013986206054687,1.2402526855468752
13.644999999999982,1.591363525390625,9.319540405273438,3.0924072265625004
13.655000000000086,-1.501641845703125,9.890469360351563,4.241891479492188
13.665000000000076,-2.4504486083984376,9.39326171875,2.904440307617188
13.676000000000045,0.21353759765625,7.692886352539063,1.412966918945313
13.686000000000035,3.2642242431640627,9.780410766601562,0.5045349121093751
13.696000000000026,2.2288360595703125,7.564434814453126,1.480706787109375
13.706000000000016,0.316119384765625,5.980099487304688,3.24971923828125
13.716000000000008,-4.273892211914063,9.694876098632813,5.7589355468750005
13.726,-2.009765625,14.377301025390626,10.09967041015625
13.735999999999995,2.291940307617188,15.251788330078126,6.842773437500001
13.745999999999988,-4.4370361328125005,4.470233154296875,1.2598419189453125
13.756000000000084,-1.971783447265625,6.7354064941406255,-1.8101348876953127
13.766000000000076,1.2797302246093751,7.084124755859375,-0.6392669677734375
13.776000000000067,3.671859741210938,10.372424316406253,0.5423675537109376
13.786000000000058,3.534136962890625,12.89539794921875,0.218023681640625
13.79600000000005,1.2278411865234375,8.955718994140625,0.9663024902343752
13.807000000000016,1.13826904296875,5.781515502929688,7.085321044921876
13.817000000000007,-2.0727203369140628,12.196914672851562,12.951025390625
13.826999999999993,-3.6739532470703127,8.77777099609375,9.007308959960938
13.836999999999996,-2.8021575927734377,8.938223266601563,-0.3796722412109375
13.846999999999989,-0.9661529541015624,8.43682861328125,-4.27733154296875
13.857000000000085,4.116879272460938,9.460552978515626,-2.5732177734375004
13.867000000000075,3.091061401367188,10.831948852539064,1.6085601806640626
13.877000000000066,-0.5969482421875001,10.725180053710938,5.092303466796875
13.887000000000056,-4.530496215820313,5.888284301757813,5.832955932617188
13.89700000000004,-1.8639678955078127,8.926409912109376,4.952786254882813
13.90700000000004,3.7699554443359378,9.859515380859376,3.2522613525390627
13.917000000000035,1.3539001464843752,10.212271118164065,1.3247406005859377
13.927999999999995,0.759344482421875,11.382839965820311,0.7932891845703126
13.937999999999995,2.2681640625000004,6.805838012695313,3.0282562255859378
13.947999999999986,1.2415985107421876,8.558551025390626,5.507415771484375
13.958000000000084,-2.548992919921876,8.75623779296875,5.431301879882813
13.968000000000076,-2.6864166259765625,8.821136474609375,3.1610443115234377
13.978000000000064,1.2798797607421877,10.57818603515625,1.305300903320313
13.988000000000056,-0.14654541015625,9.92620849609375,1.2797302246093751
13.998000000000047,-1.3003662109375,9.692333984375,3.528155517578125
14.008000000000044,-2.6553131103515626,8.785247802734375,5.196530151367188
14.018000000000036,-1.1231658935546875,9.081628417968751,4.062747192382813
14.02800000000002,0.3949249267578125,7.847506713867188,1.5124084472656252
14.038000000000013,1.6685241699218751,8.836389160156251,0.7763916015625001
14.048000000000002,2.2007232666015626,6.1070556640625,1.9169036865234377
14.057999999999993,0.308642578125,7.338635253906251,4.077999877929688
14.067999999999984,-0.2552581787109375,14.949127197265629,7.235604858398438
14.078000000000088,4.952786254882813,18.329541015625,7.500433349609375
14.08800000000008,-2.4027465820312504,5.5495849609375005,1.2836181640625002
14.099000000000046,-3.415704345703125,3.12889404296875,-0.7870086669921875
14.110000000000014,-1.1847747802734376,7.956668090820313,0.304156494140625
14.119000000000028,0.3162689208984375,8.223440551757813,1.7367126464843752
14.12900000000002,0.5737701416015626,14.22626953125,0.80091552734375
14.13900000000001,-1.3075439453125002,10.897894287109375,0.6042755126953125
14.149,1.915109252929688,6.838137817382813,5.102023315429688
14.158999999999992,2.4830474853515625,7.512246704101563,13.153646850585938
14.168999999999984,-3.2555511474609378,13.269985961914063,10.773031616210938
14.179000000000087,-2.6415557861328125,5.674298095703126,1.808041381835937
14.189000000000073,-2.322744750976563,8.878857421875,-2.834307861328125
14.199000000000076,3.5613525390625003,11.08780517578125,-3.891677856445313
14.210000000000036,4.404736328125001,10.493249511718751,-1.5318481445312502
14.219000000000053,3.0758087158203127,10.4447998046875,2.0691314697265626
14.230000000000013,0.63822021484375,7.22379150390625,4.117776489257813
14.240000000000007,-2.7107910156250004,6.99051513671875,4.555917358398438
14.25,-1.9539886474609376,9.810467529296876,3.9431182861328127
14.259999999999998,-1.5728210449218751,11.010345458984377,2.681631469726563
14.269999999999982,1.3703491210937502,11.13505859375,3.311477661132813
14.280000000000086,1.0334442138671875,7.836590576171876,4.771548461914063
14.290000000000076,-0.623565673828125,7.754495239257813,6.509756469726563
14.300000000000075,-1.8108825683593752,8.404678344726562,5.602072143554688
14.310000000000066,-1.7129364013671875,7.988818359375,2.8631683349609376
14.32000000000005,0.9867889404296876,11.2510986328125,0.59635009765625
14.33000000000004,2.7556518554687504,8.752200317382814,0.878973388671875
14.340000000000032,0.8170654296875001,11.391213989257814,1.90150146484375
14.350000000000025,-3.988128662109376,8.421575927734375,4.36346435546875
14.360999999999995,-1.6894592285156251,9.251950073242188,4.71397705078125
14.370999999999988,1.7651245117187502,8.17783203125,2.5282073974609376
14.381000000000084,1.03419189453125,9.0116455078125,0.2597442626953125
14.391000000000076,2.2681640625000004,7.141247558593751,0.11005859375
14.401000000000067,1.1783447265625,6.427362060546876,1.8203033447265624
14.411000000000058,-0.8773284912109376,12.150259399414065,6.263619995117188
14.42100000000005,0.19619140625,16.759112548828128,10.206289672851565
14.43100000000004,-0.7251007080078126,9.859814453125,6.366799926757813
14.441000000000038,-4.586721801757813,4.135571289062501,1.346722412109375
14.451000000000022,-1.021331787109375,6.189300537109376,-1.531549072265625
14.461000000000013,2.2962768554687503,9.050823974609376,-0.8435333251953125
14.471000000000004,4.457821655273438,11.79361572265625,-0.021832275390625
14.480999999999996,-0.9168060302734377,13.444644165039064,0.165386962890625
14.490999999999984,-2.668621826171876,5.98563232421875,3.5570159912109376
14.50100000000009,2.6713134765625,6.981842041015626,10.830752563476564
14.512000000000056,-0.33795166015625,12.423162841796875,12.110333251953126
14.52200000000004,-4.302304077148438,8.285049438476562,4.008615112304688
14.53200000000004,-2.4531402587890625,9.208584594726563,-2.1425537109375004
14.542000000000035,1.6082611083984375,9.361560058593753,-3.855938720703125
14.555000000000064,4.134823608398438,9.585714721679688,-1.1272033691406251
14.562000000000012,2.4685424804687504,11.113375854492189,3.5688293457031253
14.572000000000005,-0.5064788818359376,7.754943847656251,5.838339233398438
14.581999999999994,-2.804400634765625,7.742233276367188,4.707247924804688
14.591999999999985,-1.0817443847656252,9.581826782226564,2.967843627929688
14.60200000000009,2.164236450195313,9.736297607421877,2.37762451171875
14.61200000000008,2.064645385742188,11.591293334960938,1.7344696044921877
14.622000000000078,0.950750732421875,8.684759521484375,2.50921630859375
14.632000000000062,0.5537322998046875,6.978402709960938,4.601974487304688
14.642000000000053,-0.7979248046875,8.564682006835938,6.037670898437501
14.652000000000044,-3.2878509521484376,8.556607055664063,4.390380859375
14.663000000000013,-0.97078857421875,10.620355224609376,1.8537994384765624
14.673000000000002,0.291595458984375,9.327615356445314,1.3449279785156252
14.682999999999993,0.7805786132812501,10.510745239257814,2.643051147460937
14.692999999999984,-2.2005737304687503,8.900540161132813,4.495654296875
14.703000000000088,-2.7809234619140626,8.936428833007813,4.446905517578125
14.71300000000008,0.1858734130859375,9.28006286621094,2.183676147460938
14.723000000000075,1.2984222412109376,7.320242309570313,1.0277618408203126
14.733000000000068,3.6217651367187504,9.934732055664064,1.1089599609375
14.743000000000052,1.484295654296875,3.7724975585937504,2.77000732421875
14.753000000000045,1.056024169921875,11.189190673828126,4.610049438476563
14.763000000000034,0.9962097167968752,16.126574707031253,7.8494506835937505
14.773000000000025,0.9652557373046876,14.247952270507811,5.071966552734375
14.783000000000015,-4.450344848632813,3.277084350585938,0.47791748046875
14.793000000000006,-1.556521606445313,7.001281738281251,0.265277099609375
14.802999999999995,1.7042633056640626,6.661685180664063,1.395172119140625
14.814000000000073,-2.321249389648438,10.475454711914065,1.7821716308593751
14.824000000000076,-2.607012939453125,13.616909790039063,0.7044647216796875
14.834000000000067,2.0891693115234378,10.229019165039062,1.9441192626953123
14.844000000000053,2.806793212890625,4.021923828125001,8.218206787109375
14.854000000000042,1.2412994384765623,12.455014038085938,12.246560668945314
14.864000000000033,-5.089910888671875,9.735101318359376,6.90677490234375
14.874000000000024,-1.798770141601563,6.136962890625001,-0.4577301025390625
14.884000000000016,0.5610595703125001,11.455813598632814,-2.9983489990234378
14.894000000000004,4.039569091796875,8.338732910156251,-2.7955780029296875
14.903999999999996,4.168768310546875,12.077136230468753,0.5326477050781251
14.913999999999987,2.3514556884765625,8.67130126953125,2.526113891601563
14.923999999999978,0.058917236328125,7.021170043945313,4.204507446289063
14.935000000000066,-1.4042938232421875,8.644534301757814,3.879266357421875
14.944000000000074,-1.338348388671875,9.134265136718753,3.650177001953125
14.95500000000004,-1.63712158203125,12.255831909179689,2.762530517578125
14.965000000000032,-2.778680419921875,9.065328979492188,3.3735351562500004
14.975000000000025,1.9984008789062504,8.3201904296875,5.543753051757813
14.985000000000014,-0.1245635986328125,7.569668579101563,6.764416503906251
14.995000000000005,-2.4368408203125003,7.94156494140625,5.144790649414063
15.004999999999995,-0.5745178222656251,10.291973876953126,1.8916320800781248
15.014999999999986,1.529156494140625,9.268399047851563,0.5022918701171876
15.024999999999975,2.7411468505859378,10.765554809570313,0.784765625
15.035000000000082,-0.7439422607421875,9.526797485351564,2.6505279541015625
15.045000000000073,-2.892477416992188,8.890969848632814,4.478457641601563
15.055000000000064,0.63104248046875,9.60306091308594,3.651971435546875
15.065000000000056,0.4388885498046875,7.769897460937501,1.5134552001953123
15.075000000000044,2.484393310546875,9.861907958984377,0.3034088134765625
15.086000000000013,1.0537811279296876,5.88095703125,1.2478790283203125
15.096000000000004,-0.41092529296875,7.235903930664063,3.86640625
15.105999999999996,-2.3785217285156253,12.370227050781253,7.857675170898438
15.115999999999984,1.200177001953125,15.86817626953125,10.001873779296876
15.127000000000066,-1.770806884765625,10.757928466796876,4.056317138671876
15.13600000000008,-3.759637451171875,2.9739746093750004,-0.380419921875
15.146000000000072,-0.52337646484375,8.276077270507812,-1.9970550537109373
15.156000000000065,3.073715209960938,7.988220214843751,-0.0162994384765625
15.166000000000054,3.4177978515625003,11.263510131835938,0.325390625
15.176000000000045,2.3127258300781253,13.831643676757814,0.4607208251953125
15.186000000000035,-1.7144317626953127,4.7171173095703125,3.592605590820313
15.196000000000026,1.26986083984375,9.894656372070314,10.95322265625
15.206000000000016,-3.464752197265625,11.237939453125,12.380096435546877
15.216999999999985,-2.638116455078125,7.476507568359375,4.073513793945313
15.22700000000009,-3.188558959960938,10.178924560546877,-3.200372314453125
15.23700000000008,1.9376892089843751,7.782308959960938,-3.498397827148438
15.247000000000078,4.218862915039063,10.831201171875,-0.712689208984375
15.257000000000062,2.3110809326171875,10.300646972656253,2.7498199462890627
15.267000000000053,-0.5179931640625001,8.335293579101563,5.555416870117188
15.277000000000044,-3.074163818359376,8.122354125976564,4.826727294921875
15.287000000000036,-1.6209716796875002,8.398846435546876,3.662738037109375
15.297000000000024,2.4411773681640625,10.668804931640626,2.363717651367188
15.307000000000016,2.3966156005859376,10.206887817382814,1.9351470947265623
15.317000000000007,1.896417236328125,9.979144287109376,2.5971435546875004
15.326999999999993,0.5060302734375001,6.830661010742188,4.68646240234375
15.336999999999996,-1.7616851806640623,8.481539916992189,5.899349975585938
15.346999999999989,-2.1083099365234377,9.248959350585938,4.098486328125
15.357000000000085,-1.4295654296875,9.056954956054687,1.8212005615234377
15.368000000000052,0.47193603515625,10.6697021484375,1.0159484863281252
15.378000000000045,0.3614288330078125,9.978845214843751,2.186666870117188
15.388000000000034,-2.25380859375,8.949887084960938,4.326229858398438
15.398000000000025,-2.0458038330078128,9.508853149414064,4.607058715820313
15.408000000000015,-0.3467742919921875,7.914947509765626,3.063397216796876
15.418000000000006,1.29737548828125,8.695376586914064,1.427471923828125
15.429000000000087,2.393475341796876,8.366696166992188,1.314273071289063
15.437999999999995,1.6734588623046875,4.631283569335938,2.6155364990234378
15.447999999999986,0.93310546875,11.590994262695313,4.48070068359375
15.458000000000084,1.254010009765625,16.33173828125,8.056857299804689
15.468000000000076,1.3370025634765623,14.509341430664064,4.559805297851563
15.478000000000064,-4.618572998046876,2.3209503173828128,0.060113525390625
15.489000000000033,-0.6901092529296875,6.627890014648438,0.0907684326171875
15.499000000000024,1.5852325439453123,7.033282470703125,1.4545379638671876
15.509000000000016,-1.96729736328125,10.116567993164065,2.3179595947265628
15.519000000000004,-2.318258666992188,15.292013549804688,0.729437255859375
15.528999999999996,0.6181823730468751,8.342770385742188,1.8283782958984376
15.538999999999987,3.1803344726562504,5.464947509765626,8.118316650390625
15.548999999999978,1.9381378173828123,12.426901245117188,11.733950805664064
15.559000000000085,-4.52197265625,8.567373657226563,6.601123046875
15.569000000000074,-2.426971435546875,8.231066894531251,-1.097894287109375
15.579000000000065,-1.0549774169921875,7.414898681640626,-3.456527709960938
15.589000000000055,4.9100189208984375,12.49150085449219,-1.6561126708984375
15.599000000000046,3.2192138671875004,10.210925292968753,0.6047241210937501
15.609000000000036,2.7001739501953126,8.782855224609376,4.509112548828125
15.619000000000028,0.44561767578125,7.322036743164063,4.8365966796875
15.62900000000002,-2.2952301025390627,7.917938232421876,3.937884521484375
15.639999999999986,-0.4245330810546875,10.416387939453124,2.777334594726563
15.649999999999975,-2.4313079833984377,10.94305419921875,1.574465942382813
15.660000000000082,-0.7116424560546876,10.341021728515626,2.732772827148437
15.670000000000073,2.5223754882812504,7.595089721679688,5.3776184082031255
15.680000000000064,-2.213134765625,7.420431518554688,7.025057983398438
15.690000000000056,-2.248873901367188,8.917437744140626,5.264718627929688
15.700000000000044,-0.52576904296875,8.58636474609375,2.089019775390625
15.710000000000036,1.9417266845703127,10.670150756835938,0.2561553955078125
15.720000000000027,1.4153594970703125,10.281356811523438,0.7707092285156251
15.730000000000013,-0.8196075439453125,9.5882568359375,3.2712524414062503
15.740000000000007,-1.532595825195313,8.937774658203125,5.0202270507812505
15.75,-0.3419891357421875,9.027047729492187,3.769058227539063
15.76100000000008,0.66214599609375,8.20355224609375,1.32130126953125
15.771000000000072,2.6301910400390627,9.49539489746094,0.30804443359375
15.781000000000065,1.3275817871093751,6.671853637695313,1.075164794921875
15.791000000000054,0.2139862060546875,6.761276245117188,3.3600769042968754
15.801000000000045,-3.094351196289063,12.331497192382814,8.191738891601563
15.811000000000035,1.2771881103515623,16.15767822265625,10.186999511718753
15.821000000000026,-2.3981109619140626,9.947442626953126,3.5440063476562504
15.831000000000016,-2.9217864990234377,2.9961059570312503,-0.6403137207031251
15.841000000000008,-0.270660400390625,9.733157348632814,-1.820602416992188
15.851,2.94765625,5.896807861328125,0.3970184326171875
15.860999999999995,3.73302001953125,13.49698181152344,0.5313018798828125
15.870999999999988,0.7768402099609376,11.711221313476564,0.6135467529296875
15.881000000000084,-1.947409057617188,5.663830566406251,3.2551025390625004
15.891000000000076,2.4971038818359377,9.524255371093751,10.357171630859376
15.901000000000067,-2.2890991210937504,11.142535400390626,11.3587646484375
15.911000000000058,-3.631185913085938,9.154302978515624,3.6561584472656254
15.922000000000024,-2.595797729492188,7.987622070312501,-2.1455444335937504
15.93100000000004,0.965704345703125,8.992205810546876,-3.40703125
15.942000000000007,3.8342559814453128,10.435977172851564,-0.2525665283203125
15.951999999999993,2.227041625976563,10.60196228027344,4.09788818359375
15.961999999999996,0.3297271728515625,8.330957031250001,6.227581787109376
15.971999999999989,-3.144894409179688,7.864703369140625,5.112042236328126
15.982000000000085,-1.1011840820312502,9.26211853027344,2.947357177734375
15.992000000000075,2.05941162109375,9.17254638671875,1.6867675781250002
16.002000000000066,2.7015197753906253,11.801690673828126,1.284365844726563
16.012000000000057,1.5758117675781251,8.996392822265626,1.9678955078125
16.02200000000004,-0.296978759765625,7.18192138671875,4.320996093750001
16.03200000000004,-1.5228759765625002,9.063235473632814,5.94256591796875
16.042000000000037,-2.2756408691406254,7.779019165039063,4.941122436523438
16.05200000000002,-1.143801879882813,10.28748779296875,2.499346923828125
16.062000000000012,0.171368408203125,10.343115234375,1.2552062988281252
16.072000000000003,-0.536834716796875,9.837832641601564,2.1427032470703127
16.081999999999994,-1.0125091552734375,9.048281860351564,4.315463256835938
16.093000000000075,-2.136273193359376,9.154751586914063,4.5556182861328125
16.103000000000065,-0.1051239013671875,7.940219116210938,2.8060455322265625
16.113000000000056,0.7062591552734375,4.373483276367188,0.839794921875
16.123000000000047,2.2771362304687504,7.508657836914063,0.7819244384765626
16.133000000000045,3.634625244140625,15.79385681152344,4.2460784912109375
16.143000000000036,3.603073120117188,18.167144775390625,7.915994262695313
16.15300000000002,-4.051083374023438,8.972018432617189,3.676943969726562
16.16300000000001,-1.880416870117188,0.7606903076171876,2.346670532226563
16.173000000000002,-1.3597320556640626,5.117575073242188,0.95045166015625
16.182999999999993,-2.8944213867187503,7.578192138671875,1.014752197265625
16.192999999999984,1.45887451171875,15.303228759765624,-0.198583984375
16.203000000000088,5.366253662109376,14.657830810546876,-1.9779144287109376
16.21300000000008,-0.8036071777343751,4.241741943359376,3.6069610595703128
16.224000000000046,2.612545776367188,9.146527099609376,13.782894897460938
16.234000000000037,-3.506024169921876,10.651608276367188,15.683200073242189
16.244000000000028,-2.9543853759765626,6.471325683593751,3.9802032470703126
16.25400000000002,-2.835504150390625,11.045635986328126,-3.80419921875
16.26400000000001,0.3297271728515625,6.941616821289063,-3.1695678710937503
16.274,4.260134887695313,13.11955261230469,0.1021331787109375
16.283999999999992,2.2932861328125003,10.653701782226562,-0.4664031982421875
16.293999999999983,1.7820220947265626,6.823333740234376,0.9790130615234376
16.304000000000087,1.7814239501953126,6.599627685546875,1.0635009765625
16.31400000000007,-2.0749633789062503,9.632070922851565,1.3259368896484376
16.324000000000076,-4.171609497070313,10.933782958984375,1.346124267578125
16.334000000000067,-2.237359619140625,11.134609985351563,3.27364501953125
16.34400000000005,2.5744140625000003,9.88673095703125,4.836148071289063
16.354000000000042,4.577001953125,6.332705688476563,9.132321166992188
16.36500000000001,-0.8813659667968751,7.403384399414063,9.53128356933594
16.375,-2.5452545166015628,8.93328857421875,4.1813293457031255
16.384999999999998,-3.124258422851563,9.22622985839844,0.3724945068359375
16.394999999999982,-2.247528076171875,9.308474731445314,-1.624859619140625
16.405000000000086,3.1278472900390626,12.001470947265624,1.1690734863281251
16.415000000000077,2.9051879882812504,8.33155517578125,5.2529052734375
16.425000000000075,-3.5426605224609378,10.933035278320313,5.391674804687501
16.435000000000066,-4.196133422851563,6.238348388671875,3.1875122070312503
16.44500000000005,0.9661529541015624,9.47161865234375,0.4921234130859375
16.45500000000004,5.017984008789063,7.820440673828125,0.3428863525390625
16.465000000000032,2.6014801025390626,6.762921142578126,1.451846313476563
16.475000000000023,-1.6375701904296875,10.879501342773438,4.123608398437501
16.485000000000014,-1.13587646484375,14.084210205078126,9.738690185546876
16.495000000000005,3.675,13.486514282226564,7.874124145507813
