time,ax,ay,az
0.0,0.0372344970703125,8.663226318359376,3.1396606445312503
0.0099999999999909,-0.4053924560546875,9.16641540527344,2.659201049804688
0.0199999999999818,-0.058917236328125,9.465338134765624,3.153268432617188
0.0299999999999727,-0.012860107421875,6.744976806640626,3.2150268554687504
0.0399999999999636,-0.65018310546875,10.884735107421877,3.0103118896484378
0.0499999999999545,0.17884521484375,13.053158569335938,4.3956146240234375
0.0599999999999454,2.860177612304688,6.3959594726562505,3.3149169921875004
0.0710000000000263,-3.58348388671875,8.0570068359375,3.0499389648437503
0.0810000000000172,-2.4298126220703127,8.480642700195313,4.368997192382813
0.0910000000000081,3.793283081054688,11.628228759765626,2.3544464111328125
0.100999999999999,-0.7333251953125001,8.900540161132813,1.0340423583984375
0.11099999999999,-1.0439117431640623,11.082122802734377,-0.9646575927734377
0.1209999999999809,1.184326171875,6.5140930175781255,0.6721649169921875
0.1309999999999647,0.1018341064453125,7.293624877929688,7.938873291015626
0.1409999999999627,0.5079742431640626,11.741128540039064,10.305581665039064
0.1509999999999536,-0.8347106933593751,10.9005859375,4.744781494140625
0.1609999999999516,-0.1854248046875,6.897354125976563,-1.4062377929687502
0.1709999999999354,-0.198883056640625,10.519119262695312,-3.212933349609376
0.1820000000000163,0.193798828125,8.70838623046875,1.8392944335937504
0.1920000000000072,0.6014343261718751,10.143783569335938,5.7664123535156255
0.2019999999999981,0.6163879394531251,9.270791625976564,5.5619964599609375
0.211999999999989,1.084136962890625,7.191192626953126,3.851901245117188
0.22199999999998,1.1267547607421875,10.347601318359375,3.271102905273438
0.2319999999999709,-0.7158294677734376,11.56617126464844,1.7711059570312502
0.2419999999999618,-0.245538330078125,9.0618896484375,-0.057122802734375
0.2519999999999527,1.3878448486328123,8.002127075195313,1.3133758544921876
0.2619999999999507,1.096099853515625,8.8896240234375,5.263671875
0.2719999999999416,-1.1599517822265626,8.816650390625,6.377117919921876
0.2819999999999254,-1.2110931396484377,10.15933532714844,3.568380737304688
0.29200000000003,-0.5209838867187501,8.93448486328125,1.2154296875
0.3020000000000209,-1.5438110351562502,8.60849609375,2.2185180664062503
0.3129999999999882,-2.3246887207031253,9.776821899414063,5.0640411376953125
0.3220000000000027,-0.5504425048828125,9.650762939453124,4.8965606689453125
0.3319999999999936,0.126507568359375,8.614627075195314,2.4357940673828127
0.3419999999999916,-0.6928009033203125,8.593991088867188,0.9136657714843752
0.3529999999999447,0.5179931640625001,9.647921752929689,1.421490478515625
0.3629999999999498,1.3522552490234376,7.0688720703125005,2.8998046875
0.3729999999999407,0.25660400390625,9.371878051757813,3.5804931640625
0.3829999999999245,0.1804901123046875,13.818933105468751,5.652017211914063
0.3930000000000291,4.3891845703125005,8.279367065429689,5.887536621093751
0.40300000000002,-1.7411987304687502,9.071160888671876,4.193142700195313
0.4130000000000109,-2.1421051025390625,6.794622802734375,2.436541748046875
0.4229999999999947,5.014096069335938,12.771282958984376,-2.361175537109375
0.4329999999999927,0.035888671875,4.609750366210938,-3.3340576171875003
0.44399999999996,-2.1353759765625,12.702197265625,-0.3668121337890625
0.4539999999999509,0.7532135009765626,9.256585693359376,5.815759277343751
0.4629999999999654,-2.0948516845703127,6.762472534179688,12.100613403320311
0.4739999999999398,-0.008074951171875,11.741427612304689,12.27930908203125
0.4839999999999236,-1.2194671630859375,8.412005615234376,5.709588623046876
0.4940000000000282,-0.3348114013671875,8.79571533203125,-2.443719482421875
0.5040000000000191,-1.3483673095703126,9.242529296875,-6.608898925781251
0.51400000000001,-1.1420074462890626,9.723138427734376,-3.5317443847656254
0.5240000000000009,2.2916412353515625,10.16053161621094,2.8598785400390625
0.5339999999999989,-1.3625732421875,9.449188232421877,7.334747314453126
0.5439999999999898,-0.8137756347656251,6.889877319335938,8.065380859375
0.5539999999999736,3.3880401611328126,9.656146240234376,5.551678466796876
0.5639999999999645,1.935446166992188,10.572653198242188,2.4190460205078126
0.5739999999999554,-0.6401641845703125,9.778167724609377,0.6664825439453126
0.5839999999999463,0.1112548828125,10.066024780273438,0.4194488525390625
0.5939999999999372,2.253958129882813,8.393014526367189,2.27354736328125
0.6039999999999281,0.716278076171875,7.731018066406251,4.455877685546875
0.6150000000000091,-1.6477386474609377,9.06488037109375,4.3971099853515625
0.625,-1.024322509765625,9.510049438476564,2.87767333984375
0.6349999999999909,-0.4708892822265625,9.491357421875,2.263079833984375
0.6440000000000055,-2.058065795898438,9.83753356933594,3.8190032958984377
0.6549999999999727,-1.771405029296875,8.880502319335939,5.671307373046876
0.6649999999999636,-0.2364166259765625,8.990261840820313,4.781716918945313
0.6749999999999545,-0.4320098876953125,9.179873657226564,2.086029052734375
0.6849999999999454,-0.6530242919921876,8.623599243164064,-0.2615386962890625
0.6949999999999363,0.3204559326171875,9.407766723632813,-0.1912567138671875
0.7049999999999272,0.8270843505859375,10.233953857421875,3.2084472656250003
0.7150000000000247,1.3166656494140625,7.85543212890625,6.270498657226563
0.7250000000000298,0.3210540771484375,4.808932495117188,6.510504150390625
0.7350000000000207,0.5790039062500001,10.931390380859376,5.084078979492188
0.7450000000000045,3.355441284179688,14.349038696289064,3.882705688476563
0.7559999999999647,1.844677734375,13.921963500976563,-0.438140869140625
0.7659999999999627,-3.290243530273438,5.843423461914063,-2.100384521484376
0.7759999999999536,-2.310333251953125,5.608651733398438,0.60831298828125
0.7859999999999516,-1.2133361816406252,6.076849365234375,5.298214721679688
0.7959999999999354,-0.5161987304687501,10.941708374023438,6.602020263671876
0.8059999999999263,2.4965057373046875,12.981530761718751,1.9050903320312504
0.8160000000000309,-1.2272430419921876,8.999234008789063,0.4311126708984375
0.8260000000000289,-0.34752197265625,8.184262084960938,6.116925048828126
0.8360000000000198,-0.4472625732421875,9.90213317871094,10.024154663085938
0.8460000000000036,-0.6567626953125001,9.495693969726563,6.670657348632813
0.8559999999999945,1.36317138671875,8.177084350585938,-1.71607666015625
0.8659999999999854,0.7895507812500001,8.112933349609376,-6.735256958007813
0.8759999999999764,0.904095458984375,10.8156494140625,-3.618325805664063
0.8859999999999673,0.07476806640625,11.4305419921875,4.806390380859376
0.8959999999999582,-0.7624847412109376,9.092544555664062,9.5978271484375
0.9080000000000156,1.4182006835937502,7.0045715332031255,9.93338623046875
0.91700000000003,0.16448974609375,8.143438720703125,5.8917236328125
0.9270000000000208,-0.9245819091796876,9.548181152343751,1.1233154296875
0.9370000000000118,-1.0047332763671877,11.059542846679689,-2.9129638671875
0.9470000000000028,1.1028289794921875,9.753045654296876,-2.8199523925781254
0.9569999999999936,-0.8436828613281251,8.841024780273438,2.4272705078125
0.9669999999999916,-1.015200805664063,8.14912109375,6.9223266601562505
0.9769999999999754,1.3420867919921875,8.228375244140626,7.206893920898438
0.9869999999999663,0.504833984375,9.3657470703125,4.2625274658203125
0.9969999999999573,-0.3727935791015625,9.7521484375,1.669122314453125
1.0079999999999243,-0.4879364013671875,9.543695068359376,1.42059326171875
1.016999999999939,-0.59635009765625,9.830056762695314,4.098635864257813
1.02699999999993,-0.5582183837890625,8.842221069335938,5.618072509765625
1.0370000000000346,-0.1399658203125,8.868389892578126,3.58946533203125
1.0470000000000257,-0.338848876953125,8.764163208007814,0.4290191650390625
1.0579999999999927,0.392083740234375,9.935479736328126,-1.4799591064453126
1.0679999999999907,0.1314422607421875,8.216561889648439,0.8193084716796876
1.0779999999999743,0.6096588134765626,7.102816772460938,4.835250854492188
1.0879999999999654,-0.7155303955078125,7.546939086914063,7.898947143554688
1.0979999999999563,1.02581787109375,13.026541137695313,9.403280639648438
1.1079999999999472,2.491571044921875,14.075686645507814,4.985385131835938
1.1179999999999382,-3.458172607421876,7.69991455078125,-0.138470458984375
1.127999999999929,-1.5487457275390626,8.165420532226562,-3.3611236572265626
1.1380000000000337,2.035186767578125,6.446353149414063,-1.2641784667968752
1.1480000000000317,1.7193664550781251,8.728274536132814,2.765521240234375
1.1580000000000157,0.754559326171875,12.208728027343753,3.019284057617188
1.1680000000000064,-0.279931640625,9.01044921875,2.6212188720703127
1.1779999999999973,-0.4119720458984375,6.612637329101563,5.825329589843751
1.1879999999999882,-2.22509765625,12.303982543945311,10.231710815429688
1.197999999999979,-0.43843994140625,8.760275268554688,9.0307861328125
1.2089999999999463,1.1209228515625,9.44888916015625,1.5728210449218751
1.2189999999999372,-1.898361206054688,8.531036376953125,-3.8143676757812495
1.228999999999928,-0.4427764892578125,7.698419189453125,-4.14932861328125
1.2390000000000327,1.4054901123046877,11.72049255371094,0.4149627685546875
1.2490000000000308,-1.8235931396484373,10.749853515625,5.438629150390625
1.2590000000000217,-1.544558715820313,7.043600463867188,7.52286376953125
1.2690000000000057,1.9496520996093751,9.145928955078126,6.522766113281251
1.2789999999999964,3.455032348632813,8.844912719726564,3.475518798828125
1.2889999999999873,0.78895263671875,9.959405517578126,0.5800506591796876
1.2989999999999782,-1.310235595703125,10.499380493164065,-0.273052978515625
1.308999999999969,1.44093017578125,9.028692626953124,1.4545379638671876
1.31899999999996,2.0961975097656254,8.286245727539063,5.062545776367188
1.3299999999999272,-0.6241638183593751,8.912503051757813,6.542953491210938
1.3400000000000247,-0.9954620361328126,8.701657104492188,4.45916748046875
1.3500000000000298,-0.4469635009765625,9.392214965820314,1.2999176025390626
1.3600000000000207,-1.8872955322265623,9.547134399414062,0.139666748046875
1.3700000000000043,-1.9101745605468752,9.731661987304689,2.5806945800781254
1.3799999999999957,-1.064697265625,9.04678649902344,5.606109619140625
1.3899999999999864,-0.38460693359375,9.537115478515624,5.608203125
1.3999999999999773,-0.45997314453125,8.010052490234376,3.3241882324218754
1.4099999999999682,0.030206298828125,8.703152465820313,0.9802093505859376
1.419999999999959,0.07177734375,10.519866943359377,0.6270050048828125
1.42999999999995,1.1704193115234376,7.895507812500001,2.6417053222656253
1.4399999999999409,1.0893707275390625,6.392819213867188,4.490121459960938
1.4499999999999318,0.1419097900390625,8.512493896484376,6.339883422851563
1.4599999999999156,3.2702056884765627,14.496630859375,6.057260131835938
1.4700000000000273,3.6995239257812496,14.795553588867188,1.3867980957031252
1.4809999999999943,-2.9561798095703127,7.245474243164063,-2.27294921875
1.4909999999999854,-2.3574371337890625,5.044750976562501,-0.6929504394531251
1.5009999999999764,-1.4542388916015625,7.515686035156251,4.385894775390625
1.5109999999999673,-1.0457061767578126,8.569766235351564,7.323681640625001
1.5209999999999582,-0.0201873779296875,13.011737060546876,3.200372314453125
1.530999999999949,-1.2619354248046877,8.156149291992188,-0.260491943359375
1.54099999999994,0.189013671875,8.414846801757813,3.616082763671875
1.5509999999999309,0.6253601074218751,10.78155517578125,9.1480224609375
1.560999999999915,-1.7470306396484376,9.929498291015626,8.229571533203126
1.5710000000000264,1.1865692138671875,7.59464111328125,1.349114990234375
1.5810000000000173,1.9420257568359376,8.907717895507814,-4.939328002929688
1.5910000000000082,1.4515472412109376,8.669357299804688,-3.993511962890625
1.600999999999999,1.3307220458984377,12.764254760742189,2.89681396484375
1.61099999999999,-0.9428253173828126,10.093389892578124,7.48936767578125
1.620999999999981,0.8824127197265625,6.62205810546875,8.432342529296875
1.6319999999999482,0.488983154296875,7.969229125976563,6.491812133789063
1.641999999999939,-1.4886322021484375,9.226080322265624,3.2518127441406253
1.65199999999993,-0.8441314697265626,11.423812866210938,-0.904095458984375
1.6620000000000346,-0.5806488037109375,10.226028442382812,-3.195587158203125
1.6720000000000257,-0.2232574462890625,8.820388793945312,-0.032598876953125
1.6820000000000164,-1.48160400390625,8.1060546875,5.5854736328125005
1.6920000000000073,-0.1208251953125,8.42725830078125,7.607351684570313
1.7019999999999982,0.86072998046875,8.727078247070313,5.11114501953125
1.711999999999989,0.6984832763671875,9.23236083984375,2.2647247314453125
1.72199999999998,0.524273681640625,9.307278442382811,1.858584594726563
1.731999999999971,-0.152825927734375,10.089501953125,4.511654663085938
1.7419999999999618,-0.222808837890625,9.6432861328125,6.148925781250001
1.752999999999929,0.5894714355468751,9.1719482421875,3.712832641601562
1.7630000000000337,-0.3431854248046875,8.392416381835938,0.2480804443359375
1.7719999999999416,-0.2009765625,9.407168579101564,-2.4196441650390628
1.7830000000000157,0.624761962890625,10.294665527343753,-1.0693328857421875
1.7930000000000064,-0.5004974365234376,9.607098388671876,3.458023071289063
1.8029999999999973,-0.0471038818359375,7.105957031250001,7.0509277343750005
1.812999999999988,-0.1335357666015625,5.158847045898438,8.828164672851564
1.822999999999979,-0.8338134765625,8.691787719726562,7.422674560546875
1.83299999999997,0.20516357421875,13.485168457031252,4.808035278320313
1.842999999999961,0.2743988037109375,14.72856140136719,-0.0179443359375
1.8529999999999447,-4.291836547851563,8.229721069335938,-3.415255737304688
1.8629999999999496,1.526614379882813,7.5488830566406255,-1.8463226318359376
1.8729999999999407,2.1648345947265626,6.785202026367188,3.0789489746093754
1.8829999999999243,-1.099090576171875,8.097830200195313,5.791384887695313
1.893000000000029,3.3285247802734377,11.478692626953126,3.21083984375
1.9039999999999964,2.3595306396484377,9.982135009765626,1.0995391845703126
1.9139999999999875,-1.1266052246093752,7.288391113281251,5.322589111328125
1.9239999999999784,-0.7228576660156251,11.694174194335938,9.832150268554688
1.933999999999969,-1.203616333007813,8.536120605468751,8.820687866210939
1.94399999999996,1.1545684814453123,8.996542358398438,1.9659515380859376
1.9539999999999509,-1.7033660888671875,8.20474853515625,-4.04046630859375
1.963999999999949,-1.5616058349609376,9.09718017578125,-4.817306518554688
1.97399999999994,-0.6628936767578125,11.533273315429687,-0.5479003906250001
1.983999999999924,-2.076010131835938,10.186700439453126,4.984936523437501
1.994000000000028,-1.4123687744140625,7.740737915039063,8.529391479492189
2.004000000000019,2.879168701171875,7.671652221679688,8.525354003906251
2.01400000000001,2.564694213867188,9.324176025390626,4.589263916015625
2.024000000000001,-0.6410614013671876,10.096530151367189,0.6585571289062501
2.033999999999999,0.1287506103515625,10.5524658203125,-1.508670043945313
2.04399999999999,3.0399200439453127,9.006860351562501,0.0970489501953125
2.05499999999995,1.582989501953125,9.031085205078126,4.634124755859375
2.064999999999941,0.1495361328125,8.26934814453125,6.220703125000001
2.074999999999932,-0.0070281982421875,8.449838256835939,4.13138427734375
2.084999999999916,-0.696539306640625,9.367840576171876,1.6235137939453126
2.095000000000028,-1.6934967041015627,9.684408569335938,0.8288787841796875
2.105000000000018,-2.0304016113281254,10.3837890625,3.175100708007813
2.115000000000009,-1.7585449218750002,9.223986816406253,5.640353393554688
2.125,-0.7117919921875,8.574102783203125,5.1966796875000005
2.134999999999991,-1.3389465332031252,7.745074462890625,3.305197143554688
2.144999999999982,-0.44561767578125,9.24970703125,1.203765869140625
2.1549999999999727,0.2639312744140625,10.222439575195311,0.168975830078125
2.164999999999964,0.705511474609375,8.565579223632813,1.8382476806640624
2.1749999999999545,0.5238250732421875,6.166870117187501,4.881008911132813
2.184999999999945,0.4646087646484375,8.315106201171876,7.670755004882813
2.1949999999999363,3.7632263183593753,14.899929809570311,7.117919921875001
2.2060000000000173,3.0482940673828125,12.894949340820313,1.4940155029296875
2.216000000000008,-2.6526214599609377,8.308825683593751,-4.184170532226563
2.225999999999999,1.2912445068359375,5.697476196289063,-3.2809722900390628
2.23599999999999,0.4933197021484375,7.409963989257813,3.881808471679688
2.245999999999981,-3.4662475585937504,8.340975952148439,8.682366943359376
2.2559999999999647,-2.446112060546876,13.848391723632814,6.296817016601563
2.2659999999999627,2.0410186767578127,7.338635253906251,1.531549072265625
2.2759999999999536,-0.5474517822265625,8.720199584960938,2.657257080078125
2.285999999999952,-3.3173095703125,10.320086669921876,6.969879150390626
2.2959999999999354,-1.3289276123046876,9.006411743164064,6.001034545898438
2.308999999999969,1.854248046875,9.390121459960938,0.4690948486328125
2.316000000000031,0.835308837890625,8.195925903320314,-3.589913940429688
2.326000000000029,1.5559234619140627,8.95362548828125,-1.4434722900390626
2.336999999999989,1.096099853515625,11.759671020507811,4.7073974609375
2.346000000000004,0.5703308105468751,10.3108154296875,7.724438476562501
2.356999999999971,2.045654296875,7.054367065429688,6.975711059570313
2.366999999999962,0.9144134521484376,8.657095336914063,4.500738525390625
2.3769999999999527,-0.7412506103515626,8.985775756835938,1.7368621826171875
2.3869999999999507,-0.1631439208984375,10.679122924804688,-1.2258972167968751
2.3969999999999416,-1.2667205810546875,10.761517333984376,-1.3728912353515623
2.4080000000000155,-0.7774383544921876,8.247216796875001,2.3670074462890627
2.41700000000003,-1.0774078369140625,8.884091186523438,5.837591552734375
2.427000000000021,-1.5693817138671875,8.565130615234375,6.937878417968751
2.437000000000012,0.1667327880859375,8.654403686523438,4.058261108398438
2.4470000000000027,0.1577606201171875,9.522161865234375,1.0445098876953125
2.4569999999999936,-0.4391876220703125,9.072506713867188,1.03778076171875
2.466999999999992,0.605322265625,9.314456176757814,3.979605102539063
2.4779999999999447,-0.035888671875,9.488665771484376,6.652413940429688
2.48799999999995,0.9615173339843752,9.168359375,5.445059204101563
2.4979999999999407,0.7644287109375001,8.710928344726563,2.0689819335937503
2.5079999999999245,-0.096002197265625,9.800897216796876,-0.9356475830078126
2.518000000000029,0.3126800537109375,10.135110473632814,-1.3836578369140626
2.52800000000002,0.251519775390625,8.003622436523438,1.6869171142578123
2.538000000000011,0.366363525390625,7.015487670898438,4.761679077148438
2.5479999999999947,-0.978863525390625,6.748864746093751,7.35478515625
2.5579999999999927,0.2388092041015625,12.765750122070314,8.995046997070313
2.5679999999999907,0.8170654296875001,15.005801391601564,5.6891021728515625
2.5779999999999745,-3.2072509765625004,8.522363281250001,0.6220703125
2.587999999999965,-1.5907653808593751,6.6232543945312505,-2.980255126953125
2.5979999999999563,0.15491943359375,6.516186523437501,-1.302459716796875
2.608999999999924,1.9669982910156247,8.961550903320314,2.387643432617188
2.619000000000028,2.56005859375,12.04364013671875,2.338595581054688
2.629000000000019,-0.8288787841796875,9.76590576171875,2.368951416015625
2.63900000000001,0.000897216796875,6.857577514648438,6.117971801757813
2.649000000000001,-1.3875457763671877,11.132366943359376,10.963540649414064
2.658999999999999,1.039126586914063,9.383990478515626,9.639697265625
2.66899999999999,1.6510284423828123,9.464739990234376,1.4989501953125002
2.6789999999999736,-1.8630706787109377,8.503073120117188,-4.621115112304688
2.6889999999999645,-0.086431884765625,7.994650268554688,-5.213726806640626
2.6989999999999554,0.4933197021484375,11.355026245117188,-0.0701324462890625
2.7089999999999463,-2.1754516601562504,10.680618286132812,5.758486938476563
2.718999999999937,-1.734918212890625,7.241586303710938,8.426361083984375
2.728999999999928,0.19140625,8.4158935546875,7.33385009765625
2.7390000000000327,1.7172729492187502,9.11258239746094,3.6814300537109377
2.7490000000000308,1.7845642089843752,10.333395385742188,0.217425537109375
2.759999999999991,-1.04017333984375,10.361209106445314,-0.8653656005859376
2.769999999999982,0.4095794677734375,8.834893798828126,1.413116455078125
2.7799999999999727,2.548095703125,8.228375244140626,5.273541259765626
2.789999999999964,0.7568023681640625,8.729620361328125,6.693984985351563
2.7999999999999545,-0.6141448974609376,8.905026245117188,4.505374145507813
2.809999999999945,-0.0801513671875,9.463693237304687,1.11075439453125
2.8199999999999363,-1.398162841796875,9.614126586914065,0.184228515625
2.8299999999999272,-1.319805908203125,10.098474121093751,2.9125152587890626
2.8400000000000247,-1.071875,9.06473083496094,5.644091796875
2.85000000000003,-0.53653564453125,9.500927734375,4.855288696289063
2.8600000000000207,-0.356793212890625,7.618267822265626,2.4248779296875003
2.8700000000000045,-0.4957122802734375,9.006860351562501,0.401953125
2.8799999999999955,-0.286810302734375,9.97510681152344,1.1352783203125
2.8899999999999864,0.8077941894531251,7.631277465820313,3.5920074462890628
2.8999999999999773,0.1335357666015625,5.8510498046875,5.7230468750000005
2.910999999999952,0.139068603515625,11.40003662109375,7.474563598632813
2.9209999999999354,4.765716552734375,15.535159301757814,6.0834289550781255
2.9309999999999263,1.556072998046875,11.686398315429688,0.1344329833984375
2.941000000000031,-3.792984008789063,5.4423675537109375,-2.6835754394531253
2.951000000000029,-2.1456939697265627,5.956173706054688,-1.6348785400390626
2.96100000000002,-0.1574615478515625,6.998739624023438,3.26048583984375
2.971000000000004,0.67530517578125,11.813204956054689,5.8079833984375
2.9809999999999945,1.9686431884765627,12.88343505859375,3.2401489257812504
2.990999999999985,-2.1751525878906253,6.942813110351563,3.2373077392578127
3.0009999999999764,-0.2492767333984375,7.973117065429688,8.16766357421875
3.010999999999968,-0.6750061035156251,10.985073852539063,9.42376708984375
3.020999999999958,-0.8438323974609375,8.801248168945314,4.262826538085938
3.030999999999949,1.1460449218750002,9.800747680664063,-4.098486328125
3.04099999999994,0.8979644775390626,7.542153930664063,-6.970028686523438
3.052000000000021,0.79493408203125,10.379153442382814,-0.7778869628906251
3.062000000000012,-0.3575408935546875,11.144030761718753,7.039712524414063
3.0720000000000027,-0.8816650390625,8.791976928710938,10.00994873046875
3.0819999999999936,2.555572509765625,7.133770751953126,7.762570190429688
3.091999999999992,0.6646881103515625,8.934783935546875,4.137814331054688
3.1019999999999754,-1.4096771240234376,10.089651489257813,0.6778472900390625
3.1119999999999663,-0.6316406250000001,11.137301635742189,-1.97327880859375
3.1219999999999573,0.9392364501953124,9.337634277343753,-1.0687347412109376
3.131999999999948,-0.7819244384765626,7.742980957031251,3.1115478515625004
3.141999999999939,-1.2976745605468751,8.721096801757813,6.434988403320313
3.15199999999993,0.8517578125,8.911007690429688,5.68656005859375
3.1620000000000346,0.3727935791015625,9.550872802734377,2.727838134765625
3.172000000000025,-0.75186767578125,9.3178955078125,1.3504608154296875
3.1820000000000164,-0.10108642578125,9.20230407714844,3.0369293212890627
3.192000000000008,-0.294586181640625,9.506161499023438,6.187805175781251
3.201999999999998,-0.29129638671875,8.987420654296876,5.850601196289063
3.212999999999965,0.7008758544921876,9.309222412109376,2.43743896484375
3.2229999999999563,-0.6936981201171876,8.507858276367188,-0.922039794921875
3.2329999999999472,0.3874481201171875,10.288684082031253,-1.447509765625
3.242999999999938,-0.0635528564453125,9.81958923339844,2.0481964111328126
3.252999999999929,0.4951141357421875,8.931045532226562,5.275784301757813
3.2630000000000337,0.4628143310546875,5.205950927734375,6.569421386718751
3.273000000000032,-0.2836700439453125,6.690695190429688,5.972024536132813
3.2830000000000155,0.170172119140625,12.778759765625,5.0431060791015625
3.2930000000000064,1.6256072998046875,15.416726684570314,2.892327880859375
3.3029999999999973,-3.151025390625,10.729067993164064,-0.94207763671875
3.312999999999988,-2.3454742431640625,5.956622314453125,-0.9571807861328124
3.324999999999932,2.3130249023437504,6.160589599609375,2.1993774414062504
3.3339999999999463,1.278533935546875,7.792178344726563,5.153912353515626
3.343999999999937,1.015350341796875,11.62015380859375,3.036032104492188
3.353999999999928,0.15731201171875,10.690637207031251,-0.38101806640625
3.3640000000000327,-0.02691650390625,7.80758056640625,3.040667724609375
3.3740000000000308,-0.05802001953125,10.416238403320314,10.0045654296875
3.3840000000000217,-3.050537109375,9.336587524414064,11.17139587402344
3.394000000000005,-0.5435638427734375,8.528793334960938,4.278976440429688
3.4039999999999964,2.397064208984375,8.92850341796875,-4.602273559570313
3.413999999999988,-0.628948974609375,8.010800170898438,-7.22977294921875
3.4249999999999545,-1.292291259765625,11.64228515625,-1.395172119140625
3.433999999999969,-1.08563232421875,10.856771850585938,5.8008056640625005
3.44399999999996,-0.1152923583984375,7.765411376953126,9.978845214843751
3.453999999999951,2.925823974609376,7.301400756835938,9.493600463867187
3.463999999999949,0.745587158203125,8.669207763671876,5.421731567382813
3.47399999999994,-0.2415008544921875,10.4603515625,0.1365264892578125
3.483999999999924,-1.0240234375,10.735198974609377,-3.1312866210937504
3.4950000000000045,2.6737060546875,9.569564819335938,-2.23287353515625
3.5049999999999955,0.4816558837890625,8.252450561523439,3.5004913330078127
3.5149999999999864,-0.6410614013671876,8.467333984375001,7.475311279296876
3.5249999999999773,0.7215118408203125,8.351443481445314,6.5155883789062505
3.534999999999968,-0.3509613037109375,9.327316284179688,3.125753784179688
3.544999999999959,-1.6734588623046875,9.344363403320314,1.1620452880859375
3.55499999999995,-1.20765380859375,10.3646484375,2.343679809570313
3.564999999999941,-1.48160400390625,9.619659423828123,5.134622192382813
3.574999999999932,-0.33436279296875,9.228472900390626,4.962655639648438
3.584999999999916,-0.6664825439453126,7.558453369140626,2.444915771484375
3.596000000000004,-0.215032958984375,9.0523193359375,-0.019439697265625
3.605000000000018,0.6519775390625,9.954470825195314,-0.3126800537109375
3.6159999999999854,0.47791748046875,8.761172485351564,2.3128753662109376
3.625999999999976,0.7026702880859376,6.0065673828125,5.305990600585938
3.6359999999999673,0.2693145751953125,7.933938598632813,8.013940429687501
3.645999999999958,3.26048583984375,15.3794921875,8.419033813476563
3.655999999999949,3.3819091796875003,14.741271972656252,3.00328369140625
3.66599999999994,-3.567184448242188,6.560748291015625,-2.505477905273437
3.675999999999931,-1.7548065185546875,5.292532348632813,-3.1372680664062504
3.685999999999914,0.2432952880859375,6.198123168945313,1.075164794921875
3.6960000000000255,-2.71258544921875,9.5930419921875,4.60391845703125
3.706000000000017,-2.2790802001953128,13.801287841796876,3.4016479492187504
3.716000000000008,1.802059936523437,8.553317260742189,2.0918609619140627
3.725999999999999,3.2610839843750004,6.926364135742188,6.622357177734376
3.73599999999999,-2.0483459472656254,11.487664794921876,11.372521972656251
3.745999999999981,-3.682327270507813,8.429949951171876,8.609243774414063
3.7559999999999647,2.1857696533203126,9.59244384765625,-0.3452789306640625
3.766999999999939,3.06429443359375,8.387481689453125,-7.751953125000001
3.77800000000002,0.9465637207031252,8.416641235351562,-5.496051025390625
3.7870000000000346,0.1990325927734375,12.427349853515626,3.1012298583984377
3.7970000000000255,-2.020382690429688,9.89615173339844,9.03018798828125
3.807000000000016,2.1767974853515626,6.529345703125,9.747213745117188
3.8170000000000073,0.8003173828125001,8.546588134765626,6.516635131835938
3.826999999999998,-2.0664398193359377,9.033328247070314,3.1164825439453128
3.836999999999989,-0.5802001953125,11.430392456054689,-0.95643310546875
3.84699999999998,-0.0695343017578125,10.705889892578126,-2.8604766845703127
3.856999999999971,-0.4379913330078125,7.866049194335938,0.2528656005859375
3.866999999999962,-0.7766906738281251,7.912554931640625,5.206698608398438
3.8769999999999527,-0.1652374267578125,8.865847778320314,6.889279174804688
3.886999999999951,1.0738189697265623,8.923120117187501,4.726837158203125
3.898000000000032,0.5292083740234376,9.754690551757813,1.940380859375
3.908000000000016,-0.4900299072265625,9.37830810546875,2.014999389648437
3.9180000000000064,0.161199951171875,9.5715087890625,4.990618896484375
3.927999999999997,-0.177947998046875,8.94046630859375,6.229077148437501
3.937999999999988,0.31163330078125,9.786093139648438,3.658251953125
3.947999999999979,-0.100787353515625,8.164971923828126,-0.0991424560546875
3.95799999999997,-0.1685272216796875,9.484927368164064,-2.5899658203125
3.967999999999961,-0.0160003662109375,10.633663940429688,0.0216827392578125
3.9779999999999447,0.236865234375,9.01089782714844,4.676144409179688
3.98799999999995,0.1822845458984375,6.896307373046875,7.028347778320313
3.9979999999999407,0.0921142578125,5.01065673828125,7.6275390625
4.0079999999999245,-0.3647186279296875,9.548779296875,5.510556030273438
4.018000000000029,0.8871978759765625,15.569702148437502,4.004278564453125
4.02800000000002,0.2151824951171875,14.868527221679688,0.035888671875
4.038000000000011,-4.389782714843751,5.648129272460938,-1.4841461181640625
4.047999999999995,0.9824523925781252,7.116574096679688,0.083441162109375
4.058999999999969,2.028756713867188,5.505023193359375,3.919940185546875
4.06899999999996,0.47432861328125,9.90228271484375,4.027456665039063
4.078999999999951,1.380218505859375,12.5167724609375,0.50184326171875
4.088999999999949,-0.5610595703125001,8.96558837890625,1.0229766845703123
4.09899999999994,0.9096282958984376,8.270394897460939,7.940219116210938
4.108999999999924,-2.585479736328125,11.445196533203124,13.237536621093753
4.119000000000028,-2.8141204833984377,7.388430786132813,9.121554565429689
4.129000000000019,2.3604278564453125,9.159536743164065,-1.3094879150390626
4.13900000000001,1.439883422851563,8.501278686523438,-8.8298095703125
4.149000000000001,-1.8723419189453123,9.0810302734375,-6.090905761718751
4.158999999999999,-0.6329864501953125,12.707131958007814,1.4122192382812502
4.16899999999999,-0.874188232421875,9.230715942382814,7.874572753906251
4.178999999999974,-0.6981842041015626,6.108401489257813,11.009298706054688
4.1889999999999645,2.730978393554688,8.834445190429689,8.731863403320313
4.199999999999932,2.463458251953125,9.313259887695311,3.26168212890625
4.209999999999916,-0.5224792480468751,10.0404541015625,-0.5136566162109375
4.220000000000027,-2.071673583984375,11.09976806640625,-2.046102905273438
4.230000000000018,3.104669189453125,8.834445190429689,0.260491943359375
4.240000000000009,1.7733489990234377,8.188897705078126,4.7530059814453125
4.25,-1.666131591796875,8.313760375976564,6.507064819335938
4.259999999999991,-1.5468017578125002,8.505914306640626,4.373782348632813
4.269999999999982,1.0131072998046875,9.446347045898438,1.346722412109375
4.279999999999973,-1.320703125,10.4208740234375,0.8761322021484376
4.289999999999964,-2.3115295410156254,9.867889404296877,4.127047729492188
4.2999999999999545,-1.1339324951171876,9.29815673828125,6.380706787109376
4.309999999999945,-0.046356201171875,8.829211425781251,5.218511962890625
4.319999999999936,-0.2404541015625,7.77049560546875,1.8834075927734373
4.329999999999927,0.1042266845703125,8.94345703125,-0.984844970703125
4.341000000000008,0.9467132568359377,9.482385253906251,-0.9501525878906252
4.350999999999999,0.9860412597656252,5.571118164062501,2.8239898681640625
4.36099999999999,-0.353204345703125,9.574200439453126,6.535028076171876
4.370999999999981,2.51280517578125,14.651550292968752,9.518722534179688
4.380999999999965,4.948001098632813,14.461639404296877,5.99998779296875
4.390999999999963,-2.1887603759765626,7.035675048828126,0.43963623046875
4.400999999999954,-2.9572265625000003,4.37901611328125,-2.38958740234375
4.410999999999952,-2.035784912109375,6.327023315429688,-0.771307373046875
4.420999999999935,-2.216424560546875,10.0069580078125,2.650079345703125
4.430999999999926,0.48389892578125,13.77810974121094,2.807241821289063
4.441000000000031,1.4679962158203126,8.878109741210938,2.49127197265625
4.451000000000029,-0.038580322265625,6.713125610351563,7.231866455078125
4.46100000000002,-1.012359619140625,10.479940795898438,11.602508544921877
4.471000000000004,-1.7014221191406251,9.452926635742188,8.373574829101564
4.4809999999999945,1.7042633056640626,10.0835205078125,-0.61728515625
4.491999999999962,1.8028076171875,8.097232055664064,-7.831655883789063
4.501999999999953,1.7272918701171875,8.397799682617189,-5.370739746093751
4.511999999999951,0.6168365478515625,12.094183349609375,3.3771240234375
4.521999999999942,-1.90389404296875,9.292623901367188,8.930596923828126
4.531999999999925,1.61678466796875,7.402487182617188,9.279464721679688
4.54200000000003,1.2656738281250002,8.399893188476563,6.069522094726563
4.552000000000021,-1.649234008789063,9.123797607421876,3.2749908447265628
4.562000000000012,-1.3728912353515623,11.826663208007814,-0.0587677001953125
4.572000000000003,-0.4523468017578125,10.230963134765624,-1.6695709228515627
4.581999999999994,0.3078948974609375,7.572958374023438,0.1423583984375
4.591999999999992,-1.7643768310546877,7.930648803710938,4.40892333984375
4.601999999999975,-0.40614013671875,9.22039794921875,6.145187377929688
4.611999999999966,1.687066650390625,9.003570556640625,3.964651489257813
4.622999999999941,0.20396728515625,10.15933532714844,2.0069244384765628
4.6329999999999245,-0.165985107421875,8.740985107421876,2.949301147460938
4.643000000000029,0.432757568359375,9.382046508789063,5.722598266601563
4.65300000000002,-0.2926422119140625,9.374569702148438,6.317303466796876
4.663000000000011,0.8365051269531251,9.410159301757814,3.106613159179688
4.672999999999995,-0.2989227294921875,8.392565917968751,-0.8181121826171875
4.682999999999993,-0.30206298828125,9.950283813476563,-2.415457153320313
4.692999999999991,0.544012451171875,10.122549438476565,0.895123291015625
4.702999999999975,-0.61549072265625,9.026898193359376,4.872186279296876
4.712999999999965,-0.1084136962890625,8.21551513671875,6.916793823242188
4.72500000000003,0.069683837890625,4.13616943359375,7.086666870117188
4.732999999999947,-0.5434143066406251,8.575448608398439,4.879214477539063
4.742999999999938,-0.9730316162109376,13.853326416015626,3.862518310546875
4.752999999999929,0.787457275390625,15.528729248046876,1.208251953125
4.763000000000034,-3.2817199707031253,9.271389770507811,-1.449005126953125
4.774000000000001,-0.9034973144531252,5.4259185791015625,-0.03170166015625
4.783999999999999,3.559408569335938,6.507812500000001,3.2684112548828126
4.79399999999999,1.9100250244140624,8.168411254882812,5.104714965820313
4.803999999999974,2.326483154296876,11.926104736328126,1.8907348632812504
4.8139999999999645,-0.31761474609375,10.147821044921876,-0.3923828125
4.824999999999932,0.3246429443359375,8.592047119140625,4.814465332031251
4.833999999999946,0.4338043212890625,10.144680786132811,11.3683349609375
4.843999999999937,-3.6654296875,8.896652221679688,10.995541381835938
4.853999999999928,-0.8746368408203126,8.564981079101564,2.932403564453125
4.864000000000033,0.9486572265625,8.580084228515625,-5.738449096679688
4.874000000000031,-1.150830078125,8.934634399414064,-7.382000732421876
4.884000000000022,-3.0638458251953127,12.126333618164065,-1.5273620605468752
4.8940000000000055,-0.8193084716796876,9.884786987304688,5.2520080566406255
4.903999999999996,0.3793731689453125,7.343270874023438,9.641342163085938
4.913999999999987,3.312374877929688,7.625296020507813,10.234851074218753
4.9249999999999545,1.9357452392578127,8.699713134765625,5.510406494140625
4.934999999999945,0.4200469970703125,10.434780883789063,0.4239349365234375
4.944999999999936,-0.4323089599609375,10.81131286621094,-2.4896270751953127
4.954999999999927,2.9231323242187504,9.399392700195314,-1.1327362060546875
4.965000000000025,1.2208129882812502,8.532980346679688,4.1578521728515625
4.97500000000003,-0.1834808349609375,8.172897338867188,7.044796752929688
4.985000000000021,-0.5833404541015625,8.414697265625001,5.289691162109375
4.9950000000000045,-1.150830078125,9.290081787109376,2.2110412597656253
5.004999999999996,-1.6948425292968752,10.219448852539063,0.419000244140625
5.014999999999986,-2.56065673828125,9.729568481445312,2.387643432617188
5.025999999999954,-1.6523742675781252,10.041949462890626,5.2699523925781255
5.034999999999968,-0.4092803955078125,8.254244995117189,5.6053619384765625
5.045999999999935,-0.6434539794921875,7.493853759765625,3.4110687255859378
5.05499999999995,-0.070880126953125,9.405972290039063,0.99710693359375
5.066000000000031,0.8049530029296875,7.663726806640626,-0.112750244140625
5.076000000000029,0.8695526123046876,6.5993286132812505,1.4022003173828126
5.08600000000002,0.3055023193359375,11.585610961914064,5.5495849609375005
5.096000000000004,4.660592651367188,15.89688720703125,8.871231079101562
5.1059999999999945,4.159347534179688,12.276916503906252,5.326776123046876
5.1159999999999854,-3.809133911132813,4.825531005859375,1.2517669677734375
5.125999999999976,-1.5776062011718752,5.288494873046876,-2.0857299804687504
5.135999999999967,-1.4051910400390626,6.789389038085938,-0.6542205810546875
5.145999999999958,-1.906884765625,11.229415893554688,1.7531616210937502
5.155999999999949,1.820751953125,14.131463623046876,1.6987304687500002
5.16599999999994,-0.0898712158203125,7.686605834960938,4.124505615234376
5.175999999999931,-0.6051727294921876,6.445306396484376,10.105203247070314
5.185999999999915,-2.2125366210937503,11.072552490234376,12.489407348632811
5.196000000000026,-1.4324066162109377,8.69403076171875,5.9922119140625005
5.206999999999994,2.170367431640625,10.1828125,-3.9957550048828128
5.216999999999992,1.7023193359375002,8.767303466796875,-9.276174926757813
5.226999999999975,0.372943115234375,8.8728759765625,-3.1119964599609378
5.236999999999966,1.4376403808593752,10.838677978515626,5.133575439453125
5.246999999999957,-2.179190063476563,8.835043334960938,9.78564453125
5.256999999999948,2.2765380859375,6.977056884765625,8.928204345703126
5.266999999999939,2.0124572753906254,9.311465454101564,4.991366577148438
5.27699999999993,-1.11075439453125,10.620205688476563,2.0957489013671875
5.287000000000035,-1.54560546875,10.64981384277344,0.1365264892578125
5.2970000000000255,-1.1943450927734376,9.578836059570314,-0.0991424560546875
5.307000000000016,0.259893798828125,7.395309448242188,1.7214599609375
5.317000000000007,-0.410626220703125,8.165270996093751,4.4300079345703125
5.326999999999998,-0.5878265380859375,9.014486694335938,4.568927001953125
5.336999999999989,0.1688262939453125,10.13540954589844,2.5029357910156254
5.347999999999956,0.6776977539062501,9.616668701171877,2.1452453613281253
5.357999999999947,-0.4909271240234375,9.024356079101564,4.150674438476563
5.367999999999938,-0.653472900390625,9.376663208007812,6.699069213867188
5.377999999999929,0.5707794189453126,8.794219970703125,5.6034179687500005
5.388000000000034,0.831121826171875,9.313858032226562,1.8176116943359373
5.398000000000032,-0.799420166015625,8.967980957031251,-1.4850433349609375
5.408000000000016,0.7119415283203125,9.823327636718751,-1.5316986083984376
5.418000000000006,0.4951141357421875,10.1074462890625,2.4106719970703128
5.427999999999997,-0.3043060302734375,9.003421020507814,6.034680175781251
5.437999999999988,0.074169921875,6.369641113281251,7.022067260742188
5.447999999999979,0.5070770263671875,5.109500122070313,5.390179443359376
5.45799999999997,-0.6751556396484375,10.689889526367187,3.0776031494140628
5.467999999999961,-0.5012451171875001,14.949725341796876,2.2742950439453127
5.477999999999945,0.9316101074218752,15.0265869140625,0.1610504150390625
5.489000000000033,-3.2984680175781254,5.858078002929688,0.92353515625
5.499000000000031,-0.7895507812500001,6.0176330566406255,3.372787475585938
5.509000000000022,1.9616149902343751,6.388183593750001,5.061349487304688
5.5190000000000055,2.309884643554688,9.2915771484375,3.426171875
5.528999999999996,1.32728271484375,12.56387634277344,-1.447808837890625
5.538999999999987,-2.6832763671875,9.81435546875,-0.7550079345703126
5.548999999999978,1.8570892333984377,8.169757080078126,7.40323486328125
5.558999999999969,0.0910675048828125,11.360409545898438,12.986016845703126
5.56899999999996,-3.559259033203125,7.366897583007813,9.792523193359376
5.578999999999951,0.6542205810546875,8.392416381835938,0.2875579833984375
5.588999999999949,1.272552490234375,9.163125610351564,-7.455572509765625
5.59899999999994,-0.8193084716796876,9.541900634765623,-6.3391357421875005
5.608999999999924,-1.22918701171875,12.422564697265626,0.7243530273437501
5.619000000000028,-1.5529327392578127,8.943606567382814,7.042105102539063
5.629999999999996,0.0243743896484375,6.43424072265625,10.652505493164064
5.639999999999986,3.332711791992188,8.452529907226562,8.818145751953125
5.649999999999977,1.5915130615234376,9.680072021484376,3.3763763427734377
5.659999999999968,-0.948956298828125,9.839776611328126,-0.5453582763671876
5.669999999999959,-1.0338928222656252,11.1697509765625,-1.992120361328125
5.67999999999995,3.2766357421875,8.997439575195314,0.4218414306640625
5.689999999999941,0.9852935791015626,8.107400512695314,4.966842651367188
5.699999999999932,-1.419097900390625,7.976107788085938,6.504074096679688
5.709999999999916,-1.2203643798828123,8.748760986328126,4.229031372070313
5.720000000000027,0.5190399169921875,9.438720703125,1.6061676025390623
5.730000000000018,-1.0697814941406252,10.461697387695311,0.88345947265625
5.741999999999962,-2.390185546875,10.127932739257814,3.7026641845703128
5.75,-1.125857543945313,8.961999511718751,6.076251220703125
5.759999999999991,-0.06639404296875,8.78614501953125,5.022769165039063
5.769999999999982,-0.4801605224609375,7.7615234375,2.256500244140625
5.780999999999949,0.3620269775390625,9.29322204589844,-0.5073760986328125
5.79099999999994,0.9500030517578124,9.682913208007813,-0.6507812500000001
5.800999999999931,1.3316192626953125,6.353790283203126,2.6810333251953127
5.810999999999915,0.4200469970703125,7.779766845703126,6.1178222656250005
5.821000000000026,1.366162109375,13.066168212890624,8.393911743164063
5.831000000000017,5.133575439453125,15.60843200683594,6.051278686523438
5.841999999999992,-0.704315185546875,9.277819824218753,0.7451385498046875
5.850999999999999,-3.564791870117188,4.691845703125001,-1.959521484375
5.86099999999999,-2.45897216796875,6.803146362304688,-0.2555572509765625
5.870999999999981,-1.87159423828125,6.993505859375,3.312673950195313
5.880999999999965,-2.2916412353515625,13.238284301757814,3.754702758789063
5.890999999999963,1.4950622558593751,10.754788208007811,1.9768676757812504
5.900999999999954,1.34761962890625,7.0270019531250005,4.662835693359376
5.912000000000035,-0.9870880126953124,10.180120849609375,9.86026306152344
5.9220000000000255,-2.294183349609375,9.972863769531251,9.593789672851564
5.932000000000016,1.445416259765625,8.082577514648438,2.337548828125
5.942000000000007,2.4779632568359378,10.219000244140624,-5.977557373046875
5.951999999999998,1.6748046875000002,7.471722412109376,-7.1780334472656255
5.961999999999989,2.200424194335937,10.782901000976564,0.458477783203125
5.97199999999998,-1.39068603515625,11.617312622070314,8.179327392578125
5.981999999999971,-0.3763824462890625,6.883148193359376,10.882791137695314
5.991999999999962,2.1616943359375003,8.202355957031251,7.754196166992188
6.001999999999953,-1.236514282226563,8.619412231445313,4.1523193359375
6.011999999999951,-2.0196350097656253,10.7438720703125,0.2169769287109375
6.021999999999942,-1.152325439453125,11.124740600585938,-2.691949462890625
6.031999999999925,-0.27335205078125,9.094039916992188,-1.6060180664062502
6.04200000000003,-0.9654052734375,7.139901733398438,3.2026153564453126
6.052999999999997,-1.6202239990234375,9.013290405273438,6.426315307617188
6.062999999999988,1.3253387451171876,8.780462646484375,5.80618896484375
6.072999999999979,1.6722625732421876,9.543545532226563,2.8679534912109377
6.08299999999997,-0.1966400146484375,9.171649169921876,2.3948211669921875
6.092999999999961,0.600836181640625,9.805682373046876,4.392623901367188
6.102999999999945,0.6159393310546876,9.110638427734376,6.414501953125001
6.11299999999995,0.6637908935546876,9.905722045898438,4.396511840820313
6.122999999999941,0.313427734375,8.358920288085939,0.6237152099609375
6.1329999999999245,-0.7325775146484376,8.84595947265625,-2.690155029296875
6.143000000000029,0.88046875,10.675234985351564,-1.69693603515625
6.15300000000002,-0.8568420410156251,9.25150146484375,3.2402984619140627
6.163000000000011,-0.416009521484375,7.58507080078125,6.546392822265625
6.172999999999995,-0.1440032958984375,5.515789794921876,8.13297119140625
6.182999999999993,-1.158905029296875,7.642941284179688,7.037170410156251
6.19399999999996,-0.109161376953125,14.672933959960938,5.296868896484376
6.203999999999951,0.3701019287109375,15.026287841796876,1.7832183837890627
6.213999999999949,-3.825433349609375,7.850198364257813,-1.7576477050781252
6.22399999999994,0.1290496826171875,6.3654541015625,-2.051336669921876
6.233999999999924,2.8260833740234377,6.064736938476563,1.7734985351562502
6.244000000000028,1.1961395263671877,8.911605834960938,4.190451049804688
6.254000000000019,2.3907836914062504,12.338076782226564,2.3909332275390627
6.26400000000001,0.2277435302734375,9.836785888671876,1.834658813476563
6.274000000000001,0.72196044921875,7.723541259765626,6.590655517578125
6.283999999999999,-1.3613769531250002,11.136404418945313,11.5501708984375
6.29399999999999,-2.8364013671875004,8.233010864257814,9.27542724609375
6.303999999999974,1.0923614501953125,9.057553100585938,0.4689453125
6.3139999999999645,0.654669189453125,8.637356567382813,-7.158743286132813
6.323999999999955,-1.991671752929688,8.544943237304688,-6.15849609375
6.333999999999946,-1.320703125,12.105548095703126,0.5911163330078125
6.345000000000027,-1.2822723388671875,10.016677856445312,7.030889892578125
6.355000000000018,-1.3061981201171875,6.752902221679688,10.31619873046875
6.365000000000009,1.6045227050781252,8.21790771484375,8.556158447265625
6.375,2.68626708984375,8.910708618164064,3.818106079101563
6.384999999999991,1.0793518066406251,10.87845458984375,-0.1906585693359375
6.394999999999982,-1.4706878662109375,10.87965087890625,-1.412518310546875
6.404999999999973,2.708099365234375,8.835342407226562,0.419000244140625
6.414999999999964,2.8972625732421875,7.822683715820313,4.505374145507813
6.4249999999999545,-0.295184326171875,8.685955810546876,6.311172485351563
6.434999999999945,-0.9485076904296876,8.630926513671875,4.18402099609375
6.444999999999936,-0.2779876708984375,9.763064575195314,0.9346008300781252
6.454999999999927,-1.595849609375,10.065127563476564,0.432757568359375
6.465000000000025,-1.529754638671875,9.739587402343751,3.72225341796875
6.47500000000003,-1.927670288085937,9.272286987304687,6.503176879882813
6.485000000000021,-1.024322509765625,9.08267517089844,5.576950073242188
6.495999999999981,-0.532049560546875,7.057806396484375,2.346670532226563
6.505999999999965,-0.4963104248046875,9.277819824218753,-0.13099365234375
6.515999999999963,0.2163787841796875,10.727871704101563,0.2845672607421875
6.525999999999954,1.1952423095703126,9.183462524414065,3.193942260742188
6.535999999999952,0.8030090332031251,6.420632934570313,5.635568237304688
6.545999999999935,1.125408935546875,6.502578735351563,6.827072143554688
6.555999999999926,2.1549652099609378,12.424209594726564,5.546743774414063
6.566000000000031,3.9746704101562496,16.40695495605469,2.075262451171876
6.576000000000029,-1.7062072753906252,10.214065551757812,-3.032443237304688
6.58600000000002,-2.8722900390625004,3.759039306640626,-2.165731811523438
6.596000000000004,1.4443695068359377,7.366448974609375,3.474472045898438
6.6059999999999945,-2.85673828125,6.847109985351563,7.847805786132813
6.6159999999999854,-3.47701416015625,12.186297607421876,5.681027221679688
6.625999999999976,1.0884735107421877,11.865093994140626,0.6261077880859376
6.636999999999951,1.6767486572265626,7.067227172851563,2.009616088867188
6.646999999999942,-1.1333343505859377,10.670449829101564,7.897003173828126
6.656999999999925,-3.445013427734376,9.774429321289062,9.379953002929687
6.66700000000003,0.8629730224609375,7.732363891601563,3.148483276367188
6.677000000000021,3.930557250976563,9.13650817871094,-5.104415893554688
6.687000000000012,0.2142852783203125,8.377313232421876,-6.9387756347656255
6.697000000000003,2.566488647460938,10.941558837890623,0.127105712890625
6.706999999999994,-0.099591064453125,11.916085815429687,7.870834350585938
6.716999999999992,-0.766522216796875,7.057058715820313,11.551068115234376
6.726999999999975,2.237509155273438,7.230670166015625,8.919830322265625
6.736999999999966,-0.4409820556640625,9.171649169921876,4.361370849609376
6.746999999999957,-2.014700317382813,10.020266723632814,-0.31761474609375
6.7579999999999245,-0.823345947265625,11.375811767578126,-4.2655181884765625
6.768000000000029,-1.1162872314453125,9.5140869140625,-3.1697174072265626
6.77800000000002,-1.0424163818359375,7.710830688476563,3.063546752929688
6.788000000000011,-0.8525054931640625,8.642889404296875,7.299456787109375
6.797999999999995,0.5386291503906251,8.375967407226563,7.700811767578125
6.807999999999993,1.1426055908203123,9.2939697265625,4.283163452148438
6.817999999999991,0.137274169921875,9.233856201171877,2.058514404296876
6.827999999999975,0.0255706787109375,10.3586669921875,2.6161346435546875
6.837999999999965,0.2017242431640625,8.653057861328126,5.2943267822265625
6.847999999999956,1.0729217529296875,9.996340942382814,4.805493164062501
6.857999999999947,0.2428466796875,8.637805175781251,2.0483459472656254
6.867999999999938,-0.23746337890625,8.702255249023438,-1.5548767089843751
6.877999999999929,0.3022125244140625,10.00516357421875,-2.421737670898437
6.888000000000034,0.0022430419921875,9.821383666992189,1.79921875
6.898000000000032,0.156414794921875,5.786151123046875,5.8845458984375005
6.908000000000016,-1.042117309570313,7.634417724609375,8.172747802734376
6.91899999999999,-0.8551971435546876,9.9926025390625,9.754092407226564
6.928999999999974,2.1797882080078126,15.837521362304688,6.612487792968751
6.9389999999999645,-2.2591918945312504,11.040103149414064,0.7849151611328126
6.948999999999955,-2.8903839111328127,5.305990600585938,-2.6895568847656253
6.958999999999946,0.7243530273437501,7.310073852539063,-3.26646728515625
6.968999999999937,2.1317871093750003,7.545593261718751,0.4637115478515625
6.978999999999928,2.785858154296875,11.335586547851562,2.35848388671875
6.989000000000033,-0.9132171630859376,11.327511596679688,2.10128173828125
6.999000000000031,-1.000396728515625,7.072760009765625,5.392721557617188
7.009000000000022,-1.1563629150390626,9.694277954101564,10.653552246093753
7.0190000000000055,1.0132568359375,10.857369995117187,11.847897338867188
7.028999999999996,1.6634399414062502,8.647225952148439,4.212283325195313
7.038999999999987,-1.4319580078125,9.176583862304687,-3.055621337890625
7.0499999999999545,-1.15740966796875,6.823333740234376,-5.683270263671876
7.059999999999945,0.4098785400390625,11.57349853515625,-2.374932861328125
7.069999999999936,-0.5866302490234375,11.074795532226563,3.770553588867188
7.079999999999927,-2.288351440429688,7.993154907226563,6.612487792968751
7.090000000000025,-0.9326568603515626,7.7058959960937505,7.667913818359375
7.10000000000003,1.009219360351563,8.7568359375,4.9708801269531255
7.110000000000021,3.187811279296876,10.21451416015625,1.1895599365234375
7.1200000000000045,1.0812957763671875,10.671646118164062,-0.2510711669921875
7.129999999999996,-0.724652099609375,8.931195068359376,1.15621337890625
7.139999999999986,0.8217010498046876,8.58157958984375,4.937533569335938
7.149999999999977,2.15989990234375,8.523858642578126,7.141845703125001
7.159999999999968,0.3265869140625,8.69522705078125,4.881307983398438
7.169999999999959,-1.481753540039063,9.437225341796877,1.7401519775390626
7.17999999999995,-0.8732910156250001,9.751699829101565,-0.23447265625
7.189999999999941,-1.50433349609375,9.888076782226562,1.212139892578125
7.201000000000029,-2.368353271484376,9.311764526367188,4.55845947265625
7.21100000000002,-0.9796112060546877,9.27408142089844,5.335897827148438
7.221000000000004,0.75784912109375,7.998837280273438,3.510958862304688
7.230999999999994,0.3529052734375,8.756536865234375,1.8212005615234377
7.242999999999938,-0.828131103515625,9.467581176757813,1.5189880371093751
7.250999999999976,0.372344970703125,8.941363525390626,2.687762451171875
7.260999999999967,1.4856414794921875,5.2235961914062505,4.441671752929688
7.270999999999958,0.2331268310546875,9.601864624023438,6.012399291992188
7.280999999999949,3.1969329833984377,15.873709106445313,6.44261474609375
7.29099999999994,3.968988037109375,14.044433593750002,2.123712158203125
7.300999999999931,-2.6461914062500003,6.275881958007813,-1.3926300048828126
7.310999999999915,-3.3179077148437504,5.084228515625,-1.26806640625
7.321000000000026,-1.409527587890625,5.631231689453125,2.3249877929687504
7.331000000000017,-2.749072265625,9.774279785156253,5.087368774414063
7.342999999999961,-1.9445678710937504,14.2226806640625,3.1682220458984376
7.351999999999975,2.186666870117188,9.439767456054687,1.7793304443359377
7.361999999999966,4.163534545898438,6.634320068359376,6.707293701171875
7.371999999999957,-1.8511077880859377,11.144180297851562,11.012588500976562
7.381999999999948,-3.540267944335938,8.143289184570314,7.545294189453125
7.391999999999939,1.1496337890625,9.624295043945311,-1.307843017578125
7.40199999999993,3.947454833984376,8.749658203125001,-8.350845336914062
7.412000000000035,1.5100158691406251,8.981887817382812,-5.410067749023438
7.4220000000000255,-1.10477294921875,11.91982421875,4.072018432617188
7.432000000000016,-2.122067260742188,9.170452880859376,10.273880004882812
7.442999999999991,2.757296752929688,6.839334106445313,10.381246948242188
7.451999999999998,1.1758026123046876,8.395855712890626,6.2165161132812505
7.461999999999989,-2.1392639160156253,9.554461669921876,2.399008178710938
7.47199999999998,-1.6404113769531252,11.331549072265624,-1.0875762939453126
7.482999999999947,-0.184228515625,10.687945556640626,-2.3568389892578128
7.492999999999938,0.07476806640625,7.663427734375,0.7745971679687501
7.502999999999929,-1.4690429687500002,8.089007568359376,4.7193603515625
7.513000000000034,-0.0031402587890625,8.487521362304689,5.97965087890625
7.523000000000032,1.9634094238281248,9.271090698242189,3.772198486328125
7.533000000000015,0.518292236328125,10.023406982421877,1.801760864257813
7.543000000000006,-0.6782958984375,9.457113647460938,2.851803588867188
7.552999999999997,0.5357879638671875,9.076544189453124,6.10765380859375
7.562999999999988,0.2071075439453125,9.409112548828126,6.944906616210938
7.572999999999979,0.4412811279296875,9.320886230468751,3.675299072265626
7.58299999999997,-0.6141448974609376,8.134317016601564,-0.9009552001953126
7.592999999999961,-0.22430419921875,10.058099365234376,-3.6782897949218754
7.603999999999928,0.1018341064453125,10.035818481445313,-0.5947052001953126
7.614000000000033,-0.498553466796875,8.830108642578125,4.943365478515625
7.624000000000031,-0.003887939453125,6.395211791992188,7.715765380859375
7.634000000000022,0.1505828857421875,5.491714477539063,7.725634765625
7.644000000000005,-0.4317108154296875,10.929446411132814,5.85404052734375
7.653999999999996,1.694094848632813,17.238076782226564,4.172207641601563
7.663999999999987,-0.7369140625,11.926104736328126,0.5782562255859376
7.673999999999978,-3.519332885742188,4.915701293945313,-0.6821838378906251
7.683999999999969,-0.413018798828125,6.553421020507813,-0.2260986328125
7.69399999999996,1.9554840087890624,5.8091796875,2.3284271240234378
7.703999999999951,3.8741821289062495,11.647219848632814,1.35479736328125
7.713999999999949,-0.663641357421875,12.525595092773438,-0.168975830078125
7.72399999999994,-1.0920623779296876,7.929751586914063,4.099383544921875
7.733999999999924,0.7870086669921875,9.2772216796875,11.745465087890626
7.744000000000028,-2.6720611572265627,10.48831481933594,15.185693359375
7.754000000000019,-1.1592041015625,7.147976684570313,6.284555053710938
7.764999999999986,2.150628662109375,9.8514404296875,-4.82164306640625
7.774999999999977,0.4430755615234375,7.763168334960938,-9.593490600585938
7.784999999999968,-2.589666748046876,10.321731567382812,-5.219259643554688
7.794999999999959,0.1622467041015625,12.491949462890624,2.2107421875
7.80499999999995,-0.10228271484375,7.640847778320313,8.222244262695312
7.814999999999941,-1.4561828613281251,6.637161254882813,10.480239868164062
7.824999999999932,0.246734619140625,8.49664306640625,8.173046875
7.834999999999916,3.0248168945312504,10.44659423828125,2.5074218750000004
7.845000000000027,1.8796691894531248,10.670150756835938,-0.8720947265625001
7.855000000000018,-1.56953125,10.774377441406251,-1.0187896728515626
7.865000000000009,1.148736572265625,7.554415893554688,2.42427978515625
7.875,2.3837554931640628,8.275628662109376,5.9014434814453125
7.884999999999991,-0.3231475830078125,8.349050903320313,6.11004638671875
7.894999999999982,-0.8326171875,9.082525634765624,2.860177612304688
7.904999999999973,-0.9939666748046876,9.724932861328126,0.00777587890625
7.914999999999964,-2.007073974609375,10.59912109375,1.1022308349609375
7.925999999999931,-1.8310699462890627,8.9901123046875,5.277877807617188
7.935999999999915,-0.8815155029296876,9.834094238281253,6.771444702148438
7.946000000000026,0.0719268798828125,8.452679443359376,4.390231323242188
7.956000000000017,-0.1825836181640625,7.609744262695313,0.5395263671875
7.966000000000008,-0.2244537353515625,9.719549560546875,-1.561456298828125
7.975999999999999,0.7034179687500001,10.540054321289062,0.6440521240234376
7.98599999999999,1.4350982666015626,8.848501586914063,5.018881225585938
7.995999999999981,0.681884765625,6.248516845703126,7.661483764648438
8.005999999999965,1.8267333984375,6.35648193359375,7.146929931640625
8.015999999999963,1.2703094482421875,11.52908630371094,4.199423217773438
8.025999999999954,2.361175537109375,17.925045776367188,0.0444122314453125
8.035999999999952,-1.6366729736328127,10.541848754882814,-3.798965454101563
8.047000000000025,-2.231976318359376,4.68466796875,-0.8387481689453126
8.055999999999926,-0.5206848144531251,6.197525024414063,5.859124755859376
8.067000000000007,-3.114089965820313,6.212179565429688,9.034075927734376
8.076999999999998,-1.7933868408203126,11.84625244140625,4.721005249023438
8.086999999999989,0.7744476318359376,11.639892578125,-1.131838989257813
8.09699999999998,-0.102581787109375,8.580532836914063,-0.0610107421875
8.106999999999971,0.12860107421875,9.885235595703126,7.621707153320313
8.116999999999962,-0.74110107421875,10.019219970703126,10.884884643554688
8.126999999999953,0.9066375732421876,6.923373413085938,5.202511596679688
8.13699999999995,3.2147277832031254,8.913101196289062,-3.5496887207031254
8.146999999999942,0.641510009765625,8.926858520507814,-7.562640380859375
8.156999999999925,2.9382354736328127,11.121450805664065,-1.9933166503906248
8.16700000000003,-0.578106689453125,12.525894165039064,6.767407226562501
8.177999999999997,-1.5159973144531251,6.979449462890625,11.561685180664064
8.187000000000012,1.4560333251953126,6.614880371093751,9.932638549804688
8.197999999999979,-0.883160400390625,8.558700561523438,4.975216674804688
8.20799999999997,-2.473776245117188,10.360012817382811,-0.1015350341796875
8.217999999999961,-0.9281707763671876,11.6745849609375,-4.592703247070313
8.227999999999945,-1.5672882080078123,10.35791931152344,-3.614288330078125
8.23799999999995,-0.9223388671875,7.5019287109375,2.9587219238281253
8.24799999999994,-0.193499755859375,8.185906982421876,7.5399108886718755
8.259000000000022,0.9651062011718752,7.98343505859375,8.069567871093751
8.268000000000029,1.7912933349609377,9.02899169921875,4.111795043945313
8.27800000000002,1.151727294921875,9.992901611328126,1.155316162109375
8.288000000000011,0.2423980712890625,10.096978759765626,1.9348480224609377
8.297999999999995,0.7071563720703126,9.459954833984376,5.344570922851563
8.307999999999993,0.8139251708984375,9.439019775390626,6.0448486328125
8.31799999999999,0.4987030029296875,8.548980712890625,3.068930053710938
8.327999999999975,-0.9509002685546876,8.326770019531251,-1.32489013671875
8.337999999999965,-0.7950836181640626,10.074249267578123,-3.5556701660156254
8.34899999999994,-0.094207763671875,10.349844360351565,0.1921539306640625
8.36000000000002,-1.1626434326171875,8.970074462890626,5.7723937988281255
8.369000000000028,-0.9162078857421876,7.657147216796876,9.036318969726564
8.379000000000019,-0.053533935546875,3.8103302001953128,9.024505615234377
8.38900000000001,-0.841290283203125,8.785546875000001,5.136416625976563
8.399000000000001,-1.2517669677734375,14.71121520996094,2.6838745117187504
8.408999999999999,1.3218994140625,16.31783142089844,-0.8025604248046876
8.41899999999999,-3.190203857421875,8.066726684570312,-2.655612182617188
8.428999999999974,1.179541015625,5.780917358398438,0.2106964111328125
8.438999999999965,3.887939453125,5.5304443359375,4.407727050781251
8.448999999999955,1.4653045654296877,8.532083129882814,5.591754150390625
8.459999999999916,3.164483642578125,11.9904052734375,1.5364837646484375
8.468999999999937,-0.7355682373046876,10.616915893554689,-0.3739898681640625
8.480000000000018,-0.442626953125,8.139849853515626,5.382852172851563
8.490000000000009,0.1221710205078125,11.106048583984377,11.934927368164065
8.5,-3.4943603515625004,7.68436279296875,11.056253051757814
8.509999999999991,-1.1092590332031251,8.276675415039064,2.2087982177734378
8.519999999999982,0.0148040771484375,9.262417602539063,-6.943112182617188
8.530999999999949,-0.95284423828125,8.601766967773438,-7.242483520507813
8.539999999999964,-2.996554565429688,12.72073974609375,-1.3175628662109375
8.549999999999955,-1.27225341796875,9.74781188964844,5.6707092285156255
8.559999999999945,-0.1760040283203125,6.782211303710938,9.960751342773438
8.569999999999936,3.273345947265625,7.883096313476563,10.084268188476564
8.579999999999927,3.2540557861328128,8.706890869140626,5.100527954101563
8.590000000000025,1.077557373046875,10.617514038085938,0.22908935546875
8.60000000000003,-0.9455169677734376,11.246014404296876,-1.7123382568359375
8.61000000000002,2.9005523681640626,9.367092895507811,-0.3183624267578125
8.620000000000005,2.578900146484376,8.144784545898439,4.150076293945313
8.630999999999965,-0.3593353271484375,8.27532958984375,6.613983154296876
8.640999999999963,-0.9969573974609376,8.155252075195314,4.649676513671875
8.650999999999954,-1.0738189697265623,9.706838989257813,1.1859710693359375
8.660999999999952,-2.295379638671875,10.156195068359375,-0.2726043701171875
8.670999999999935,-2.4416259765625004,9.881646728515626,2.537628173828125
8.680999999999926,-2.2067047119140626,9.55595703125,6.195281982421876
8.692000000000007,-0.9637603759765626,8.354135131835939,6.933990478515626
8.701000000000029,-0.3007171630859375,7.482189941406251,4.176992797851563
8.71100000000002,-0.17764892578125,9.268399047851563,0.9990509033203124
8.721000000000004,0.1909576416015625,10.072006225585938,-0.6148925781250001
8.730999999999995,1.52347412109375,9.242977905273438,0.968695068359375
8.740999999999985,0.93131103515625,5.982791137695313,4.333108520507813
8.750999999999976,1.5352874755859376,8.228076171875001,6.839184570312501
8.76199999999995,3.4333496093750004,13.464981079101564,6.978253173828126
8.771999999999942,4.022671508789063,16.013226318359376,2.4187469482421875
8.781999999999925,-2.729483032226563,7.901489257812501,-2.411419677734376
8.79200000000003,-2.123263549804688,4.521823120117188,-1.3998077392578123
8.802000000000021,0.3162689208984375,6.736602783203126,3.4318542480468754
8.812000000000012,-2.973675537109376,7.773635864257813,6.4901672363281255
8.822000000000003,-3.3355529785156253,13.84390563964844,3.9203887939453126
8.831999999999994,-0.4059906005859375,9.75379333496094,0.6836791992187501
8.841999999999992,2.1440490722656254,7.369888305664063,4.02371826171875
8.851999999999975,-0.5431152343750001,10.848248291015626,9.5021240234375
8.861999999999966,-3.795675659179688,9.020318603515626,8.957662963867188
8.871999999999957,1.1055206298828126,8.42127685546875,1.2502716064453123
8.881999999999948,3.753656005859375,8.994149780273439,-6.468035888671875
8.891999999999939,2.2889495849609376,8.690142822265626,-6.426165771484375
8.90199999999993,1.3649658203125,11.623593139648438,2.3321655273437503
8.912000000000035,-1.0193878173828126,11.025149536132814,9.1480224609375
8.922999999999995,1.6489349365234376,6.461904907226563,11.031430053710938
8.932999999999993,1.7914428710937502,7.895956420898438,7.150369262695313
8.94299999999999,-2.0260650634765627,8.8226318359375,3.12889404296875
8.952999999999975,-1.5882232666015623,10.965335083007814,-0.9784149169921876
8.962999999999965,-0.5818450927734375,11.778213500976562,-3.755450439453125
8.972999999999956,-1.5992889404296875,8.43623046875,-1.4530426025390626
8.982999999999947,-1.3624237060546875,7.466937255859375,4.1690673828125
8.992999999999938,-0.8505615234375,8.668460083007814,7.382150268554688
9.002999999999929,0.811383056640625,8.704797363281251,6.519775390625001
9.013000000000034,1.0483978271484375,9.641641235351564,3.0068725585937504
9.023000000000032,-0.0478515625,9.39505615234375,1.7785827636718752
9.033000000000015,0.30206298828125,9.448590087890626,4.045550537109375
9.043000000000006,0.5280120849609375,9.228622436523438,6.606655883789063
9.053999999999974,0.9383392333984376,10.051370239257814,4.76422119140625
9.063999999999965,0.403448486328125,8.236749267578126,0.7041656494140626
9.073999999999955,-0.35709228515625,9.018972778320313,-3.200970458984376
9.083999999999946,0.5942565917968751,10.450482177734376,-2.607611083984376
9.093999999999935,-0.1212738037109375,9.5786865234375,2.971282958984375
9.103999999999928,-0.1559661865234375,6.056063842773438,6.8131652832031255
9.114000000000033,-0.2549591064453125,6.490316772460938,8.565878295898438
9.12400000000003,-1.229486083984375,8.910708618164064,8.385687255859375
9.134000000000022,1.6366729736328127,16.318130493164062,5.966790771484376
9.144000000000004,-0.720465087890625,13.386026000976564,1.08443603515625
9.153999999999996,-4.007119750976563,5.360870361328125,-1.6556640625
9.163999999999987,-0.8374023437500001,6.885391235351563,-2.45299072265625
9.173999999999978,1.9910736083984373,6.004772949218751,0.925030517578125
9.183999999999967,3.14384765625,11.175732421875,2.38958740234375
9.19399999999996,0.4098785400390625,12.04423828125,1.0059295654296876
9.204999999999927,-0.6670806884765625,8.280413818359376,3.484640502929688
9.215000000000025,-0.1758544921875,7.942462158203125,9.256436157226563
9.22500000000003,-2.080795288085937,11.706137084960938,13.416680908203126
9.23500000000002,2.0305511474609377,7.835842895507813,7.098629760742188
9.245000000000005,0.9800598144531252,9.554312133789065,-1.9161560058593752
9.254999999999995,-2.19100341796875,7.583575439453125,-6.098980712890626
9.264999999999986,-0.18482666015625,9.868038940429688,-4.15411376953125
9.274999999999975,0.42169189453125,12.525146484375002,2.092758178710937
9.284999999999968,-1.8810150146484377,8.467633056640626,6.4782043457031255
9.29499999999996,-1.5974945068359376,6.605459594726563,8.158840942382813
9.30499999999995,-0.25181884765625,8.506063842773438,6.604861450195313
9.31499999999994,1.3601806640625,10.416387939453124,2.4607666015625003
9.324999999999932,2.9472076416015627,10.512689208984376,-0.386700439453125
9.334999999999916,0.3228485107421875,10.239486694335938,-0.44561767578125
9.346000000000004,-0.2400054931640625,8.211627197265626,3.375628662109375
9.355999999999996,1.9351470947265623,7.995547485351563,6.767108154296875
9.365999999999984,1.4778656005859376,8.937924194335938,5.902789306640625
9.375999999999976,-0.886151123046875,9.1001708984375,2.6406585693359377
9.385999999999967,-1.044061279296875,9.479544067382813,-0.3158203125
9.395999999999958,-1.6067657470703127,10.257879638671875,0.5585174560546875
9.405999999999947,-1.500146484375,9.625790405273438,4.59195556640625
9.41599999999994,-0.7225585937500001,9.17254638671875,6.201712036132813
9.42599999999993,-0.38221435546875,8.581130981445312,4.388436889648438
9.435999999999916,-0.217724609375,7.8150573730468755,1.6677764892578126
9.446000000000026,-0.6087615966796875,9.443206787109377,0.2944366455078125
9.456000000000016,-0.02572021484375,10.482781982421876,1.4865386962890623
9.466000000000008,1.0187896728515626,5.923275756835938,4.173403930664063
9.476999999999975,0.36068115234375,7.019076538085938,6.080288696289063
9.486999999999966,1.6006347656250002,12.29127197265625,7.021917724609375
9.496999999999955,4.6834716796875,16.043582153320315,4.585675048828126
9.506999999999948,0.1780975341796875,11.353530883789062,-0.94566650390625
9.51699999999994,-3.400750732421875,3.5350341796875004,-1.897463989257813
9.52699999999993,-1.995111083984375,6.629086303710938,0.5262176513671876
9.537000000000036,-2.0652435302734378,6.977056884765625,4.8512512207031255
9.547000000000024,-2.04146728515625,12.528884887695314,4.795025634765626
9.557000000000016,1.7374603271484377,12.035714721679687,1.0024902343750002
9.567000000000007,2.9542358398437503,7.053469848632813,2.9801055908203127
9.576999999999998,-0.8723937988281251,9.063983154296876,9.594836425781253
9.586999999999987,-3.565689086914063,10.22109375,10.644281005859376
9.59699999999998,0.7494750976562501,8.743676757812501,3.2778320312500004
9.606999999999973,3.228933715820313,9.05531005859375,-5.475265502929688
9.616999999999962,0.8855529785156251,7.924667358398438,-7.705148315429688
9.626999999999953,0.5043853759765625,11.262762451171875,0.1484893798828125
9.638000000000034,-0.280230712890625,11.233602905273438,8.117269897460938
9.648000000000032,-0.3662139892578125,7.5593505859375005,10.864099121093751
9.658000000000015,1.5998870849609377,7.096386718750001,8.022912597656251
9.668000000000006,-0.57960205078125,8.983233642578126,4.000241088867188
9.677999999999995,-1.13826904296875,10.819537353515626,-0.128900146484375
9.687999999999988,-1.2070556640625,11.448785400390626,-3.0373779296875
9.69799999999998,0.11424560546875,8.633020019531251,-1.812228393554688
9.70799999999997,-1.075164794921875,7.888928222656251,3.3938720703125003
9.71799999999996,-0.78177490234375,8.679376220703126,6.928906250000001
9.727999999999945,1.767816162109375,8.576495361328126,6.182272338867188
9.73799999999995,0.6590057373046876,9.73599853515625,2.9968536376953128
9.74799999999994,-0.4427764892578125,9.186154174804688,1.91226806640625
9.759999999999993,0.5271148681640625,9.674090576171876,3.6409057617187504
9.769000000000004,-0.445916748046875,9.352886962890626,6.395361328125
9.778999999999996,0.5157501220703126,9.589154052734376,4.983441162109376
9.788999999999987,0.407037353515625,8.416940307617189,1.0920623779296876
9.798999999999978,-1.03658447265625,9.10660095214844,-2.33455810546875
9.808999999999967,0.3141754150390625,9.948937988281251,-1.8509582519531247
9.81899999999996,-0.404644775390625,9.888226318359376,2.931954956054688
9.82899999999995,0.1120025634765625,7.128387451171876,6.3678466796875
9.838999999999947,-0.2992218017578125,4.601077270507813,8.0869140625
9.84899999999994,-1.1985321044921875,9.671697998046875,7.667465209960938
9.86000000000002,1.514202880859375,15.674676513671876,5.70450439453125
9.869000000000028,0.6488372802734376,14.235690307617189,0.620574951171875
9.879999999999995,-4.475616455078125,6.285153198242188,-2.41710205078125
9.88900000000001,1.0585662841796877,6.759033203125001,-1.6543182373046876
9.899,3.565390014648438,5.1141357421875,2.3502593994140626
9.909,0.57242431640625,10.62603759765625,3.695037841796875
9.91999999999996,0.6308929443359376,11.9138427734375,1.5089691162109375
9.92999999999995,1.078155517578125,8.798556518554689,1.38470458984375
9.93999999999994,0.1060211181640625,8.268301391601563,7.713671875
9.949999999999932,-3.732870483398438,12.099267578125,13.202993774414065
9.959999999999916,-1.4733795166015626,7.783505249023438,9.246267700195313
9.970000000000027,-0.1131988525390625,8.897998046875001,0.061309814453125
9.980000000000018,0.81766357421875,7.72623291015625,-6.9985900878906255
9.990000000000007,-0.1084136962890625,9.0331787109375,-6.770397949218751
10.0,-2.014999389648437,13.332492065429689,0.0309539794921875
10.009999999999993,-1.2718048095703125,8.695825195312501,6.273190307617188
10.019999999999982,0.95523681640625,6.8104736328125,9.846356201171876
10.029999999999973,2.7191650390625,8.76102294921875,9.722091674804688
10.039999999999964,1.94337158203125,8.556008911132814,4.707247924804688
10.049999999999956,0.5326477050781251,11.231658935546877,-0.1774993896484375
10.060999999999916,-1.7077026367187502,10.385882568359376,-1.678692626953125
10.071000000000026,3.0379760742187503,8.929849243164064,-0.08792724609375
10.081000000000016,1.5648956298828127,8.532830810546876,4.17564697265625
10.091000000000008,-1.36676025390625,8.074652099609375,6.3893798828125
10.101,-1.035089111328125,8.633767700195314,4.16607666015625
10.11099999999999,-0.7041656494140626,9.433636474609376,1.4780151367187502
10.12099999999998,-1.1505310058593752,10.322329711914064,0.9341522216796876
10.130999999999965,-2.0081207275390627,9.384738159179689,3.853994750976563
10.140999999999964,-1.987185668945313,10.235598754882814,6.2329650878906255
10.150999999999954,-0.159405517578125,8.144635009765626,5.334402465820313
10.160999999999952,0.069384765625,7.6718017578125,2.348016357421875
10.170999999999935,0.0155517578125,9.214566040039063,0.066094970703125
10.182000000000016,0.7835693359375001,9.608444213867188,-0.2797821044921875
10.191000000000033,0.9126190185546876,5.32767333984375,2.170516967773437
10.201999999999998,0.1466949462890625,10.455267333984375,5.493060302734375
10.211999999999987,2.593405151367188,13.282247924804688,9.090899658203126
10.22199999999998,4.9922637939453125,14.70463562011719,5.908322143554688
10.231999999999973,-2.4188964843750003,7.529742431640625,0.5586669921875
10.241999999999962,-2.7972229003906253,3.941772460937501,-2.182928466796876
10.251999999999953,-1.3349090576171876,6.882699584960938,-0.97796630859375
10.26199999999995,-2.126852416992188,9.6193603515625,2.8682525634765628
10.271999999999942,1.5698303222656251,13.93616943359375,3.0559204101562503
10.281999999999924,0.38819580078125,9.496292114257812,2.62764892578125
10.29200000000003,-0.9555358886718752,5.764617919921875,7.464245605468751
10.30200000000002,-0.279632568359375,10.74671325683594,11.034420776367188
10.312000000000012,-2.466448974609375,9.629827880859375,7.999734497070313
10.322000000000005,1.634280395507813,9.900189208984376,-0.5310028076171875
10.331999999999994,2.249920654296876,8.454623413085939,-8.008706665039064
10.34299999999996,0.03170166015625,8.233309936523439,-5.0770507812500005
10.352999999999945,2.0105133056640625,11.287435913085938,3.5508850097656253
10.36299999999995,-1.1849243164062502,10.010247802734376,9.155947875976564
10.37299999999994,0.5991912841796876,7.314410400390625,9.701156616210938
10.382999999999925,2.1441986083984377,8.612234497070313,5.777029418945313
10.393000000000027,-0.8940765380859376,9.382345581054688,2.521627807617188
10.40300000000002,-1.6114013671875,10.818191528320312,-0.0381317138671875
10.413000000000013,-0.4415802001953125,10.759423828125,-1.1091094970703126
10.422999999999996,-0.0681884765625,7.614080810546875,0.518292236328125
10.432999999999993,-1.39248046875,8.158541870117189,4.033587646484375
10.44299999999999,-0.533245849609375,8.785696411132813,5.582333374023438
10.452999999999976,0.724951171875,9.492105102539064,4.078897094726563
10.462999999999964,0.141461181640625,10.084268188476564,2.399456787109376
10.472999999999956,-0.2286407470703125,8.5857666015625,2.787652587890625
10.483999999999924,0.0273651123046875,9.610986328125,5.142398071289063
10.494000000000028,0.189013671875,8.865548706054689,6.339883422851563
10.50400000000002,1.1569610595703126,9.718502807617188,3.2981689453125003
10.51400000000001,-0.5999389648437501,8.543597412109376,-0.1505828857421875
10.524,0.3234466552734375,9.681417846679688,-1.93619384765625
10.534,0.281427001953125,9.741531372070312,0.9239837646484376
10.54399999999999,-0.4140655517578125,9.188995361328123,4.768557739257813
10.553999999999974,0.341839599609375,5.58487548828125,6.180776977539063
10.563999999999965,-0.85953369140625,7.050778198242188,5.9492950439453125
10.573999999999955,-0.3055023193359375,12.117959594726564,6.036175537109376
10.583999999999946,1.741946411132813,16.07917175292969,4.077850341796875
10.593999999999935,-2.3794189453125,10.202102661132812,0.308343505859375
10.603999999999928,-2.6122467041015627,5.332907104492188,-1.2670196533203126
10.614000000000033,1.2410003662109377,6.264517211914063,0.128302001953125
10.62400000000003,1.885800170898437,7.514041137695313,3.291888427734375
10.634999999999993,2.774044799804688,12.1267822265625,2.663836669921875
10.644999999999982,-0.100787353515625,11.418878173828126,0.9332550048828124
10.654999999999973,-0.51141357421875,7.509555053710938,4.860821533203126
10.664999999999964,-0.1224700927734375,9.907217407226565,11.14642333984375
10.674999999999956,-3.000143432617188,9.646426391601564,11.426205444335938
10.684999999999944,0.2660247802734375,8.378659057617188,3.308038330078125
10.694999999999936,1.715029907226563,9.35797119140625,-5.91983642578125
10.704999999999927,-1.0591644287109376,7.8632080078125,-7.711428833007813
10.715000000000025,-1.5023895263671876,11.497085571289062,-1.6638885498046876
10.72500000000003,-0.054730224609375,10.583120727539065,5.644091796875
10.73500000000002,-1.8210510253906247,7.5019287109375,10.0308837890625
10.745000000000005,1.4152099609375002,7.712326049804688,9.743325805664064
10.754999999999995,2.674603271484376,8.610440063476563,5.106658935546875
10.765999999999964,1.0654449462890625,10.719497680664062,0.4797119140625
10.77699999999993,-2.261434936523438,10.704693603515626,-0.975872802734375
10.785999999999952,1.4267242431640623,9.383392333984377,-0.3922332763671875
10.795999999999935,3.04814453125,8.220150756835938,2.9504974365234378
10.805999999999926,-0.1601531982421875,8.405276489257814,5.714822387695313
10.816000000000033,-1.0673889160156251,8.096633911132812,4.755398559570313
10.826000000000027,-0.1045257568359375,9.95850830078125,2.1773956298828128
10.83600000000002,-0.5927612304687501,9.76650390625,1.0343414306640626
10.846000000000004,-1.3537506103515626,9.87476806640625,2.9923675537109378
10.855999999999996,-2.254257202148437,9.396551513671875,6.0903076171875
10.865999999999984,-0.9346008300781252,9.180172729492188,5.987277221679688
10.877999999999927,-0.08433837890625,7.789337158203126,2.902047729492188
10.885999999999967,-0.384307861328125,8.890670776367188,-0.1568634033203125
10.896999999999942,0.3132781982421875,9.972863769531251,-0.8842071533203125
10.906999999999924,0.761138916015625,9.916488647460938,2.0129058837890628
10.91700000000003,0.730633544921875,7.063638305664063,5.2457275390625
10.92700000000002,0.4927215576171875,5.446405029296876,7.19388427734375
10.937000000000012,1.5311004638671877,11.588153076171876,6.870138549804688
10.947000000000005,3.51290283203125,16.120144653320313,4.261181640625001
10.956999999999994,-0.005682373046875,12.180914306640624,-1.3752838134765626
10.966999999999992,-3.625952148437501,3.59544677734375,-3.1311370849609377
10.977999999999945,0.1828826904296875,7.462152099609375,0.636724853515625
10.986999999999966,-0.4831512451171875,6.11363525390625,5.455975341796876
10.996999999999955,-3.608905029296875,12.28529052734375,5.350103759765625
11.006999999999948,-0.9031982421875,11.381643676757813,1.8028076171875
11.01699999999994,2.8383453369140628,8.467184448242188,2.4196441650390628
11.02699999999993,1.3453765869140626,8.945401000976563,8.455371093750001
11.037000000000036,-3.8175079345703127,10.33414306640625,10.804583740234376
11.047000000000024,-0.9724334716796876,8.251553344726563,4.757791137695313
11.057000000000016,3.350357055664063,9.318792724609375,-4.118524169921876
11.06799999999999,2.489328002929688,7.516433715820313,-8.221945190429688
11.077999999999976,0.1686767578125,10.796658325195311,-2.345175170898438
11.087999999999964,-0.6637908935546876,12.256878662109376,6.397155761718751
11.097999999999956,0.3724945068359375,7.633071899414063,10.867239379882813
11.107999999999947,2.093356323242188,7.171005249023438,9.632669067382814
11.117999999999938,-1.40264892578125,8.517727661132813,5.594296264648438
11.127999999999927,-0.867010498046875,9.785943603515626,1.035986328125
11.138000000000034,-0.892431640625,11.879748535156253,-3.0351348876953126
11.148000000000032,-0.8583374023437501,9.336288452148438,-3.189157104492188
11.158000000000015,-0.292791748046875,7.928256225585938,1.8333129882812504
11.168000000000006,-1.18612060546875,8.588009643554688,6.410165405273438
11.177999999999995,0.8092895507812501,8.241534423828126,7.346560668945313
11.187999999999988,1.14185791015625,9.442160034179688,4.173553466796875
11.198999999999955,-0.1514801025390625,9.533078002929688,1.987484741210937
11.208999999999946,0.1191802978515625,9.938919067382812,2.6461914062500003
11.218999999999935,-0.1604522705078125,8.953027343750001,5.460162353515625
11.228999999999928,0.3763824462890625,10.047183227539064,5.33365478515625
11.239000000000033,0.8145233154296876,8.256936645507814,2.453887939453125
11.24900000000003,-0.6458465576171876,8.686404418945314,-1.19569091796875
11.259000000000022,-0.15791015625,10.21914978027344,-2.3233428955078126
11.269000000000004,0.1616485595703125,9.817047119140623,1.3704986572265625
11.278999999999996,0.03050537109375,8.251852416992188,5.3462158203125005
11.288999999999987,-0.389093017578125,4.950543212890626,7.644137573242188
11.298999999999978,-0.8498138427734375,7.446002197265625,7.789785766601563
11.308999999999967,-0.011065673828125,14.19217529296875,6.582730102539063
11.31899999999996,2.4495513916015628,16.502359008789064,2.6445465087890625
11.32899999999995,-3.958071899414063,7.491760253906251,-1.266421508789063
11.340000000000025,-1.75435791015625,6.021371459960938,-2.1456939697265627
11.34899999999994,3.1876617431640626,6.065185546875,0.5830413818359376
11.36000000000002,1.89970703125,8.182318115234375,3.016592407226563
11.370000000000005,0.96241455078125,12.655093383789064,1.4715850830078123
11.379999999999995,-0.4556365966796875,10.343115234375,1.16279296875
11.389999999999986,1.3773773193359375,7.048086547851563,6.710284423828125
11.399999999999975,-3.141305541992188,11.826663208007814,13.185198974609376
11.409999999999968,-1.7283386230468751,8.7508544921875,11.650808715820313
11.41999999999996,0.9796112060546877,8.020220947265626,1.4700897216796875
11.42999999999995,0.4236358642578125,8.849847412109376,-6.560748291015625
11.43999999999994,-0.62506103515625,8.227029418945314,-7.720849609375
11.449999999999932,-1.0528839111328123,12.45262145996094,-1.724002075195313
11.459999999999916,-0.7358673095703125,10.438220214843753,5.538220214843751
11.470000000000027,-1.048248291015625,6.513345336914063,9.49554443359375
11.480999999999996,0.8803192138671876,8.291928100585938,9.709381103515623
11.490999999999984,3.1487823486328126,8.61746826171875,4.937533569335938
11.500999999999976,2.0308502197265628,10.216009521484375,0.411822509765625
11.510999999999967,-2.392279052734376,11.00391540527344,-0.5812469482421876
11.520999999999958,1.0113128662109376,9.637902832031251,0.3476715087890625
11.531999999999924,3.1800354003906253,7.830908203125,3.9313049316406254
11.54099999999994,0.1649383544921875,8.554064941406251,6.115728759765625
11.55099999999993,-1.8451263427734377,8.171701049804689,4.694387817382813
11.560999999999916,-0.6886138916015625,9.43154296875,1.6336822509765627
11.571000000000026,-0.9921722412109376,10.61048583984375,0.0471038818359375
11.581000000000016,-1.7391052246093752,9.672296142578126,2.400503540039063
11.591000000000008,-1.9943634033203128,9.347653198242188,5.734710693359375
11.601,-0.674407958984375,9.305035400390626,6.271545410156251
11.61099999999999,0.133087158203125,7.556060791015626,3.5984375
11.62099999999998,0.233575439453125,8.595187377929689,0.489581298828125
11.631999999999948,-0.0399261474609375,10.521661376953126,-0.5461059570312501
11.64199999999994,1.4645568847656252,8.637805175781251,1.8463226318359376
11.65199999999993,0.6933990478515626,5.539266967773438,4.859625244140625
11.662000000000036,0.4640106201171875,9.4351318359375,7.143789672851563
11.672000000000024,2.7605865478515628,13.151852416992188,7.573406982421876
11.682000000000016,4.04345703125,15.918719482421876,2.678640747070313
11.692000000000007,-3.209793090820313,7.156350708007813,-1.9616149902343751
11.701999999999998,-3.039620971679688,4.147683715820313,-2.046551513671876
11.711999999999987,-1.397564697265625,7.274932861328126,1.64609375
11.72199999999998,-1.8508087158203128,8.884240722656251,5.529098510742188
11.731999999999973,0.6183319091796875,13.926599121093751,3.4001525878906254
11.741999999999962,0.5323486328125,9.020318603515626,1.3815643310546877
11.751999999999953,-0.0073272705078125,7.288241577148438,6.190496826171875
11.76199999999995,-0.651678466796875,10.232757568359377,10.826116943359375
11.771999999999942,-1.6739074707031252,10.091296386718753,8.413500976562501
11.783000000000015,2.541217041015625,8.161233520507814,-0.2954833984375
11.793000000000006,1.7811248779296875,8.730218505859376,-7.504620361328126
11.802999999999995,0.8705993652343751,8.872128295898438,-5.435189819335938
11.812999999999988,1.9405303955078128,12.133062744140624,3.159698486328125
11.82299999999998,-1.980755615234375,9.8777587890625,8.938671875
11.83299999999997,0.5402740478515625,6.881054687500001,10.112380981445312
11.84299999999996,1.6314392089843752,8.100521850585938,6.575851440429688
11.852999999999945,-1.5472503662109376,8.977999877929689,2.876028442382813
11.86299999999995,-1.6025787353515626,11.714959716796876,-0.8454772949218751
11.87299999999994,-0.491973876953125,10.316796875,-2.7246978759765628
11.882999999999925,-0.404644775390625,8.298806762695314,-0.07117919921875
11.893000000000027,-1.6917022705078126,8.022015380859376,4.830914306640626
11.903999999999996,0.485693359375,8.310919189453125,6.766510009765626
11.913999999999987,1.383059692382813,9.361859130859376,4.837493896484375
11.923999999999978,0.128302001953125,9.648370361328126,2.608209228515625
11.933999999999967,0.4557861328125,9.222491455078126,2.0015411376953125
11.94399999999996,-0.0994415283203125,9.632220458984376,4.576254272460938
11.95399999999995,0.1072174072265625,9.2676513671875,6.3167053222656255
11.963999999999947,0.9697418212890626,9.406719970703126,3.7684600830078128
11.97399999999994,-0.46595458984375,8.509054565429688,0.26856689453125
11.983999999999924,-0.1583587646484375,9.315203857421876,-2.4082794189453125
11.994000000000028,-0.058917236328125,10.150363159179689,-0.4792633056640625
12.00400000000002,-0.3321197509765625,9.631173706054687,4.149777221679688
12.01400000000001,0.0079254150390625,6.237899780273438,6.780715942382813
12.024,-0.6794921875000001,5.484536743164063,7.556658935546875
12.034,-1.278533935546875,9.995892333984376,6.5006347656250005
12.04399999999999,1.7891998291015627,15.810903930664065,4.921084594726563
12.05499999999995,-0.5716766357421875,13.61900329589844,0.332269287109375
12.06499999999994,-4.05362548828125,5.967987060546875,-1.88594970703125
12.074999999999932,1.7563018798828127,6.445904541015626,-1.112548828125
12.084999999999916,2.70361328125,5.995501708984375,2.786456298828125
12.095000000000027,1.2861602783203123,10.683309936523438,3.8888366699218753
12.105000000000018,1.5273620605468752,12.465032958984375,1.3823120117187502
12.115000000000007,0.4462158203125,8.827416992187501,2.2783325195312503
12.125,-0.177947998046875,7.850048828125001,8.369985961914063
12.134999999999993,-3.261981201171875,11.269790649414062,12.201699829101564
12.144999999999982,-0.6922027587890626,7.857376098632813,7.25908203125
12.154999999999973,1.5581665039062502,9.281707763671877,-1.8339111328125
12.164999999999964,-1.1372222900390625,8.003771972656251,-6.9731689453125005
12.174999999999956,-1.75076904296875,9.888824462890623,-4.257742309570313
12.184999999999944,0.180340576171875,12.32701110839844,2.4914215087890628
12.194999999999936,-1.6268035888671877,8.062689208984375,7.601370239257813
12.206000000000016,-1.0489959716796875,7.347308349609375,9.623846435546875
12.216000000000008,2.1036743164062504,8.38419189453125,7.042703247070313
12.226,3.9208374023437504,10.032678222656251,1.6673278808593752
12.23599999999999,0.2537628173828125,10.449884033203126,-0.8324676513671876
12.24599999999998,-1.6281494140625,10.023406982421877,-0.2583984375
12.255999999999965,3.0228729248046875,8.947793579101564,2.3309692382812504
12.265999999999964,2.0852813720703125,8.17005615234375,5.871685791015626
12.275999999999954,-0.7584472656250001,8.151962280273438,5.863461303710938
12.285999999999952,-1.879220581054688,9.091796875,3.1641845703125004
12.295999999999935,-0.6276031494140626,9.917385864257811,0.5728729248046875
12.305999999999926,-1.0956512451171876,10.017425537109377,0.605322265625
12.316000000000033,-2.410223388671876,10.04224853515625,3.939529418945313
12.326000000000027,-1.6858703613281252,8.724536132812501,6.130383300781251
12.336999999999987,-0.395074462890625,8.52894287109375,4.8647094726562505
12.34699999999998,-0.2420989990234375,7.965789794921876,2.3966156005859376
12.356999999999973,0.3186614990234375,9.50855407714844,0.49825439453125
12.366999999999962,0.545806884765625,10.469772338867188,0.8957214355468751
12.377999999999927,1.143801879882813,8.107550048828125,3.482098388671876
12.38699999999995,0.6500335693359376,4.942617797851563,5.628091430664063
12.396999999999942,1.0056304931640625,10.187747192382814,6.5568603515625
12.406999999999924,3.4267700195312503,14.885125732421876,5.5316406250000005
12.41700000000003,2.0900665283203126,14.566464233398438,0.053533935546875
12.42700000000002,-4.027456665039063,5.002282714843751,-2.97337646484375
12.437000000000012,-0.7588958740234375,6.969281005859376,-0.2080047607421875
12.447000000000005,0.8499633789062501,5.7234954833984375,4.920187377929688
12.456999999999994,-3.6555603027343753,10.471417236328126,6.161785888671876
12.466999999999992,-1.9324554443359376,12.45740661621094,2.671014404296875
12.478999999999928,1.1135955810546876,9.0953857421875,0.8680572509765626
12.48799999999995,2.7058563232421875,7.9212280273437505,6.126794433593751
12.49799999999994,-2.1361236572265625,10.936773681640624,10.384237670898438
12.507999999999925,-2.7254455566406253,8.59952392578125,7.082778930664063
12.518000000000027,2.5463012695312504,8.794219970703125,-1.1481384277343751
12.52800000000002,3.248672485351563,8.304937744140625,-6.9387756347656255
12.538000000000013,0.8095886230468751,9.595285034179687,-4.232470703125
12.547999999999996,-0.1066192626953125,12.790124511718751,4.1862640380859375
12.557999999999993,-0.6806884765625001,8.368191528320313,9.484478759765626
12.56799999999999,2.4731781005859377,7.335943603515625,9.717306518554688
12.57899999999995,-0.8342620849609376,8.05521240234375,6.461306762695313
12.587999999999964,-1.12271728515625,9.206939697265623,2.117431640625
12.597999999999956,-0.77100830078125,11.760867309570314,-2.21612548828125
12.607999999999947,-1.024322509765625,9.89630126953125,-3.362319946289063
12.617999999999938,0.0617584228515625,8.46015625,0.5408721923828126
12.627999999999927,-1.9744750976562504,8.038912963867189,5.7818145751953125
12.63900000000001,0.6759033203125,8.421426391601564,7.602416992187501
12.649,1.2113922119140623,8.921774291992188,5.193240356445313
12.659,-0.029608154296875,9.83828125,2.6426025390625
12.66899999999999,-0.122918701171875,9.332849121093751,2.2458831787109377
12.678999999999974,-0.19798583984375,9.5427978515625,4.651171875
12.688999999999965,-0.0988433837890625,9.803439331054689,5.4132080078125
12.698999999999955,0.97557373046875,8.893063354492188,3.0146484375
12.708999999999946,-0.3025115966796875,8.539559936523439,-0.5767608642578126
12.718999999999935,-0.09989013671875,9.693829345703126,-2.507720947265625
12.728999999999928,0.560760498046875,9.971966552734376,0.2213134765625
12.739000000000033,-0.0357391357421875,8.527148437500001,4.655957031250001
12.75,-0.1580596923828125,5.694784545898438,7.472171020507813
12.759000000000022,-0.938787841796875,6.275283813476563,8.605206298828126
12.769000000000004,-0.2926422119140625,13.826409912109376,7.885189819335938
12.779999999999973,1.7391052246093752,15.66944274902344,3.5380249023437504
12.789999999999964,-3.500042724609376,9.301895141601562,-1.768862915039063
12.799999999999956,-1.5940551757812502,6.0771484375,-3.0895660400390628
12.809999999999944,3.3587310791015628,6.627142333984375,-0.490478515625
12.819999999999936,1.0682861328125002,7.657296752929688,3.1876617431640626
12.829999999999927,0.4278228759765625,12.2416259765625,2.579498291015625
12.840000000000025,1.1859710693359375,10.464239501953124,1.3588348388671876
12.85000000000003,1.9148101806640627,6.743032836914063,5.27982177734375
12.86000000000002,-2.763128662109376,11.566769409179688,11.07569274902344
12.870000000000005,-2.4292144775390625,9.199014282226564,11.421270751953124
12.879999999999995,0.1975372314453125,7.825225830078126,3.196334838867188
12.889999999999986,-0.1490875244140625,9.294717407226564,-4.183422851562501
12.900999999999954,0.940283203125,7.973565673828125,-7.117770385742188
12.910999999999952,-1.59046630859375,11.765203857421875,-1.8838562011718751
12.920999999999935,-2.667425537109376,10.77063903808594,5.045050048828125
12.930999999999926,-0.11065673828125,7.225137329101563,9.157891845703126
12.941000000000033,3.4841918945312504,8.053567504882814,9.05830078125
12.951000000000027,0.9359466552734376,8.681918334960939,5.409619140625001
12.96100000000002,0.445318603515625,10.282702636718753,0.6639404296875
12.971000000000004,-0.5825927734375,10.910455322265626,-1.959820556640625
12.980999999999996,2.130291748046876,9.294268798828126,-0.7382598876953126
12.990999999999984,1.3349090576171876,8.091549682617188,4.0172882080078125
13.000999999999976,0.148040771484375,8.797509765625001,6.66392822265625
13.010999999999967,0.050543212890625,8.065081787109376,5.235110473632813
13.020999999999958,-0.4294677734375,9.616519165039064,2.074664306640625
13.030999999999947,-2.068682861328125,9.871926879882814,0.7687652587890625
13.04099999999994,-1.7667694091796875,9.869384765625,2.6938934326171875
13.05099999999993,-1.442724609375,9.438571166992189,5.47362060546875
13.062000000000012,-0.503338623046875,9.23834228515625,5.409469604492188
13.072000000000005,-0.4079345703125,7.444805908203126,2.998199462890625
13.081999999999994,-0.5184417724609376,8.931344604492189,0.399560546875
13.091999999999992,0.2286407470703125,10.397396850585938,-0.17884521484375
13.101999999999975,0.6919036865234376,7.890274047851563,2.2230041503906253
13.111999999999966,0.5429656982421875,6.0405120849609375,5.039218139648438
13.121999999999955,0.93250732421875,10.14453125,7.619314575195313
13.131999999999948,4.245480346679688,14.642877197265626,7.753897094726563
13.14199999999994,2.9727783203125,13.87515869140625,2.010812377929688
13.15199999999993,-3.707748413085938,5.4646484375,-2.088421630859376
13.162000000000036,-2.3652130126953126,5.909817504882813,-2.17425537109375
13.172000000000024,-0.018243408203125,6.330911254882813,1.9459136962890624
13.182000000000016,-2.1989288330078125,10.648019409179687,4.666275024414063
13.192000000000007,0.400457763671875,13.179067993164065,2.7821197509765625
13.202999999999976,0.5280120849609375,8.559149169921875,2.5253662109375004
13.212999999999964,0.338250732421875,7.23216552734375,7.717111206054688
13.222999999999956,-2.0679351806640627,10.851687622070314,10.95740966796875
13.232999999999947,-1.5448577880859375,9.303689575195314,6.71776123046875
13.242999999999938,2.56903076171875,9.170602416992187,-2.0875244140625
13.252999999999927,1.1473907470703126,7.737896728515626,-7.646231079101563
13.263000000000034,1.31531982421875,9.730465698242188,-3.6875610351562496
13.273000000000032,1.113446044921875,11.634658813476562,4.516439819335938
13.283000000000015,-1.7817230224609375,9.072805786132813,9.282305908203126
13.293000000000006,2.1983306884765628,7.40263671875,9.317745971679688
13.302999999999995,0.8967681884765626,8.22269287109375,5.863610839843751
13.312999999999988,-1.472781372070313,9.599920654296875,2.328277587890625
13.32299999999998,-1.275244140625,11.673687744140626,-1.08802490234375
13.33299999999997,-0.21533203125,9.398794555664065,-2.190255737304688
13.34299999999996,-0.6271545410156251,8.519671630859376,0.9497039794921877
13.353999999999928,-1.6241119384765623,8.088858032226563,5.262774658203125
13.364000000000033,0.593060302734375,8.637954711914062,6.067877197265625
13.37400000000003,0.6884643554687501,9.53143310546875,3.9864837646484377
13.384000000000022,-0.040673828125,9.409262084960938,2.348165893554688
13.394000000000004,0.2824737548828125,9.215164184570312,2.7707550048828127
13.403999999999996,-0.4077850341796875,9.672445678710938,5.633026123046875
13.413999999999987,0.5354888916015625,9.205145263671875,5.901593017578126
13.423999999999978,0.7419982910156251,9.283651733398438,2.795278930664063
13.433999999999967,-0.5417694091796875,8.581878662109375,-0.5670410156250001
13.44399999999996,0.2498748779296875,9.677529907226564,-2.1634887695312504
13.45399999999995,0.0474029541015625,10.205990600585938,0.9244323730468752
13.463999999999947,0.0001495361328125,8.825173950195314,4.792184448242188
13.47399999999994,0.121124267578125,5.6596435546875,6.637310791015626
13.48500000000002,-0.8822631835937501,6.492559814453125,7.100125122070313
13.496999999999955,-0.634033203125,12.311309814453129,6.68187255859375
13.504999999999995,1.9305114746093752,15.662115478515624,3.9936614990234376
13.514999999999986,-2.5685821533203126,10.756283569335938,-0.6461456298828125
13.524999999999975,-2.830120849609376,5.350851440429688,-2.029803466796875
13.534999999999968,2.4806549072265627,6.884643554687501,-0.3158203125
13.54499999999996,1.72803955078125,7.391720581054688,3.260186767578125
13.55499999999995,1.19569091796875,11.446841430664064,3.282766723632813
13.56499999999994,1.0160980224609375,11.727969360351564,1.5796997070312502
13.574999999999932,0.343634033203125,7.460208129882813,4.990917968750001
13.584999999999916,-1.9050903320312504,10.085464477539062,10.24920654296875
13.596000000000004,-1.6852722167968752,10.100567626953126,10.489959716796877
13.605000000000018,1.8339111328125,7.814010620117188,2.936141967773437
13.615999999999984,-0.014654541015625,9.524554443359376,-4.747622680664063
13.625999999999976,-1.8511077880859377,7.537518310546876,-6.0719146728515625
13.634999999999993,0.207257080078125,11.874813842773438,-1.2398040771484375
13.645999999999958,-0.074468994140625,10.764358520507812,5.454479980468751
13.655999999999947,-2.465850830078125,7.393515014648438,9.04334716796875
13.66599999999994,-0.3458770751953125,7.599426269531251,8.962896728515625
13.67599999999993,1.3995086669921877,8.691189575195313,4.673452758789063
13.685999999999916,3.3295715332031253,10.700506591796875,-0.1096099853515625
13.696000000000026,-0.6054718017578126,10.414892578125,-1.67420654296875
13.706000000000016,0.3632232666015625,9.747512817382812,0.0372344970703125
13.716000000000008,2.0184387207031254,8.169458007812501,4.3712402343750005
13.726,0.948956298828125,8.245870971679688,7.261624145507813
13.73599999999999,-0.1870697021484375,8.389724731445312,5.466891479492188
13.74599999999998,-1.02701416015625,9.731661987304689,2.099786376953125
13.755999999999965,-0.956732177734375,9.71790466308594,-0.0107666015625
13.765999999999964,-1.7365631103515626,10.220944213867188,1.4143127441406251
13.77699999999993,-1.873837280273437,9.369186401367188,5.05491943359375
13.787000000000036,-0.2268463134765625,8.711077880859376,5.788394165039063
13.797000000000024,-0.234173583984375,8.478399658203125,3.618774414062501
13.807000000000016,-0.6950439453125,8.117120361328126,1.26148681640625
13.817000000000007,0.21114501953125,10.282702636718753,0.22490234375
13.826999999999998,0.1626953125,8.473165893554688,2.108908081054688
13.836999999999987,0.61907958984375,5.88634033203125,4.841680908203125
13.84699999999998,0.2779876708984375,9.603509521484376,7.161285400390626
13.856999999999973,3.8545928955078126,14.993988037109377,7.346710205078126
13.866999999999962,3.3282257080078126,13.580871582031252,2.0320465087890627
13.876999999999953,-3.3866943359375004,5.871087646484376,-2.1779937744140625
13.88699999999995,-2.692547607421876,5.897256469726563,-2.194143676757813
13.896999999999942,-0.0491973876953125,6.1417480468750005,1.991671752929688
13.908000000000015,-0.6371734619140625,10.45377197265625,5.044750976562501
13.918000000000006,1.1961395263671877,14.002563476562502,3.5197814941406254
13.927999999999995,-0.7019226074218751,7.742382812500001,2.9795074462890625
13.937999999999988,-0.082843017578125,7.494900512695313,7.083676147460938
13.94799999999998,-1.5406707763671876,10.721890258789063,10.303338623046876
13.95799999999997,-1.0135559082031251,9.09583435058594,6.278573608398438
13.96799999999996,1.9716339111328127,9.599472045898438,-2.1618438720703126
13.977999999999945,0.01256103515625,8.191290283203125,-7.473068237304688
13.98799999999995,2.5027862548828126,9.035122680664063,-3.738702392578125
13.99900000000003,0.064300537109375,11.556600952148438,4.944711303710938
14.007999999999925,-2.0767578125000004,9.452328491210938,10.064529418945312
14.018000000000027,2.9394317626953126,7.057806396484375,9.411355590820314
14.02800000000002,1.2163269042968752,9.10076904296875,5.294625854492188
14.038000000000013,-2.04027099609375,8.720498657226564,2.0363830566406254
14.048999999999978,-0.64420166015625,11.5047119140625,-1.386050415039063
14.058999999999967,-0.0369354248046875,10.277767944335938,-2.097991943359375
14.06899999999996,-0.5610595703125001,7.781262207031251,1.230532836914063
14.07899999999995,-1.25909423828125,8.316900634765625,5.0244140625
14.088999999999947,0.0127105712890625,8.744723510742189,6.301153564453125
14.09899999999994,1.1686248779296875,9.21426696777344,4.266415405273438
14.108999999999924,-0.33017578125,9.859814453125,2.158404541015625
14.119000000000028,-0.4059906005859375,9.315652465820314,2.429364013671876
14.12900000000002,0.1858734130859375,8.908914184570314,5.19010009765625
14.13900000000001,0.0243743896484375,9.718801879882813,5.958865356445313
14.149,0.4852447509765625,9.107498168945312,3.285757446289063
14.159,-0.034393310546875,8.478848266601563,-0.37982177734375
14.16899999999999,-0.264678955078125,9.707586669921875,-2.0365325927734377
14.17999999999995,0.1167877197265625,10.473660278320311,1.0705291748046877
14.18999999999994,0.224005126953125,8.767602539062501,4.981048583984375
14.199999999999932,-0.0638519287109375,7.662231445312501,6.632077026367188
14.209999999999916,-0.4055419921875,4.482943725585938,6.643740844726563
14.220000000000027,-0.669921875,9.831103515625,4.884298706054688
14.230000000000018,0.19320068359375,15.325061035156253,4.013250732421875
14.240000000000007,-0.1514801025390625,13.673583984375002,0.4035980224609375
14.25,-3.7802734375,7.207342529296875,-1.8318176269531248
14.259999999999993,1.897763061523437,6.784753417968751,-0.1242645263671875
14.269999999999982,2.481552124023437,5.42935791015625,4.353894042968751
14.279999999999973,1.0597625732421876,9.750054931640626,5.2158203125
14.289999999999964,2.2093963623046875,12.792068481445314,1.964157104492188
14.299999999999956,-0.6087615966796875,8.889923095703125,0.902899169921875
14.309999999999944,-0.4693939208984375,8.127886962890626,6.455474853515626
14.319999999999936,-0.2507720947265625,11.568563842773438,10.956512451171877
14.329999999999927,-2.50323486328125,7.369290161132813,8.193533325195313
14.340000000000025,0.3081939697265625,9.759027099609376,-0.2189208984375
14.351,-0.5043853759765625,8.508157348632814,-7.578042602539063
14.36099999999999,-0.512908935546875,8.733807373046876,-5.692990112304688
14.37099999999998,-0.5938079833984375,12.435723876953126,1.867556762695313
14.380999999999965,-2.259490966796875,8.99130859375,8.189047241210938
14.390999999999964,0.11304931640625,6.805538940429688,10.93707275390625
14.400999999999954,3.4285644531250004,8.852090454101564,7.92900390625
14.410999999999952,1.868603515625,8.8489501953125,3.1969329833984377
14.420999999999935,-0.2260986328125,10.647570800781253,-0.6147430419921875
14.430999999999926,-1.0847351074218752,11.158535766601563,-1.6070648193359376
14.441000000000033,3.4346954345703127,8.371331787109376,0.4083831787109375
14.451000000000027,1.559512329101563,8.3393310546875,4.263723754882813
14.46100000000002,-1.5639984130859377,8.366995239257813,5.991763305664063
14.471000000000004,-0.8569915771484375,8.692236328125,4.009811401367188
14.480999999999996,-0.068487548828125,9.833795166015626,1.4765197753906252
14.491999999999962,-1.8349578857421875,10.150213623046875,1.40504150390625
14.501999999999953,-2.031298828125,9.31714782714844,4.446307373046875
14.51199999999995,-1.5639984130859377,9.409561157226562,6.396258544921875
14.521999999999942,-0.3823638916015625,8.689694213867188,5.071817016601563
14.531999999999924,-0.5106658935546875,7.6206604003906255,1.9623626708984376
14.54200000000003,-0.0791046142578125,9.599920654296875,-0.548199462890625
14.55200000000002,0.8157196044921876,10.390667724609376,-0.320904541015625
14.562000000000012,0.7251007080078126,6.012249755859376,2.868701171875
14.572000000000005,0.1344329833984375,8.18560791015625,5.723345947265625
14.581999999999994,1.5218292236328126,11.630471801757814,8.701507568359375
14.591999999999992,5.088116455078126,15.224273681640629,6.601870727539063
14.601999999999975,-0.6732116699218751,10.1218017578125,0.3028106689453125
14.611999999999966,-3.44591064453125,4.041513061523438,-2.510861206054688
14.621999999999955,0.7820739746093751,7.852291870117188,-1.5602600097656252
14.632999999999925,0.1428070068359375,7.327270507812501,3.273944091796875
14.643000000000027,-2.9938629150390628,12.535614013671877,4.122262573242188
14.65300000000002,-1.0597625732421876,11.156591796875,2.612844848632813
14.663000000000013,2.0299530029296875,6.863259887695313,4.991067504882813
14.672999999999996,0.653173828125,9.257183837890626,9.327166748046876
14.682999999999993,-4.234713745117188,10.607644653320314,8.889175415039062
14.69299999999999,-0.62745361328125,8.668609619140625,2.505029296875
14.702999999999976,2.940328979492188,9.429449462890624,-5.092453002929688
14.712999999999964,1.371096801757813,7.819842529296875,-6.1118408203125005
14.722999999999956,0.93489990234375,11.052813720703126,1.29498291015625
14.732999999999947,-0.6136962890625001,10.322479248046877,7.848403930664063
14.742999999999938,0.796429443359375,8.279367065429689,9.677679443359375
14.752999999999927,2.6535186767578125,8.244226074218751,6.615478515625001
14.763000000000034,-0.97198486328125,8.462249755859375,3.2971221923828127
14.773000000000032,-0.97198486328125,10.984625244140624,-0.094207763671875
14.784,-0.2265472412109375,10.504464721679687,-1.726544189453125
14.79399999999999,0.1051239013671875,8.789285278320314,-0.426177978515625
14.803999999999974,-1.8280792236328127,7.828665161132813,3.5271087646484376
14.813999999999965,-0.7285400390625001,8.78614501953125,6.153411865234376
14.823999999999955,0.7565032958984376,8.769396972656251,5.580838012695313
14.833999999999946,-0.4732818603515625,10.31201171875,3.5558197021484377
14.843999999999935,-0.197088623046875,8.706890869140626,2.3290252685546875
14.853999999999928,-0.098095703125,9.5140869140625,3.306393432617188
14.864000000000033,-0.557769775390625,9.05830078125,5.385244750976563
14.87400000000003,0.8142242431640626,9.532180786132812,4.0566162109375
14.884000000000022,0.2397064208984375,8.937774658203125,1.299169921875
14.894000000000004,0.097796630859375,9.074002075195311,-0.9283203125
14.904999999999973,0.6346313476562501,10.01114501953125,0.18841552734375
14.914999999999964,-0.179443359375,9.342568969726564,3.587969970703125
14.924999999999956,0.6482391357421875,7.179229736328126,5.6183715820312505
14.934999999999944,-0.4954132080078125,5.2853546142578125,6.0330352783203125
14.944999999999936,-0.8822631835937501,10.421621704101565,6.066232299804688
14.954999999999927,1.4252288818359375,15.403717041015629,5.354888916015625
14.965000000000025,-0.7916442871093751,12.859210205078126,1.0214813232421875
14.97500000000003,-4.2161712646484375,6.744677734375,-1.8391448974609377
14.98500000000002,2.022027587890625,6.525308227539063,-1.38291015625
14.995000000000005,1.5352874755859376,5.598483276367188,2.953338623046875
15.004999999999995,0.6153411865234375,11.011990356445311,4.128991699218751
15.014999999999986,1.729983520507813,11.85926208496094,2.1684234619140628
15.024999999999975,-0.0773101806640625,8.760873413085939,3.139212036132813
15.034999999999968,-0.0462066650390625,8.745770263671876,8.992205810546876
15.04499999999996,-2.1048706054687503,10.746563720703126,11.625836181640626
15.055999999999926,-1.801760864257813,7.865600585937501,6.205300903320313
15.066000000000033,1.941876220703125,9.940414428710938,-3.136370849609375
15.076000000000027,0.6742584228515626,7.368692016601563,-8.529391479492189
15.08600000000002,-2.237359619140625,10.216159057617189,-4.49864501953125
15.097999999999956,-0.129498291015625,11.879748535156253,3.254354858398438
15.105999999999996,-1.4941650390625,8.044296264648438,8.957662963867188
15.115999999999984,0.3865509033203125,7.859619140625001,11.008999633789063
15.125999999999976,2.5512359619140628,8.292227172851563,7.545443725585938
15.135999999999967,2.087225341796876,9.450234985351564,2.086477661132813
15.145999999999958,-1.327880859375,10.89624938964844,-0.838299560546875
15.155999999999947,-0.8994598388671876,9.880001831054688,-1.12750244140625
15.16599999999994,3.594100952148438,8.984130859375,0.9920227050781252
15.17599999999993,0.6450988769531251,8.199215698242188,4.663882446289063
15.185999999999916,-1.4748748779296876,7.883395385742188,5.644540405273438
15.19799999999998,-0.9461151123046876,9.36036376953125,3.4417236328125003
15.206999999999994,0.0572723388671875,9.8729736328125,1.44930419921875
15.216999999999992,-0.8486175537109376,9.803140258789064,1.7905456542968752
15.226999999999975,-2.277435302734375,9.801046752929688,4.9275146484375005
15.236999999999966,-1.5044830322265623,9.061141967773438,6.465942382812501
15.246999999999955,-0.010467529296875,8.529840087890626,4.308584594726563
15.256999999999948,0.046954345703125,8.02410888671875,1.1668304443359376
15.26699999999994,0.0315521240234375,9.85263671875,-0.947760009765625
15.27699999999993,0.7292877197265626,9.623696899414064,0.437542724609375
15.287000000000036,1.0199859619140623,7.535125732421876,3.663037109375
15.297999999999996,0.4792633056640625,5.630783081054688,6.2841064453125
15.307000000000016,0.984844970703125,10.471417236328126,7.697521972656251
15.317000000000007,4.602273559570313,18.14949951171875,5.879312133789063
15.326999999999998,0.591864013671875,11.924459838867188,0.1804901123046875
15.336999999999987,-3.788348388671875,3.4589202880859378,-2.42427978515625
15.347999999999956,-2.254855346679688,6.932495117187501,-0.4427764892578125
15.357999999999947,-1.48040771484375,4.930056762695313,4.477261352539063
15.367999999999938,-2.702267456054688,12.88687438964844,4.683322143554688
15.377999999999927,0.602630615234375,12.292318725585938,0.8525054931640625
15.388000000000034,3.2266906738281254,8.255740356445314,1.6333831787109376
15.398000000000032,0.294287109375,8.119064331054688,8.867791748046876
15.408000000000015,-3.854742431640626,10.738787841796876,12.718347167968751
15.418000000000006,0.2720062255859375,7.811618041992188,6.17344970703125
15.427999999999995,3.905734252929688,9.676333618164064,-4.044204711914063
15.437999999999988,1.1719146728515626,7.473815917968751,-8.53970947265625
15.44799999999998,1.7435913085937502,10.955316162109376,-3.363067626953125
15.45799999999997,-0.6757537841796876,12.244915771484376,5.188455200195313
15.46799999999996,-2.0440093994140627,7.591949462890626,10.184307861328126
15.478999999999928,2.79931640625,6.996197509765626,9.661380004882814
15.489000000000033,-0.615789794921875,8.245571899414063,6.052175903320313
15.49900000000003,-1.4051910400390626,10.32158203125,1.764825439453125
15.509000000000022,-1.69693603515625,11.768792724609376,-1.856640625
15.519000000000004,-0.7405029296875001,9.726278686523438,-2.594451904296875
15.528999999999996,-0.203369140625,7.663726806640626,1.579998779296875
15.538999999999987,-1.2553558349609375,8.420230102539064,5.804394531250001
15.548999999999978,1.1355773925781252,8.06837158203125,6.450241088867188
15.558999999999967,1.5946533203125002,9.537713623046876,3.6349243164062495
15.56899999999996,0.2358184814453125,9.834243774414062,1.4929687500000002
15.57899999999995,-0.0294586181640625,9.606948852539062,2.711090087890625
15.588999999999947,0.4053924560546875,9.366494750976564,6.2302734375
15.60000000000003,0.194097900390625,9.443356323242188,6.437530517578126
15.608999999999924,0.590667724609375,8.943905639648438,3.0780517578125
15.620000000000005,-0.7141845703125,8.412005615234376,-1.3465728759765625
15.629999999999995,-0.52576904296875,10.025201416015626,-3.5087158203125
15.639999999999986,-0.17645263671875,10.119558715820313,0.216827392578125
15.649999999999975,-0.223406982421875,9.210977172851564,5.424871826171875
15.659999999999968,-0.4306640625,6.754098510742188,8.169458007812501
15.66999999999996,-0.1879669189453125,3.7072998046875,8.429501342773438
15.67999999999995,-1.16458740234375,10.797854614257814,5.568426513671875
15.68999999999994,0.5552276611328125,16.1068359375,3.675
15.699999999999932,0.5731719970703125,14.662167358398438,-0.862225341796875
15.709999999999916,-4.1307861328125,5.672802734375001,-2.2663696289062503
15.720000000000027,2.9409271240234376,6.970626831054688,0.1284515380859375
15.730000000000018,3.020928955078125,4.578198242187501,3.932052612304688
15.740000000000007,0.4198974609375,10.099221801757814,3.949996948242188
15.75,1.60721435546875,12.85950927734375,0.9640594482421876
15.759999999999993,0.6249114990234376,9.315353393554688,1.1451477050781251
15.770999999999958,-0.213836669921875,8.09229736328125,8.13895263671875
15.780999999999947,-3.5573150634765627,11.903524780273438,13.617208862304688
15.79099999999994,-1.9432220458984373,6.649124145507813,8.8716796875
15.80099999999993,1.31292724609375,9.092694091796876,-1.223504638671875
15.810999999999916,-0.0681884765625,8.433688354492189,-8.0641845703125
15.821000000000026,-2.49605712890625,9.236846923828123,-6.240142822265626
15.831000000000016,-0.35888671875,13.193572998046877,0.3159698486328125
15.841000000000008,0.27095947265625,8.786892700195313,7.281961059570313
15.851,-1.21602783203125,6.022418212890625,10.459304809570312
15.86099999999999,0.7149322509765625,8.780462646484375,9.270941162109375
15.87099999999998,3.5697265625,9.208584594726563,3.2865051269531254
15.880999999999965,2.7994659423828128,10.320086669921876,-1.1016326904296876
15.890999999999964,-1.6632904052734376,11.466131591796875,-1.703515625
15.900999999999954,1.4252288818359375,8.551522827148439,1.2795806884765626
15.910999999999952,2.7797271728515627,8.334695434570314,5.241989135742188
15.922000000000024,-0.6869689941406251,7.695278930664063,7.042404174804688
15.932000000000016,-1.0712768554687502,8.734405517578125,4.357632446289063
15.942000000000007,-1.0821929931640626,9.669754028320312,0.9748260498046876
15.951999999999998,-2.31063232421875,10.721142578125,-0.0961517333984375
15.961999999999987,-2.541067504882813,9.417337036132814,2.9947601318359376
15.97199999999998,-1.705609130859375,9.474310302734375,6.112139892578125
15.981999999999973,-0.0097198486328125,8.496792602539063,6.019577026367188
15.991999999999962,-0.0605621337890625,7.699017333984376,2.986834716796875
16.001999999999953,0.0725250244140625,9.209930419921877,0.0234771728515625
16.01199999999995,0.4834503173828125,10.224084472656251,-0.4553375244140625
16.02199999999994,1.461865234375,6.639553833007813,2.48887939453125
16.031999999999925,1.14185791015625,7.688699340820313,5.747720336914063
16.043000000000006,1.9646057128906247,11.37012939453125,8.061941528320313
16.05200000000002,5.0291992187500005,15.508541870117188,6.070120239257813
16.062999999999988,0.7104461669921875,11.608938598632813,0.108563232421875
16.07299999999998,-3.888238525390625,3.428414916992188,-1.897463989257813
16.08299999999997,-2.409625244140625,7.844366455078125,-0.532049560546875
16.09299999999996,-1.7014221191406251,6.147430419921876,3.587969970703125
16.102999999999945,-2.4280181884765626,12.295758056640626,4.919290161132813
16.11500000000001,0.561956787109375,11.939263916015626,1.9186981201171875
16.12299999999994,0.3473724365234375,7.472918701171875,3.806442260742188
16.132999999999925,-0.268865966796875,8.667413330078126,8.976504516601564
16.14300000000003,-2.842681884765625,11.086758422851563,9.667510986328123
16.15300000000002,0.5139556884765626,7.593743896484375,3.4529388427734378
16.16300000000001,3.342730712890625,9.980938720703126,-5.1607910156250005
16.172999999999995,1.0513885498046875,7.876516723632813,-7.368542480468751
16.182999999999993,2.835055541992188,10.518670654296876,-0.2071075439453125
16.19299999999999,0.5854339599609375,11.526544189453126,7.831805419921875
16.20399999999995,-1.438836669921875,7.915844726562501,10.9209228515625
16.215000000000025,2.461962890625,7.136312866210938,8.362509155273438
16.22399999999994,-0.2118927001953125,9.132470703125,3.897509765625
16.233999999999924,-2.2962768554687503,10.27552490234375,0.1694244384765625
16.244000000000028,-1.220513916015625,11.21924743652344,-2.757894897460938
16.25400000000002,-0.5447601318359375,9.465786743164063,-2.1392639160156253
16.26400000000001,-2.0936553955078128,7.410711669921875,2.8199523925781254
16.274,-1.167877197265625,8.720199584960938,6.485830688476563
16.284,0.9226379394531252,8.486923217773438,6.455325317382813
16.29399999999999,0.8843566894531251,9.870281982421876,3.6839721679687503
16.303999999999974,0.2675201416015625,9.075946044921876,2.1856201171875003
16.31499999999994,0.6204254150390626,9.761419677734375,3.2144287109375003
16.323999999999955,0.3991119384765625,9.05994567871094,5.990716552734376
16.334999999999916,1.1624938964843752,9.557302856445313,5.091854858398438
16.345000000000027,0.7508209228515625,9.0762451171875,1.5659423828125
16.355000000000018,-0.6926513671875001,8.661581420898438,-1.7540588378906252
16.36500000000001,0.7511199951171875,10.097128295898438,-2.2159759521484377
16.375,-0.6332855224609375,9.546835327148438,2.170217895507813
16.38499999999999,0.1993316650390625,6.462503051757813,5.8371429443359375
16.394999999999982,-0.6341827392578125,6.546691894531251,7.251754760742188
16.404999999999973,-1.471435546875,10.154849243164064,8.027099609375
16.414999999999964,1.282421875,15.37455749511719,6.606506347656251
16.424999999999955,-0.6494354248046875,12.247756958007812,1.996157836914063
16.434999999999945,-3.7398986816406254,6.271246337890625,-1.1031280517578126
16.444999999999936,-0.32838134765625,6.347808837890626,-2.31063232421875
16.454999999999927,1.9731292724609373,6.620114135742188,0.1469940185546875
16.465000000000025,2.4193450927734377,11.016476440429688,2.165133666992188
16.47500000000003,1.591363525390625,12.210073852539065,1.6740570068359375
16.48500000000002,-0.4164581298828125,7.562191772460938,3.9908203125
16.49599999999998,-1.4102752685546875,8.633319091796876,9.673791503906251
16.505999999999965,-0.7213623046875001,11.094833374023438,12.811956787109375
16.515999999999963,2.244985961914063,8.412155151367188,5.815609741210938
16.525999999999954,-0.297576904296875,9.592593383789064,-2.230780029296876
16.53599999999995,-1.8843048095703123,7.434338378906251,-6.373977661132813
