time,ax,ay,az
0.0,7.175640869140626,0.2237060546875,2.9878814697265628
0.0110000000000098,10.785891723632814,-1.0075744628906251,2.2578460693359377
0.0210000000000007,9.036917114257813,-1.84228515625,4.590460205078125
0.0310000000000059,3.2851593017578127,-1.2583465576171875,3.103472900390625
0.0409999999999968,7.337887573242188,-1.56055908203125,6.137860107421876
0.0510000000000019,11.02918701171875,-1.693048095703125,3.925323486328125
0.061000000000007,10.863201904296876,-2.648434448242188,8.24482421875
0.0709999999999979,7.388729858398438,0.3074462890625,5.405731201171875
0.081000000000003,9.458758544921876,0.9589752197265624,2.2013214111328128
0.0919999999999987,9.331503295898438,0.3569427490234375,6.435137939453125
0.100999999999999,5.951089477539063,-0.52935791015625,9.733755493164065
0.1110000000000042,-0.8886932373046875,0.35828857421875,21.258206176757813
0.1210000000000093,-0.4813568115234375,0.017047119140625,-0.1900604248046875
0.1310000000000002,16.208071899414065,1.8986602783203128,12.629971313476563
0.1410000000000053,6.806286621093751,1.4620147705078126,6.56583251953125
0.1510000000000104,4.3951660156250005,-0.499151611328125,0.6302947998046875
0.1610000000000013,11.3408203125,-0.5045349121093751,5.143444824218751
0.1710000000000064,7.866946411132813,-0.7859619140625,4.31322021484375
0.1820000000000021,8.754592895507812,-0.7841674804687501,3.616531372070313
0.1920000000000072,10.220196533203126,-0.9884338378906252,2.9125152587890626
0.2019999999999981,9.356625366210938,-1.9501007080078123,3.7757873535156254
0.2120000000000033,6.892568969726563,-1.4080322265625,4.232470703125
0.2220000000000084,5.778973388671876,-1.212139892578125,10.240084838867189
0.2319999999999993,4.566085815429688,-0.04007568359375,10.1026611328125
0.2420000000000044,7.584472656250001,0.9902282714843752,11.148068237304688
0.2520000000000095,6.374127197265626,1.173260498046875,5.732467651367188
0.2620000000000004,7.581182861328125,1.0491455078125,4.89940185546875
0.2720000000000055,7.691989135742188,1.045108032226563,5.6177734375
0.2820000000000107,7.353140258789063,1.0803985595703125,4.810876464843751
0.2920000000000016,1.5017913818359376,-0.41571044921875,0.77998046875
0.3020000000000067,10.88907165527344,-1.7525634765625002,6.539364624023438
0.3130000000000024,7.964743041992188,-2.502337646484375,9.681866455078126
0.3230000000000075,12.55789489746094,-1.905987548828125,7.71068115234375
0.3329999999999984,10.110885620117188,0.4529449462890625,9.965386962890626
0.3430000000000035,4.464849853515625,-2.240499877929688,14.643475341796876
0.3530000000000086,5.031890869140625,-0.441131591796875,9.864749145507814
0.3629999999999995,4.284210205078125,0.141162109375,0.90260009765625
0.3730000000000046,9.54922790527344,-1.2258972167968751,0.6655853271484375
0.3830000000000098,10.286590576171877,-0.7031188964843751,4.135272216796875
0.3930000000000007,5.002581787109375,0.8554962158203125,3.0965942382812504
0.4030000000000058,8.295965576171875,0.5884246826171875,2.87767333984375
0.4129999999999967,11.52430114746094,0.9558349609375,4.797119140625
0.4230000000000018,11.349343872070314,1.069482421875,6.99649658203125
0.4330000000000069,6.262423706054688,0.427374267578125,3.6181762695312494
0.4429999999999978,8.51099853515625,0.614593505859375,3.2060546875000004
0.4530000000000029,7.575650024414063,-1.0286590576171877,8.17005615234375
0.4639999999999986,0.7684661865234376,-2.6473876953125,17.144317626953125
0.4740000000000037,3.410470581054688,-0.63343505859375,3.5259124755859377
0.4840000000000088,9.260324096679687,-2.609405517578125,8.139550781250001
0.4939999999999998,4.268060302734376,-3.5016876220703126,15.851129150390626
0.5040000000000049,7.965341186523438,-0.0076263427734375,6.253302001953125
0.51400000000001,12.567166137695311,0.6165374755859375,2.4685424804687504
0.5240000000000009,10.311264038085938,0.727642822265625,3.923529052734376
0.534000000000006,8.048483276367188,0.919049072265625,5.101126098632813
0.5439999999999969,4.766763305664063,0.536834716796875,2.3010620117187504
0.554000000000002,4.068878173828125,0.6491363525390625,2.407980346679688
0.5640000000000072,3.851751708984376,1.6426544189453127,5.351449584960938
0.5739999999999981,7.940069580078125,0.75067138671875,5.4479003906250005
0.585000000000008,15.593478393554689,1.3396942138671877,6.344668579101563
0.5949999999999989,11.251397705078126,-0.55328369140625,8.128485107421875
0.605000000000004,8.527896118164064,-3.540716552734376,13.415185546875
0.6150000000000091,-0.3887939453125,-2.516693115234375,15.324462890625002
0.625,1.9539886474609376,-1.4060882568359376,6.434390258789063
0.6350000000000051,7.904928588867188,-1.3106842041015625,2.757745361328125
0.6450000000000102,10.101315307617188,0.143255615234375,2.50921630859375
0.6550000000000011,12.538156127929687,0.240155029296875,3.148333740234375
0.6650000000000063,9.137405395507812,0.98155517578125,5.2235961914062505
0.6749999999999972,7.592996215820313,0.8659637451171875,5.191296386718751
0.6850000000000023,8.751751708984376,0.9709381103515624,5.218362426757813
0.6950000000000074,9.885235595703126,1.1720642089843751,7.562191772460938
0.7049999999999983,3.5860260009765628,2.041766357421875,14.53311767578125
0.7150000000000034,4.366604614257813,0.107965087890625,1.4114715576171877
0.7250000000000085,8.957513427734376,0.5634521484375,3.5015380859375003
0.7349999999999994,7.897152709960938,-0.28052978515625,2.8271301269531253
0.7460000000000093,5.307485961914063,-1.2924407958984376,3.8653594970703127
0.7560000000000002,7.54918212890625,-1.7839660644531252,4.2480224609375
0.7660000000000053,11.266799926757812,-3.7425903320312495,11.56033935546875
0.7760000000000105,7.880554199218751,-2.642303466796875,10.43642578125
0.7860000000000014,6.585272216796875,-1.989129638671875,9.28604431152344
0.7960000000000065,3.050387573242188,-0.3482696533203125,8.472119140625
0.8059999999999974,6.673947143554688,1.4615661621093752,6.833352661132813
0.8160000000000025,7.17833251953125,0.9416290283203126,4.383502197265625
0.8260000000000076,9.069366455078123,0.354998779296875,3.1045196533203128
0.8359999999999985,8.966485595703126,0.5510406494140625,2.905487060546875
0.8460000000000036,8.974859619140625,0.699530029296875,3.178390502929688
0.8560000000000088,8.273684692382814,0.5987426757812501,5.3432250976562505
0.8659999999999997,5.084078979492188,1.8617248535156248,14.01736755371094
0.8760000000000048,6.330313110351563,1.466799926757813,8.687600708007814
0.8870000000000005,6.3774169921875,-1.6713653564453126,3.0373779296875
0.8970000000000056,4.578048706054688,-1.1294464111328126,3.0457519531250004
0.9070000000000108,7.28360595703125,-1.7815734863281252,5.454180908203125
0.9170000000000016,12.740179443359375,-2.505029296875,7.515237426757813
0.9270000000000068,11.688342285156253,-1.2287384033203126,7.155303955078126
0.9369999999999976,6.305938720703126,-1.2088500976562502,7.977752685546876
0.9470000000000028,3.3044494628906254,-1.241448974609375,11.7511474609375
0.9570000000000078,3.6814300537109377,0.7475311279296876,10.705740356445313
0.9669999999999987,9.639398193359376,0.8227478027343751,3.331964111328125
0.977000000000004,9.833645629882811,0.3910369873046875,2.6940429687500003
0.987000000000009,10.535418701171876,0.6133972167968751,4.890280151367188
0.997,8.135662841796876,0.628948974609375,5.063143920898438
1.007000000000005,8.007061767578126,0.83082275390625,5.400198364257813
1.01700000000001,2.7302307128906254,0.9057403564453126,13.111477661132811
1.027000000000001,4.795474243164063,-0.5156005859375,6.477157592773438
1.0379999999999967,13.141235351562502,0.280828857421875,5.193988037109375
1.0480000000000018,8.6072998046875,-0.409130859375,0.6500335693359376
1.058000000000007,6.930551147460938,-0.8387481689453126,3.0876220703125004
1.0679999999999978,7.317700195312501,-0.3614288330078125,4.3162109375
1.078000000000003,6.491213989257813,-1.1249603271484376,8.375967407226563
1.088000000000008,6.211730957031251,-0.9625640869140626,6.5140930175781255
1.097999999999999,9.008206176757811,-2.3191558837890627,8.364752197265625
1.108000000000004,8.236001586914064,-1.905538940429688,8.096633911132812
1.1180000000000092,6.320144653320313,0.269464111328125,9.562985229492188
1.128,4.240695190429688,1.1073150634765625,8.294021606445312
1.1380000000000052,5.671456909179688,1.2942352294921875,8.684609985351564
1.1480000000000103,8.071810913085939,1.0708282470703123,5.084378051757813
1.1580000000000013,9.159088134765623,0.1230682373046875,2.8443267822265628
1.1680000000000064,9.426458740234375,0.145648193359375,2.965301513671875
1.1779999999999973,9.069964599609376,1.3519561767578123,4.900448608398438
1.1890000000000072,6.136663818359375,0.436346435546875,7.14842529296875
1.198999999999998,6.904531860351563,-0.676800537109375,6.522167968750001
1.2090000000000032,5.722598266601563,-1.524072265625,7.888479614257813
1.2210000000000036,5.801104736328125,-1.41162109375,3.659149169921875
1.2289999999999992,5.412161254882813,-1.7676666259765623,4.443615722656251
1.2390000000000043,9.5140869140625,-1.791741943359375,6.7757812500000005
1.2490000000000094,13.027886962890626,-1.161297607421875,7.867245483398438
1.2590000000000003,9.464889526367188,-0.8611785888671876,8.682516479492188
1.2690000000000057,4.522421264648438,-0.96600341796875,10.601214599609376
1.2790000000000106,3.018087768554688,-0.4915252685546875,12.436322021484376
1.2890000000000017,5.211334228515625,1.2955810546875002,10.006808471679689
1.2990000000000066,8.9614013671875,0.4115234375,2.058065795898438
1.3100000000000025,10.385134887695314,0.158209228515625,2.571124267578125
1.3200000000000074,11.158834838867188,0.8892913818359376,4.738201904296876
1.3299999999999983,7.942611694335938,0.8593841552734376,5.1500244140625
1.3400000000000034,7.701260375976563,1.7703582763671877,5.1548095703125005
1.3500000000000083,5.866152954101563,1.8268829345703128,8.258132934570312
1.3599999999999994,5.1657257080078125,0.2504730224609375,5.186062622070313
1.3700000000000043,10.576690673828123,-0.0841888427734375,4.663433837890626
1.3800000000000097,10.19522399902344,-0.325091552734375,3.457125854492188
1.3900000000000006,3.5795959472656254,-0.8469726562500001,1.275393676757813
1.4000000000000057,7.673895263671875,-1.6366729736328127,4.209890747070313
1.4099999999999966,6.555514526367188,-1.457379150390625,5.226885986328125
1.4200000000000017,6.958514404296875,-3.367404174804688,15.408502197265626
1.4300000000000068,8.83758544921875,-1.2537109375000002,7.838385009765625
1.4399999999999975,9.473114013671877,-2.149432373046875,11.546432495117188
1.4500000000000028,3.4608642578125,0.953741455078125,8.243029785156251
1.460000000000008,6.556411743164063,1.00966796875,6.237152099609376
1.4699999999999989,6.670956420898438,0.6123504638671875,6.807632446289063
1.4810000000000088,7.472470092773438,0.9992004394531252,5.767758178710938
1.4920000000000044,8.761322021484375,0.8205047607421876,1.9770172119140623
1.5010000000000048,8.4697265625,0.6029296875000001,3.971978759765625
1.51100000000001,8.540307617187501,0.0725250244140625,5.22000732421875
1.5210000000000008,7.763018798828125,-0.4711883544921875,7.911508178710938
1.531000000000006,6.907821655273438,-0.688763427734375,5.822787475585938
1.5409999999999968,7.158145141601563,-1.4231353759765626,3.9969512939453127
1.551000000000002,5.00108642578125,-1.3171142578125,4.888485717773438
1.561000000000007,3.588568115234376,-1.0448089599609376,2.8751312255859376
1.570999999999998,8.316302490234376,-1.6776458740234377,8.124746704101563
1.581000000000003,15.084756469726564,-0.8611785888671876,8.395706176757812
1.5919999999999987,12.603952026367187,0.5755645751953126,8.942111206054689
1.602000000000004,4.602273559570313,-0.59635009765625,8.568270874023439
1.612000000000009,1.5484466552734375,-0.9580780029296876,13.539300537109376
1.622,2.6420043945312504,0.7227081298828125,13.936767578125002
1.632000000000005,7.414749145507813,0.3013153076171875,1.588970947265625
1.64200000000001,10.219598388671876,0.1386199951171875,1.55697021484375
1.652000000000001,12.31803894042969,0.8362060546875001,4.3667541503906255
1.662000000000006,9.335540771484377,0.624462890625,6.417791748046875
1.671999999999997,6.743182373046875,0.681884765625,4.777230834960938
1.6820000000000022,5.390478515625,1.6752532958984376,9.73001708984375
1.6929999999999978,5.233465576171875,-0.0321502685546875,4.487579345703125
1.7019999999999982,13.754483032226563,0.396270751953125,6.40732421875
1.7120000000000033,7.005917358398438,-0.3385498046875,1.4644073486328126
1.7220000000000084,6.839782714843751,-1.1182312011718751,0.5525360107421875
1.731999999999999,6.004473876953125,-0.7879058837890626,3.3431793212890626
1.7420000000000044,6.377117919921876,-1.103875732421875,5.1612396240234375
1.7520000000000095,8.484231567382814,-1.2107940673828126,4.538870239257813
1.7630000000000052,8.678927612304689,-2.672210693359375,17.052053833007815
1.7730000000000103,8.030688476562501,-1.0262664794921876,11.342764282226565
1.7830000000000013,7.513592529296876,-0.4678985595703125,8.0282958984375
1.7930000000000064,1.987185668945313,0.1613494873046875,8.113980102539063
1.8029999999999973,5.138510131835938,1.0044342041015626,10.813705444335938
1.8130000000000024,7.851095581054688,0.726446533203125,2.9560302734375004
1.8230000000000075,9.136358642578124,-0.088226318359375,2.720660400390625
1.8329999999999984,9.335540771484377,0.1973876953125,2.4595703125000004
1.8430000000000035,9.975704956054688,1.1565124511718752,4.669863891601563
1.8530000000000089,7.805487060546875,0.31402587890625,5.2355590820312505
1.8629999999999995,7.496096801757813,0.3724945068359375,5.516387939453125
1.8730000000000049,3.6084564208984378,-0.0826934814453125,7.203753662109375
1.8830000000000096,9.325820922851562,-0.8468231201171875,4.710238647460938
1.8940000000000048,5.288494873046876,-1.58328857421875,2.7378570556640627
1.9040000000000104,4.549038696289063,-2.233172607421875,6.278125
1.9140000000000013,14.255429077148438,-1.5536804199218752,9.566125488281251
1.9240000000000064,9.7413818359375,-1.0101165771484375,10.182064819335938
1.9339999999999973,5.113836669921875,-0.8806182861328126,8.898745727539064
1.9440000000000024,2.9827972412109376,-0.0551788330078125,11.630172729492188
1.954000000000008,4.815213012695313,0.9903778076171876,11.900534057617188
1.9639999999999984,8.489764404296876,0.7472320556640626,3.251364135742188
1.974000000000004,10.712020874023438,-0.024822998046875,2.170068359375
1.9840000000000089,10.998831176757813,0.444720458984375,4.168917846679688
1.9950000000000043,9.155050659179688,1.2671691894531252,6.894512939453126
2.004000000000005,4.766912841796875,1.5245208740234375,7.8512451171875
2.01400000000001,4.412661743164063,0.619976806640625,3.88973388671875
2.0250000000000057,11.590396118164064,0.0180938720703125,6.3319580078125
2.0349999999999966,8.441613769531251,-1.319805908203125,3.7654693603515614
2.0450000000000017,7.878460693359376,-1.4141632080078126,3.128146362304688
2.055000000000007,7.111489868164063,-1.3725921630859377,3.3059448242187504
2.0649999999999977,6.349603271484376,-1.597943115234375,4.375875854492188
2.075000000000003,5.5904083251953125,-1.6677764892578126,11.360858154296876
2.085000000000008,6.4183898925781255,-0.0725250244140625,8.238244628906251
2.094999999999999,10.228121948242189,-0.9024505615234376,8.206393432617189
2.105000000000004,7.652810668945313,-0.1102081298828125,7.607351684570313
2.115000000000009,6.117373657226563,0.1508819580078125,8.731713867187501
2.125,4.5810394287109375,1.1475402832031252,7.99539794921875
2.135000000000005,6.497195434570313,1.1592041015625,5.651867675781251
2.146000000000001,8.301498413085938,0.4828521728515625,4.1762451171875
2.155000000000001,9.434533691406251,0.222808837890625,3.0783508300781253
2.1650000000000063,9.085516357421875,0.7422973632812501,4.053775024414063
2.174999999999997,7.619464111328125,-0.619976806640625,7.976406860351563
2.186000000000007,6.234161376953126,-1.7311798095703126,9.37576599121094
2.195999999999998,7.152911376953125,-1.157708740234375,7.968331909179688
2.206000000000003,7.002029418945313,-1.179690551757813,5.307186889648438
2.216000000000008,5.983688354492188,-1.4416778564453123,4.798464965820313
2.225999999999999,4.331015014648438,-0.758148193359375,4.631582641601563
2.236000000000004,4.410867309570313,-0.90439453125,4.093252563476563
2.2460000000000093,11.5142822265625,-0.0049346923828125,7.088461303710938
2.256,15.388165283203126,0.481207275390625,8.149270629882814
2.2660000000000053,10.378256225585938,0.6156402587890626,7.298709106445313
2.2760000000000105,4.37542724609375,0.5438629150390626,9.551919555664064
2.2860000000000014,2.1190765380859378,-0.5150024414062501,11.245416259765626
2.2960000000000065,4.158450317382813,0.4595245361328125,9.4064208984375
2.3059999999999974,7.384243774414063,-0.0805999755859375,1.206607055664063
2.317000000000008,10.607794189453124,-0.143853759765625,2.277883911132813
2.326999999999998,11.970965576171876,0.454290771484375,4.958767700195313
2.337000000000004,8.40333251953125,0.9272735595703124,6.218310546875
2.3470000000000084,6.113037109375,-0.0509918212890625,3.851004028320313
2.357,5.047293090820313,-2.4507476806640627,17.553298950195312
2.3670000000000044,5.1204162597656255,-0.5450592041015625,7.084274291992188
2.377000000000009,15.521850585937502,-0.1855743408203125,3.428265380859376
2.3870000000000005,3.20067138671875,-0.43843994140625,0.7750457763671875
2.3970000000000056,7.477853393554688,-0.2818756103515625,2.3427825927734376
2.4070000000000107,6.370687866210938,-0.7120910644531251,4.364959716796875
2.4170000000000016,7.081283569335938,-0.1685272216796875,3.827825927734376
2.4270000000000067,9.085964965820311,0.0429168701171875,4.503729248046875
2.4369999999999976,11.461196899414062,-0.250323486328125,6.0281005859375005
2.4470000000000027,7.648025512695313,-2.48409423828125,15.543682861328126
2.4579999999999984,2.8269805908203125,-0.5100677490234375,14.320327758789064
2.4680000000000035,3.7425903320312495,0.164788818359375,6.587066650390626
2.4780000000000086,8.199514770507813,-0.694744873046875,9.380850219726565
2.4879999999999995,6.3107238769531255,-0.16748046875,2.590264892578125
2.4980000000000047,8.455072021484376,0.735418701171875,3.091061401367188
2.5080000000000098,10.255487060546876,0.4696929931640625,2.7670166015625
2.5180000000000007,9.006860351562501,-0.649884033203125,4.818353271484376
2.528000000000006,7.271343994140626,1.239056396484375,8.0115478515625
2.5379999999999967,6.984982299804688,0.1164886474609375,6.289489746093751
2.548000000000002,8.365798950195312,-1.0851837158203126,4.3861938476562505
2.558000000000007,5.953033447265625,-0.0465057373046875,4.251162719726563
2.567999999999998,3.8276763916015626,-0.4927215576171875,3.4825469970703127
2.578000000000003,5.606558227539063,-0.4777679443359375,4.628741455078125
2.588000000000008,13.240377807617188,-1.0156494140625,7.658642578125001
2.597999999999999,12.651205444335938,-0.0572723388671875,7.438525390625
2.6099999999999994,6.7626220703125,0.0418701171875,9.073553466796875
2.619,3.171063232421876,-0.9846954345703126,12.892108154296876
2.629000000000005,3.7739929199218754,-0.8106353759765625,13.906710815429689
2.63900000000001,6.653909301757813,0.6464447021484375,5.813815307617188
2.649000000000001,9.103759765625,0.241650390625,0.8867492675781251
2.659000000000006,11.44654235839844,-0.122021484375,4.066784667968751
2.668999999999997,10.232757568359377,0.8285797119140625,6.1417480468750005
2.679000000000002,6.462353515625001,0.9434234619140626,3.429611206054688
2.689000000000007,6.647778320312501,1.2867584228515625,5.3332061767578125
2.698999999999998,4.4394287109375,0.0820953369140625,8.924465942382813
2.710000000000008,10.438070678710938,-0.4723846435546875,6.411660766601563
2.7190000000000083,9.075048828125,-0.24583740234375,3.826779174804688
2.728999999999999,6.907073974609376,-1.0772583007812502,0.917852783203125
2.7390000000000043,7.396954345703126,-1.5568206787109375,3.87059326171875
2.75,6.870138549804688,-1.289300537109375,4.826876831054688
2.760000000000005,5.435787963867188,-2.0613555908203125,11.21326599121094
2.7700000000000102,7.49534912109375,-1.1183807373046877,11.374017333984376
2.780000000000001,11.031430053710938,-1.7391052246093752,7.345962524414063
2.7900000000000063,5.679083251953125,-0.7756439208984376,7.625595092773438
2.799999999999997,5.133425903320313,0.232080078125,7.094741821289063
2.8100000000000023,5.924322509765625,0.1972381591796875,9.598126220703126
2.8200000000000074,7.532882690429688,0.0805999755859375,6.668862915039063
2.8299999999999983,8.589804077148438,0.2259490966796875,2.774343872070313
2.8400000000000034,9.545339965820313,0.5643493652343751,2.7335205078125
2.8500000000000085,8.965438842773438,0.734222412109375,4.870989990234375
2.8599999999999994,7.508807373046875,-0.7259979248046875,5.348757934570313
2.8700000000000045,4.967739868164063,-2.2529113769531253,13.253387451171877
2.8800000000000097,5.934939575195313,-0.002392578125,3.675
2.890000000000001,5.792431640625001,-1.1729614257812502,4.875924682617188
2.9010000000000105,5.986978149414063,-0.486590576171875,3.510211181640625
2.9110000000000014,10.44779052734375,-0.4993011474609375,5.828021240234375
2.9210000000000065,12.75169372558594,0.235369873046875,6.183169555664063
2.9309999999999974,9.446795654296876,0.7322784423828126,6.004922485351563
2.9410000000000025,3.7916381835937503,-0.338250732421875,10.119558715820313
2.951000000000008,3.3310668945312503,-0.902899169921875,13.991049194335938
2.9609999999999985,6.757388305664063,-0.4032989501953125,7.201211547851563
2.971000000000004,8.972766113281251,-0.496160888671875,1.7649749755859376
2.9810000000000088,10.400238037109377,-0.1048248291015625,3.840087890625
2.991,9.890768432617188,1.3364044189453126,5.0561157226562505
3.0010000000000048,6.288891601562501,0.3850555419921875,7.249362182617188
3.0120000000000005,2.4428222656250003,-0.0417205810546875,10.420425415039062
3.0220000000000056,8.650665283203125,-0.6652862548828126,7.954873657226563
3.0320000000000107,11.177676391601564,-0.7023712158203126,3.390133666992188
3.0420000000000016,9.03736572265625,-0.5191894531250001,3.289495849609376
3.0520000000000067,7.85543212890625,0.7120910644531251,3.065789794921875
3.0619999999999976,7.2737365722656255,0.1772003173828125,4.267611694335938
3.0720000000000027,5.412759399414063,-1.1650360107421875,5.7230468750000005
3.082000000000008,5.229727172851563,-1.511660766601563,10.582073974609376
3.0919999999999987,8.198468017578126,-1.2412994384765623,6.419586181640626
3.102000000000004,9.172994995117188,-0.7002777099609375,7.332055664062499
3.112000000000009,7.674493408203125,-0.39298095703125,6.981243896484376
3.122,5.541360473632813,0.435150146484375,8.531335449218751
3.132000000000005,5.105014038085938,0.316717529296875,9.546685791015626
3.14200000000001,6.644937133789063,0.1236663818359375,6.506317138671876
3.152000000000001,8.236898803710938,0.331072998046875,3.733917236328125
3.162000000000006,9.239089965820312,0.0524871826171875,3.225045776367188
3.171999999999997,9.151461791992189,0.2139862060546875,4.069326782226563
3.182000000000002,7.333700561523438,0.12860107421875,7.032534790039063
3.192999999999998,5.59384765625,0.127703857421875,9.9949951171875
3.203000000000003,8.156298828125001,-0.9410308837890624,6.313565063476563
3.213000000000008,7.911956787109376,-0.8220001220703126,5.535678100585938
3.222999999999999,6.303695678710938,-1.149783325195313,5.461209106445313
3.233000000000004,4.342230224609375,-0.8403930664062501,5.0894622802734375
3.243000000000009,4.628292846679688,-1.0077239990234377,6.177487182617188
3.253,8.860314941406251,-1.0587158203125,6.837838745117188
3.263000000000005,13.679116821289064,-0.5680877685546876,7.281063842773438
3.2730000000000103,10.864398193359376,-0.8934783935546876,5.067779541015625
3.2830000000000013,6.155654907226563,-1.0048828125,8.919232177734376
3.2930000000000064,3.5722686767578127,0.81885986328125,11.359661865234376
3.3029999999999973,4.447055053710938,0.7861114501953126,8.268151855468751
3.314000000000007,6.909466552734376,0.9525451660156252,3.8381439208984376
3.323999999999998,9.897198486328126,0.9965087890625,3.670364379882813
3.334000000000003,11.366540527343751,0.623565673828125,5.225091552734376
3.3440000000000083,7.389178466796875,1.0292572021484376,6.412258911132813
3.353999999999999,5.2689056396484375,1.0460052490234375,8.714816284179689
3.3640000000000043,6.654357910156251,-0.420196533203125,8.553167724609375
3.374000000000009,8.736050415039063,-0.8480194091796875,6.079690551757813
3.3840000000000003,9.377859497070313,-0.948956298828125,3.1861663818359376
3.394000000000005,8.763565063476562,-0.8284301757812501,2.4836456298828127
3.4040000000000106,7.32786865234375,-1.386050415039063,3.2220550537109376
3.414000000000001,5.816506958007813,-1.19927978515625,4.06558837890625
3.4240000000000066,4.901196289062501,-2.2514160156250003,12.213662719726564
3.4350000000000023,6.866250610351563,-0.40972900390625,7.919583129882813
3.4440000000000026,10.454519653320313,-1.22440185546875,6.634619140625
3.454000000000008,7.821188354492188,-0.0466552734375,7.374523925781251
3.463999999999998,5.951687622070313,0.6368743896484376,8.998037719726563
3.4750000000000085,5.0890136718750005,0.7188201904296876,6.226235961914063
3.4849999999999994,6.158346557617188,1.3094879150390626,7.868142700195313
3.4950000000000045,8.111437988281251,0.9784149169921876,4.323239135742188
3.5050000000000097,9.11856384277344,0.5292083740234376,3.5256134033203126
3.515000000000001,9.127236938476564,0.4031494140625,4.052130126953125
3.5250000000000057,7.8632080078125,-0.4175048828125,5.8191986083984375
3.5349999999999966,6.190347290039063,-1.6978332519531252,10.51837158203125
3.5450000000000017,6.357827758789063,-0.9087310791015626,6.655255126953126
3.555000000000007,5.613137817382813,-0.8447296142578126,4.190899658203126
3.5649999999999977,4.4460083007812505,-0.7897003173828125,3.7964233398437504
3.575000000000003,7.674493408203125,-0.954937744140625,5.344122314453125
3.585000000000008,14.439956665039064,-0.4687957763671875,7.336691284179688
3.594999999999999,13.988357543945314,0.777288818359375,7.220352172851563
3.605000000000004,6.0654846191406255,0.3315216064453125,8.196374511718751
3.616,0.3222503662109375,-1.2381591796875,12.93128662109375
3.6260000000000048,0.6407623291015625,-0.8523559570312501,13.496234130859376
3.63600000000001,8.94166259765625,-0.4708892822265625,2.4106719970703128
3.646000000000001,9.44769287109375,-0.23985595703125,1.4361450195312502
3.656000000000006,12.52320251464844,-0.4616180419921875,2.938983154296875
3.665999999999997,10.75224609375,0.5985931396484375,5.935238647460938
3.676000000000002,6.015988159179688,0.5755645751953126,4.802951049804688
3.686000000000007,6.976159667968751,0.4529449462890625,4.249966430664063
3.695999999999998,9.128732299804687,-0.9171051025390624,5.506369018554688
3.706000000000003,5.7840576171875,-2.394073486328125,17.22043151855469
3.716000000000008,3.71328125,0.6210235595703125,2.278033447265625
3.727000000000004,14.962734985351563,0.3617279052734375,1.4999969482421875
3.736000000000004,4.797268676757813,-0.8420379638671875,3.8441253662109376
3.747,5.611492919921876,-0.3132781982421875,4.698126220703125
3.757000000000005,6.962551879882813,0.2247528076171875,3.421685791015625
3.76700000000001,10.514483642578126,0.7005767822265625,4.5641418457031255
3.777000000000001,9.767849731445311,-1.3634704589843751,10.500576782226563
3.787000000000006,2.572470092773438,-1.4291168212890626,12.401629638671876
3.796999999999997,5.762524414062501,0.5591156005859376,8.748760986328126
3.807000000000002,5.116079711914063,-0.7759429931640626,8.93568115234375
3.8170000000000073,5.579342651367188,-0.6153411865234375,8.844912719726564
3.826999999999998,8.601318359375,0.258697509765625,2.3861480712890626
3.8370000000000033,11.958703613281251,-0.057122802734375,1.7320770263671876
3.847000000000008,9.270941162109375,-0.8243927001953125,4.19598388671875
3.8569999999999993,7.6116882324218755,0.581097412109375,4.809231567382813
3.867000000000005,7.632025146484375,0.20576171875,6.487176513671876
3.8770000000000095,3.812274169921875,-2.1933959960937504,14.537603759765624
3.887000000000001,10.872772216796877,-0.102581787109375,3.700421142578125
3.8980000000000095,6.706695556640626,-1.3971160888671876,4.149777221679688
3.908000000000001,3.7654693603515614,0.31402587890625,3.4557800292968754
3.9180000000000064,3.349310302734376,0.7213623046875001,5.260980224609376
3.927999999999997,8.5427001953125,0.1806396484375,6.312817382812501
3.9380000000000015,13.859756469726564,-0.3389984130859375,7.682269287109375
3.948000000000008,12.154595947265626,-0.8903381347656251,5.299411010742188
3.9579999999999984,6.548037719726563,-1.3417877197265626,8.510699462890626
3.968000000000004,3.1985778808593754,-1.2084014892578123,13.847195434570311
3.9780000000000086,4.61468505859375,0.3979156494140625,9.270941162109375
3.988,6.616375732421876,0.6093597412109375,3.212335205078125
3.9980000000000047,10.070211791992188,0.104974365234375,3.299066162109375
4.00800000000001,11.166311645507813,1.0355377197265625,4.534683227539063
4.018000000000001,7.38170166015625,-0.152825927734375,5.4562744140625
4.029000000000011,6.205151367187501,0.4828521728515625,5.737850952148438
4.037999999999997,6.892419433593751,0.174957275390625,8.86151123046875
4.049000000000007,7.658193969726563,-1.13826904296875,9.427804565429687
4.0589999999999975,9.589602661132814,-1.4700897216796875,4.226190185546876
4.069000000000003,8.787789916992189,-0.3724945068359375,2.485888671875
4.079000000000008,7.236502075195313,-0.5419189453125001,3.71328125
4.088999999999999,6.138757324218751,-0.11962890625,3.744235229492188
4.099000000000004,6.976159667968751,0.456085205078125,4.300360107421875
4.111000000000004,6.293527221679688,-1.2116912841796876,8.8465576171875
4.119,7.850497436523438,-0.5565734863281251,12.68290710449219
4.129000000000005,9.842617797851563,-1.057070922851563,6.111093139648438
4.13900000000001,5.808132934570313,-0.44442138671875,9.187948608398438
4.149000000000001,4.747622680664063,0.4987030029296875,9.503170776367188
4.159000000000006,6.418988037109376,-0.098992919921875,7.012048339843751
4.168999999999997,6.73331298828125,0.382513427734375,3.824087524414063
4.180000000000007,8.868988037109375,0.7436431884765625,3.666177368164063
4.189999999999998,9.668557739257814,-0.337054443359375,2.6346771240234377
4.200000000000003,8.803341674804688,0.0148040771484375,4.603021240234376
4.210000000000008,7.309027099609375,0.429766845703125,6.509606933593751
4.219999999999999,7.0832275390625,-0.3844573974609375,7.085021972656251
4.230000000000004,5.846264648437501,-0.8451782226562501,8.201458740234376
4.240000000000009,4.919589233398438,-0.8362060546875001,5.203408813476563
4.25,3.7576934814453127,-0.67889404296875,4.401446533203125
4.260000000000005,9.253744506835938,-0.5344421386718751,6.310873413085938
4.27000000000001,15.489401245117188,-0.2349212646484375,7.603164672851563
4.280000000000001,12.233551025390623,0.480908203125,6.133523559570313
4.290000000000006,5.107855224609375,-0.5208343505859375,10.007406616210938
4.299999999999997,-0.0435150146484375,-1.8041534423828127,14.97275390625
4.311000000000007,2.212985229492188,-0.7170257568359375,10.999728393554689
4.320999999999998,9.091497802734375,-0.0148040771484375,0.3177642822265625
4.331000000000003,10.260720825195314,-0.4940673828125,1.4560333251953126
4.341000000000008,11.941207885742188,-0.7946350097656251,4.597189331054688
4.350999999999999,9.224285888671876,0.8079437255859375,6.260928344726563
4.361000000000004,6.25120849609375,0.959722900390625,4.125103759765626
4.371000000000009,8.325424194335938,0.615789794921875,4.860073852539063
4.381,9.462796020507811,-1.0307525634765626,6.258984375000001
4.391000000000005,4.965496826171876,-0.7143341064453126,16.802627563476562
4.4010000000000105,2.69224853515625,0.431561279296875,0.025421142578125
4.411000000000001,14.334533691406252,1.0792022705078126,2.910421752929688
4.421000000000007,4.90777587890625,-0.55447998046875,3.5315948486328126
4.430999999999997,5.52685546875,-0.12381591796875,4.806390380859376
4.4410000000000025,8.116372680664064,0.30445556640625,3.2983184814453126
4.451000000000008,10.942156982421876,0.232379150390625,5.679232788085938
4.460999999999999,10.84854736328125,-1.6486358642578127,6.398202514648438
4.471000000000004,3.7161224365234378,-3.3659088134765627,18.44004821777344
4.481999999999999,3.331365966796876,0.1703216552734375,7.853039550781251
4.492000000000004,4.4729248046875005,0.0073272705078125,11.043991088867188
4.5020000000000095,8.141793823242189,0.0423187255859375,1.71248779296875
4.5120000000000005,9.14248962402344,0.3357086181640625,3.241195678710938
4.522000000000006,9.617416381835938,0.3763824462890625,3.0577148437500004
4.532000000000011,9.506011962890623,0.4589263916015625,4.955328369140625
4.542000000000002,8.067623901367188,1.0202850341796876,4.953982543945313
4.552000000000007,8.117718505859376,0.468048095703125,4.691546630859375
4.561999999999998,6.528598022460938,0.4664031982421875,8.721694946289062
4.572000000000003,4.592105102539063,-0.3122314453125,5.823236083984376
4.582000000000008,10.650860595703126,-0.7538116455078125,5.96409912109375
4.591999999999999,1.594952392578125,-0.9197967529296877,4.044503784179688
4.602000000000004,3.4064331054687504,-0.6524261474609375,5.455078125
4.613,7.254296875,-1.6574584960937502,7.92960205078125
4.623000000000005,13.386773681640626,-1.882510375976563,8.332302856445313
4.63300000000001,15.101055908203126,-0.88345947265625,5.888134765625001
4.643000000000001,9.077740478515626,0.21353759765625,5.017086791992188
4.653000000000006,3.999343872070313,-2.260986328125,13.652798461914063
4.662999999999997,-0.243743896484375,-0.8900390625000001,15.465176391601563
4.673000000000002,5.271746826171875,0.7600921630859375,4.1044677734375
4.683000000000007,8.740386962890625,0.4366455078125,3.7877502441406254
4.692999999999998,12.611279296875,0.697735595703125,3.342282104492188
4.703000000000003,9.80777587890625,-0.015850830078125,4.951589965820313
4.713000000000008,7.332055664062499,0.596649169921875,4.304696655273438
4.722999999999999,7.223641967773438,0.7472320556640626,5.038769531250001
4.733000000000004,7.726382446289063,0.1879669189453125,10.3263671875
4.743000000000009,5.275186157226563,-0.53175048828125,6.473419189453126
4.754000000000005,12.562380981445314,-0.8882446289062501,3.622213745117188
4.76400000000001,5.72244873046875,-1.2022705078125,0.5206848144531251
4.774000000000001,5.594744873046875,-0.6690246582031251,3.529800415039063
4.784000000000006,5.745626831054688,0.05921630859375,3.754702758789063
4.793999999999997,7.428057861328125,0.1045257568359375,3.690402221679688
4.804000000000002,10.919876098632812,-0.2531646728515625,5.861367797851563
4.814000000000007,10.967578125,0.074169921875,5.871087646484376
4.823999999999998,5.774038696289063,-2.685968017578125,18.510928344726565
4.834000000000003,3.2316253662109378,-0.1111053466796875,9.738690185546876
4.844000000000008,6.239993286132813,-1.13946533203125,8.430398559570314
4.853999999999999,5.702410888671875,-0.777288818359375,6.388632202148438
4.864000000000004,7.6789794921875005,0.8347106933593751,3.2216064453125
4.874000000000009,9.25150146484375,0.6645385742187501,3.061602783203125
4.884,10.78394775390625,-0.48389892578125,3.2839630126953128
4.89500000000001,7.832104492187501,-0.8743377685546876,4.395315551757813
4.905000000000001,6.8894287109375005,-0.8961700439453125,8.17783203125
4.915000000000006,5.070919799804688,-1.62635498046875,12.576437377929688
4.924999999999997,6.293527221679688,-0.6881652832031251,3.2685607910156254
4.935000000000002,5.881854248046875,-0.8695526123046876,2.788400268554688
4.945000000000007,7.642642211914063,-0.0677398681640625,2.9895263671875
4.954999999999998,11.674734497070313,-0.290399169921875,9.709829711914065
4.965000000000003,11.360708618164065,0.524273681640625,8.29267578125
4.9750000000000085,6.20694580078125,-0.98035888671875,7.877413940429688
4.984999999999999,2.838494873046875,-1.254608154296875,11.610882568359376
4.9950000000000045,5.3212432861328125,0.674407958984375,8.381948852539063
5.00500000000001,7.777374267578126,-0.15970458984375,2.268911743164063
5.015000000000001,9.368289184570314,-0.1906585693359375,2.3042022705078127
5.025000000000006,10.93707275390625,0.8807678222656251,4.958468627929688
5.036000000000001,9.248660278320314,1.1684753417968752,5.819796752929688
5.046000000000007,5.791983032226563,-0.3306243896484375,6.872830200195313
5.055999999999997,2.567535400390625,0.0094207763671875,14.7610107421875
5.0660000000000025,9.590948486328124,-0.2966796875,5.34801025390625
5.076000000000008,11.878402709960938,-0.52337646484375,2.9993957519531254
5.085999999999999,7.456021118164063,-0.2432952880859375,1.7595916748046876
5.096000000000004,7.3583740234375,0.58438720703125,3.897659301757813
5.106000000000009,6.816903686523438,-0.660650634765625,4.096990966796875
5.116,5.0561157226562505,-2.125357055664063,9.889273071289065
5.128,6.149822998046876,-1.0262664794921876,6.896008300781251
5.13600000000001,10.077688598632813,-1.3404418945312502,6.857876586914063
5.146000000000001,8.833248901367188,-0.9401336669921876,7.055563354492188
5.156000000000006,6.935934448242188,0.035589599609375,7.279867553710938
5.165999999999997,5.229278564453125,0.784765625,8.536868286132814
5.176000000000002,5.337094116210938,-0.1686767578125,8.614627075195314
5.186000000000007,6.54429931640625,0.612799072265625,6.10107421875
5.197000000000003,8.471820068359376,0.3016143798828125,3.586175537109375
5.207000000000008,9.69293212890625,0.3153717041015625,3.4752197265625004
5.216999999999999,9.349597167968753,0.34991455078125,4.58238525390625
5.227000000000004,7.052124023437501,-0.1311431884765625,7.326373291015625
5.237000000000009,5.211334228515625,-0.097198486328125,10.683609008789062
5.247,7.615875244140626,-1.110903930664063,5.5077148437500005
5.257000000000005,6.905279541015625,-0.93968505859375,4.266415405273438
5.26700000000001,6.18541259765625,-0.91815185546875,4.19598388671875
5.277000000000001,5.438031005859376,-1.0528839111328123,4.8748779296875
5.287000000000006,9.413449096679688,-1.5841857910156252,8.299853515625001
5.296999999999997,12.178372192382811,0.0348419189453125,9.272735595703123
5.307000000000002,8.588308715820313,-0.7029693603515625,6.703555297851563
5.317000000000007,4.633526611328126,-0.3028106689453125,8.584719848632814
5.328000000000003,4.05960693359375,1.4066864013671876,10.155447387695313
5.338000000000008,6.405529785156251,0.5528350830078126,4.770352172851563
5.347999999999999,7.976705932617188,0.52457275390625,2.482150268554688
5.358000000000004,9.877160644531251,1.00428466796875,4.34970703125
5.368000000000009,10.810266113281251,0.3823638916015625,6.2210021972656255
5.378,6.436932373046876,-1.33804931640625,10.9807373046875
5.388000000000005,6.204104614257813,-0.021234130859375,8.5020263671875
5.39800000000001,6.958813476562501,-0.4457672119140625,7.842572021484376
5.408000000000001,9.231463623046876,-0.8665618896484376,4.0721679687500005
5.418000000000006,8.502175903320314,-1.2353179931640623,2.44700927734375
5.427999999999997,7.739242553710938,-0.629248046875,2.9923675537109378
5.438000000000002,7.646231079101563,-0.6132476806640625,3.948501586914063
5.448999999999998,6.6441894531250005,-0.6471923828125,4.398306274414063
5.457999999999998,4.979104614257813,-0.3840087890625,12.447238159179689
5.468000000000004,8.161233520507814,0.267071533203125,6.743331909179688
5.478999999999999,9.930694580078123,-0.2005279541015625,6.035128784179688
5.489000000000004,7.719055175781251,-0.017047119140625,6.196478271484375
5.499000000000009,5.558856201171875,0.38939208984375,8.683114624023439
5.509,4.597787475585938,-0.1395172119140625,8.457015991210938
5.5190000000000055,6.049633789062501,-0.246136474609375,7.18790283203125
5.529000000000011,7.650717163085938,0.5987426757812501,5.001983642578125
5.5390000000000015,9.567770385742188,-0.16209716796875,4.079046630859375
5.549000000000007,9.602911376953124,-0.466851806640625,3.878369140625
5.5589999999999975,8.06597900390625,-0.7454376220703125,6.687255859375001
5.569000000000003,6.007614135742188,-0.3931304931640625,9.124844360351563
5.579000000000008,6.780865478515626,-0.6730621337890625,6.744229125976563
5.588999999999999,6.537420654296875,-0.959423828125,4.565188598632813
5.599000000000004,6.125897216796876,-0.441131591796875,4.332061767578125
5.609999999999999,5.714523315429688,-0.331072998046875,4.169964599609376
5.6200000000000045,8.610140991210939,-0.7288391113281251,6.459213256835938
5.63000000000001,12.383685302734376,0.9084320068359376,9.228921508789064
5.640000000000001,10.317544555664064,0.3361572265625,8.073904418945313
5.650000000000006,4.262078857421876,-0.6628936767578125,8.276675415039064
5.659999999999997,2.894122314453125,-0.2247528076171875,11.251696777343753
5.670000000000002,5.8151611328125,-0.2845672607421875,6.9516357421875
5.680000000000007,9.24671630859375,-0.7251007080078126,2.392279052734376
5.689999999999998,9.726727294921876,-0.40733642578125,3.247775268554688
5.700000000000003,10.994494628906253,0.7861114501953126,6.203506469726563
5.710000000000008,7.844815063476563,0.49287109375,5.089611816406251
5.719999999999999,4.0187835693359375,-1.535137939453125,14.0767333984375
5.730000000000004,4.024465942382813,0.286810302734375,7.3828979492187505
5.740000000000009,12.765301513671876,-1.2692626953125,5.5750061035156255
5.751000000000005,7.817898559570313,0.0773101806640625,2.0869262695312503
5.760000000000005,8.641992187500001,0.7976257324218751,2.875729370117188
5.771000000000001,7.104013061523438,0.5224792480468751,4.001437377929688
5.781000000000006,6.204104614257813,-0.0862823486328125,4.123159790039063
5.790999999999997,4.953982543945313,-0.2117431640625,7.456021118164063
5.801000000000002,8.823529052734376,-0.656463623046875,7.099826049804688
5.811000000000007,9.331802368164062,-1.7655731201171876,8.495147705078125
5.820999999999998,8.185906982421876,-1.5511383056640626,6.641647338867188
5.831000000000003,5.558706665039063,-0.4182525634765625,9.326718139648438
5.841000000000008,4.69364013671875,-0.057421875,9.421224975585938
5.850999999999999,5.872283935546875,-0.2332763671875,7.301400756835938
5.861000000000004,7.430001831054688,0.2352203369140625,5.879461669921875
5.871000000000009,9.483731079101563,0.1179840087890625,3.1982788085937504
5.881,9.744522094726562,0.13817138671875,3.5306976318359378
5.891000000000005,8.210430908203126,0.775494384765625,4.9005981445312505
5.9010000000000105,6.556411743164063,0.784466552734375,7.672549438476563
5.912000000000006,6.667068481445313,-0.366363525390625,7.732363891601563
5.921999999999997,7.310372924804688,-1.0427154541015626,6.810324096679688
5.932000000000002,7.352691650390626,-1.113894653320313,6.031240844726563
5.942000000000007,5.627941894531251,-0.344830322265625,4.780072021484376
5.951999999999998,4.7675109863281255,-0.307147216796875,3.960015869140625
5.962000000000003,5.4947052001953125,-1.1183807373046877,6.0131469726562505
5.972000000000008,12.3205810546875,-1.3111328125,8.838333129882812
5.981999999999999,14.006002807617188,0.3952239990234375,8.028146362304689
5.992000000000004,8.78614501953125,-0.5797515869140626,6.247320556640625
6.0020000000000095,2.794232177734376,-1.1122497558593751,11.000027465820311
6.0120000000000005,2.577105712890625,0.9712371826171876,11.651705932617189
6.022000000000006,5.38629150390625,0.5806488037109375,4.000689697265625
6.032000000000011,8.229571533203126,0.079254150390625,1.819705200195313
6.042000000000002,11.293267822265626,0.1789947509765625,3.5187347412109378
6.052999999999997,11.753988647460938,-0.040374755859375,5.6177734375
6.063000000000002,7.115078735351563,0.334661865234375,4.947702026367188
6.073000000000008,6.1022705078125,-0.5132080078125001,9.584967041015624
6.082999999999998,3.225942993164063,-1.53304443359375,15.1055419921875
6.093000000000004,11.471664428710938,-1.1560638427734375,4.8606719970703125
6.103000000000009,7.419384765625001,-1.3118804931640626,1.8034057617187504
6.113,8.173794555664063,-0.0309539794921875,1.1968872070312502
6.123000000000005,7.400393676757813,-0.2352203369140625,4.342678833007813
6.13300000000001,6.234310913085938,0.681884765625,3.961959838867188
6.143000000000001,7.1526123046875005,0.8314208984375001,4.187759399414063
6.153000000000006,8.707788085937501,0.5172454833984376,6.895260620117188
6.162999999999997,5.881854248046875,-0.7418487548828125,12.690982055664064
6.173000000000002,11.504412841796876,-0.523077392578125,5.898602294921876
6.183000000000007,3.803451538085938,-0.148638916015625,8.57559814453125
6.192999999999998,3.892276000976562,0.09989013671875,9.26346435546875
6.204000000000008,7.091302490234376,-0.8154205322265625,7.028945922851563
6.213999999999999,7.371832275390625,-0.0587677001953125,4.30723876953125
6.224000000000004,9.547134399414062,-0.0088226318359375,3.1146881103515627
6.234000000000009,10.125689697265626,-0.5546295166015626,4.188058471679688
6.244,8.33753662109375,-0.5175445556640625,5.157501220703125
6.254000000000005,5.469882202148438,-1.0972961425781251,12.482827758789064
6.26400000000001,6.073709106445313,-0.0674407958984375,6.332257080078126
6.274000000000001,5.813366699218751,-0.6416595458984375,4.643695068359375
6.284000000000006,5.82891845703125,0.7381103515625,3.474172973632813
6.293999999999997,7.809225463867188,0.1447509765625,3.8867431640625
6.304000000000002,12.24207458496094,0.296978759765625,6.942813110351563
6.314000000000007,11.318688964843751,0.7913452148437501,7.93917236328125
6.323999999999998,6.085223388671875,-0.7367645263671876,9.334344482421876
6.335000000000008,2.050140380859375,-1.2804779052734376,11.44669189453125
6.344999999999999,4.6359191894531255,-1.000247192382813,9.903030395507812
6.355000000000004,8.31959228515625,-0.8196075439453125,2.8712432861328128
6.365000000000009,10.00994873046875,-0.8703002929687501,2.134030151367188
6.375,10.937222290039063,-0.22789306640625,4.2471252441406255
6.385000000000005,8.735452270507814,0.7991210937500001,6.062045288085938
6.39500000000001,5.918341064453125,-1.051239013671875,7.749560546875
6.405000000000001,2.6117980957031253,-0.6412109375,14.336178588867188
6.415000000000006,11.480636596679688,-0.6437530517578125,4.947552490234376
6.424999999999997,8.336041259765626,-0.5830413818359376,3.421237182617188
6.435000000000002,8.477502441406251,1.6112518310546875,3.299066162109375
6.445000000000007,7.344467163085938,1.1997283935546876,3.629690551757813
6.454999999999998,7.0616943359375,0.7032684326171875,4.411016845703125
6.465000000000003,5.453134155273438,-0.611602783203125,7.3583740234375
6.4750000000000085,7.0593017578125,-0.71119384765625,7.630081176757813
6.486000000000004,9.616818237304688,-1.2801788330078123,5.678784179687501
6.496000000000009,8.991159057617189,-1.585382080078125,6.946401977539063
6.506,6.152215576171876,-0.8824127197265625,8.774630737304689
6.516000000000005,5.232119750976563,-0.067291259765625,8.652310180664063
6.528000000000006,5.0734619140625,-0.10706787109375,7.443011474609375
6.536000000000001,7.224838256835938,-0.3644195556640625,6.174795532226563
6.546000000000007,8.298507690429688,-0.073272705078125,4.739398193359375
6.555999999999997,9.626687622070314,0.04306640625,4.201516723632813
6.5660000000000025,8.769247436523438,0.6177337646484375,4.459765625
6.576000000000008,7.078292846679688,0.6750061035156251,8.281011962890625
6.585999999999999,6.4791015625,0.1754058837890625,7.541555786132813
6.596000000000004,7.327270507812501,-0.2148834228515625,6.456222534179688
6.606999999999999,7.547836303710938,-0.65616455078125,6.270199584960938
6.616,7.067825317382813,-0.6148925781250001,5.554071044921876
6.628,5.6357177734375,-0.6506317138671875,4.646237182617188
6.6370000000000005,4.70440673828125,-1.11195068359375,5.280569458007813
6.647000000000006,5.5196777343750005,-1.5257171630859376,6.626544189453125
6.657000000000011,12.647317504882814,-1.0436126708984377,8.565728759765626
6.667000000000002,13.568609619140624,-0.6162384033203125,6.217712402343751
6.677000000000007,8.741134643554688,-1.395022583007813,5.803347778320313
6.686999999999998,3.056219482421876,-0.14415283203125,10.2318603515625
6.697000000000003,3.100631713867188,1.0608093261718752,10.63904724121094
6.707000000000008,4.874728393554688,1.0036865234375,5.628689575195313
6.716999999999999,8.281011962890625,0.562255859375,2.769857788085938
6.728000000000009,12.354376220703124,0.622967529296875,4.135870361328125
6.737000000000009,11.58426513671875,0.8272338867187501,5.368496704101563
6.748000000000005,5.660540771484375,0.55926513671875,9.521563720703126
6.757000000000005,2.5325439453125003,0.8583374023437501,10.202252197265626
6.76700000000001,9.7318115234375,-0.287109375,7.516134643554688
6.778000000000006,8.599822998046875,-1.1853729248046876,3.8795654296875
6.787999999999997,8.506063842773438,-0.8526550292968751,2.2890991210937504
6.798000000000002,8.223739624023438,-0.7434936523437501,2.32259521484375
6.808000000000007,7.928555297851563,-1.3534515380859375,3.684420776367188
6.817999999999998,5.954080200195313,-1.36556396484375,4.0972900390625
6.828000000000003,6.208889770507813,-1.152923583984375,8.126840209960939
6.838000000000008,6.575701904296875,-0.5354888916015625,14.638540649414065
6.847999999999999,10.626336669921876,-1.0250701904296875,6.587664794921875
6.858000000000004,7.690643310546876,-0.2678192138671875,4.977310180664063
6.868000000000009,5.063742065429688,0.062506103515625,8.779714965820313
6.878,3.981100463867188,0.6652862548828126,8.364602661132814
6.888000000000005,6.632675170898438,1.1432037353515625,6.101971435546876
6.89800000000001,7.890872192382813,0.8194580078125001,3.9326507568359377
6.908000000000001,10.105950927734376,0.341839599609375,3.452340698242188
6.918999999999997,10.539306640625,0.4003082275390625,4.1443939208984375
6.929000000000002,8.119512939453125,0.11065673828125,5.472872924804688
6.939000000000007,4.036578369140625,-1.3763305664062502,11.870925903320312
6.948999999999998,7.158294677734376,-0.9416290283203126,6.2374511718750005
6.959000000000003,5.216867065429688,-1.4406311035156252,4.962506103515626
6.969000000000008,6.053970336914063,-0.7529144287109375,3.749917602539063
6.978999999999999,7.196725463867188,-0.8055511474609376,4.2635742187500005
6.989000000000004,11.47525329589844,-0.2462860107421875,7.702755737304688
6.999000000000009,11.619854736328126,-0.04007568359375,7.813861083984375
7.010000000000005,6.719854736328125,-0.5689849853515625,8.58038330078125
7.02000000000001,3.284561157226563,-0.2189208984375,11.341119384765626
7.030000000000001,4.886691284179688,0.2086029052734375,10.141091918945314
7.0390000000000015,7.513742065429688,-0.0811981201171875,3.93818359375
7.049999999999997,9.159237670898438,0.368756103515625,2.493963623046876
7.060000000000002,10.494744873046876,1.2475799560546876,4.995703125
7.070000000000007,8.337686157226564,0.7367645263671876,4.395315551757813
7.079999999999998,6.800305175781251,-0.1969390869140625,6.331060791015625
7.090000000000003,2.9795074462890625,-0.6267059326171875,12.56641845703125
7.1000000000000085,10.813107299804688,-0.4580291748046875,6.872531127929688
7.109999999999999,10.0978759765625,-0.99949951171875,3.2826171875
7.1200000000000045,8.64139404296875,-0.0453094482421875,2.8652618408203128
7.13000000000001,7.057208251953125,0.452197265625,4.133627319335938
7.140000000000001,5.6763916015625,-1.466949462890625,8.084671020507812
7.150000000000006,5.67698974609375,-1.4362945556640625,6.460110473632813
7.159999999999997,6.70938720703125,-0.6823333740234375,6.184515380859375
7.170000000000002,8.445651245117189,-0.6418090820312501,6.665423583984375
7.180000000000007,9.619808959960938,-0.5015441894531251,7.161434936523438
7.189999999999998,7.1047607421875005,-0.1942474365234375,7.123004150390625
7.201000000000008,5.806039428710938,0.654669189453125,8.800949096679688
7.2109999999999985,5.249017333984376,0.34034423828125,8.281909179687501
7.221000000000004,6.68785400390625,0.0979461669921875,6.798809814453126
7.231000000000009,8.035922241210939,0.675604248046875,4.0470458984375
7.241,9.31729736328125,-0.105572509765625,3.440078735351563
7.251000000000005,9.102114868164064,0.0623565673828125,4.2456298828125005
7.26100000000001,6.959112548828125,-0.158807373046875,8.312564086914064
7.271000000000001,5.9563232421875005,-0.3768310546875,8.535073852539064
7.281000000000006,7.655352783203125,-0.672314453125,6.936383056640626
7.290999999999997,7.653109741210938,-1.5124084472656252,6.055166625976563
7.301000000000002,6.396408081054688,-0.70521240234375,5.300308227539063
7.311000000000007,4.945309448242188,-0.25361328125,4.43883056640625
7.320999999999998,4.795623779296875,-1.2119903564453125,5.657849121093751
7.332000000000008,9.511096191406253,-0.5912658691406251,7.989117431640626
7.341999999999999,13.65205078125,-0.0776092529296875,6.902288818359375
7.352000000000004,10.493997192382814,0.353802490234375,4.893719482421876
7.362000000000009,4.900299072265625,0.0240753173828125,9.357223510742188
7.372,3.027508544921876,0.573919677734375,11.336633300781251
7.382000000000005,4.815213012695313,0.8839080810546875,8.180224609375001
7.39200000000001,7.703054809570313,0.4018035888671875,2.391531372070313
7.402000000000001,10.546185302734376,0.0118133544921875,3.3250854492187503
7.412000000000006,11.38807373046875,-0.5873779296875,4.870391845703125
7.421999999999997,7.352093505859376,-0.775494384765625,5.786599731445313
7.432000000000002,4.1728057861328125,-0.88345947265625,13.162319946289063
7.442000000000007,6.613385009765626,-0.8976654052734375,8.291329956054689
7.451999999999998,9.105853271484376,-1.31173095703125,5.86002197265625
7.462000000000003,9.584069824218751,-0.70281982421875,1.7003753662109375
7.472000000000008,8.698367309570314,-0.9200958251953124,2.5328430175781254
7.481999999999999,7.427609252929688,-0.38221435546875,3.682476806640625
7.493000000000009,6.804193115234376,0.3853546142578125,4.497448730468751
7.503,5.067929077148438,0.018243408203125,7.420730590820313
7.513000000000005,4.766613769531251,0.944769287109375,12.996484375
7.52300000000001,12.284243774414064,-0.200677490234375,4.8886352539062505
7.533000000000001,8.109643554687501,0.5579193115234375,6.398052978515626
7.545000000000002,4.93289794921875,0.6113037109375,6.55386962890625
7.552999999999997,5.16497802734375,-0.079852294921875,9.252398681640626
7.563000000000002,4.910617065429688,-0.4954132080078125,8.500531005859376
7.573000000000007,8.190841674804688,-0.2253509521484375,4.433596801757813
7.582999999999998,9.78968200683594,-0.8764312744140625,3.312823486328125
7.5930000000000035,9.381448364257814,-0.8450286865234375,3.8979583740234376
7.603000000000009,8.120111083984376,-1.4798095703125,6.741836547851563
7.612999999999999,5.352496337890625,-0.348419189453125,9.693679809570312
7.623000000000005,5.841778564453126,-0.359783935546875,5.695233154296876
7.634,5.547640991210938,0.3289794921875,4.875027465820313
7.64500000000001,7.492657470703126,-0.1447509765625,5.24393310546875
7.654000000000011,11.241677856445314,0.26378173828125,6.888232421875
7.6640000000000015,11.269491577148438,0.9371429443359376,5.678335571289063
7.674000000000007,6.54130859375,-0.100787353515625,7.161883544921875
7.683999999999997,2.2096954345703126,-1.0223785400390626,11.454019165039064
7.694000000000003,5.118173217773438,-0.8761322021484376,10.600466918945314
7.704000000000008,8.175888061523438,-0.822149658203125,3.948202514648438
7.713999999999999,9.947592163085938,-0.6240142822265625,3.187362670898438
7.724000000000004,10.827014160156253,0.1057220458984375,5.28580322265625
7.734000000000009,8.099026489257813,0.0991424560546875,5.94376220703125
7.745000000000003,4.834054565429688,-0.3129791259765625,10.068865966796876
7.754000000000005,6.264666748046875,-1.2323272705078123,7.290185546875
7.765000000000001,8.111437988281251,-0.4391876220703125,7.726382446289063
7.775000000000006,9.684109497070311,0.05084228515625,3.544305419921875
7.784999999999997,9.215164184570312,0.6584075927734375,2.5101135253906253
7.795000000000002,8.43623046875,0.964208984375,4.1219635009765625
7.805000000000007,7.506863403320313,0.6030792236328125,4.453485107421876
7.814999999999998,5.064639282226563,-0.4403839111328125,3.478509521484375
7.825000000000003,4.676443481445313,-1.1928497314453126,12.538156127929687
7.835000000000008,9.312661743164064,-0.6090606689453125,7.2483154296875005
7.844999999999999,9.235949707031253,-1.7874053955078126,5.486630249023438
7.855000000000004,7.119265747070313,-0.3911865234375,6.859371948242188
7.865000000000009,5.054171752929688,-0.36307373046875,10.23111267089844
7.875,5.163482666015625,-0.1463958740234375,8.385238647460938
7.885000000000005,6.87327880859375,0.1825836181640625,5.806488037109375
7.89500000000001,8.583074951171875,0.0095703125,4.626947021484376
7.906000000000006,9.877908325195314,-0.0916656494140625,3.8635650634765626
7.915999999999997,9.146975708007814,0.184228515625,4.238302612304688
7.926000000000002,6.3917724609375,0.4080841064453125,8.401687622070312
7.936000000000007,5.947949218750001,0.4975067138671875,8.03128662109375
7.945999999999998,7.196875,-0.3333160400390625,5.76431884765625
7.956000000000003,7.282559204101563,-0.7434936523437501,4.823138427734375
7.966000000000008,6.468634033203125,-0.6720153808593751,4.66253662109375
7.975999999999999,5.008862304687501,-0.73212890625,4.780670166015625
7.986000000000004,8.400192260742188,-1.332366943359375,7.746868896484376
7.996000000000009,12.789227294921876,-0.395074462890625,9.708782958984376
8.006,9.462197875976564,-0.8577392578125,6.522317504882813
8.016000000000005,5.089312744140625,-0.7375122070312501,7.735354614257813
8.02600000000001,3.7678619384765626,0.3958221435546875,11.053860473632811
8.036000000000001,6.053372192382813,0.5235260009765625,7.402487182617188
8.046999999999997,7.473965454101563,0.34991455078125,2.070477294921876
8.055999999999997,9.911105346679689,-0.263482666015625,3.267962646484375
8.067000000000007,11.083169555664064,0.340045166015625,5.716317749023438
8.076999999999998,8.449539184570312,0.7916442871093751,5.717813110351563
8.087000000000003,3.3910308837890626,-0.6957916259765625,12.267645263671875
8.097000000000008,7.8733764648437505,0.36666259765625,8.624496459960938
8.107,8.493353271484375,-1.239056396484375,6.42825927734375
8.117000000000004,9.575994873046875,-0.3959716796875,1.940231323242188
8.12700000000001,7.735653686523438,-0.3769805908203125,2.178292846679688
8.137,7.854833984375,-0.5133575439453125,3.710739135742188
8.147000000000006,6.635665893554688,-0.139666748046875,4.336996459960938
8.15700000000001,5.070770263671875,-0.7333251953125001,7.192538452148438
8.167000000000002,6.538168334960938,-0.106170654296875,11.961843872070313
8.177000000000007,10.301843261718751,-1.2069061279296875,6.998739624023438
8.186999999999998,8.169757080078126,-0.4382904052734375,6.018978881835938
8.198000000000008,6.124102783203125,0.25780029296875,6.623553466796875
8.207999999999998,4.876373291015625,-0.0131591796875,9.061740112304689
8.218000000000004,5.8857421875,-0.3997100830078125,7.958462524414063
8.228000000000009,7.713671875,0.3816162109375,4.473522949218751
8.238,9.236846923828123,0.6610992431640625,3.1924468994140627
8.248000000000005,9.594088745117189,0.0683380126953125,4.263873291015625
8.25800000000001,8.053567504882814,-0.8752349853515625,6.443362426757813
8.268,5.747869873046875,0.075067138671875,9.75394287109375
8.278000000000006,6.390426635742188,-0.4649078369140625,6.571963500976563
8.287999999999997,6.267956542968751,-0.9305633544921876,4.1503753662109375
8.298000000000002,5.6228576660156255,-0.26737060546875,4.0621490478515625
8.308000000000007,5.893817138671875,-0.6760528564453125,3.5810913085937504
8.317999999999998,12.170147705078126,-0.3267364501953125,7.001730346679688
8.328000000000003,13.841363525390626,0.9978546142578124,9.409262084960938
8.338000000000008,7.179528808593751,-0.597845458984375,8.514288330078125
8.349000000000004,2.1281982421875,-0.8184112548828125,10.9376708984375
8.359000000000009,2.3592315673828126,-0.7965789794921876,13.625433349609375
8.369,7.521966552734375,-0.7689147949218751,4.4059326171875
8.379000000000005,9.169406127929689,-0.6865203857421875,1.0368835449218752
8.38900000000001,10.589251708984376,-0.5879760742187501,3.159100341796876
8.399000000000001,11.007653808593751,0.6129486083984376,5.4707794189453125
8.409000000000006,7.669857788085938,1.15621337890625,5.644989013671875
8.418999999999997,6.251657104492188,0.34273681640625,3.4927154541015626
8.429000000000002,6.175842285156251,-2.135226440429688,15.784884643554689
8.439000000000007,3.587969970703125,-0.1519287109375,9.483282470703124
8.448999999999998,16.410693359375003,1.002789306640625,1.999447631835937
8.459000000000003,4.774240112304688,-0.099591064453125,1.720562744140625
8.469000000000008,7.060647583007813,0.3019134521484375,4.220956420898438
8.479,5.580239868164063,-0.23985595703125,3.9938110351562495
8.490000000000009,6.151617431640625,-0.0497955322265625,3.1821289062500004
8.5,9.022561645507814,0.20277099609375,4.392324829101563
8.510000000000005,12.376806640625,-1.0232757568359376,6.621459960937501
8.52000000000001,5.944659423828125,-3.4972015380859376,16.486059570312502
8.530000000000001,4.593301391601563,-0.2953338623046875,6.7952209472656255
8.540000000000006,6.029147338867188,-0.906787109375,10.689291381835938
8.549999999999997,4.606460571289063,-0.2758941650390625,8.138354492187501
8.560000000000002,7.549630737304688,0.3201568603515625,4.1847686767578125
8.570000000000007,8.763714599609376,0.5490966796875001,2.8814117431640627
8.579999999999998,10.875314331054687,0.1583587646484375,3.5991851806640627
8.590000000000003,7.840328979492188,0.5653961181640625,4.5985351562500005
8.600000000000009,7.749261474609375,1.4845947265625,7.22080078125
8.61,3.0577148437500004,0.76383056640625,6.680975341796875
8.620000000000005,12.71341247558594,-0.91456298828125,5.515341186523438
8.631,6.658544921875,-0.5788543701171875,4.459317016601563
8.641000000000005,7.340280151367188,0.243743896484375,4.993609619140625
8.65100000000001,5.245877075195313,-0.7164276123046875,4.995404052734376
8.661000000000001,3.850405883789063,-1.1010345458984376,7.30155029296875
8.671000000000006,4.73192138671875,-1.072024536132813,7.315606689453125
8.680999999999997,10.082473754882812,-1.8388458251953128,5.0311431884765625
8.691000000000003,15.067559814453126,-1.191204833984375,7.551724243164063
8.701000000000008,12.740029907226564,-0.1003387451171875,8.290881347656251
8.710999999999999,5.313766479492188,-0.7617370605468751,8.499932861328126
8.721000000000004,0.796728515625,-0.2382110595703125,12.494940185546875
8.731000000000009,1.1101562500000002,0.9852935791015626,12.232952880859376
8.741,7.829113769531251,1.1674285888671876,3.0786499023437504
8.751000000000005,10.043893432617187,0.383111572265625,2.537030029296876
8.762,12.194821166992188,-0.3144744873046875,3.5751098632812504
8.772000000000006,10.24307556152344,0.4115234375,6.841427612304688
8.78200000000001,7.631726074218751,0.9082824707031252,4.930654907226563
8.792000000000002,6.8909240722656255,1.2152801513671876,8.971121215820313
8.802000000000007,1.6471405029296875,-0.04725341796875,5.164529418945313
8.811999999999998,14.831741333007814,-0.9194976806640626,6.199618530273438
8.822000000000003,6.625796508789063,-0.761138916015625,2.063299560546876
8.832000000000008,7.418936157226563,-1.155914306640625,0.916058349609375
8.841999999999999,7.232614135742188,-1.199578857421875,3.85264892578125
8.852000000000004,6.971673583984376,-0.5390777587890625,4.355389404296876
8.862000000000009,8.1072509765625,0.250323486328125,4.904187011718751
8.872,10.264459228515626,0.8871978759765625,5.298962402343751
8.882000000000005,8.917437744140626,-1.1303436279296877,14.572595214843751
8.89200000000001,5.104565429687501,-0.3312225341796875,11.100216674804688
8.902000000000001,5.335299682617188,-1.387994384765625,7.656997680664063
8.912000000000006,2.9171508789062504,-1.2404022216796875,9.533377075195313
8.921999999999997,4.91375732421875,-0.176751708984375,7.834347534179688
8.933000000000007,10.003518676757814,0.326287841796875,3.39207763671875
8.942999999999998,10.886828613281253,-0.5939575195312501,2.4660003662109378
8.953000000000003,10.397247314453123,-0.58438720703125,3.7904418945312495
8.963000000000008,7.724288940429688,-0.494366455078125,5.30673828125
8.972999999999999,4.858728027343751,-1.761834716796875,13.347744750976563
8.983000000000004,5.761776733398438,-0.1772003173828125,5.085574340820313
8.99300000000001,5.6261474609375,-0.4960113525390625,3.585128784179688
9.003,6.709835815429688,0.6114532470703126,1.6745056152343751
9.013000000000003,9.486123657226564,0.326885986328125,3.8131713867187504
9.02300000000001,12.607540893554688,-0.0183929443359375,10.051968383789063
9.033,10.5907470703125,1.2381591796875,9.660632324218753
9.045000000000002,4.990768432617188,-0.5501434326171876,8.137307739257814
9.054000000000002,0.1435546875,-1.0065277099609375,11.263211059570311
9.064000000000007,4.90179443359375,-0.3847564697265625,8.925213623046876
9.073999999999998,9.009701538085938,-1.1185302734375,1.4720336914062502
9.084000000000003,10.2964599609375,-0.8803192138671876,2.3865966796875
9.094000000000008,11.208331298828126,-0.7283905029296875,4.667770385742188
9.104,9.320437622070314,0.693548583984375,6.296817016601563
9.114000000000004,6.975262451171876,0.228192138671875,4.775735473632813
9.12400000000001,5.02261962890625,-2.1449462890625,16.26654052734375
9.134,5.2221008300781255,-0.237762451171875,7.751803588867188
9.14500000000001,13.883831787109376,-1.4030975341796876,3.2748413085937504
9.15400000000001,5.111444091796876,-0.0805999755859375,1.7491241455078126
9.164,7.288092041015625,0.9814056396484376,3.115585327148438
9.174000000000008,7.23216552734375,0.7677185058593751,4.752108764648438
9.183999999999996,7.510302734375,0.5932098388671876,4.337445068359376
9.194000000000004,9.149517822265626,1.090118408203125,4.3772216796875005
9.204999999999998,7.421627807617188,-1.6638885498046876,12.586007690429687
9.215000000000003,4.950543212890626,-0.6608001708984376,8.514886474609376
9.225000000000009,8.157196044921875,0.2340240478515625,5.4239746093750005
9.235,4.376473999023438,-1.4950622558593751,8.7053955078125
9.245000000000005,4.0990844726562505,-0.5161987304687501,7.6341186523437505
9.25500000000001,7.600473022460938,0.7230072021484375,5.727383422851563
9.265,9.969573974609377,-0.7023712158203126,3.3705444335937504
9.275000000000006,9.912600708007814,-0.5139556884765626,4.483990478515626
9.284999999999997,8.779714965820313,0.3620269775390625,6.653909301757813
9.295000000000002,6.772491455078126,0.4954132080078125,8.846258544921875
9.305000000000009,6.589309692382813,0.4681976318359375,7.34342041015625
9.314999999999998,7.151565551757813,0.1544708251953125,5.409619140625001
9.326000000000008,7.395159912109375,-0.43843994140625,5.508612060546875
9.335000000000008,6.155804443359376,-0.3153717041015625,4.7410430908203125
9.346000000000004,5.404534912109376,-0.4215423583984375,4.3556884765625
9.356000000000009,4.597637939453126,-1.0442108154296876,5.5560150146484375
9.366,9.001776123046875,-1.4582763671875,8.39615478515625
9.376000000000005,14.497976684570313,-0.6582580566406251,8.72393798828125
9.38600000000001,11.950628662109375,-0.6365753173828126,6.053671264648438
9.396,5.3596740722656255,-0.8175140380859376,8.049978637695313
9.406000000000006,1.5113616943359376,-0.152227783203125,9.84231872558594
9.415999999999997,3.0686309814453128,0.7606903076171876,9.584967041015624
9.426000000000002,7.018478393554688,0.72674560546875,3.019732666015625
9.436000000000009,10.494894409179688,0.026318359375,2.5279083251953125
9.447000000000005,13.0120361328125,-0.2708099365234375,4.370343017578126
9.456000000000005,9.511843872070314,0.593060302734375,6.541009521484376
9.467,6.115728759765625,-0.040673828125,8.645281982421876
9.476,1.5660919189453126,-0.2262481689453125,15.102102661132813
9.487000000000007,10.307077026367187,0.130096435546875,5.272943115234376
9.497,7.89132080078125,-1.1446990966796875,3.4245269775390628
9.507000000000003,9.509002685546877,-0.1933502197265625,0.80091552734375
9.51700000000001,8.136111450195314,-1.2740478515625,2.3382965087890626
9.527,6.6609375,-0.98275146484375,4.509710693359375
9.537000000000006,6.254348754882813,-0.0052337646484375,4.291537475585938
9.546999999999995,7.729971313476563,0.5558258056640626,7.33385009765625
9.557000000000002,7.817898559570313,-0.393280029296875,14.0109375
9.567000000000007,10.699160766601564,-1.0286590576171877,4.342080688476563
9.576999999999998,6.085372924804688,-0.6389678955078125,6.699218750000001
9.587000000000003,2.452392578125,0.0825439453125,9.80179443359375
9.597000000000008,5.905630493164063,0.044561767578125,8.24482421875
9.607,6.395660400390626,0.4565338134765625,6.197225952148438
9.617000000000004,9.740036010742188,0.271856689453125,3.362020874023438
9.62700000000001,10.13974609375,0.1949951171875,3.785806274414063
9.638000000000003,9.813009643554688,-0.058319091796875,4.044354248046876
9.64800000000001,6.853839111328125,0.0533843994140625,8.249609375
9.658,4.313519287109376,-0.8208038330078126,10.070211791992188
9.668000000000006,7.39127197265625,-1.0460052490234375,5.386590576171876
9.677999999999995,6.337341308593751,-0.3040069580078125,3.638662719726563
9.688000000000002,5.403787231445313,0.150433349609375,3.824386596679688
9.698000000000008,6.6860595703125005,0.024224853515625,4.638461303710938
9.707999999999998,10.95606384277344,-0.57421875,8.352490234375
9.718000000000004,12.432733154296876,0.7101470947265626,9.64612731933594
9.728000000000009,8.291180419921876,-0.1508819580078125,8.325872802734375
9.738,2.7721008300781254,-1.10477294921875,8.631524658203126
9.748000000000005,4.164132690429688,-1.0199859619140623,10.153054809570314
9.759,6.361117553710938,-0.9805084228515626,5.129388427734376
9.769000000000004,8.647824096679688,-0.70521240234375,1.770806884765625
9.77900000000001,10.541101074218751,-0.3689056396484375,4.140505981445313
9.789,10.109689331054687,0.5564239501953125,5.2629241943359375
9.799000000000008,6.478353881835938,-0.8227478027343751,9.70010986328125
9.808999999999996,3.583633422851563,-0.500946044921875,11.621499633789064
9.819000000000004,10.0524169921875,-1.029107666015625,7.670156860351563
9.829000000000008,7.919134521484375,-0.1481903076171875,4.255200195312501
9.839,9.53980712890625,0.7406524658203125,2.774493408203125
9.849000000000004,6.93070068359375,0.5289093017578126,2.595648193359376
9.859000000000009,7.216763305664063,0.7732513427734375,4.0805419921875
9.869,4.757192993164063,0.4589263916015625,6.538766479492188
9.879000000000003,7.296765136718751,-0.2361175537109375,5.727532958984376
9.88900000000001,8.888876342773438,-1.1927001953125,7.223492431640626
9.899,9.23834228515625,-1.6912536621093752,8.984729003906251
9.909000000000006,7.295269775390626,-1.15621337890625,6.901092529296876
9.920000000000002,5.175146484375,0.4012054443359375,9.506161499023438
9.930000000000009,4.860971069335938,0.0028411865234375,7.695877075195313
9.939999999999998,6.136364746093751,-0.650482177734375,6.599029541015626
9.950000000000005,7.8727783203125,-0.1375732421875,5.189801025390626
9.960000000000008,9.296661376953123,0.117236328125,3.500042724609376
9.97,9.571658325195314,0.4451690673828125,4.176394653320313
9.980000000000004,7.772140502929688,0.2968292236328125,7.188800048828125
9.990000000000007,6.176141357421876,0.5321990966796876,9.229071044921875
10.0,7.508807373046875,-0.121722412109375,6.617272949218751
10.010000000000003,7.520620727539063,-0.70401611328125,5.575753784179688
10.02000000000001,7.423123168945313,-0.4951141357421875,6.444558715820313
10.03,5.484088134765625,-0.4789642333984375,4.587619018554688
10.040000000000006,4.919140625000001,-0.8140747070312501,4.938131713867188
10.049999999999995,5.055667114257813,-1.0789031982421875,6.334051513671875
10.061999999999998,9.632818603515624,-1.4315093994140626,7.606155395507813
10.070999999999998,13.822222900390626,-0.417205810546875,7.020721435546876
10.081000000000005,10.846902465820314,0.046356201171875,6.300555419921875
10.091000000000008,4.89342041015625,-0.0704315185546875,8.528045654296875
10.101,2.9874328613281254,0.4176544189453125,9.95252685546875
10.111000000000004,4.566983032226563,0.9413299560546876,8.310171508789063
10.12100000000001,7.51688232421875,0.6044250488281251,3.2313262939453127
10.131,10.666860961914065,-0.02332763671875,2.846270751953125
10.141000000000004,10.921221923828126,-0.0480010986328125,5.815460205078125
10.15100000000001,7.014291381835938,-0.55926513671875,8.459558105468751
10.162000000000006,4.96160888671875,0.6750061035156251,10.760470581054689
10.171000000000006,7.294522094726563,-0.8691040039062501,7.526751708984375
10.180999999999996,8.905026245117188,-1.1354278564453126,4.705453491210938
10.191000000000004,8.954672241210938,-1.2019714355468751,3.3045989990234377
10.201000000000008,8.017678833007814,-0.420196533203125,2.6654815673828125
10.212000000000003,7.868591308593751,-1.1669799804687502,3.689205932617188
10.222000000000008,6.8463623046875,-0.0058319091796875,4.234564208984375
10.232,5.816058349609375,0.1472930908203125,8.740386962890625
10.242000000000004,5.168118286132813,0.33914794921875,10.449285888671875
10.25200000000001,11.522805786132814,-0.6156402587890626,6.277825927734376
10.262,6.815258789062501,0.180340576171875,6.094943237304688
10.272000000000006,7.252203369140625,0.0859832763671875,6.821240234375001
10.28200000000001,4.678387451171876,-0.1924530029296875,9.133517456054689
10.292000000000002,5.3246826171875,-0.107965087890625,8.400341796875
10.302000000000008,7.045544433593751,0.2746978759765625,5.178436279296875
10.311999999999998,9.214715576171876,-0.078057861328125,3.397161865234376
10.322000000000005,10.043743896484376,-0.39417724609375,4.037176513671875
10.332000000000008,9.096731567382813,-0.6600524902343751,4.8940185546875
10.343000000000004,6.0689239501953125,-0.8273834228515625,10.122848510742188
10.353000000000009,6.178234863281251,-0.5671905517578125,7.424319458007813
10.363,6.116326904296876,-0.3222503662109375,5.51549072265625
10.373000000000005,5.94017333984375,-0.42528076171875,4.1574035644531255
10.38300000000001,5.6173248291015625,-0.0488983154296875,3.462359619140625
10.393,8.714816284179689,-0.3732421875,5.8251800537109375
10.403000000000006,12.42032165527344,0.08074951171875,8.083026123046876
10.412999999999997,10.987017822265626,0.0689361572265625,8.799752807617189
10.423000000000002,5.003329467773438,-0.6488372802734376,9.078787231445313
10.433000000000009,3.05950927734375,-0.6261077880859376,11.52310485839844
10.442999999999998,5.47960205078125,-0.2417999267578125,8.765509033203125
10.453000000000005,8.069866943359376,-0.6615478515625001,2.5229736328125
10.463000000000008,9.626239013671876,-0.0494964599609375,2.657855224609375
10.473,9.739587402343751,0.4547393798828125,4.787249755859375
10.484000000000009,8.643038940429689,0.74708251953125,5.318551635742188
10.494,6.760827636718751,0.109161376953125,5.232418823242188
10.504000000000003,3.715225219726563,-1.5937561035156251,16.837918090820313
10.51400000000001,11.101113891601564,-0.16448974609375,4.6957336425781255
10.524,10.414593505859376,-1.2525146484375,4.063943481445313
10.534000000000006,6.070867919921875,0.6754547119140626,2.3012115478515627
10.543999999999995,7.334747314453126,0.8830108642578126,3.4062835693359377
10.554000000000002,6.842324829101563,0.6077148437500001,4.0033813476562505
10.564000000000007,5.475863647460938,-0.5628540039062501,7.103863525390626
10.573999999999998,6.806436157226563,-0.9401336669921876,7.381103515625001
10.584000000000003,9.172845458984376,-1.517193603515625,8.137606811523439
10.594000000000008,9.039309692382814,-1.6709167480468752,7.8509460449218755
10.604,6.587814331054688,-0.371148681640625,8.171252441406251
10.614000000000004,5.249765014648438,-0.17645263671875,8.776574707031251
10.62400000000001,5.647830200195313,0.2887542724609375,7.697222900390625
10.634,7.144836425781251,0.1801910400390625,4.732968139648438
10.64500000000001,8.410211181640626,0.4813568115234375,3.802703857421875
10.655,9.195425415039065,0.084039306640625,3.498098754882813
10.665000000000006,9.440365600585938,0.480010986328125,4.794277954101563
10.674999999999995,5.798114013671875,0.088525390625,9.921124267578126
10.685000000000002,6.686807250976563,0.316717529296875,8.960055541992189
10.695000000000007,7.729074096679688,-0.1906585693359375,5.539715576171876
10.704999999999998,7.805935668945313,-1.2951324462890623,5.541210937500001
10.715000000000003,5.876919555664063,-0.7901489257812501,5.260531616210938
10.725000000000009,5.335598754882813,-1.0279113769531252,4.4340454101562505
10.735,5.481695556640625,-1.574017333984375,5.474966430664063
10.745000000000005,9.633865356445312,-1.008172607421875,8.843417358398439
10.75500000000001,12.374563598632813,-0.1601531982421875,7.591949462890626
10.766000000000004,10.149465942382813,-0.5280120849609375,5.344271850585938
10.775000000000006,4.924972534179688,0.021234130859375,8.543746948242188
10.786,2.885150146484375,0.920843505859375,9.755587768554689
10.796000000000006,4.999142456054688,1.0564727783203125,5.948397827148438
10.805999999999996,7.891171264648438,0.4463653564453125,3.229083251953125
10.816000000000004,11.168853759765623,0.2325286865234375,4.4071289062500005
10.826000000000008,10.029986572265626,0.63941650390625,10.13974609375
10.836,7.367047119140626,-0.9138153076171877,7.5593505859375005
10.846000000000004,6.274386596679688,0.68487548828125,9.140994262695314
10.856000000000009,6.557009887695313,-0.1739105224609375,7.248016357421876
10.866,7.969229125976563,-1.0495941162109377,3.9082763671875
10.876000000000005,8.527447509765626,-1.0862304687500002,2.529852294921876
10.88600000000001,8.82861328125,-1.10238037109375,3.1577545166015626
10.896,8.146279907226564,-0.9914245605468752,3.951492309570313
10.90700000000001,6.866101074218751,-0.6160888671875,3.960913085937501
10.915999999999997,6.212030029296876,-0.6548187255859376,10.624392700195314
10.926000000000002,6.178683471679688,0.3696533203125,10.528988647460938
10.936999999999998,11.158834838867188,-0.54849853515625,5.553472900390625
10.947000000000005,7.2498107910156255,0.5154510498046876,4.278976440429688
10.957000000000008,5.7115325927734375,0.5150024414062501,6.154010009765625
10.967,4.6573028564453125,-0.052337646484375,9.001925659179689
10.977000000000004,4.422232055664063,-0.32239990234375,9.842169189453124
10.987000000000007,7.411758422851563,0.05682373046875,6.299359130859376
10.997,10.212271118164065,0.2740997314453125,4.119271850585938
11.007000000000003,10.151409912109376,-0.4628143310546875,3.798068237304688
11.01700000000001,8.335592651367188,-0.50782470703125,6.347958374023438
11.027,5.574108886718751,-0.311334228515625,8.983233642578126
11.037000000000006,6.561346435546875,-0.9906768798828126,6.260479736328126
11.046999999999995,6.39237060546875,-0.5148529052734375,3.866256713867188
11.057000000000002,6.3047424316406255,-0.3413909912109375,3.683673095703125
11.067999999999998,6.06339111328125,0.17406005859375,4.172506713867188
11.078000000000005,8.723040771484376,-0.5688354492187501,6.577346801757813
11.088000000000008,12.26016845703125,0.4451690673828125,9.082077026367188
11.098,10.174588012695311,0.45877685546875,8.970822143554688
11.108000000000004,4.374679565429688,-0.6467437744140625,9.416738891601565
11.11800000000001,3.181829833984376,-0.7550079345703126,11.666958618164063
11.128,5.9747161865234375,-0.6507812500000001,7.766458129882813
11.138000000000003,8.649169921875,-0.7977752685546876,2.4212890625
11.14800000000001,9.791326904296875,-0.2106964111328125,3.157156372070313
11.158,9.69293212890625,0.478515625,4.600628662109376
11.168000000000006,7.952182006835938,-0.0991424560546875,4.8138671875000005
11.177999999999995,6.356033325195313,-1.24593505859375,6.003427124023438
11.189000000000007,5.5208740234375,-0.772503662109375,14.903369140625
11.198999999999998,9.829608154296876,-0.8605804443359376,3.945361328125
11.209000000000003,10.084567260742189,-0.0937591552734375,4.1633850097656255
11.219000000000008,7.984930419921875,1.5278106689453126,2.7390533447265626
11.229,6.80748291015625,1.0113128662109376,4.0198303222656255
11.239000000000004,5.980847167968751,0.0131591796875,4.7564453125
11.24900000000001,3.183026123046876,-0.4024017333984375,10.7008056640625
11.259,7.195678710937501,0.057720947265625,4.332061767578125
11.269000000000004,11.710174560546877,-1.3696014404296877,6.025857543945313
11.27900000000001,7.833599853515626,-1.901950073242188,8.899194335937501
11.289,5.897106933593751,-0.4702911376953125,9.014486694335938
11.299000000000008,4.683621215820313,-0.365167236328125,9.342120361328126
11.308999999999996,6.183319091796876,-0.0046356201171875,7.700213623046875
11.319000000000004,8.258731079101564,0.0267669677734375,3.486434936523438
11.329000000000008,9.506610107421876,-0.479412841796875,2.5881713867187504
11.339,8.760723876953126,0.39716796875,3.825582885742188
11.349000000000004,8.16287841796875,0.9283203125,5.723196411132813
11.36,5.055667114257813,0.2690155029296875,9.237594604492188
11.370000000000005,7.559051513671876,-0.0698333740234375,8.633319091796876
11.38000000000001,8.299554443359376,-0.89542236328125,5.893966674804688
11.39,7.870535278320313,-0.5908172607421875,6.057559204101563
11.400000000000006,5.111593627929688,-0.013458251953125,4.990020751953125
11.409999999999997,3.704458618164063,-0.18602294921875,4.593899536132813
11.420000000000002,4.765267944335938,-0.855047607421875,4.761978149414063
11.430000000000009,11.46343994140625,-1.3654144287109375,7.338037109375
11.439999999999998,15.835427856445314,-0.5414703369140625,7.785748291015626
11.450000000000005,11.347399902343753,-0.36068115234375,6.029446411132813
11.460000000000008,3.3591796875,-1.0445098876953125,9.679324340820314
11.47,0.066693115234375,-0.2978759765625,12.2846923828125
11.481000000000009,2.952291870117188,1.09639892578125,8.955868530273438
11.491,8.721844482421876,-0.0031402587890625,1.088922119140625
11.501000000000005,11.691033935546876,-0.12740478515625,2.954833984375
11.51100000000001,12.546081542968752,0.2582489013671875,4.823587036132813
11.521,8.418734741210939,0.366961669921875,6.333752441406251
11.531000000000006,6.409268188476563,0.8010650634765626,4.368548583984375
11.540999999999997,6.11064453125,-0.9375915527343752,15.233544921875
11.551000000000002,1.2258972167968751,-0.6853240966796875,10.64383239746094
11.563000000000002,16.367327880859378,-0.4044952392578125,1.7724517822265626
11.570999999999998,5.6397552490234375,-1.1451477050781251,1.340142822265625
11.581000000000005,6.311770629882813,-0.6186309814453126,2.624658203125
11.591000000000008,7.864404296875,-0.4541412353515625,4.411764526367188
11.601,6.527102661132813,-0.2540618896484375,4.578646850585938
11.611000000000004,9.13052673339844,0.6271545410156251,4.113589477539063
11.62100000000001,11.294464111328123,0.6092102050781251,5.599081420898438
11.631,8.954373168945313,0.0644500732421875,4.828970336914063
11.641000000000004,4.934243774414063,-3.134576416015625,16.590286254882812
11.65100000000001,2.5153472900390628,-0.4900299072265625,10.085614013671876
11.662999999999997,3.672906494140625,-0.276641845703125,9.726278686523438
11.671999999999995,8.433090209960938,-0.5124603271484376,5.824880981445313
11.682000000000002,9.294268798828126,0.6548187255859376,3.1762969970703128
11.692000000000007,10.650262451171876,0.38460693359375,3.651971435546875
11.701999999999998,8.860763549804688,0.0396270751953125,4.7648193359375
11.712000000000003,6.680526733398438,0.133984375,6.719107055664063
11.722000000000008,6.678134155273438,0.1203765869140625,6.275433349609376
11.732,7.319345092773438,-0.428570556640625,5.228680419921876
11.742000000000004,7.0150390625000005,-0.5788543701171875,4.375128173828125
11.75200000000001,5.637661743164063,0.0707305908203125,2.940328979492188
11.763000000000003,5.1189208984375005,0.493768310546875,3.520529174804688
11.77300000000001,8.265460205078126,-0.5319000244140626,7.069021606445313
11.783,12.939959716796876,-0.4044952392578125,9.677828979492189
11.793000000000006,11.634210205078126,1.3050018310546876,9.676483154296877
11.802999999999995,5.259335327148438,-0.9233856201171876,8.736947631835939
11.813000000000002,2.5041320800781253,-1.8472198486328129,11.967227172851564
11.823000000000008,4.240994262695313,-0.7364654541015625,8.413201904296876
11.832999999999998,7.437030029296875,-0.54969482421875,1.6265045166015626
11.843000000000004,9.691287231445314,-0.3934295654296875,1.9489044189453129
11.853000000000009,11.257977294921876,0.2524169921875,5.189352416992188
11.863,9.312960815429689,0.656463623046875,6.1656738281250005
11.873000000000005,7.344317626953125,-0.29847412109375,6.222048950195313
11.88300000000001,2.3119781494140628,-2.0972442626953125,17.128616333007812
11.893,11.973507690429688,-0.3653167724609375,6.489120483398438
11.903000000000006,7.5279479980468755,-1.086529541015625,3.0408172607421875
11.912999999999997,6.295770263671876,0.669622802734375,2.3148193359375
11.923000000000002,7.575949096679688,0.6030792236328125,3.2045593261718754
11.933999999999996,7.472171020507813,0.5755645751953126,3.5927551269531253
11.944000000000004,7.610641479492188,0.63642578125,4.111795043945313
11.954000000000008,7.025207519531251,0.402850341796875,7.845712280273438
11.964,9.206341552734376,-0.9009552001953126,8.11981201171875
11.974000000000004,8.979794311523438,-2.111749267578125,8.095736694335939
11.984000000000009,6.408370971679688,-0.8740386962890626,7.700213623046875
11.994,4.521075439453125,-0.04844970703125,9.326419067382814
12.004000000000003,4.9110656738281255,-0.8480194091796875,8.79093017578125
12.01400000000001,5.735757446289063,0.043963623046875,6.5081115722656255
12.024,8.624945068359375,0.155816650390625,3.4448638916015626
12.034000000000006,10.088156127929688,0.3098388671875,3.5260620117187504
12.043999999999995,9.943704223632814,0.7349700927734375,4.653265380859375
12.054000000000002,6.867745971679688,0.685772705078125,7.504620361328126
12.064999999999998,6.330313110351563,0.4400848388671875,8.421426391601564
12.075000000000005,6.866699218750001,-0.9296661376953126,7.21781005859375
12.085000000000008,6.494503784179688,-0.4412811279296875,4.838540649414063
12.095,6.063092041015626,-0.0474029541015625,3.719113159179688
12.105000000000004,5.3421783447265625,-0.5953033447265625,3.6619903564453127
12.115000000000007,8.004818725585938,-1.5442596435546876,7.995098876953126
12.125,12.680514526367189,-0.6410614013671876,10.35089111328125
12.135000000000003,10.265805053710938,-0.380718994140625,7.777523803710938
12.14500000000001,5.80618896484375,-1.02701416015625,8.010052490234376
12.155,3.059808349609375,-0.402252197265625,9.575247192382813
12.165000000000006,5.3306640625,0.3303253173828125,7.271942138671876
12.174999999999995,6.8116699218750005,0.3911865234375,2.7552032470703125
12.185000000000002,9.572106933593751,0.1401153564453125,2.714230346679688
12.195000000000007,10.8658935546875,0.000897216796875,5.928060913085938
12.206000000000005,9.146228027343753,0.2296875,5.479452514648438
12.216000000000008,5.5799407958984375,-0.9132171630859376,11.65469665527344
12.226,6.121560668945313,0.081048583984375,10.634860229492189
12.236000000000004,8.542401123046876,-0.529058837890625,7.299307250976563
12.24600000000001,9.2676513671875,-0.2899505615234375,1.7800781250000002
12.256,7.736102294921875,-0.5184417724609376,1.7881530761718751
12.266000000000004,7.683166503906251,-0.7140350341796875,3.478659057617188
12.27600000000001,6.840231323242188,0.2524169921875,4.1451416015625
12.286,5.965594482421875,0.370550537109375,3.7120849609375
12.296000000000006,6.570318603515625,-0.3108856201171875,12.311758422851565
12.305999999999996,9.318643188476564,-0.5076751708984375,8.627038574218751
12.316000000000004,10.585662841796877,-1.53065185546875,5.70450439453125
12.326000000000008,4.72235107421875,-0.150433349609375,7.929751586914063
12.336,5.068676757812501,0.3433349609375,9.646875
12.347000000000008,4.772894287109375,-0.27335205078125,7.0497314453125
12.356000000000009,6.750360107421876,-0.0168975830078125,5.089761352539063
12.367000000000004,9.185107421875,0.371148681640625,4.291537475585938
12.37700000000001,10.079333496093753,-0.128302001953125,3.522921752929688
12.387,9.394757080078126,-0.3129791259765625,4.244732666015626
12.397000000000006,6.14952392578125,-0.5600128173828125,10.08875427246094
12.40700000000001,5.921032714843751,-0.2023223876953125,9.528143310546875
12.417000000000002,6.951187133789063,-0.4185516357421875,4.9230285644531255
12.427000000000008,6.1166259765625,0.0861328125,3.4107696533203127
12.436999999999998,5.543753051757813,0.1454986572265625,2.7238006591796875
12.447000000000005,7.237249755859375,0.040673828125,5.1260986328125
12.457000000000008,12.420770263671876,-0.5673400878906251,8.922073364257812
12.467,11.875411987304688,0.7243530273437501,8.864501953125
12.477000000000004,5.929705810546875,-0.6201263427734376,8.291180419921876
12.488,2.7949798583984378,-1.4850433349609375,10.93408203125
12.498000000000005,4.25579833984375,-1.63712158203125,11.296258544921876
12.50800000000001,7.903134155273438,-0.6253601074218751,2.507272338867188
12.518,9.18450927734375,-0.4095794677734375,2.092459106445313
12.528000000000006,10.885781860351564,-0.154620361328125,4.1947875976562505
12.537999999999997,9.355578613281253,0.7026702880859376,6.103915405273438
12.548000000000002,6.1073547363281255,-0.1703216552734375,3.659597778320313
12.558000000000009,4.629190063476563,-1.2119903564453125,14.523995971679687
12.567999999999998,9.635809326171875,-0.451898193359375,9.202603149414063
12.578000000000005,9.730316162109377,-0.8375518798828125,3.913809204101563
12.588000000000008,7.6000244140625,0.6495849609375001,2.767913818359375
12.598,8.600122070312501,0.8481689453125001,2.6373687744140626
12.608000000000004,7.203454589843751,0.9532928466796876,4.261181640625001
12.61800000000001,5.192044067382813,-0.2583984375,6.170458984375
12.628,3.0590606689453126,-0.8982635498046876,9.862506103515626
12.638000000000003,10.032977294921876,0.1206756591796875,5.630633544921875
12.649,11.598620605468753,-1.5538299560546875,6.009259033203126
12.659000000000006,6.072662353515625,-1.558465576171875,7.976406860351563
12.668999999999995,5.014694213867188,0.3991119384765625,9.405374145507814
12.680000000000009,5.29178466796875,-0.3234466552734375,8.453128051757814
12.689000000000007,6.993954467773438,-0.5217315673828126,5.517285156250001
12.698999999999998,8.47989501953125,0.0943572998046875,3.9073791503906254
12.709000000000003,9.2485107421875,0.22430419921875,3.422283935546876
12.719000000000008,9.302044677734376,0.8377014160156251,4.4789062500000005
12.729,6.134420776367188,-0.02392578125,9.700408935546877
12.739000000000004,6.187655639648438,0.638519287109375,9.043646240234375
12.74900000000001,8.157943725585938,-0.4598236083984375,5.51788330078125
12.759,8.319293212890626,-0.6344818115234375,5.361618041992188
12.769000000000004,6.880307006835938,-0.792242431640625,6.197824096679688
12.78,4.647433471679688,-0.474029541015625,4.894317626953125
12.790000000000006,4.226040649414063,-0.7838684082031251,4.952487182617188
12.799999999999995,5.682373046875,-1.486688232421875,6.191693115234376
12.810000000000002,12.90736083984375,-0.87568359375,7.814160156250001
12.820000000000007,14.701495361328126,-0.4463653564453125,6.0592041015625
12.829999999999998,9.821533203125,-0.354400634765625,6.622357177734376
12.840000000000003,2.7197631835937504,-0.1194793701171875,10.091146850585938
12.850000000000009,0.8406921386718751,0.5836395263671875,12.444845581054688
12.86,4.622161865234375,1.082940673828125,5.493359375000001
12.870000000000005,8.747265625,0.2881561279296875,2.13118896484375
12.88000000000001,11.567965698242189,0.112152099609375,2.8618225097656254
12.89,12.027340698242188,0.1748077392578125,5.702560424804688
12.900000000000006,7.417141723632813,0.365167236328125,5.927761840820313
12.909999999999997,6.106457519531251,-0.32060546875,10.190887451171877
12.921000000000006,1.2058593750000002,-0.8290283203125001,14.835031127929687
12.930999999999996,13.626480102539064,-0.9506011962890626,4.924075317382813
12.941000000000004,6.1003265380859375,-1.1758026123046876,2.5313476562500004
12.951000000000008,9.215911865234377,-0.0261688232421875,0.5722747802734376
12.961,7.953378295898438,-1.2761413574218752,2.5938537597656253
12.971000000000004,6.394613647460938,-0.581097412109375,4.195385742187501
12.981000000000009,7.556808471679688,0.4610198974609375,4.650424194335938
12.991,8.745471191406251,1.014154052734375,5.236157226562501
13.001000000000005,7.643539428710938,-1.2030181884765625,16.700494384765626
13.01100000000001,8.468530273437501,0.2572021484375,7.452880859375001
13.021,7.425216674804688,-0.7753448486328126,5.173052978515625
13.031000000000006,2.021578979492188,0.7787841796875,6.306088256835938
13.042000000000002,5.1117431640625,0.1451995849609375,7.69034423828125
13.051000000000002,7.129583740234375,0.3147735595703125,6.846212768554688
13.061000000000009,10.194027709960938,-0.45758056640625,3.8951171875
13.072000000000005,10.408462524414062,-1.035986328125,4.397708129882813
13.082000000000008,9.370382690429688,-0.2702117919921875,4.683322143554688
13.092,6.505270385742188,-0.6975860595703125,8.028146362304689
13.102000000000004,4.261331176757813,-0.8747863769531251,9.957611083984377
13.112000000000007,5.591305541992188,-0.9093292236328124,4.434344482421875
13.122,5.31571044921875,-0.1131988525390625,3.049191284179688
13.132000000000003,9.203201293945312,0.0064300537109375,4.476663208007813
13.14200000000001,13.920767211914065,0.207257080078125,6.947299194335938
13.152,11.797354125976565,0.4299163818359375,8.242880249023438
13.162000000000006,4.722799682617188,-0.9906768798828126,10.488763427734376
13.171999999999995,-0.5161987304687501,-0.5142547607421876,12.459051513671875
13.182000000000002,3.655410766601563,0.0468048095703125,7.723541259765626
13.192000000000007,9.444403076171875,-0.3398956298828125,3.114089965820313
13.201999999999998,11.0931884765625,-0.6784454345703126,2.5024871826171875
13.213000000000008,11.809765625,-0.3575408935546875,3.737506103515625
13.223,9.01224365234375,0.5490966796875001,6.24881591796875
13.233000000000004,6.389529418945313,0.1664337158203125,5.023367309570313
13.24300000000001,6.193637084960938,-0.479412841796875,11.125787353515626
13.253,1.5429138183593751,-0.9175537109375,13.658630371093752
13.263000000000003,17.10738220214844,-0.491375732421875,1.6869171142578123
13.27300000000001,7.086367797851563,-1.25849609375,2.3231933593750003
13.283,5.943911743164063,0.9223388671875,2.949151611328125
13.293000000000006,7.552322387695313,0.7541107177734375,4.864410400390625
13.302999999999995,7.109097290039063,0.0581695556640625,4.275088500976563
13.313000000000002,8.24542236328125,0.3219512939453125,3.865060424804688
13.323000000000008,9.364849853515626,0.0656463623046875,4.1967315673828125
13.332999999999998,8.785098266601564,-0.234771728515625,5.78525390625
13.343000000000004,4.3622680664062505,-2.4076812744140628,16.608081054687503
13.353000000000009,0.0055328369140625,-0.4613189697265625,6.76322021484375
13.364000000000004,9.838580322265626,-0.076861572265625,10.226626586914064
13.37400000000001,6.429605102539063,-1.3731903076171876,6.548336791992188
13.384,9.19228515625,0.0420196533203125,4.62724609375
13.394000000000004,10.745816040039063,0.008074951171875,2.441326904296876
13.40400000000001,9.399093627929688,0.21533203125,4.68765869140625
13.414,7.510302734375,1.0385284423828125,6.369641113281251
13.424000000000008,4.67449951171875,0.401654052734375,7.133621215820313
13.433999999999996,7.766757202148438,-0.370849609375,7.015786743164063
13.444000000000004,7.330859375,-0.494964599609375,5.977706909179688
13.454000000000008,7.535723876953125,-1.0477996826171876,5.419189453125
13.464,5.647232055664063,-0.5513397216796876,4.268209838867188
13.474000000000004,4.813717651367188,-1.1943450927734376,5.460760498046875
13.484000000000009,4.968487548828126,-1.3175628662109375,7.208389282226563
13.494,11.71585693359375,-0.78895263671875,8.60670166015625
13.50500000000001,14.664260864257814,-0.183331298828125,6.69443359375
13.515,10.066473388671875,-0.64539794921875,5.674298095703126
13.525000000000006,3.4716308593750003,-0.5746673583984375,9.739736938476565
13.534999999999997,1.1204742431640626,0.5052825927734376,11.973956298828126
13.545000000000002,4.426718139648438,1.0937072753906252,5.677737426757813
13.555000000000009,8.537765502929688,0.4347015380859375,2.7964752197265628
13.564999999999998,11.8492431640625,0.5734710693359375,3.851901245117188
13.575000000000005,12.763357543945313,0.5269653320312501,4.531393432617188
13.585000000000008,7.663726806640626,0.4804595947265625,5.767160034179688
13.595,5.187408447265625,-0.26976318359375,10.29690856933594
13.605000000000004,1.6827301025390626,-0.0767120361328125,12.7871337890625
13.615000000000007,11.890814208984375,-0.26796875,4.862017822265625
13.625,8.209384155273439,-0.7572509765625001,2.6580047607421875
13.635000000000003,8.700460815429688,-0.9380401611328124,0.6539215087890625
13.646,7.479647827148438,-1.6441497802734375,3.120968627929688
13.656000000000006,6.186608886718751,-0.9888824462890624,4.171759033203125
13.665999999999997,6.610992431640626,-0.05084228515625,5.233166503906251
13.676000000000002,6.575851440429688,-1.0385284423828125,14.940155029296877
13.686000000000009,9.302792358398438,-0.2947357177734375,9.18570556640625
13.695999999999998,9.957611083984377,-1.0154998779296875,5.003179931640625
13.706000000000005,5.1627349853515625,0.724951171875,5.337991333007813
13.716000000000008,2.7360626220703126,0.7565032958984376,7.165771484375001
13.726,6.438876342773438,0.56763916015625,9.391168212890626
13.736000000000004,7.5847717285156255,0.7539611816406251,5.044900512695313
13.74600000000001,10.239935302734375,0.1535736083984375,3.1922973632812504
13.756,10.191336059570313,-0.18841552734375,4.075457763671875
13.766000000000004,8.403033447265626,-0.1012359619140625,4.595245361328125
13.77600000000001,5.527304077148438,-1.257598876953125,11.395401000976562
13.787000000000006,5.58726806640625,-0.8330657958984375,9.09598388671875
13.796999999999995,7.019525146484376,-1.5628021240234375,4.910317993164063
13.807000000000002,6.540859985351563,-0.7668212890625,2.6659301757812504
13.817000000000007,4.832559204101563,-0.2992218017578125,2.87169189453125
13.826999999999998,7.544696044921875,-0.094805908203125,5.9672393798828125
13.837000000000003,12.243569946289064,-0.017047119140625,9.546536254882811
13.847000000000008,12.589596557617188,0.5962005615234376,8.569168090820312
13.857,6.668713378906251,0.28651123046875,7.497592163085938
13.867000000000004,2.036981201171875,-0.757550048828125,9.927853393554688
13.87700000000001,3.957623291015625,-0.276043701171875,11.31689453125
13.887,7.458264160156251,-0.485693359375,1.8887908935546875
13.897000000000006,9.458758544921876,-0.5000488281250001,2.1150390625
13.90700000000001,11.1984619140625,-0.2966796875,4.569525146484375
13.918000000000006,10.172793579101564,0.6954925537109375,5.811273193359376
13.927999999999995,6.725387573242188,0.034393310546875,6.693386840820313
13.938000000000002,2.653070068359375,-1.191204833984375,15.04019470214844
13.948000000000008,8.419631958007812,-0.5304046630859376,6.411062622070313
13.957999999999998,10.163821411132814,-1.2133361816406252,4.431802368164063
13.968000000000004,8.701956176757813,0.3117828369140625,0.7594940185546876
13.978000000000009,7.493853759765625,0.8746368408203126,3.0439575195312503
13.988,7.3350463867187505,0.7195678710937501,5.16497802734375
13.998000000000005,6.072064208984376,-0.0438140869140625,3.613092041015625
14.00800000000001,5.730075073242188,-1.0800994873046876,11.796157836914062
14.018,7.948593139648438,-0.5492462158203125,8.196823120117188
14.028000000000006,12.015826416015626,-1.968942260742188,5.637960815429688
14.037999999999997,4.972674560546875,-1.0699310302734375,6.632974243164063
14.048000000000002,5.483489990234375,-0.02332763671875,9.398495483398438
14.058000000000009,4.093850708007813,-0.308941650390625,9.601416015625
14.067999999999998,6.589608764648438,-0.003887939453125,5.964547729492188
14.079000000000008,9.021514892578123,-0.043365478515625,3.0004425048828125
14.089,9.87835693359375,0.1449005126953125,3.212933349609376
14.099000000000004,9.54459228515625,0.22908935546875,4.04046630859375
14.109000000000009,7.070217895507813,0.3291290283203125,7.983883666992188
14.119,5.6117919921875,0.37802734375,10.273580932617188
14.129000000000003,7.547836303710938,-0.5049835205078126,6.815856933593751
14.13900000000001,8.134317016601564,-0.4622161865234375,4.236358642578125
14.149,6.997393798828125,-0.3744384765625,5.2449798583984375
14.159000000000006,5.109649658203125,-0.44202880859375,4.984786987304688
14.168999999999995,4.192544555664063,-0.8674591064453125,5.249765014648438
14.180999999999996,5.8775177001953125,-0.9914245605468752,7.004122924804688
14.189000000000007,12.61711120605469,-1.0065277099609375,8.17364501953125
14.200000000000005,14.280850219726563,-0.169873046875,6.7363037109375
14.210000000000008,8.9901123046875,-0.295782470703125,6.176889038085938
14.22,2.8885894775390626,-0.7375122070312501,9.47401123046875
14.230000000000004,1.523773193359375,0.666632080078125,12.596475219726564
14.240000000000007,5.782711791992188,0.7225585937500001,4.527505493164063
14.25,8.880950927734375,0.0279632568359375,2.081243896484376
14.260000000000003,11.990255737304688,0.2169769287109375,3.1069122314453126
14.27000000000001,10.896847534179688,0.416607666015625,6.505718994140626
14.281000000000006,7.162332153320313,0.337054443359375,5.011853027343751
14.290000000000006,4.95562744140625,-0.7672698974609375,13.895046997070311
14.299999999999995,3.8321624755859376,-0.2349212646484375,10.306777954101562
14.310000000000002,12.094033813476564,-1.3165161132812502,5.262026977539063
14.320000000000007,5.8917236328125,-0.5639007568359375,1.8203033447265624
14.329999999999998,9.74781188964844,-0.3327178955078125,0.8052520751953126
14.340000000000003,6.800903320312501,-0.9284698486328126,3.729730224609375
14.350000000000009,6.323883056640626,-0.1957427978515625,4.398306274414063
14.36,6.974066162109375,0.284716796875,4.173403930664063
14.37100000000001,7.228277587890625,-0.6418090820312501,14.608633422851565
14.381,9.470272827148438,-0.5591156005859376,8.210580444335939
14.391000000000004,8.89381103515625,-1.0733703613281251,5.5560150146484375
14.40100000000001,3.882705688476563,0.9248809814453126,8.054315185546876
14.411,4.871438598632813,0.076861572265625,7.61318359375
14.421000000000006,6.198272705078126,-0.26976318359375,7.622604370117188
14.430999999999996,7.588360595703126,0.413916015625,4.303500366210938
14.441000000000004,9.999630737304688,0.095703125,3.368600463867188
14.451000000000008,9.81256103515625,-0.1254608154296875,4.0377746582031255
14.461,8.253497314453126,-0.8048034667968751,7.67239990234375
14.471000000000004,5.3773193359375,-0.5477508544921875,10.433435058593751
14.481000000000009,7.212127685546876,-0.31522216796875,7.021319580078125
14.491,6.283956909179688,-0.2002288818359375,4.297369384765625
14.50200000000001,5.858377075195313,-0.8080932617187501,3.78505859375
14.512,5.001235961914063,0.1963409423828125,3.836798095703125
14.522000000000006,7.404580688476563,-0.796728515625,5.695831298828125
14.53200000000001,12.8947998046875,0.0779083251953125,8.688348388671876
14.542000000000002,12.465780639648438,0.80689697265625,8.457913208007813
14.552000000000008,6.373529052734376,-0.5139556884765626,8.066577148437501
14.561999999999998,3.0467987060546875,-0.805401611328125,10.614373779296876
14.572000000000005,3.4903228759765628,-0.9242828369140624,11.319137573242188
14.582000000000008,6.765164184570313,-0.772503662109375,3.0058258056640628
14.592,8.874072265625001,-0.422589111328125,1.1103057861328125
14.602000000000004,11.73365173339844,0.0082244873046875,3.4589202880859378
14.612000000000007,9.635360717773438,0.9625640869140626,6.6669189453125
14.622,7.559948730468751,0.3443817138671875,4.379913330078125
14.632000000000003,5.07047119140625,-1.0983428955078125,14.494985961914065
14.64200000000001,3.4312561035156253,-0.634033203125,9.142041015625
14.653000000000006,14.567810058593752,-0.7808776855468751,4.7211547851562505
14.662999999999997,5.634671020507813,-0.314324951171875,1.535137939453125
14.673000000000002,8.184860229492188,0.91695556640625,2.79632568359375
14.683000000000009,7.739840698242188,0.5625549316406251,4.221853637695313
14.692999999999998,6.039913940429688,-0.2208648681640625,3.9028930664062496
14.703000000000005,6.654208374023438,-0.179443359375,5.1356689453125
14.713000000000008,5.969931030273438,-1.6030273437500002,14.032470703125002
14.723,11.851486206054688,-1.5433624267578123,6.8583251953125
14.733000000000004,6.641796875000001,-1.845574951171875,6.931747436523438
14.74300000000001,5.494406127929688,-0.0514404296875,7.983285522460938
14.753,4.796969604492188,-0.484796142578125,9.29920349121094
14.763000000000003,5.412759399414063,0.1117034912109375,8.257833862304688
14.77300000000001,7.916891479492188,0.0623565673828125,3.7624786376953128
14.784000000000006,10.254141235351565,-0.02452392578125,2.572918701171876
14.793999999999995,10.077987670898438,0.527862548828125,4.280023193359376
14.804000000000002,8.811117553710938,0.8949737548828126,4.871737670898438
14.814000000000007,7.089208984375,1.3432830810546876,7.038665771484376
14.823999999999998,3.659298706054688,0.5217315673828126,5.86839599609375
14.834000000000003,9.901535034179688,-0.495263671875,6.572561645507813
14.844000000000008,5.764169311523438,-1.2451873779296876,7.211080932617188
14.854,5.090359497070313,-0.739605712890625,3.701617431640625
14.864000000000004,4.936785888671875,-1.4455657958984376,3.690551757812501
14.87400000000001,7.488171386718751,-1.83570556640625,10.490408325195313
14.884,13.61003112792969,-0.8988616943359375,8.473464965820312
14.894000000000004,13.423709106445314,-0.1108062744140625,5.279971313476563
14.90400000000001,7.010253906250001,-1.0289581298828123,6.794473266601563
14.914,1.55457763671875,-1.032696533203125,13.665060424804688
14.924000000000008,1.7204132080078127,0.4161590576171875,10.750900268554688
14.933999999999996,6.687106323242188,0.954638671875,2.8558410644531254
14.945000000000007,9.536367797851565,0.2452392578125,3.0488922119140627
14.954999999999998,12.703094482421877,0.18662109375,4.104168701171876
14.965000000000003,10.707684326171876,0.6732116699218751,5.6177734375
14.975000000000009,7.500732421875001,0.8807678222656251,5.494854736328126
14.985,5.249166870117188,1.3301239013671875,9.393560791015624
14.995000000000005,2.919393920898438,0.179742431640625,4.294079589843751
15.00500000000001,12.724029541015629,0.15791015625,6.698321533203125
15.015,8.467633056640626,-0.7064086914062501,2.282369995117188
15.025000000000006,8.385836791992189,-1.2466827392578126,1.687066650390625
15.034999999999997,7.055114746093751,-1.1862701416015626,3.612045288085938
15.045000000000002,6.115878295898438,-1.018191528320313,4.997198486328125
15.055000000000009,4.589413452148438,-1.7434417724609377,16.890554809570315
15.064999999999998,9.6576416015625,-0.70521240234375,7.12449951171875
15.075000000000005,11.08660888671875,-1.2148315429687502,4.620068359375001
15.086,6.3884826660156255,0.1571624755859375,6.256143188476563
15.096000000000004,3.912911987304688,-0.096600341796875,10.386480712890624
15.106000000000009,4.868746948242188,-0.46715087890625,9.803289794921875
15.116,5.694186401367188,-0.115142822265625,6.133074951171875
15.126000000000005,8.654852294921875,0.2779876708984375,4.676593017578125
15.13600000000001,11.179919433593753,0.0605621337890625,2.5781524658203128
15.146,9.946246337890626,0.1460968017578125,3.9610626220703127
15.156000000000006,6.596487426757813,-0.6122009277343751,8.294021606445312
15.165999999999997,4.81925048828125,-0.9957611083984376,10.248907470703124
15.176000000000002,7.514340209960938,-0.502142333984375,4.531842041015626
15.186000000000009,7.031936645507813,-0.5194885253906251,2.9902740478515626
15.198000000000008,5.636764526367188,-0.20994873046875,3.781469726562501
15.206000000000005,5.140005493164063,0.185125732421875,4.336697387695313
15.217,8.663076782226563,-0.663641357421875,7.81954345703125
15.227000000000004,13.640386962890624,0.32479248046875,9.346456909179688
15.237000000000007,11.36280212402344,0.524871826171875,7.091452026367188
15.247,4.40234375,-0.59814453125,8.512643432617189
15.257000000000003,2.5452545166015628,-0.6649871826171876,10.777218627929688
15.26700000000001,4.11224365234375,-0.6748565673828125,10.098474121093751
15.277,8.011846923828125,-0.6452484130859375,1.2131866455078126
15.287000000000006,10.604055786132813,-0.5236755371093751,2.011859130859375
15.298000000000002,11.339923095703126,0.2573516845703125,4.784558105468751
15.307000000000002,8.871380615234376,0.8900390625000001,6.421978759765626
15.317000000000007,6.306985473632813,0.030804443359375,4.703808593750001
15.326999999999998,3.684271240234376,-1.9907745361328129,17.254974365234375
15.337000000000003,7.609893798828126,-0.058917236328125,5.5690246582031255
15.347000000000008,12.391162109375,-1.157708740234375,4.418942260742188
15.357,5.155557250976563,0.1661346435546875,1.772900390625
15.36800000000001,8.195028686523438,0.9438720703125,2.937936401367188
15.378,7.007263183593751,0.248529052734375,4.199124145507813
15.388000000000003,6.059353637695313,-0.1431060791015625,3.75694580078125
15.39800000000001,8.368939208984376,0.344232177734375,5.357281494140626
15.408,8.755789184570313,-2.4224853515625,15.146514892578129
15.418000000000006,8.510250854492188,-1.5657928466796875,5.841180419921876
15.427999999999995,6.1764404296875,-0.6418090820312501,7.3111206054687505
15.438000000000002,3.092706298828125,-0.2720062255859375,9.637454223632814
15.448000000000008,6.249862670898438,0.2657257080078125,7.708139038085938
15.457999999999998,7.266110229492188,0.0928619384765625,4.673602294921875
15.468000000000004,9.132022094726564,0.265576171875,2.7037628173828128
15.478000000000009,9.725830078125,0.5677886962890626,4.096691894531251
15.488,9.00745849609375,0.2669219970703125,4.773193359375
15.49900000000001,7.083377075195313,0.5947052001953126,7.560247802734375
15.509,6.1776367187500005,0.258697509765625,9.070562744140624
15.519000000000004,7.87576904296875,-1.116436767578125,5.6442413330078125
15.52900000000001,7.345214843750001,-0.908880615234375,6.504971313476563
15.539,5.265466308593751,-0.346923828125,5.325131225585938
15.549000000000008,4.8521484375,-0.8602813720703125,3.666925048828125
15.558999999999996,6.202908325195313,-0.9754241943359376,7.203005981445313
15.569000000000004,11.228668212890623,-1.15860595703125,8.940316772460939
15.579000000000008,13.131814575195314,-0.0623565673828125,6.472073364257813
15.589,8.650964355468751,-0.2077056884765625,5.350851440429688
15.599000000000004,3.271551513671876,-0.959722900390625,10.689440917968753
15.609000000000009,2.931207275390625,0.8347106933593751,10.732058715820314
15.619,5.941668701171875,0.7846160888671876,3.682028198242188
15.629000000000003,9.046636962890624,0.0844879150390625,2.416354370117188
15.64,11.65589294433594,-0.131890869140625,4.083981323242188
15.650000000000006,10.402630615234376,0.3241943359375,6.408221435546875
15.659999999999997,4.766763305664063,-0.454290771484375,11.934030151367187
15.670000000000002,6.533233642578126,0.177947998046875,8.272787475585938
15.680000000000009,7.4053283691406255,-0.6984832763671875,8.215216064453125
15.689999999999998,8.464492797851562,-0.6981842041015626,2.8812622070312504
15.700000000000005,8.310470581054688,-0.9151611328125,2.193994140625
15.710000000000008,8.245870971679688,-0.7128387451171876,3.289495849609376
15.72,7.972219848632813,-0.8339630126953126,4.251910400390625
15.730000000000004,6.988571166992188,0.27574462890625,4.2456298828125005
15.740000000000007,5.62674560546875,-0.391485595703125,11.436822509765626
15.75,8.123699951171876,0.266473388671875,8.169757080078126
15.760000000000003,9.815850830078126,-0.413018798828125,6.770098876953125
15.77000000000001,6.2721435546875,0.29189453125,5.284906005859376
15.78,6.094494628906251,-0.198583984375,7.64847412109375
15.790999999999997,4.314566040039063,-0.5387786865234375,8.989962768554689
15.801000000000002,5.4194885253906255,0.19918212890625,7.829412841796875
15.811000000000009,7.68974609375,0.4628143310546875,5.210287475585938
15.820999999999998,9.976602172851564,-0.3349609375,4.201068115234375
15.831000000000005,10.07574462890625,-0.4646087646484375,4.572067260742188
15.841000000000008,7.945303344726563,-0.5269653320312501,7.22139892578125
15.851,6.386837768554688,-0.5043853759765625,7.503723144531251
15.861000000000004,6.239395141601563,-0.4964599609375,6.465942382812501
15.87100000000001,5.704653930664063,-0.6002380371093751,5.0064697265625
15.881,5.672204589843751,-0.2358184814453125,3.7838623046875
15.891000000000004,6.052325439453125,-0.197088623046875,3.5710723876953128
15.90100000000001,10.175634765625,-0.4619171142578125,7.236203002929688
15.912000000000006,14.03785400390625,0.7946350097656251,8.95841064453125
15.921999999999995,9.909161376953126,0.0148040771484375,8.250955200195314
15.932000000000002,3.037527465820313,-0.8698516845703126,9.669754028320312
15.942000000000007,1.3498626708984376,-0.5058807373046875,13.326809692382811
15.951999999999998,5.524462890625,-0.3449798583984375,6.840231323242188
15.962000000000003,8.959008789062501,-0.8945251464843751,1.4531921386718751
15.972000000000008,10.998831176757813,-0.48330078125,2.2170227050781253
15.982,10.682711791992189,0.5848358154296875,5.0973876953125
15.992000000000004,7.82193603515625,0.3165679931640625,5.673101806640625
16.00200000000001,7.115377807617188,0.6963897705078126,4.309481811523438
16.012,6.748864746093751,-1.24892578125,7.980593872070313
16.022000000000006,4.4983459472656255,-1.9047912597656247,15.013876342773438
16.03200000000001,14.27591552734375,-0.01136474609375,2.430410766601563
16.042,6.0759521484375005,-0.512908935546875,2.4428222656250003
16.052000000000007,6.574954223632813,0.7781860351562501,3.632980346679688
16.061999999999998,6.981692504882813,0.25062255859375,4.239947509765625
16.072000000000003,6.600076293945313,0.223406982421875,3.88973388671875
16.082000000000008,8.435632324218751,0.3721954345703125,3.921435546875
16.093000000000004,8.15211181640625,-1.830621337890625,12.322525024414064
16.10300000000001,4.319351196289063,-1.1481384277343751,10.550970458984375
16.113,8.468380737304688,0.6196777343750001,6.202908325195313
16.123000000000005,4.800259399414063,-0.9416290283203126,7.698419189453125
16.13300000000001,6.292330932617188,-0.7678680419921876,8.799752807617189
16.143,8.033230590820313,-0.9383392333984376,5.577249145507813
16.153000000000006,8.734854125976563,-0.144451904296875,3.0294525146484377
16.162999999999997,10.740432739257812,0.3784759521484375,2.9500488281250004
16.174000000000007,8.970822143554688,0.7745971679687501,5.193838500976563
16.183000000000007,5.599380493164063,-0.6910064697265625,10.918829345703124
16.194000000000003,5.636315917968751,0.6343322753906251,8.35906982421875
16.203000000000003,8.344564819335938,-0.4689453125,5.97366943359375
16.213000000000008,7.610791015625001,-0.1903594970703125,5.002581787109375
16.223,7.294073486328125,-0.81766357421875,3.763525390625
16.233000000000004,4.628292846679688,-0.4998992919921875,3.342730712890625
16.244,3.8426300048828126,-1.2290374755859377,6.150720214843751
16.254000000000005,7.112985229492188,-1.8407897949218752,9.103460693359375
16.26400000000001,14.468966674804689,-0.928021240234375,7.504171752929688
16.274,14.717645263671876,-0.19200439453125,5.67698974609375
16.284000000000006,7.795767211914063,-0.352606201171875,4.222750854492188
16.293999999999997,2.540618896484375,-0.6892120361328126,13.515225219726563
16.304000000000002,-1.9806060791015627,1.0131072998046875,12.561932373046876
16.314000000000007,6.36246337890625,1.197634887695313,2.4296630859375004
16.323999999999998,11.509347534179687,0.3686065673828125,3.532492065429688
16.334000000000003,12.671243286132814,0.35948486328125,4.120318603515625
16.34400000000001,10.646224975585938,0.9283203125,5.935986328125001
16.354,7.036572265625001,0.8922821044921876,5.470928955078126
16.364000000000004,6.186608886718751,1.2528137207031251,8.75025634765625
16.375,1.6015319824218752,-0.1303955078125,7.11014404296875
16.385000000000005,8.757434082031251,-0.489581298828125,5.797515869140625
16.39500000000001,14.038900756835938,-0.5879760742187501,4.486981201171876
16.405,6.237750244140625,-1.038677978515625,-0.3527557373046875
16.415000000000006,7.950387573242188,-0.9680969238281252,2.51220703125
16.424999999999997,6.142645263671875,-0.7901489257812501,3.448602294921875
16.435000000000002,6.772042846679688,-1.0190887451171875,6.28709716796875
16.445000000000007,10.617514038085938,-0.9688446044921876,9.03497314453125
16.455,11.231808471679688,-1.9237823486328127,6.734210205078125
16.465000000000003,4.9593658447265625,-1.1273529052734377,15.893746948242187
16.47500000000001,4.87607421875,-1.0235748291015625,4.3308654785156255
16.485,3.67440185546875,-2.01634521484375,11.893206787109376
16.495000000000005,5.18890380859375,-0.25301513671875,6.832156372070313
16.50500000000001,9.574798583984377,0.41092529296875,4.35748291015625
16.516000000000005,10.614822387695312,0.3865509033203125,2.3245391845703125
16.52600000000001,10.31201171875,-0.179443359375,4.2206573486328125
16.536,7.638305664062501,-0.5435638427734375,4.045550537109375
16.546000000000006,7.560247802734375,-0.52576904296875,4.99749755859375
16.555999999999997,5.080191040039063,-2.75206298828125,15.745706176757814
16.566000000000003,6.097335815429688,-0.4209442138671875,2.584432983398438
16.576000000000008,7.025057983398438,-1.0328460693359376,2.9890777587890627
16.586,4.589263916015625,0.0586181640625,1.9774658203125
16.596000000000004,11.042794799804687,-0.270660400390625,4.22947998046875
16.60600000000001,13.709472656250002,-0.9371429443359376,10.364947509765626
16.616,8.242282104492189,0.11783447265625,10.637551879882814
16.626000000000005,5.5186309814453125,-0.9513488769531252,6.742733764648438
16.63600000000001,1.012359619140625,-2.511309814453125,16.84315185546875
16.647000000000006,4.412213134765626,-0.3055023193359375,5.624652099609375
16.65700000000001,10.32203063964844,-0.0106170654296875,2.3667083740234376
16.668000000000006,10.926904296875,-0.3318206787109375,1.5334930419921875
16.677000000000007,10.879351806640626,0.558966064453125,6.432296752929688
16.686999999999998,7.692886352539063,0.6413604736328126,4.95263671875
16.698000000000008,6.834848022460938,0.9814056396484376,5.41619873046875
16.707000000000008,4.31920166015625,0.048748779296875,9.174490356445313
16.717,8.34351806640625,-0.118133544921875,4.688406372070313
16.727000000000004,11.884982299804689,-0.3653167724609375,5.020526123046875
16.73700000000001,7.08262939453125,-0.0384307861328125,1.2493743896484375
16.748000000000005,6.857278442382813,0.204864501953125,2.7628295898437503
16.757000000000005,6.253900146484376,-0.1000396728515625,4.710537719726563
16.76700000000001,7.100723266601563,0.2226593017578125,4.3293701171875005
16.778000000000006,8.177084350585938,-1.839892578125,11.174087524414062
16.787000000000006,8.821884155273438,-2.116384887695313,11.658883666992187
16.798000000000002,8.608197021484376,-1.532595825195313,4.916598510742188
16.807000000000002,4.9753662109375005,-0.4278228759765625,8.957812500000001
16.817999999999998,3.977212524414063,0.086431884765625,10.391265869140623
16.828000000000003,6.136813354492188,-0.419598388671875,8.478848266601563
16.838000000000008,7.87218017578125,-0.061309814453125,3.586474609375
16.848,9.756484985351562,-0.0753662109375,2.7840637207031254
16.858000000000004,9.64612731933594,0.5280120849609375,3.927267456054688
