time,ax,ay,az
0.0,6.394015502929688,-0.3098388671875,7.382449340820313
0.0099999999999909,6.465493774414063,-0.3291290283203125,7.298858642578126
0.0199999999999818,6.478353881835938,-0.2986236572265625,7.417739868164063
0.0299999999999727,6.661236572265626,-0.2256500244140625,7.237399291992188
0.0400000000000204,6.763519287109376,-0.110955810546875,7.332803344726563
0.0520000000000209,6.800155639648438,-0.0097198486328125,7.2746337890625
0.0600000000000093,6.796267700195313,0.1742095947265625,7.25908203125
0.0699999999999931,6.614730834960938,0.1754058837890625,7.139752197265626
0.079999999999984,6.53233642578125,0.0255706787109375,7.305288696289063
0.0899999999999749,6.107504272460938,-0.0366363525390625,7.508209228515626
0.1000000000000227,6.089260864257813,-0.2447906494140625,7.479797363281251
0.1100000000000136,6.373678588867188,-0.188714599609375,7.51927490234375
0.1200000000000045,6.727630615234376,0.034393310546875,7.1974731445312505
0.1309999999999718,7.124798583984376,0.0414215087890625,6.646133422851563
0.1410000000000195,6.3929687500000005,0.1993316650390625,5.750860595703125
0.1510000000000104,7.166519165039063,0.28890380859375,8.390023803710939
0.1610000000000013,6.74766845703125,0.0345428466796875,9.192584228515626
0.1709999999999922,4.344323730468751,0.054132080078125,7.936331176757813
0.1809999999999831,5.852545166015625,0.1900604248046875,6.762322998046876
0.190999999999974,7.760925292968751,-0.27275390625,6.608450317382813
0.2010000000000218,8.132223510742188,0.018243408203125,6.525457763671875
0.2110000000000127,7.141546630859375,0.301165771484375,7.794122314453125
0.2210000000000036,5.8191986083984375,-0.200677490234375,8.112185668945314
0.2309999999999945,5.523416137695313,-0.165386962890625,7.8135620117187505
0.2409999999999854,5.9398742675781255,-0.104376220703125,6.641348266601563
0.2509999999999763,6.9875244140625,-0.064599609375,6.986776733398438
0.2620000000000004,7.01683349609375,-0.0408233642578125,7.44749755859375
0.2719999999999913,6.093447875976563,-0.1042266845703125,7.977603149414063
0.2819999999999822,6.213375854492188,-0.226995849609375,7.510452270507813
0.2919999999999731,6.390725708007813,-0.24224853515625,6.816903686523438
0.3020000000000209,7.3365417480468755,-0.01435546875,6.429904174804688
0.3120000000000118,7.317700195312501,0.246435546875,7.052871704101563
0.3220000000000098,6.259283447265625,0.250323486328125,7.691690063476563
0.3319999999999936,6.0400634765625005,0.29010009765625,8.187402343750001
0.3419999999999845,5.710934448242188,0.2896514892578125,7.648922729492188
0.3519999999999754,6.0783447265625,0.2896514892578125,7.091900634765626
0.3620000000000232,6.706246948242188,0.1801910400390625,6.953878784179688
0.3720000000000141,6.756192016601563,0.096600341796875,7.319195556640626
0.382000000000005,6.898101806640626,-0.0773101806640625,7.510601806640626
0.3929999999999722,6.537121582031251,-0.2178741455078125,7.545144653320313
0.40300000000002,6.595590209960938,-0.17764892578125,7.057208251953125
0.4130000000000109,6.537420654296875,0.054132080078125,7.181622314453126
0.4230000000000018,6.263320922851563,0.2130889892578125,7.144088745117188
0.4339999999999691,6.409417724609376,0.39178466796875,7.738046264648438
0.4429999999999836,6.534878540039063,0.165087890625,7.653259277343751
0.4529999999999745,6.729275512695313,0.1006378173828125,7.310971069335938
0.4630000000000223,6.970925903320313,0.002392578125,6.883596801757813
0.4730000000000132,6.589608764648438,-0.151629638671875,6.923223876953125
0.4830000000000041,6.628338623046876,-0.092413330078125,7.335494995117188
0.492999999999995,6.773538208007813,0.026318359375,7.591650390625
0.5029999999999859,6.430502319335938,0.0668426513671875,7.432992553710938
0.5129999999999768,6.309378051757813,0.030804443359375,7.340579223632813
0.5230000000000246,6.178982543945313,-0.1888641357421875,7.298260498046876
0.5339999999999918,6.59873046875,-0.0363372802734375,7.39127197265625
0.5430000000000064,6.913504028320313,-0.074468994140625,7.2830078125
0.5539999999999736,6.550430297851563,-0.269464111328125,6.951934814453126
0.5640000000000214,6.764865112304688,-0.3928314208984375,6.474765014648438
0.5740000000000123,6.862811279296875,0.1949951171875,7.594790649414063
0.5840000000000032,6.088214111328125,0.514105224609375,8.237197875976562
0.5939999999999941,5.450741577148438,0.2836700439453125,8.138504028320312
0.603999999999985,5.978155517578125,0.2735015869140625,7.461254882812501
0.6139999999999759,7.214370727539063,-0.18721923828125,6.8385864257812505
0.6240000000000236,7.23515625,-0.3814666748046875,6.671853637695313
0.6340000000000146,6.922625732421875,0.1395172119140625,7.2154174804687505
0.6440000000000055,6.271994018554688,-0.39656982421875,7.931246948242188
0.6539999999999964,6.00357666015625,-0.64898681640625,7.940817260742188
0.6639999999999873,6.383248901367188,-0.169573974609375,7.379458618164063
0.6739999999999782,6.674993896484375,-0.11185302734375,6.882699584960938
0.6839999999999691,6.85892333984375,-0.1410125732421875,7.031637573242188
0.6949999999999932,6.543103027343751,0.1963409423828125,7.587313842773438
0.7049999999999841,6.378015136718751,0.1652374267578125,7.450039672851563
0.714999999999975,6.619815063476563,0.120526123046875,7.23575439453125
0.7250000000000227,6.942813110351563,0.3013153076171875,6.8012023925781255
0.7350000000000136,6.952981567382813,0.20576171875,6.9926086425781255
0.7450000000000045,6.440072631835938,0.385504150390625,7.278521728515625
0.7549999999999955,6.1133361816406255,0.4209442138671875,7.710382080078125
0.7649999999999864,6.313265991210938,0.0494964599609375,7.688998413085938
0.7749999999999773,6.242236328125,-0.0228790283203125,7.270297241210938
0.785000000000025,6.451437377929688,-0.077459716796875,7.26925048828125
0.7950000000000159,6.451885986328126,-0.26796875,7.337139892578126
0.8050000000000068,6.285452270507813,-0.20994873046875,7.514041137695313
0.8149999999999977,6.492858886718751,-0.3596343994140625,7.427758789062499
0.8249999999999886,6.610394287109376,-0.412420654296875,7.305587768554688
0.8349999999999795,6.677984619140625,-0.1592559814453125,7.269549560546875
0.8460000000000036,6.6112915039062505,0.1244140625,7.165023803710938
0.8559999999999945,6.545196533203126,0.2492767333984375,7.427609252929688
0.8659999999999854,6.513943481445313,0.5046844482421875,7.491162109375001
0.8759999999999764,6.316107177734375,0.479412841796875,7.33983154296875
0.8860000000000241,6.698620605468751,0.3099884033203125,7.097882080078126
0.896000000000015,6.897055053710938,0.3434844970703125,7.303344726562501
0.906000000000006,6.701013183593751,0.1616485595703125,7.263717651367188
0.9159999999999968,6.588113403320313,-0.04007568359375,7.357177734375001
0.9259999999999876,6.55028076171875,-0.207257080078125,7.2528015136718755
0.9359999999999786,6.525009155273438,-0.5396759033203126,7.224539184570313
0.9459999999999696,6.360968017578125,-0.6108551025390625,7.439871215820313
0.9560000000000172,6.506915283203125,-0.4571319580078125,7.481591796875
0.9660000000000082,6.780267333984376,-0.370550537109375,7.445852661132813
0.9759999999999992,6.8415771484375005,-0.1272552490234375,7.267755126953125
0.9870000000000232,6.712976074218751,0.1673309326171875,6.933541870117188
0.997000000000014,6.657199096679688,0.21353759765625,7.027749633789063
1.007000000000005,6.0185302734375,0.4699920654296875,6.846661376953126
1.016999999999996,4.65177001953125,0.8901885986328125,6.0687744140625
1.0269999999999868,7.723541259765626,0.7514190673828125,9.352737426757812
1.0369999999999775,8.69044189453125,0.636724853515625,9.156246948242188
1.0469999999999686,5.5510803222656255,0.3796722412109375,7.398748779296875
1.0570000000000164,5.406777954101563,-0.116339111328125,5.885443115234375
1.0670000000000073,5.72723388671875,-0.04007568359375,5.911462402343751
1.0769999999999982,7.256390380859376,-0.3629241943359375,6.964346313476563
1.086999999999989,7.739242553710938,-0.4547393798828125,9.00626220703125
1.09699999999998,6.481643676757813,-0.8377014160156251,8.7759765625
1.106999999999971,5.912808227539063,-1.3570404052734375,7.659988403320313
1.1170000000000186,5.444760131835938,-1.077557373046875,6.091055297851563
1.127999999999986,6.69443359375,0.0794036865234375,6.283059692382813
1.1379999999999768,7.760775756835938,0.20635986328125,7.117321777343751
1.1480000000000246,7.295718383789063,0.46236572265625,8.209832763671876
1.1580000000000157,6.619815063476563,0.637921142578125,7.946798706054688
1.1680000000000064,5.374029541015625,0.294586181640625,7.128387451171876
1.1779999999999973,5.882901000976563,0.5848358154296875,6.529644775390626
1.1879999999999882,6.594094848632813,0.7031188964843751,7.23515625
1.197999999999979,6.918887329101563,0.076263427734375,7.341625976562501
1.20799999999997,7.262820434570313,-0.0299072265625,8.094091796875
1.2180000000000175,6.536224365234376,-0.392083740234375,7.219454956054688
1.2280000000000086,5.98802490234375,-0.4786651611328125,6.835446166992188
1.238999999999976,6.284555053710938,-0.23865966796875,6.824530029296875
1.2479999999999905,6.340481567382813,-0.1293487548828125,7.53123779296875
1.2590000000000146,6.847857666015625,-0.148040771484375,8.02650146484375
1.2690000000000057,6.379061889648438,0.2139862060546875,7.942761230468751
1.2789999999999964,6.289340209960938,0.0895721435546875,7.162631225585938
1.2889999999999873,6.509307861328126,0.1646392822265625,6.758435058593751
1.2989999999999782,6.571514892578126,0.3545501708984375,6.929953002929688
1.308999999999969,7.054067993164063,0.57242431640625,7.317999267578125
1.3190000000000168,7.068124389648438,0.4508514404296875,7.74656982421875
1.3290000000000075,6.856979370117188,0.5603118896484376,7.610043334960938
1.3389999999999986,6.674246215820313,0.3457275390625,6.994253540039063
1.3489999999999895,6.17105712890625,0.1712188720703125,6.765762329101563
1.3589999999999804,6.417343139648438,-0.243743896484375,7.255792236328125
1.3689999999999714,6.312069702148438,-0.5764617919921875,7.7507568359375005
1.379000000000019,5.408572387695313,-1.2137847900390626,6.7997070312500005
1.38900000000001,5.07884521484375,-1.1470916748046875,7.312765502929688
1.399000000000001,7.514788818359375,-0.171368408203125,9.107647705078126
1.410000000000025,7.204800415039063,0.2860626220703125,8.051623535156251
1.420000000000016,5.94854736328125,-0.0333465576171875,6.693087768554688
1.4300000000000068,6.942364501953126,0.4939178466796875,6.105709838867188
1.4399999999999975,7.335943603515625,-0.0183929443359375,6.288592529296875
1.4499999999999886,7.1454345703125,0.4318603515625,7.434338378906251
1.4599999999999795,6.1955810546875005,0.8215515136718751,9.117965698242188
1.4699999999999704,5.479751586914063,0.2998199462890625,8.642440795898438
1.4800000000000182,5.618072509765625,0.00777587890625,7.114181518554688
1.490000000000009,6.381454467773438,-0.0765625,6.253900146484376
1.5,7.849151611328126,-0.5634521484375,6.772341918945313
1.509999999999991,7.529293823242188,-0.42288818359375,7.423721313476563
1.5199999999999818,6.7398925781250005,-0.0749176025390625,7.729522705078126
1.531000000000006,6.246273803710938,-0.419598388671875,7.497741699218751
1.5400000000000205,5.806039428710938,-0.26617431640625,6.922924804687501
1.552000000000021,6.462203979492188,0.0459075927734375,6.926065063476563
1.5609999999999786,6.560150146484376,0.095703125,7.536770629882813
1.5709999999999695,6.734808349609375,0.5354888916015625,7.785897827148438
1.5810000000000173,6.9088684082031255,0.652874755859375,7.500134277343751
1.5910000000000082,6.751705932617188,0.030804443359375,6.498541259765625
1.600999999999999,6.852642822265626,0.267669677734375,6.63760986328125
1.61099999999999,6.4482971191406255,-0.0267669677734375,6.955673217773438
1.620999999999981,6.091055297851563,-0.0527862548828125,7.886535644531251
1.6309999999999718,6.166421508789063,-0.0177947998046875,8.470623779296876
1.6410000000000196,5.834451293945313,-0.236865234375,7.963845825195313
1.6519999999999868,6.356332397460938,-0.485992431640625,7.121807861328126
1.6610000000000014,6.569869995117188,-0.0339447021484375,6.776080322265625
1.6709999999999925,6.831558227539063,-0.4185516357421875,6.959411621093751
1.6809999999999832,7.078890991210938,-0.0922637939453125,7.447348022460938
1.6920000000000073,6.637759399414063,0.103778076171875,7.4442077636718755
1.7019999999999982,6.5634399414062505,0.14176025390625,7.431198120117188
1.711999999999989,6.32896728515625,0.0474029541015625,7.281362915039063
1.72199999999998,5.926116943359375,0.3485687255859375,7.162631225585938
1.731999999999971,6.408520507812501,0.2097991943359375,7.399197387695313
1.7420000000000186,6.427062988281251,0.5976959228515626,7.3230834960937505
1.7520000000000095,5.8236846923828125,0.5414703369140625,6.743032836914063
1.7620000000000005,5.677438354492188,0.4690948486328125,6.645236206054688
1.7719999999999914,9.3968505859375,0.1780975341796875,9.698464965820314
1.7819999999999825,7.506564331054688,0.0346923828125,7.617370605468751
1.7919999999999732,4.7425384521484375,-0.783270263671875,6.413754272460938
1.802000000000021,5.233615112304688,-0.4631134033203125,6.007015991210938
1.812000000000012,6.447549438476563,-0.5256195068359375,7.131976318359375
1.8220000000000096,8.179177856445314,-0.3835601806640625,8.730218505859376
1.8319999999999936,6.862362670898438,-0.1263580322265625,9.007907104492189
1.8430000000000173,5.320645141601563,-0.2447906494140625,7.495050048828125
1.8530000000000089,5.982192993164063,-0.5924621582031251,6.315359497070313
1.8629999999999995,6.546841430664063,0.48748779296875,5.8655548095703125
1.8729999999999905,8.15570068359375,0.8571411132812501,7.228427124023438
1.8829999999999807,7.4800964355468755,0.552685546875,8.265908813476564
1.8929999999999725,5.959613037109375,0.37384033203125,8.255889892578125
1.90300000000002,5.440423583984376,-0.11304931640625,7.376467895507813
1.913000000000011,5.412161254882813,-0.1120025634765625,6.528897094726563
1.9230000000000016,7.234259033203125,0.394476318359375,6.704751586914063
1.9329999999999927,7.67838134765625,-0.429168701171875,7.728475952148438
1.942999999999984,7.014141845703126,-0.6238647460937501,7.76810302734375
1.9529999999999743,6.253750610351563,-0.5761627197265625,7.571463012695313
1.9630000000000225,5.744430541992188,-0.5357879638671875,6.513195800781251
1.973999999999989,6.759930419921876,0.1075164794921875,6.72135009765625
1.9839999999999804,7.185958862304688,0.201873779296875,6.901092529296876
1.993999999999972,6.763668823242188,-0.0091217041015625,7.878909301757813
2.004000000000019,6.211880493164063,0.4263275146484375,8.283105468750001
2.01400000000001,5.316607666015625,0.476123046875,7.593295288085938
2.024000000000001,6.234759521484375,0.2053131103515625,7.020721435546876
2.033999999999992,6.93309326171875,0.5550781250000001,6.937878417968751
2.0439999999999827,6.851446533203125,0.3793731689453125,7.185809326171875
2.0539999999999736,6.924868774414063,0.086431884765625,7.750457763671876
2.0640000000000214,5.96409912109375,-0.0485992431640625,7.606454467773438
2.0740000000000123,6.324331665039063,-0.4864410400390625,7.343569946289063
2.084000000000003,6.864755249023438,-0.5191894531250001,6.956420898437501
2.093999999999994,6.556411743164063,-0.0710296630859375,6.964047241210938
2.103999999999985,6.755892944335938,-0.3378021240234375,7.572958374023438
2.113999999999976,6.103616333007813,-0.276043701171875,7.802645874023438
2.125,6.257937622070313,-0.160003662109375,7.409365844726563
2.134999999999991,6.725836181640625,-0.0521881103515625,7.183865356445313
2.144999999999982,6.638656616210938,0.272454833984375,6.423773193359375
2.1549999999999727,6.423175048828125,0.3114837646484375,6.4602600097656255
2.1650000000000205,4.937832641601563,-0.337652587890625,6.902587890625001
2.175000000000012,7.826272583007813,0.3321197509765625,10.211972045898438
2.1850000000000094,8.580084228515625,0.4699920654296875,8.968429565429688
2.194999999999993,4.524664306640625,-0.410626220703125,5.570669555664063
2.204999999999984,5.715869140625,-0.18841552734375,5.4912658691406255
2.214999999999975,6.550430297851563,0.482403564453125,6.2601806640625
2.2250000000000227,7.6072021484375005,0.2643798828125,8.694180297851563
2.2350000000000136,7.561892700195313,0.19918212890625,10.335040283203126
2.2450000000000045,4.864559936523438,-0.0155517578125,8.217160034179688
2.2549999999999955,5.5271545410156255,-0.6715667724609375,5.963949584960938
2.26600000000002,6.570318603515625,0.2435943603515625,5.1069580078125005
2.2760000000000105,8.138653564453126,0.5809478759765625,6.682022094726563
2.2860000000000014,8.515335083007812,-0.0370849609375,8.56842041015625
2.2959999999999923,5.828021240234375,0.3709991455078125,8.73709716796875
2.305999999999983,5.30374755859375,0.055926513671875,7.470526123046875
2.315999999999974,5.287149047851563,-0.37144775390625,6.4156982421875
2.326000000000022,6.4850830078125,0.478515625,6.341079711914063
2.3360000000000127,7.909115600585938,0.0934600830078125,7.934536743164063
2.346000000000004,6.943411254882813,-0.135479736328125,8.11024169921875
2.3559999999999945,6.7398925781250005,0.2165283203125,7.659689331054688
2.365999999999985,6.275881958007813,-0.4891326904296875,6.191693115234376
2.3759999999999764,6.480596923828125,-0.610107421875,6.0330352783203125
2.386000000000024,7.207342529296875,0.162994384765625,7.007711791992188
2.396000000000015,6.177487182617188,-0.5064788818359376,7.98582763671875
2.4069999999999823,6.178982543945313,-0.060711669921875,8.758630371093751
2.416999999999973,5.709738159179688,0.0776092529296875,8.280712890625
2.427000000000021,5.697775268554688,-0.2675201416015625,6.773089599609375
2.437000000000012,7.0643859863281255,0.528759765625,6.69443359375
2.44700000000001,6.860418701171875,0.6539215087890625,6.694732666015626
2.4569999999999936,7.3006530761718755,0.0183929443359375,7.536022949218751
2.4669999999999845,6.757687377929688,0.35589599609375,7.83629150390625
2.4769999999999754,6.008660888671876,0.0083740234375,7.4068237304687505
2.487000000000023,6.545645141601563,-0.2284912109375,7.104611206054688
2.497000000000014,5.932995605468751,0.201275634765625,7.032086181640626
2.507000000000005,6.50601806640625,-0.1766021728515625,7.443609619140625
2.516999999999996,6.715667724609376,-0.552685546875,8.085717773437501
2.526999999999987,6.235656738281251,-0.1120025634765625,7.452282714843751
2.5369999999999777,7.0389648437500005,-0.3063995361328125,7.190145874023438
2.548000000000002,6.750061035156251,-0.127105712890625,6.256292724609375
2.5579999999999927,6.451437377929688,0.433953857421875,6.545196533203126
2.567999999999984,5.183969116210938,0.28531494140625,6.600225830078125
2.5779999999999745,5.181726074218751,0.5890228271484376,8.005865478515625
2.5880000000000223,10.215859985351564,0.8179626464843751,11.222088623046876
2.598000000000013,6.266610717773438,0.122918701171875,7.192687988281251
2.608000000000004,4.429708862304688,-0.394775390625,5.542257690429688
2.617999999999995,5.736056518554688,0.0847869873046875,5.298065185546875
2.627999999999986,7.052124023437501,-0.493768310546875,6.967486572265625
2.637999999999977,9.092245483398438,-0.0139068603515625,9.605902099609375
2.648000000000025,6.357229614257813,-0.2343231201171875,9.34840087890625
2.6580000000000155,4.837942504882813,-1.008172607421875,7.272689819335938
2.6680000000000064,5.624353027343751,-0.7584472656250001,6.042605590820313
2.6779999999999973,6.289788818359376,0.25062255859375,5.475714111328125
2.687999999999988,9.105255126953123,0.291595458984375,7.50133056640625
2.6990000000000123,7.727279663085938,0.38759765625,8.438772583007813
2.709000000000003,5.819497680664063,0.3002685546875,8.150018310546876
2.7199999999999704,5.40423583984375,-0.18243408203125,7.1885009765625005
2.728999999999985,4.925570678710938,0.3745880126953125,6.223394775390625
2.738999999999976,7.397402954101563,0.6762023925781251,6.928158569335938
2.749000000000024,7.648922729492188,-0.1918548583984375,7.760028076171875
2.7590000000000146,7.030590820312501,-0.08912353515625,7.827767944335938
2.769000000000005,6.679779052734376,-0.2821746826171875,7.628735351562501
2.7789999999999964,5.511154174804688,-0.444122314453125,6.235357666015625
2.788999999999988,6.579141235351563,0.2121917724609375,6.5305419921875005
2.798999999999978,6.751705932617188,-0.2165283203125,7.408468627929688
2.808999999999969,6.394613647460938,-0.2612396240234375,8.324078369140626
2.819000000000017,6.26077880859375,0.3650177001953125,8.675637817382814
2.829000000000008,5.4019927978515625,0.0225799560546875,7.452880859375001
2.838999999999998,6.67947998046875,0.0288604736328125,6.645834350585938
2.8500000000000227,7.139901733398438,0.5239746093750001,6.434689331054688
2.8600000000000136,6.917990112304688,0.1807891845703125,6.89481201171875
2.8700000000000045,7.210183715820313,0.279034423828125,8.000033569335939
2.8799999999999955,5.9652954101562505,0.1710693359375,7.880703735351563
2.8899999999999864,6.118420410156251,-0.353802490234375,7.400393676757813
2.8999999999999773,6.329116821289063,-0.2920440673828125,6.909466552734376
2.910000000000025,6.198571777343751,0.08074951171875,7.0942932128906255
2.920000000000016,6.983486938476563,-0.2250518798828125,7.648175048828126
2.930000000000007,6.322537231445313,-0.1398162841796875,7.685409545898438
2.9399999999999977,6.883746337890625,-0.2412017822265625,7.396206665039063
2.9499999999999886,6.813015747070313,-0.237164306640625,6.619216918945313
2.9610000000000127,5.38330078125,0.203668212890625,5.630484008789063
2.971000000000004,4.2396484375000005,0.2480804443359375,5.646035766601563
2.9809999999999945,9.256735229492188,0.306549072265625,10.997784423828126
2.990999999999985,10.524951171875,0.94447021484375,10.430145263671877
3.0009999999999764,3.862966918945313,-0.3648681640625,6.172402954101563
3.011000000000024,3.3256835937500004,-0.9615173339843752,4.55606689453125
3.021000000000015,5.323187255859375,0.173760986328125,5.653512573242188
3.031000000000006,9.171051025390623,0.109759521484375,8.189944458007814
3.040999999999997,9.382644653320312,0.363671875,11.08047790527344
3.0529999999999973,5.485433959960938,0.8864501953125,9.163424682617189
3.060999999999978,3.788946533203125,-1.07965087890625,5.9993896484375
3.070999999999969,5.328869628906251,-0.4852447509765625,4.272396850585938
3.0810000000000173,8.46494140625,0.6305938720703126,6.175991821289063
3.091000000000008,9.726278686523438,-0.052935791015625,8.471820068359376
3.100999999999999,7.080984497070313,0.5236755371093751,9.459356689453124
3.11099999999999,4.251312255859375,0.2065093994140625,7.955322265625001
3.120999999999981,4.256695556640626,-1.19150390625,6.43424072265625
3.132000000000005,6.207843017578125,0.466552734375,5.768206787109375
3.141999999999996,8.277273559570313,0.5790039062500001,7.195230102539063
3.15300000000002,8.422024536132813,-0.2121917724609375,8.181121826171875
3.1619999999999777,6.731967163085938,0.2056121826171875,8.177981567382814
3.1719999999999686,5.390478515625,-0.468646240234375,6.555813598632813
3.1820000000000164,5.678784179687501,-0.8454772949218751,6.138458251953126
3.192000000000008,6.715518188476563,0.5755645751953126,6.518429565429688
3.201999999999998,7.018777465820313,0.0025421142578125,8.030389404296876
3.211999999999989,6.660040283203125,-0.2141357421875,8.993402099609376
3.22199999999998,5.296270751953125,0.5710784912109376,8.576345825195313
3.231999999999971,5.707794189453125,-0.2782867431640625,6.876568603515626
3.242000000000018,7.044497680664063,0.033795166015625,6.044549560546876
3.252999999999986,7.373028564453126,0.823345947265625,6.235058593750001
3.262999999999977,7.482489013671875,-0.0940582275390625,7.541107177734376
3.273000000000025,6.474166870117188,0.1134979248046875,8.389276123046876
3.2830000000000155,5.6168762207031255,0.1876678466796875,7.878759765625
3.2930000000000064,6.049334716796875,-0.8255889892578125,7.1376586914062505
3.3029999999999973,6.491961669921875,-0.063702392578125,6.6549560546875
3.312999999999988,6.772790527343751,0.1949951171875,7.293624877929688
3.322999999999979,6.677835083007813,-0.398065185546875,7.747018432617188
3.332999999999977,6.36844482421875,0.107965087890625,7.906573486328125
3.3430000000000177,6.826324462890626,-0.0192901611328125,7.279269409179688
3.3530000000000086,6.729574584960938,-0.41571044921875,6.480297851562501
3.3629999999999995,6.629385375976563,0.6305938720703126,6.686508178710938
3.3729999999999905,6.327920532226563,0.4765716552734375,7.027899169921875
3.3829999999999814,4.129440307617188,0.5224792480468751,6.841876220703125
3.3929999999999723,6.218609619140626,0.9136657714843752,8.578439331054689
3.40300000000002,10.222738647460938,0.2277435302734375,10.442706298828126
3.413999999999988,5.877667236328126,-0.1120025634765625,6.364706420898438
3.423999999999978,5.000637817382813,-0.5656951904296875,5.94017333984375
3.433999999999969,5.690597534179688,-0.92174072265625,5.7130279541015625
3.444000000000017,7.495199584960938,-0.7805786132812501,7.428356933593751
3.454000000000008,8.2986572265625,-0.017047119140625,9.148919677734376
3.463999999999998,6.28709716796875,-0.2256500244140625,8.967532348632814
3.473999999999989,5.355487060546875,-0.5444610595703125,7.326522827148438
3.4839999999999733,5.293728637695313,-0.393878173828125,5.961856079101563
3.493999999999972,6.829763793945313,0.4376922607421875,6.036624145507813
3.504000000000019,8.527597045898439,0.9344512939453126,7.538116455078126
3.514000000000003,7.411459350585938,0.5142547607421876,8.169757080078126
3.524000000000008,6.3286682128906255,0.2409027099609375,8.136560058593751
3.533999999999999,5.113088989257813,-0.29847412109375,6.94505615234375
3.5439999999999827,5.478704833984375,0.1661346435546875,6.519027709960938
3.555000000000007,7.277325439453126,0.2690155029296875,6.950289916992188
3.5649999999999977,7.288540649414063,-0.4379913330078125,7.637258911132813
3.5749999999999886,7.537069702148438,-0.646893310546875,7.997640991210938
3.5849999999999795,6.175692749023438,-0.4406829833984375,7.260427856445313
3.594999999999977,5.728878784179688,-0.237164306640625,6.234460449218751
3.605000000000018,6.886886596679688,0.2020233154296875,6.773388671875001
3.615000000000009,6.577346801757813,-0.0372344970703125,7.347906494140625
3.625000000000007,6.587066650390626,0.2141357421875,8.317648315429688
3.634999999999998,5.847760009765626,0.5164978027343751,8.497091674804688
3.644999999999982,5.438778686523438,0.5455078125,7.436880493164063
3.6549999999999727,6.643142700195313,0.29847412109375,7.001580810546876
3.665000000000021,6.943560791015625,0.407037353515625,6.446353149414063
3.6750000000000114,7.2387451171875,0.2021728515625,7.030590820312501
3.6850000000000094,6.913803100585938,0.0892730712890625,7.809524536132813
3.694999999999993,5.971725463867188,-0.2181732177734375,7.639352416992188
3.706000000000017,6.449642944335938,-0.6311920166015625,7.493405151367188
3.716000000000008,6.273937988281251,-0.5794525146484375,6.94864501953125
3.725999999999999,6.388183593750001,-0.1428070068359375,7.183117675781251
3.73599999999999,6.732864379882813,-0.2141357421875,7.615875244140626
3.745999999999981,6.221749877929688,-0.1469940185546875,7.707839965820313
3.755999999999972,6.827072143554688,-0.11903076171875,7.256689453125
3.76600000000002,6.529345703125,0.0725250244140625,6.492410278320313
3.7760000000000034,4.654611206054688,0.2824737548828125,5.241390991210938
3.786000000000009,6.4677368164062505,0.4119720458984375,8.114578247070312
3.796,11.074945068359376,0.8257385253906251,11.1769287109375
3.805999999999983,5.868246459960938,0.2133880615234375,7.175640869140626
3.815999999999974,3.5993347167968754,-0.8127288818359376,5.911462402343751
3.826000000000022,4.820745849609375,-0.1176849365234375,5.248120117187501
3.836999999999989,7.73819580078125,0.093609619140625,7.186557006835938
3.846999999999973,9.420925903320311,0.3087921142578125,9.678128051757811
3.856999999999971,6.428109741210938,0.6742584228515626,9.740335083007814
3.867000000000018,4.611245727539063,-0.3401947021484375,7.145584106445313
3.8770000000000095,4.799362182617188,-1.011761474609375,5.221652221679688
3.887000000000008,7.121359252929688,0.3566436767578125,5.605062866210938
3.897,9.607098388671876,0.1499847412109375,7.851992797851563
3.9069999999999823,7.673147583007813,0.386700439453125,8.729022216796876
3.916999999999973,5.293728637695313,0.7369140625,8.404827880859376
3.927000000000021,4.418942260742188,-0.8583374023437501,6.9447570800781255
3.937000000000012,5.527005004882813,-0.1006378173828125,6.013595581054688
3.94700000000001,7.949041748046875,0.7644287109375001,7.012347412109375
3.9569999999999936,7.949191284179688,0.04844970703125,7.753598022460938
3.966999999999985,7.188650512695313,0.0477020263671875,8.084222412109376
3.9780000000000086,5.908770751953125,-0.2767913818359375,7.021170043945313
3.988,5.6716064453125,-1.128848266601563,6.163430786132813
3.9979999999999913,6.931448364257813,0.0360382080078125,6.60172119140625
4.007999999999981,6.661386108398438,0.0853851318359375,7.355981445312499
4.017999999999972,6.619815063476563,-0.38819580078125,8.721844482421876
4.02800000000002,5.6991210937500005,0.28292236328125,8.718704223632812
4.038000000000011,5.025311279296876,0.08074951171875,7.493255615234376
4.048000000000009,7.042553710937501,-0.052337646484375,6.4252685546875
4.058,7.264315795898438,0.9437225341796877,6.241488647460938
4.069999999999993,7.520770263671875,0.265875244140625,6.995300292968751
4.077999999999975,6.913952636718751,0.1686767578125,8.122802734375
4.088000000000022,5.528799438476563,0.343634033203125,7.685110473632813
4.098000000000013,6.200216674804688,-0.4278228759765625,7.553369140625
4.108000000000004,6.312518310546875,-0.45518798828125,6.833352661132813
4.117999999999995,6.579141235351563,0.0705810546875,7.228277587890625
4.127999999999986,6.842474365234375,-0.4451690673828125,7.816403198242188
4.139000000000003,5.981594848632813,-0.2112945556640625,7.585369873046876
4.149000000000008,6.955374145507813,-0.0483001708984375,7.421029663085938
4.158999999999999,7.069021606445313,-0.4433746337890625,6.534280395507813
4.170000000000016,6.480447387695313,0.3158203125,6.331060791015625
4.178999999999974,5.8680969238281255,0.8708984375000001,6.9268127441406255
4.189000000000021,3.635671997070313,0.68726806640625,6.4886718750000005
4.199000000000012,9.237445068359376,0.8559448242187501,11.080178833007814
4.209000000000003,8.979196166992189,0.5036376953125,8.933139038085939
4.218999999999994,4.188806152343751,-0.6301452636718751,5.470480346679688
4.228999999999985,5.225091552734376,-0.4747772216796875,5.325579833984375
4.238999999999976,6.014044189453125,-0.5417694091796875,6.256442260742188
4.249000000000024,8.914596557617188,-0.6358276367187501,8.74786376953125
4.259000000000015,7.885189819335938,0.04964599609375,9.717156982421876
4.269999999999982,4.886541748046875,-0.427972412109375,7.914199829101563
4.279999999999973,5.576651000976563,-1.2688140869140625,6.679031372070313
4.2900000000000205,5.308981323242188,-0.06041259765625,5.358477783203125
4.300000000000011,7.954873657226563,0.6859222412109376,6.947598266601563
4.310000000000009,8.736499023437501,0.6733612060546875,8.304788208007814
4.319999999999993,6.35887451171875,0.6018829345703125,8.403182983398438
4.329999999999984,5.947949218750001,0.0354400634765625,7.5997253417968755
4.339999999999975,4.6767425537109375,-0.268865966796875,6.343173217773438
4.350000000000023,6.405978393554688,0.914862060546875,6.264517211914063
4.360000000000014,7.996295166015625,0.1051239013671875,7.718756103515625
4.3700000000000045,7.172650146484376,-0.551190185546875,7.961004638671875
4.379999999999996,6.998291015625001,-0.366064453125,8.132373046875001
4.389999999999986,5.4314514160156255,-0.7599426269531251,6.489270019531251
4.399999999999977,6.055465698242188,-0.2201171875,6.161337280273438
4.410000000000025,7.32547607421875,0.2923431396484375,6.866699218750001
4.420999999999999,6.5807861328125,-0.4732818603515625,7.68795166015625
4.430999999999983,6.778472900390626,0.21951904296875,8.800201416015625
4.440999999999974,5.298214721679688,0.5324981689453125,8.004519653320314
4.451000000000022,5.648428344726563,0.18363037109375,6.90079345703125
4.461000000000013,7.1840148925781255,0.5369842529296875,6.7787719726562505
4.471000000000004,6.716116333007813,0.6524261474609375,6.675741577148438
4.4809999999999945,7.36734619140625,0.2213134765625,7.597183227539063
4.4909999999999854,6.268405151367188,0.2787353515625,7.938275146484376
4.500999999999976,5.825479125976563,-0.26976318359375,7.534378051757813
4.511000000000024,6.864157104492188,-0.7298858642578125,7.142593383789063
4.521000000000015,6.203656005859376,-0.1786956787109375,6.731967163085938
4.531000000000006,6.9253173828125005,-0.2115936279296875,7.404730224609375
4.540999999999997,6.429754638671875,-0.4882354736328125,7.799954223632813
4.550999999999988,6.067428588867188,-0.2382110595703125,7.544995117187501
4.562000000000012,7.003375244140625,-0.2890533447265625,7.207342529296875
4.57200000000001,6.091055297851563,-0.0453094482421875,5.861367797851563
4.581999999999994,4.8871398925781255,0.3816162109375,5.452984619140626
4.5919999999999845,7.339682006835938,0.118731689453125,8.951531982421876
4.601999999999975,10.249655151367188,0.6114532470703126,11.140142822265624
4.612000000000023,5.573062133789063,0.29847412109375,7.3948608398437505
4.622000000000014,3.4719299316406254,-0.9039459228515626,5.2150726318359375
4.632000000000005,5.138211059570313,0.4021026611328125,5.109201049804688
4.641999999999996,8.295516967773438,0.6673797607421875,7.301699829101563
4.651999999999987,9.142340087890624,0.2301361083984375,10.1457275390625
4.661999999999978,6.554617309570313,0.65496826171875,9.910507202148438
4.671999999999969,4.044204711914063,-0.429168701171875,6.864755249023438
4.682000000000016,5.004824829101563,-0.95284423828125,4.691397094726563
4.692999999999984,7.625595092773438,0.635528564453125,5.747122192382813
4.702999999999975,9.425860595703126,-0.0548797607421875,7.853787231445313
4.713000000000022,7.8389831542968755,0.01614990234375,9.23819274902344
4.723000000000013,4.788595581054688,0.4167572021484375,8.318695068359375
4.733000000000004,4.280023193359376,-0.774298095703125,6.669012451171875
4.742999999999995,5.928958129882813,-0.040374755859375,5.984884643554688
4.752999999999986,7.888180541992188,0.8118316650390626,6.820193481445313
4.762999999999977,8.236300659179689,0.02691650390625,8.0354736328125
4.773000000000025,6.908419799804688,0.1320404052734375,8.185308837890625
4.783000000000016,5.634371948242188,-0.0838897705078125,7.1191162109375
4.793000000000006,5.840133666992188,-0.8432342529296876,6.167916870117188
4.802999999999997,6.587216186523438,0.19080810546875,6.363211059570313
4.812999999999988,6.888082885742188,0.1487884521484375,7.587463378906251
4.822999999999979,6.795819091796876,-0.4892822265625,8.811117553710938
4.832999999999977,5.617474365234376,0.15970458984375,8.635711669921875
4.843999999999994,5.497396850585938,-0.2322296142578125,7.170407104492188
4.853999999999985,6.847409057617188,-0.2552581787109375,6.290087890625
4.863999999999976,7.351196289062501,0.8163177490234376,6.130532836914063
4.874000000000024,7.284802246093751,0.2008270263671875,7.405029296875001
4.884000000000015,6.555514526367188,0.0808990478515625,8.209832763671876
4.8940000000000055,5.709588623046876,0.3874481201171875,7.99898681640625
4.903999999999996,6.127691650390625,-0.3841583251953125,7.255642700195313
4.913999999999987,6.4276611328125,-0.1146942138671875,6.608599853515625
4.923999999999978,6.796566772460938,0.3695037841796875,7.22020263671875
4.933999999999969,6.753051757812501,-0.291595458984375,7.618118286132813
4.944000000000017,6.168963623046875,-0.1514801025390625,7.840628051757813
4.954000000000008,6.741537475585938,-0.034393310546875,7.386337280273438
4.963999999999999,6.936831665039063,-0.5060302734375001,6.687255859375001
4.975000000000023,6.548934936523438,0.2663238525390625,6.255993652343751
4.985000000000014,5.178436279296875,0.8477203369140626,6.55386962890625
4.9950000000000045,4.186563110351563,0.687567138671875,6.7548461914062505
5.004999999999996,10.12464294433594,0.8599822998046875,11.708380126953124
5.014999999999986,7.948593139648438,0.25780029296875,8.420828247070313
5.024999999999977,4.262826538085938,-1.02103271484375,5.6183715820312505
5.035000000000025,5.168417358398438,-0.636724853515625,5.1667724609375005
5.045000000000016,6.483737182617188,-0.669622802734375,6.352444458007813
5.055000000000007,9.261370849609376,-0.434552001953125,9.020617675781253
5.064999999999998,7.458862304687501,0.255706787109375,9.714016723632811
5.074999999999989,4.886242675781251,-0.4771697998046875,7.844815063476563
5.08499999999998,5.295822143554688,-1.1814849853515623,6.228179931640626
5.0949999999999775,5.489920043945313,0.2513702392578125,5.359075927734375
5.105000000000018,8.478549194335939,0.8647674560546875,7.045843505859375
5.115000000000009,8.442510986328125,0.5842376708984376,8.301947021484375
5.125000000000007,6.39775390625,0.6657348632812501,8.5020263671875
5.136000000000024,5.574557495117188,-0.2591461181640625,7.654605102539063
5.146000000000015,4.5985351562500005,-0.1909576416015625,6.186309814453126
5.156000000000006,6.7234436035156255,0.92652587890625,6.333303833007813
5.165999999999997,7.910461425781251,-0.229388427734375,7.609744262695313
5.175999999999988,7.516583251953126,-0.6144439697265626,8.006463623046876
5.185999999999979,6.662432861328125,-0.3306243896484375,7.937527465820313
5.1959999999999695,5.310925292968751,-0.8225982666015625,6.595291137695313
5.206000000000017,6.2721435546875,0.0444122314453125,6.389080810546876
5.216000000000008,6.907223510742188,0.2794830322265625,6.82901611328125
5.225999999999999,6.720452880859376,-0.3560455322265625,7.944406127929688
5.23599999999999,6.666320800781251,0.4341033935546875,8.909661865234376
5.245999999999981,5.235409545898438,0.6440521240234376,7.769598388671875
5.255999999999972,6.088513183593751,0.1146942138671875,6.810623168945313
5.266999999999996,7.174145507812501,0.5396759033203126,6.422128295898438
5.276999999999987,6.952532958984375,0.4891326904296875,6.747070312500001
5.286999999999978,7.287942504882813,0.139068603515625,7.661483764648438
5.296999999999969,5.953033447265625,0.1792938232421875,8.135812377929689
5.307000000000016,6.0831298828125,-0.4684967041015625,7.647726440429688
5.317000000000007,6.483438110351563,-0.8406921386718751,7.014590454101563
5.326999999999998,6.220254516601563,-0.16688232421875,6.651516723632813
5.336999999999989,7.092947387695313,-0.1921539306640625,7.526153564453126
5.346999999999973,6.393865966796875,-0.3545501708984375,7.709634399414063
5.356999999999971,6.483438110351563,-0.1024322509765625,7.435684204101563
5.367000000000019,6.660787963867188,-0.3025115966796875,6.936083984375
5.3770000000000095,4.34552001953125,0.1685272216796875,5.2475219726562505
5.387000000000008,5.960061645507813,0.7544097900390625,7.0533203125
5.398000000000025,11.57693786621094,0.7615875244140625,11.173788452148438
5.406999999999982,7.06468505859375,0.358587646484375,7.969976806640625
5.418000000000006,3.381610107421875,-0.66812744140625,6.260479736328126
5.427999999999997,3.3763763427734377,-0.43245849609375,5.070620727539063
5.437999999999988,7.091302490234376,0.2226593017578125,6.858773803710938
5.447999999999979,10.16666259765625,0.32838134765625,9.384588623046875
5.457999999999977,7.431945800781251,0.389691162109375,9.590798950195314
5.468000000000018,5.004974365234375,0.0083740234375,7.647427368164063
5.478000000000009,4.127197265625,-1.057070922851563,5.4528350830078125
5.488,6.463250732421876,0.13936767578125,5.3167572021484375
5.497999999999991,9.5475830078125,0.4306640625,7.434637451171875
5.507999999999981,8.205795288085938,0.2241546630859375,8.639151000976563
5.517999999999972,5.860769653320313,0.652874755859375,8.867941284179688
5.52800000000002,3.903640747070313,-0.43724365234375,7.115078735351563
5.538000000000011,4.936187744140625,-0.454888916015625,6.061596679687501
5.548999999999978,7.975360107421875,0.701324462890625,6.748565673828126
5.558999999999969,8.180374145507812,0.2241546630859375,7.483087158203125
5.569000000000017,7.651763916015626,0.0067291259765625,8.056558227539064
5.579000000000008,5.818899536132813,-0.2696136474609375,7.4301513671875
5.588999999999999,5.226287841796875,-0.9812561035156252,6.285153198242188
5.5989999999999895,6.680526733398438,-0.1921539306640625,6.632376098632813
5.608999999999973,6.637460327148438,0.29249267578125,7.239642333984375
5.618999999999971,7.050778198242188,-0.3153717041015625,8.419183349609376
5.629000000000019,6.071615600585938,0.0958526611328125,8.797659301757813
5.639000000000003,4.96878662109375,0.16807861328125,7.438674926757813
5.649000000000008,6.6875549316406255,-0.164788818359375,6.672003173828125
5.658999999999999,7.219903564453125,0.6907073974609376,6.123504638671875
5.670999999999999,7.455123901367188,0.5860321044921876,6.884793090820313
5.678999999999974,7.074703979492188,0.0599639892578125,8.099774169921876
5.689999999999998,5.533285522460938,0.3662139892578125,8.034426879882814
5.699999999999989,6.040960693359375,-0.237762451171875,7.536621093750001
5.70999999999998,6.26376953125,-0.495562744140625,6.777874755859376
5.7199999999999775,6.719256591796875,0.0231781005859375,6.988272094726563
5.730000000000018,7.02879638671875,-0.2441925048828125,7.673297119140625
5.740000000000009,6.073410034179688,-0.3455780029296875,7.68675537109375
5.750000000000007,6.678134155273438,-0.0749176025390625,7.496246337890626
5.759999999999998,6.865203857421876,-0.4041961669921875,6.916494750976563
5.771000000000015,6.724639892578126,0.0420196533203125,6.392669677734376
5.779999999999973,6.441567993164063,0.7672698974609375,6.83140869140625
5.7900000000000205,3.69713134765625,0.8531036376953126,6.407473754882813
5.800000000000011,6.399996948242188,0.9800598144531252,8.938821411132814
5.810000000000009,10.502371215820313,0.774298095703125,10.580728149414064
5.819999999999993,5.976809692382813,-0.040972900390625,6.508261108398438
5.829999999999984,5.199221801757813,-0.8037567138671876,5.864358520507813
5.841000000000008,5.021871948242188,-0.5625549316406251,5.3511505126953125
5.850999999999999,7.496395874023438,-1.0448089599609376,7.510153198242188
5.86099999999999,8.765359497070314,-0.2950347900390625,9.589602661132814
5.870999999999981,6.084326171875,-0.33197021484375,8.939868164062501
5.880999999999972,5.633624267578125,-0.9725830078125,7.258633422851563
5.89100000000002,5.076153564453126,-0.69683837890625,5.77867431640625
5.901000000000003,6.739743041992188,0.539227294921875,5.9635009765625
5.9110000000000085,8.712423706054688,0.8768798828125001,7.678680419921876
5.920999999999999,7.2064453125,0.7600921630859375,8.118316650390625
5.930999999999983,6.576898193359376,0.4744781494140625,8.391668701171875
5.940999999999974,4.9765625,-0.2986236572265625,7.023114013671876
5.951000000000022,5.189950561523438,0.57362060546875,6.1417480468750005
5.961000000000013,7.380654907226563,0.6123504638671875,7.024310302734375
5.971999999999973,7.56114501953125,-0.5474517822265625,7.609146118164063
5.981999999999971,7.642343139648438,-0.4729827880859375,8.158242797851564
5.992000000000019,6.018679809570313,-0.6603515625,7.061096191406251
6.0020000000000095,5.45926513671875,-0.6290985107421876,6.467587280273438
6.012000000000008,6.78714599609375,0.175555419921875,6.87686767578125
6.021999999999999,6.37083740234375,-0.2160797119140625,7.332504272460938
6.031999999999982,6.9701782226562505,-0.121722412109375,8.40931396484375
6.041999999999973,6.010006713867188,0.58857421875,8.401538085937501
6.052000000000021,5.368048095703125,0.5214324951171876,7.2447265625
6.062000000000012,6.927261352539063,0.3850555419921875,6.7428833007812505
6.07200000000001,6.892718505859375,0.6386688232421875,6.505868530273438
6.081999999999994,7.280914306640626,0.378326416015625,7.058255004882813
6.100999999999999,6.732116699218751,0.3135772705078125,7.928704833984375
6.101999999999975,5.78824462890625,0.004486083984375,7.777224731445313
6.112000000000023,6.437081909179688,-0.5945556640625,7.678082275390626
6.122000000000014,6.158197021484376,-0.6628936767578125,6.755593872070313
6.132000000000005,6.582730102539063,-0.18961181640625,7.101321411132813
6.142999999999972,6.977206420898438,-0.432159423828125,7.6478759765625
6.15300000000002,6.170309448242188,-0.28770751953125,7.595239257812499
6.163000000000011,7.063937377929688,-0.2738006591796875,7.40263671875
6.173000000000009,6.586468505859376,-0.141461181640625,6.606207275390625
6.183,5.416049194335938,0.342437744140625,5.877069091796876
6.192999999999984,4.461111450195313,0.177947998046875,5.948248291015625
6.202999999999975,9.129928588867188,0.249725341796875,10.652655029296875
6.213000000000022,10.025500488281253,1.0226776123046877,9.751101684570314
6.223000000000013,4.051681518554688,-0.1568634033203125,6.5664306640625005
6.233000000000004,3.4013488769531253,-0.101385498046875,5.050134277343751
6.242999999999995,5.58367919921875,0.4254302978515625,6.159243774414063
6.252999999999986,8.876315307617189,-0.001495361328125,7.91405029296875
6.264000000000003,9.467730712890626,-0.06998291015625,10.228570556640626
6.274000000000008,5.604315185546875,0.407635498046875,8.476605224609376
6.283999999999999,4.204656982421875,-1.140811157226563,6.328219604492188
6.293999999999983,5.435787963867188,-0.2127899169921875,5.153164672851563
6.303999999999974,7.875918579101563,0.381317138671875,6.291433715820313
6.314000000000021,9.364401245117188,-0.0363372802734375,8.434436035156251
6.324000000000012,7.019674682617188,0.4342529296875,9.101666259765626
6.334000000000003,4.711883544921875,0.2887542724609375,7.701260375976563
6.343999999999994,4.661639404296875,-0.6509307861328125,6.3439208984375
6.353999999999985,6.185711669921876,0.6884643554687501,6.040661621093751
6.363999999999976,8.26934814453125,0.5339935302734375,7.413552856445313
6.375000000000007,7.831207275390626,-0.0035888671875,8.060147094726563
6.384000000000015,6.479998779296875,0.13458251953125,8.079437255859375
6.394999999999982,5.763272094726563,-0.5525360107421875,6.731817626953125
6.404999999999973,5.851199340820313,-0.90439453125,6.2314697265625005
6.4150000000000205,7.001281738281251,0.317913818359375,6.557458496093751
6.425000000000011,6.855783081054688,-0.472833251953125,7.907919311523438
6.435000000000009,6.48209228515625,-0.39896240234375,8.761322021484375
6.444999999999993,5.484686279296875,0.380718994140625,8.520419311523439
6.454999999999984,5.5919036865234375,-0.3739898681640625,6.827819824218751
6.464999999999975,7.110891723632813,0.2648284912109375,6.355136108398438
6.475000000000023,7.292428588867188,0.936993408203125,6.5185791015625005
6.485000000000014,7.266409301757813,0.13577880859375,7.374075317382813
6.4950000000000045,6.4850830078125,0.456683349609375,8.243777465820314
6.504999999999996,5.737850952148438,0.3662139892578125,7.636660766601563
6.514999999999986,6.312518310546875,-0.498553466796875,7.176837158203125
6.524999999999977,6.453979492187501,0.0713287353515625,6.743481445312501
6.535000000000025,6.600674438476563,-0.0584686279296875,7.435684204101563
6.545999999999999,6.598880004882813,-0.5444610595703125,7.793075561523438
6.555999999999983,6.252105712890626,-0.1780975341796875,7.669259643554688
6.565999999999974,7.020870971679688,-0.310137939453125,7.260427856445313
6.576000000000022,6.808380126953126,-0.447113037109375,6.303546142578125
6.586000000000013,5.5021820068359375,0.8854034423828125,6.257339477539063
6.596000000000004,4.36705322265625,0.9814056396484376,6.428408813476563
6.6059999999999945,8.86868896484375,0.6593048095703126,10.822976684570314
6.6159999999999854,8.329013061523439,0.8462249755859376,9.080581665039062
6.625999999999976,4.5162902832031255,-0.46954345703125,6.034231567382813
6.636000000000024,5.625399780273438,-0.9117218017578126,5.6636810302734375
6.646000000000015,6.505270385742188,-0.0686370849609375,6.051129150390626
6.656000000000006,8.285049438476562,-0.6700714111328125,7.972518920898438
6.665999999999997,7.685708618164063,-0.1903594970703125,9.558499145507811
6.675999999999988,5.359375,-0.3440826416015625,8.309124755859376
6.685999999999979,5.369393920898438,-1.5816436767578126,6.754995727539063
6.69700000000001,5.781515502929688,-0.308941650390625,5.813366699218751
6.706999999999994,7.544845581054688,0.9323577880859376,6.717013549804688
6.7169999999999845,8.277423095703126,0.399859619140625,7.822085571289063
6.726999999999975,6.905578613281251,0.7251007080078126,8.155999755859376
6.737000000000023,5.968585205078125,0.1876678466796875,7.716961669921876
6.747999999999991,5.307635498046875,-0.3907379150390625,6.7267333984375
6.757000000000005,5.95811767578125,1.0552764892578126,6.417941284179688
6.766999999999996,7.079190063476563,0.3194091796875,7.381851196289063
6.776999999999987,7.550079345703126,-0.7805786132812501,8.020220947265626
6.788999999999987,6.947448730468751,-0.22430419921875,7.853488159179688
6.796999999999969,6.046942138671875,-0.5662933349609376,6.586019897460938
6.808,6.218759155273438,-0.450103759765625,6.500485229492188
6.817000000000007,6.6456848144531255,0.2824737548828125,6.844268798828126
6.827999999999975,6.5963378906250005,-0.4257293701171875,7.801898193359375
6.838000000000022,6.4707275390625005,0.01435546875,8.510250854492188
6.848000000000013,5.591604614257813,0.711492919921875,8.184561157226563
6.858000000000004,5.919686889648438,0.26258544921875,7.058255004882813
6.867999999999995,6.889877319335938,0.3590362548828125,6.639404296875001
6.877999999999986,6.969729614257813,0.7511199951171875,6.693087768554688
6.889000000000003,7.210183715820313,0.147442626953125,7.394412231445313
6.898000000000025,6.522915649414063,0.2651275634765625,7.73460693359375
6.908000000000016,6.203506469726563,-0.0569732666015625,7.658343505859375
6.918000000000006,6.318200683593751,-0.8436828613281251,7.2243896484375005
6.927999999999997,6.121560668945313,-0.2289398193359375,7.035076904296876
6.937999999999988,6.633123779296875,-0.08433837890625,7.398599243164063
6.947999999999979,6.521420288085938,-0.5692840576171876,7.752700805664063
6.957999999999977,6.478054809570313,-0.2080047607421875,7.521667480468751
6.968000000000018,6.909616088867188,-0.177349853515625,7.23216552734375
6.978999999999985,6.717910766601563,-0.0785064697265625,6.507812500000001
6.990000000000009,5.928958129882813,0.578704833984375,6.557308959960938
6.999000000000024,3.8230407714843753,-0.1057220458984375,5.757440185546876
7.009000000000015,7.740887451171876,0.04605712890625,9.445599365234376
7.0190000000000055,11.72303466796875,1.29498291015625,10.505810546875
7.028999999999996,5.270700073242188,0.267071533203125,6.339733886718751
7.038999999999987,3.3360015869140627,-0.4655059814453125,5.510406494140625
7.048999999999978,3.9160522460937504,0.3138763427734375,5.876470947265625
7.058999999999969,7.999285888671875,-0.4175048828125,8.018426513671876
7.069000000000017,10.19716796875,-0.040972900390625,10.160232543945312
7.079000000000008,6.578692626953125,0.557171630859375,8.737994384765626
7.088999999999999,4.713528442382813,-0.975872802734375,6.381604003906251
7.0989999999999895,4.658050537109375,-0.749176025390625,4.991366577148438
7.108999999999973,6.931448364257813,0.5105163574218751,5.931201171875
7.118999999999971,9.827066040039064,-0.0681884765625,8.262619018554688
7.129999999999996,7.717709350585938,0.5882751464843751,9.059197998046876
7.139999999999986,5.1612396240234375,0.7271942138671875,8.205047607421875
7.149999999999977,3.9852874755859378,-0.7259979248046875,6.752603149414063
7.160000000000025,5.211782836914063,0.4975067138671875,5.916995239257813
7.170000000000016,8.265161132812501,0.7298858642578125,7.096536254882813
7.180000000000007,8.572009277343751,-0.1782470703125,7.805935668945313
7.189999999999998,7.320242309570313,0.299969482421875,8.088409423828125
7.199999999999989,5.599530029296876,-0.499749755859375,7.1310791015625
7.2099999999999795,5.1746978759765625,-1.3374511718750002,6.081784057617188
7.2199999999999775,6.773089599609375,0.0560760498046875,6.608151245117188
7.230000000000018,7.070516967773438,-0.396868896484375,7.43553466796875
7.240000000000009,7.067376708984376,-0.4964599609375,8.849847412109376
7.250000000000007,5.685812377929688,0.5650970458984376,8.660235595703126
7.259999999999998,4.820596313476563,-0.1185821533203125,7.251754760742188
7.269999999999982,6.729574584960938,0.0521881103515625,6.418838500976563
7.281000000000006,7.322634887695313,1.1772979736328126,6.355435180664063
7.290999999999997,7.710382080078125,0.3170166015625,6.988571166992188
7.300999999999988,6.894961547851563,0.474627685546875,8.249011230468751
7.310999999999979,5.5089111328125,0.5239746093750001,7.8488525390625
7.3209999999999695,6.017333984375,-0.5419189453125001,7.339083862304688
7.331000000000017,6.297863769531251,-0.2902496337890625,6.694583129882813
7.341000000000008,6.813613891601563,0.042767333984375,7.197024536132813
7.350999999999999,6.976608276367188,-0.8010650634765626,7.800253295898438
7.36099999999999,5.957220458984375,-0.2678192138671875,7.793374633789063
7.370999999999981,6.620413208007813,-0.279034423828125,7.547088623046876
7.380999999999972,6.869091796875001,-0.6220703125,6.549383544921875
7.3910000000000196,6.759930419921876,0.31043701171875,6.453082275390625
7.401999999999987,6.735256958007813,0.6132476806640625,6.774435424804688
7.411999999999978,3.438433837890625,0.5289093017578126,6.114382934570313
7.420999999999999,6.770098876953125,1.1871673583984377,9.551171875
7.432000000000016,10.1983642578125,0.5523864746093751,10.4591552734375
7.442000000000007,5.190399169921875,-0.317913818359375,6.661087036132813
7.451999999999998,5.585623168945313,-0.3491668701171875,6.090008544921876
7.461999999999989,5.330963134765625,-0.3792236328125,5.24871826171875
7.471999999999973,7.965789794921876,-0.2059112548828125,6.8729797363281255
7.481999999999971,8.712573242187501,0.138470458984375,9.412103271484376
7.492000000000019,5.774487304687501,-0.63941650390625,9.023907470703126
7.5020000000000095,5.467489624023438,-1.2619354248046877,7.802795410156251
7.512000000000008,4.473822021484375,-0.304754638671875,5.791833496093751
7.5219999999999985,7.030740356445313,0.38221435546875,5.98443603515625
7.531999999999982,9.015383911132814,0.8121307373046875,7.363607788085938
7.541999999999973,7.309774780273438,0.375335693359375,8.017828369140625
7.553999999999974,6.524111938476563,0.1290496826171875,8.458660888671876
7.562999999999988,4.620516967773438,-0.213238525390625,7.039413452148438
7.572999999999979,5.434292602539063,0.7786346435546876,6.158047485351563
7.582999999999977,7.639950561523438,0.31761474609375,7.027600097656251
7.593000000000018,7.305288696289063,-0.2208648681640625,7.468582153320313
7.603000000000009,7.478451538085938,-0.2848663330078125,8.292825317382814
7.612999999999999,5.81396484375,-0.5528350830078126,7.252053833007813
7.6229999999999905,5.625250244140625,-0.3617279052734375,6.5559631347656255
7.632999999999981,7.0569091796875005,0.1517791748046875,6.688302612304688
7.642999999999972,6.501232910156251,-0.4179534912109375,7.234259033203125
7.65300000000002,6.956121826171875,0.136376953125,8.330657958984375
7.663000000000011,5.647531127929688,0.259893798828125,8.524755859375
7.673000000000009,5.479452514648438,0.0907684326171875,7.172500610351563
7.683,7.014291381835938,0.263482666015625,7.080535888671876
7.692999999999984,6.765911865234376,0.5027404785156251,6.357379150390625
7.7029999999999745,7.355831909179688,0.308941650390625,7.126892089843751
7.713999999999999,6.680227661132813,0.358587646484375,7.785299682617188
7.723999999999989,5.885592651367188,-0.10228271484375,7.730270385742188
7.733999999999973,6.548635864257813,-0.4535430908203125,7.537966918945313
7.743999999999971,6.178533935546875,-0.1754058837890625,6.897055053710938
7.754000000000019,6.6621337890625005,-0.0346923828125,7.180426025390625
7.764000000000003,6.642395019531251,-0.3590362548828125,7.640698242187501
7.774000000000008,6.0988311767578125,-0.219219970703125,7.558303833007813
7.783999999999999,7.057656860351563,-0.3186614990234375,7.488470458984375
7.793999999999983,6.427810668945313,-0.1936492919921875,6.384146118164063
7.803999999999974,5.5902587890625,0.0414215087890625,6.102120971679688
7.814000000000021,5.389730834960938,-0.3736907958984375,6.821240234375001
7.824000000000012,8.400491333007814,0.07357177734375,10.0356689453125
7.8349999999999795,8.742480468750001,0.4684967041015625,8.758181762695314
7.8449999999999775,4.719210815429688,-0.27275390625,6.2853027343750005
7.855000000000018,4.851998901367188,0.1386199951171875,5.697775268554688
7.865000000000009,5.949444580078126,1.16937255859375,6.8176513671875005
7.875000000000007,7.974462890625,0.5456573486328126,8.555560302734376
7.884999999999998,8.105456542968751,0.467449951171875,9.641342163085938
7.894999999999982,5.625698852539063,0.13458251953125,7.538714599609375
7.904999999999973,5.414703369140625,-0.739605712890625,6.15550537109375
7.91500000000002,6.401940917968751,0.2489776611328125,5.53582763671875
7.925000000000011,7.632324218750001,0.0868804931640625,6.817501831054688
7.935000000000009,8.40333251953125,-0.5386291503906251,8.480194091796875
7.944999999999993,6.091354370117188,0.08673095703125,8.7221435546875
7.954999999999984,4.876373291015625,-0.3458770751953125,7.4905639648437505
7.964999999999975,5.365057373046875,-0.3677093505859375,6.632077026367188
7.975000000000023,6.438278198242188,0.5209838867187501,6.4677368164062505
7.98599999999999,8.244973754882814,0.21832275390625,7.518377685546875
7.995999999999981,7.470376586914063,0.2435943603515625,7.626641845703125
8.005999999999972,6.4782043457031255,0.410028076171875,7.292727661132813
8.01600000000002,6.172702026367188,-0.3811676025390625,6.789987182617188
8.026000000000003,5.824282836914063,-0.272454833984375,6.465344238281251
8.036000000000008,6.684115600585938,0.214434814453125,7.316354370117188
8.046,6.632974243164063,-0.4376922607421875,8.230767822265626
8.055999999999983,6.184365844726563,-0.1478912353515625,8.402734375000001
8.065999999999974,5.8606201171875005,-0.0665435791015625,7.81595458984375
8.076000000000022,5.995950317382813,-0.51260986328125,6.785202026367188
8.086000000000013,7.102966308593751,0.2761932373046875,6.546542358398438
8.096000000000004,7.193136596679688,0.4079345703125,6.856231689453126
8.105999999999995,7.044049072265626,-0.0820953369140625,7.5249572753906255
8.117000000000019,6.504373168945313,0.3632232666015625,8.060446166992188
8.12700000000001,5.708093261718751,0.069085693359375,7.451385498046876
8.137000000000008,6.196029663085938,-0.073272705078125,7.114031982421875
8.146999999999998,6.47850341796875,0.427972412109375,7.058853149414063
8.156999999999982,6.738995361328126,-0.1293487548828125,7.48099365234375
8.166999999999973,6.707592773437501,-0.12620849609375,7.7052978515625
8.177000000000021,6.329415893554688,0.01854248046875,7.4546752929687505
8.187000000000012,6.780267333984376,-0.374737548828125,7.08621826171875
8.19700000000001,6.73331298828125,-0.1625457763671875,6.731219482421875
8.206999999999994,6.498690795898438,0.1413116455078125,6.773239135742188
8.216999999999985,5.9084716796875005,0.178546142578125,7.0883117675781255
8.226999999999975,3.509912109375,0.8604309082031251,6.349005126953125
8.237000000000023,8.424118041992188,0.7487274169921876,9.738391113281253
8.247000000000014,10.294964599609376,0.4846466064453125,9.9136474609375
8.257999999999981,4.897457885742188,0.0231781005859375,5.998492431640625
8.267999999999972,4.5417114257812505,-0.9320587158203124,5.739346313476563
8.27800000000002,5.389730834960938,-0.8345611572265625,5.714224243164063
8.288000000000011,8.497689819335939,-0.4921234130859375,8.071661376953125
8.298000000000009,8.842071533203125,-0.165386962890625,9.5691162109375
8.308,5.486032104492188,-0.0115142822265625,8.485726928710939
8.317999999999984,4.969683837890625,-0.945068359375,6.9806457519531255
8.327999999999975,5.074060058593751,-0.7188201904296876,5.7673095703125
8.338000000000022,7.514788818359375,0.5964996337890626,6.2494140625000005
8.348000000000013,9.01822509765625,0.9869384765625,7.785299682617188
8.358000000000004,7.207940673828125,0.49825439453125,8.195626831054689
8.367999999999995,5.823834228515626,0.268267822265625,8.155401611328125
8.377999999999986,4.514645385742188,-0.4209442138671875,6.722247314453125
8.389000000000003,5.707345581054688,0.468646240234375,6.411660766601563
8.398000000000025,7.782009887695313,0.528759765625,7.208837890625
8.408999999999999,7.712774658203125,-0.4107757568359375,7.642941284179688
8.418999999999983,7.306784057617188,-0.4892822265625,8.033828735351562
8.428999999999974,5.560202026367188,-0.4912261962890625,6.917391967773438
8.439000000000021,5.586071777343751,-0.4424774169921875,6.405529785156251
8.449000000000012,6.959262084960938,0.2355194091796875,6.824829101562501
8.459000000000003,6.702508544921876,-0.1317413330078125,7.687054443359376
8.468999999999994,6.837539672851563,0.0228790283203125,8.542401123046876
8.478999999999985,5.605960083007813,0.6027801513671875,8.206243896484375
8.490000000000009,5.447750854492188,0.4254302978515625,7.032235717773438
8.499000000000024,6.967337036132813,0.2074066162109375,6.743032836914063
8.509000000000015,7.036871337890625,0.5492462158203125,6.51798095703125
8.519000000000005,7.460955810546875,0.2746978759765625,7.329513549804688
8.528999999999996,6.5155883789062505,0.1972381591796875,7.96309814453125
8.538999999999987,5.689849853515625,-0.078057861328125,7.687503051757813
8.548999999999978,6.406576538085938,-0.6313415527343751,7.275680541992188
8.56000000000001,6.325527954101563,-0.602630615234375,6.867745971679688
8.569999999999993,6.749911499023438,-0.032598876953125,7.304092407226563
8.579999999999984,6.709088134765626,-0.2739501953125,7.790982055664063
8.589999999999975,6.170758056640626,-0.28052978515625,7.540359497070313
8.600000000000023,6.8550354003906255,-0.162396240234375,7.414450073242188
8.610000000000014,6.640750122070313,-0.0046356201171875,6.555364990234375
8.620000000000005,6.022268676757813,0.4224395751953125,6.082232666015625
8.629999999999995,3.949249267578125,-0.005084228515625,5.53941650390625
8.639999999999986,7.3589721679687505,-0.127105712890625,9.111685180664065
8.649999999999977,12.208728027343753,1.02462158203125,11.294613647460938
8.660000000000025,5.827273559570313,0.2890533447265625,7.2871948242187505
8.670000000000016,2.626751708984376,-0.622967529296875,5.325729370117188
8.680000000000007,3.358880615234375,0.370849609375,5.298214721679688
8.690999999999974,8.051623535156251,0.0483001708984375,7.387234497070313
8.701000000000022,11.06507568359375,0.021832275390625,10.187747192382814
8.711000000000013,7.314709472656251,0.5525360107421875,9.215762329101564
8.721000000000004,4.142599487304688,-0.6745574951171875,6.714620971679688
8.730999999999995,3.958819580078125,-0.720465087890625,4.994656372070313
8.740999999999985,6.408520507812501,0.5359375000000001,5.638558959960938
8.750999999999976,10.092193603515623,0.0013458251953125,8.263815307617188
8.761000000000024,8.483035278320314,0.2666229248046875,9.097479248046875
8.771000000000015,5.033087158203125,0.5625549316406251,8.338882446289062
8.781000000000006,3.838442993164063,-0.7497741699218751,6.821838378906251
8.793000000000006,4.902392578125,0.2093505859375,5.812469482421875
8.800999999999988,8.395108032226563,0.6914550781250001,6.62265625
8.812000000000012,9.031533813476564,-0.101385498046875,7.816851806640625
8.82200000000001,7.340579223632813,0.183331298828125,8.2986572265625
8.831000000000017,5.326626586914063,-0.2044158935546875,7.4660400390625
8.841999999999985,4.697528076171875,-1.163690185546875,6.133523559570313
8.851999999999975,6.670358276367188,0.0729736328125,6.4482971191406255
8.862000000000023,7.407571411132813,0.03409423828125,7.450637817382813
8.872000000000014,6.983038330078125,-0.354998779296875,8.454473876953125
8.882000000000005,5.8217407226562505,0.468646240234375,8.985177612304689
8.891999999999996,4.933346557617188,-0.1048248291015625,7.306335449218751
8.901999999999987,6.644937133789063,-0.13697509765625,6.296817016601563
8.911999999999978,7.592547607421875,0.9283203125,6.107504272460938
8.921999999999969,7.611090087890625,0.2274444580078125,7.0018798828125
8.932000000000016,6.911260986328125,0.09031982421875,8.345611572265625
8.942999999999984,5.236456298828125,0.4306640625,7.99599609375
8.951999999999998,5.765814208984375,-0.54072265625,7.521368408203125
8.961999999999989,6.701013183593751,-0.2696136474609375,6.726882934570313
8.975000000000023,6.751107788085938,0.165087890625,6.8678955078125
8.983999999999973,7.113134765625,-0.45997314453125,7.643539428710938
8.993999999999971,6.057559204101563,-0.1314422607421875,8.006463623046876
9.002999999999986,6.352145385742188,0.066693115234375,7.426412963867188
9.012999999999977,6.977206420898438,-0.5321990966796876,6.680825805664063
9.023000000000025,6.79552001953125,0.346923828125,6.3959594726562505
9.034,5.7593841552734375,0.94447021484375,6.740789794921875
9.043999999999984,3.576156616210938,0.7273437500000001,6.697573852539063
9.052999999999995,8.975906372070312,0.9509002685546876,10.808023071289064
9.062999999999988,8.669805908203125,0.6400146484375,8.744873046875
9.07299999999998,5.193988037109375,-0.7882049560546875,5.6955322265625
9.082999999999975,5.743084716796876,-0.5848358154296875,5.6457366943359375
9.094999999999978,5.767010498046876,-0.7947845458984376,6.251956176757813
9.103000000000009,7.993154907226563,-0.9455169677734376,8.68505859375
9.113,7.57669677734375,-0.0418701171875,9.563433837890626
9.124000000000024,5.669812011718751,-0.374139404296875,8.093344116210938
9.134000000000016,5.985333251953126,-1.2700103759765626,6.445755004882813
9.144000000000004,5.554669189453126,0.0817962646484375,5.3791137695312505
9.153999999999996,7.60301513671875,0.7049133300781251,6.63162841796875
9.163999999999987,8.182766723632813,0.6829315185546876,7.993304443359375
9.173999999999978,6.686209106445313,0.8795715332031251,8.437426757812501
9.183999999999967,6.10406494140625,0.18841552734375,7.877713012695313
9.194000000000017,4.841680908203125,-0.24464111328125,6.743032836914063
9.204000000000008,6.014791870117188,1.0418182373046876,6.408819580078125
9.214,7.29796142578125,-0.109759521484375,7.279269409179688
9.22399999999999,7.576846313476563,-0.6646881103515625,7.619165039062499
9.233999999999972,7.452432250976563,-0.42109375,8.009603881835938
9.243999999999971,5.896658325195313,-0.8544494628906251,6.706246948242188
9.25400000000002,5.9108642578125,-0.32239990234375,6.490316772460938
9.264999999999986,6.454727172851563,0.24105224609375,6.993505859375
9.274000000000008,6.474465942382813,-0.5378814697265626,7.760327148437501
9.285000000000023,6.7398925781250005,0.3629241943359375,8.65634765625
9.295000000000016,5.763272094726563,0.75186767578125,8.026052856445313
9.305000000000009,5.91983642578125,0.3315216064453125,6.990066528320313
9.314999999999998,6.897354125976563,0.56644287109375,6.664974975585938
9.324999999999989,6.788342285156251,0.7301849365234375,6.524859619140625
9.33499999999998,7.349700927734376,0.1446014404296875,7.467086791992188
9.344999999999978,6.492410278320313,0.327484130859375,7.959808349609376
9.355000000000018,5.993109130859375,-0.298175048828125,7.725784301757813
9.365000000000007,6.374874877929688,-0.8889923095703126,7.214968872070313
9.375000000000009,6.035726928710938,-0.3497650146484375,6.984832763671876
9.384999999999998,6.875820922851563,-0.3219512939453125,7.203305053710938
9.394999999999982,6.684713745117188,-0.5516387939453126,7.641445922851563
9.406000000000006,6.458465576171876,-0.162396240234375,7.283157348632813
9.415999999999997,6.551028442382813,-0.38460693359375,7.23814697265625
9.425999999999988,4.418344116210938,-0.142657470703125,5.645138549804688
9.43599999999998,6.566729736328125,0.6467437744140625,7.738793945312499
9.44599999999997,10.953970336914065,0.668426513671875,9.948489379882814
9.456000000000016,6.258236694335938,0.179144287109375,7.038217163085938
9.466000000000008,4.182077026367188,-0.2023223876953125,6.504971313476563
9.476,4.276284790039063,0.3285308837890625,6.0340820312500005
9.48599999999999,7.141995239257813,0.6450988769531251,7.461553955078125
9.49599999999998,9.234304809570313,0.5630035400390625,9.469973754882814
9.505999999999972,6.750061035156251,0.0945068359375,8.890521240234376
9.51600000000002,5.214175415039063,-0.29010009765625,6.971075439453125
9.526000000000003,4.933795166015625,-0.7394561767578125,5.576052856445313
9.536000000000008,7.104611206054688,-0.028411865234375,5.825479125976563
9.546,9.321633911132814,-0.1371246337890625,7.742831420898438
9.557000000000016,7.389178466796875,-0.0817962646484375,8.446249389648438
9.567000000000007,5.4389282226562505,0.2582489013671875,8.444604492187501
9.576999999999998,4.153665161132813,-0.375933837890625,7.064535522460938
9.586999999999987,5.488275146484376,-0.0471038818359375,6.427062988281251
9.596999999999973,8.250955200195314,0.627752685546875,7.091302490234376
9.608000000000004,7.944705200195313,0.4065887451171875,7.262521362304688
9.61700000000002,7.360617065429688,0.3289794921875,7.742233276367188
9.62700000000001,5.852694702148438,-0.0958526611328125,7.122555541992188
9.637000000000008,5.412759399414063,-0.6996795654296876,6.468334960937501
9.646999999999998,6.88524169921875,-0.0155517578125,6.94864501953125
9.656999999999982,6.580935668945313,-0.0462066650390625,7.579986572265626
9.666999999999971,6.664825439453126,-0.3805694580078125,8.462997436523438
9.67700000000002,5.762374877929688,-0.139666748046875,8.453277587890625
9.687000000000012,5.252755737304688,-0.26976318359375,7.1813232421875
9.69700000000001,7.130630493164063,-0.0725250244140625,6.612936401367188
9.707999999999975,7.406973266601563,0.5807983398437501,6.304891967773438
9.718000000000018,7.454824829101563,0.3276336669921875,7.050030517578126
9.728000000000009,6.594094848632813,0.20516357421875,8.15869140625
9.738,5.301953125000001,0.32838134765625,7.863357543945313
9.74799999999999,6.1242523193359375,0.0255706787109375,7.472918701171875
9.75799999999998,6.490316772460938,-0.0686370849609375,6.920532226562501
9.767999999999972,6.907971191406251,0.1401153564453125,7.129583740234375
9.77800000000002,6.930850219726563,-0.236865234375,7.686904907226563
9.788000000000013,5.966043090820313,-0.1514801025390625,7.454376220703126
9.798000000000007,6.7482666015625,-0.2743988037109375,7.443759155273438
9.808,6.955374145507813,-0.3892425537109375,6.780416870117188
9.819000000000017,6.728826904296875,-0.1016845703125,6.647628784179688
9.829000000000008,6.32896728515625,0.3288299560546875,7.0736572265625
9.839,3.317160034179688,0.6122009277343751,6.461456298828126
9.84899999999999,6.875073242187501,0.8563934326171876,9.113330078125
9.858999999999972,10.566671752929688,0.470440673828125,10.162176513671875
9.868999999999971,5.878115844726563,-0.1443023681640625,6.252255249023438
9.87900000000002,5.263671875,-0.8477203369140626,6.010305786132813
9.889000000000005,4.760931396484375,-0.37503662109375,5.415899658203125
9.899000000000008,7.673446655273438,-0.338250732421875,7.776925659179688
9.909,8.886184692382812,0.1852752685546875,9.593939208984375
9.918999999999984,5.8953125,-0.018243408203125,8.744573974609375
9.928999999999974,5.35638427734375,-0.9414794921875,7.211080932617188
9.93900000000002,4.894616699218751,-0.5450592041015625,5.80618896484375
9.949000000000012,6.9851318359375005,0.5275634765625,5.9732208251953125
9.959000000000003,9.122900390625,0.784466552734375,7.673895263671875
9.969999999999978,7.413702392578125,0.362774658203125,8.09110107421875
9.980000000000018,6.316555786132813,0.1257598876953125,8.260525512695313
9.990000000000007,4.47711181640625,-0.581396484375,6.8894287109375005
10.000000000000009,5.155856323242188,0.4421783447265625,6.402688598632813
10.009999999999998,7.6335205078125,0.4777679443359375,7.247567749023438
10.019999999999982,7.685409545898438,-0.3584381103515625,7.617819213867188
10.029999999999973,7.636959838867188,-0.35469970703125,8.050726318359375
10.04000000000002,5.7279815673828125,-0.38460693359375,6.965841674804688
10.050000000000011,5.428610229492188,-0.4532440185546875,6.393118286132813
10.06000000000001,7.018478393554688,0.4894317626953125,6.839782714843751
10.069999999999991,6.669311523437501,-0.149835205078125,7.377664184570313
10.079999999999984,6.990963745117188,-0.008074951171875,8.482437133789062
10.089999999999977,5.602520751953126,0.374139404296875,8.432791137695313
10.100000000000025,5.193838500976563,0.262884521484375,7.157098388671876
10.11099999999999,6.979598999023438,0.1000396728515625,6.82303466796875
10.120000000000005,7.07664794921875,0.57122802734375,6.46654052734375
10.130999999999972,7.548733520507813,0.15731201171875,7.156948852539063
10.14100000000002,6.523214721679688,0.231182861328125,7.825674438476563
10.151000000000003,5.576202392578125,-0.154620361328125,7.838235473632813
10.161000000000008,6.415548706054688,-0.4795623779296875,7.4800964355468755
10.171,6.266311645507813,-0.411822509765625,6.811370849609376
10.180999999999983,6.871932983398438,0.094805908203125,7.130630493164063
10.190999999999974,6.849951171875,-0.2732025146484375,7.760327148437501
10.201000000000022,5.955426025390626,-0.0886749267578125,7.490414428710938
10.211000000000013,6.849951171875,-0.2260986328125,7.5162841796875
10.221000000000004,6.746023559570313,-0.06400146484375,6.744378662109376
10.230999999999996,6.2482177734375,0.4095794677734375,6.292181396484375
10.240999999999984,4.269107055664063,-0.027215576171875,5.647232055664063
10.250999999999976,6.325827026367188,-0.2400054931640625,8.5654296875
10.261000000000024,11.922515869140623,0.9727325439453126,11.225079345703126
10.271000000000017,6.171206665039063,0.26258544921875,7.243081665039063
10.281000000000006,3.4737243652343754,-0.62147216796875,5.658596801757813
10.291999999999971,3.812423706054688,0.16568603515625,5.50352783203125
10.30200000000002,7.076797485351563,-0.135479736328125,6.963150024414063
10.312000000000012,10.445697021484376,-0.00897216796875,9.9519287109375
10.32200000000001,7.447796630859376,0.7777374267578125,9.261370849609376
10.331999999999994,4.572067260742188,-0.3349609375,6.851596069335938
10.341999999999985,4.436886596679688,-0.5329467773437501,5.394815063476563
10.351999999999975,6.014492797851563,0.581396484375,5.634671020507813
10.362000000000023,9.437374877929688,0.021832275390625,7.995697021484376
10.372000000000014,8.40093994140625,0.2065093994140625,8.884390258789063
10.382000000000003,5.654110717773438,0.6189300537109376,8.361013793945313
10.391999999999996,4.549935913085938,-0.87568359375,6.864157104492188
10.401999999999989,4.73251953125,-0.0749176025390625,5.935687255859375
10.413000000000013,7.901190185546875,0.45518798828125,6.74766845703125
10.423000000000007,8.379257202148438,-0.240155029296875,7.782159423828125
10.433,7.220352172851563,0.161798095703125,8.284152221679689
10.442999999999984,5.958416748046876,-0.06519775390625,7.687353515625
10.452999999999976,5.04056396484375,-1.0573699951171875,6.164926147460938
10.463000000000022,6.8071838378906255,0.210845947265625,6.273190307617188
10.473000000000011,7.232614135742188,0.19918212890625,7.153659057617188
10.483000000000004,6.941915893554688,-0.322998046875,8.261273193359376
10.492999999999997,6.129336547851563,0.5788543701171875,8.913250732421876
10.502999999999986,4.928262329101563,-0.0632537841796875,7.667315673828125
10.512999999999977,6.468933105468751,-0.2356689453125,6.4491943359375
10.523000000000025,7.167117309570313,0.8462249755859376,6.349603271484376
10.533000000000015,7.433590698242188,0.0716278076171875,6.850100708007813
10.543000000000006,7.0404602050781255,0.079254150390625,8.341873168945312
10.552999999999995,5.459115600585938,0.3883453369140625,7.845712280273438
10.56400000000002,6.055764770507813,-0.5229278564453126,7.619763183593751
10.574000000000012,6.6645263671875,-0.3599334716796875,6.592300415039063
10.584000000000003,6.610693359375,0.18482666015625,6.886737060546875
10.593999999999994,7.178482055664063,-0.3904388427734375,7.469180297851563
10.603999999999983,5.924322509765625,-0.1018341064453125,7.9421630859375005
10.613999999999976,6.285452270507813,0.113348388671875,7.463796997070313
10.625999999999976,6.677087402343751,-0.32060546875,6.7772766113281255
10.634000000000016,4.8246337890625,0.7381103515625,5.65665283203125
10.644000000000004,7.7411865234375,0.8115325927734376,8.549279785156251
10.653999999999996,8.359518432617188,0.2307342529296875,9.367242431640626
10.663999999999987,4.607208251953125,0.36845703125,7.055862426757813
10.673999999999978,6.011203002929688,-0.50782470703125,6.9899169921875
10.683999999999967,6.513195800781251,-0.4254302978515625,5.767608642578125
10.694999999999991,8.046090698242189,0.12860107421875,7.12509765625
10.704999999999984,7.1899963378906255,-0.194696044921875,8.701358032226564
10.714999999999977,5.1507720947265625,-0.4939178466796875,8.745172119140626
10.726999999999975,5.991464233398438,-0.6871185302734375,7.697073364257813
10.735000000000014,6.074456787109376,-0.6781463623046875,5.9730712890625
10.745000000000005,7.866049194335938,0.4206451416015625,6.187805175781251
10.754999999999995,7.79501953125,0.4493560791015625,7.230072021484376
10.764999999999986,6.055465698242188,0.034991455078125,8.030389404296876
10.774999999999975,6.139355468750001,0.259295654296875,8.267852783203125
10.785000000000023,5.527603149414063,-0.011065673828125,7.376766967773438
10.795000000000016,6.858624267578126,0.4607208251953125,6.391024780273438
10.805000000000009,7.171154785156251,0.437542724609375,7.000982666015625
10.814999999999998,6.437829589843751,-0.334661865234375,7.266708374023438
10.826000000000022,6.910662841796875,-0.321502685546875,8.111288452148438
10.836000000000013,6.100625610351563,-0.1128997802734375,6.948944091796876
10.846000000000004,6.990365600585938,-0.2080047607421875,6.788641357421875
10.855999999999996,7.262969970703126,-0.0707305908203125,6.853091430664063
10.865999999999984,5.843572998046875,-0.153125,7.201510620117188
10.875999999999976,6.289938354492188,-0.1451995849609375,8.273236083984376
10.886000000000024,5.5365753173828125,0.0856842041015625,8.171701049804689
10.896000000000017,6.217263793945313,0.1806396484375,7.473516845703125
10.906000000000006,7.258782958984375,0.1804901123046875,7.050778198242188
10.915999999999997,6.4886718750000005,0.4711883544921875,6.55028076171875
10.925999999999988,7.034628295898438,0.4418792724609375,7.383197021484375
10.93599999999998,6.201412963867188,0.2109954833984375,7.415945434570313
10.94599999999997,6.289041137695313,0.0423187255859375,7.605856323242188
10.956000000000016,7.076199340820313,-0.269464111328125,7.624398803710938
10.966999999999985,6.062643432617188,-0.152227783203125,7.082180786132813
10.976999999999975,6.470578002929688,0.0538330078125,7.141845703125001
10.987000000000023,6.2210021972656255,-0.4390380859375,7.565631103515625
10.997000000000014,6.3765197753906255,-0.4350006103515625,7.204650878906251
11.007000000000003,7.181024169921876,-0.1553680419921875,7.224838256835938
11.016999999999996,4.940823364257813,-0.3840087890625,5.459713745117188
11.026999999999989,5.261578369140626,-0.1003387451171875,6.582131958007813
11.036999999999978,11.640789794921876,0.6690246582031251,11.135955810546877
11.046999999999969,6.961953735351563,0.687567138671875,7.830010986328125
11.057000000000016,3.8847991943359377,-0.365167236328125,6.690396118164063
11.067000000000007,3.315216064453125,0.2663238525390625,5.496798706054688
11.076999999999998,6.600225830078125,0.2400054931640625,6.711032104492188
11.086999999999987,10.348199462890626,0.366961669921875,9.441262817382814
11.096999999999973,7.510003662109375,0.5301055908203125,9.359765625
11.106999999999973,5.069723510742188,0.190509033203125,7.340280151367188
11.117999999999997,4.351351928710938,-1.0953521728515625,5.535079956054688
11.127999999999986,6.153561401367188,-0.0420196533203125,5.3297668457031255
11.137999999999977,9.671099853515626,-0.15850830078125,7.663427734375
11.148000000000025,8.030239868164063,-0.1069183349609375,8.588159179687501
11.158000000000015,5.657400512695313,0.54969482421875,8.882745361328126
11.168000000000006,4.045101928710938,-0.6024810791015626,7.278073120117188
11.177999999999995,4.7769317626953125,-0.5049835205078126,6.145187377929688
11.187999999999988,8.392117309570313,0.7947845458984376,6.5592529296875
11.19799999999998,8.303591918945314,0.2775390625,7.185809326171875
11.207999999999975,7.592697143554688,0.314923095703125,8.046539306640625
11.218000000000018,5.788992309570313,0.082843017578125,7.789935302734375
11.228000000000009,4.707247924804688,-0.8345611572265625,6.3893798828125
11.238,6.846661376953126,-0.0988433837890625,6.73271484375
11.24799999999999,6.886138916015626,0.4361968994140625,7.1705566406250005
11.259000000000016,7.131378173828126,-0.43963623046875,8.096633911132812
11.269000000000004,6.116177368164063,0.0370849609375,8.796014404296876
11.278999999999996,4.784857177734375,-0.0674407958984375,7.54140625
11.288999999999987,6.8311096191406255,-0.296380615234375,6.560299682617188
11.298999999999978,7.405926513671876,0.5154510498046876,6.0958404541015625
11.308999999999967,7.575949096679688,0.27215576171875,6.796865844726563
11.319000000000017,6.943411254882813,-0.0438140869140625,8.34710693359375
11.329000000000008,4.965496826171876,0.55567626953125,7.948742675781251
11.339,6.01793212890625,-0.0931610107421875,7.840478515625
11.34899999999999,6.688003540039063,-0.3769805908203125,6.625796508789063
11.358999999999972,6.791183471679688,0.2812774658203125,6.845166015625001
11.368999999999971,7.308578491210938,-0.069384765625,7.487722778320313
11.37900000000002,5.710934448242188,-0.193798828125,7.809674072265626
11.389000000000005,6.545346069335938,0.1088623046875,7.477255249023438
11.399000000000008,6.960757446289063,-0.5528350830078126,6.835147094726563
11.409,6.006268310546876,-0.03887939453125,6.2912841796875005
11.420000000000016,4.5040283203125,0.749176025390625,6.212179565429688
11.430000000000009,7.856179809570313,0.1993316650390625,10.146475219726565
11.439999999999998,8.399594116210938,0.385205078125,8.947045898437501
11.449999999999989,5.6165771484375,-0.5964996337890626,6.875820922851563
11.45999999999998,6.158346557617188,-0.8285797119140625,5.616278076171875
11.469999999999978,6.067727661132813,0.2444915771484375,5.7903381347656255
11.480000000000018,7.031936645507813,0.4430755615234375,7.490863037109375
11.490000000000007,7.409515380859376,0.0680389404296875,9.875515747070311
11.500000000000009,5.842825317382813,0.4520477294921875,8.699563598632814
11.509999999999998,5.7773284912109375,-1.003237915039063,6.907821655273438
11.519999999999982,6.338836669921876,0.016448974609375,5.622109985351563
11.529999999999973,7.261175537109375,0.68128662109375,6.007015991210938
11.54000000000002,7.614379882812501,0.1638916015625,7.5623413085937505
11.550999999999988,6.818099975585938,-0.0713287353515625,8.765658569335939
11.56099999999998,5.816207885742188,-0.188116455078125,8.238693237304688
11.57099999999997,5.703009033203125,-0.8344116210937501,6.9420654296875
11.581000000000016,6.190646362304688,0.457281494140625,6.269451904296876
11.591000000000008,6.900494384765626,0.2400054931640625,6.9462524414062505
11.601,7.376617431640626,-0.3261383056640625,7.611090087890625
11.61099999999999,6.929354858398438,0.10706787109375,7.999435424804688
11.62099999999998,6.4782043457031255,0.0258697509765625,7.081881713867188
11.630999999999972,6.375772094726563,-0.174658203125,6.770697021484375
11.64100000000002,6.315808105468751,0.69205322265625,6.490017700195313
11.651000000000003,6.442465209960938,-0.0626556396484375,7.605706787109375
11.661000000000008,6.397155761718751,-0.044561767578125,8.305984497070312
11.671,5.975613403320313,0.26796875,8.270245361328126
11.680999999999983,6.278125,-0.284716796875,7.249511718750001
11.692000000000007,6.652713012695313,-0.126806640625,6.686657714843751
11.701999999999998,6.830661010742188,0.34154052734375,6.688900756835938
11.711999999999987,6.995748901367188,-0.1281524658203125,7.219604492187501
11.721999999999973,6.453381347656251,-0.0231781005859375,7.765261840820313
11.731999999999973,6.323733520507813,-0.025421142578125,7.873974609375001
11.74200000000002,6.270349121093751,-0.4191497802734375,7.447198486328125
11.75200000000001,6.295471191406251,0.2476318359375,6.866848754882813
11.762000000000008,6.509756469726563,0.2773895263671875,7.167864990234375
11.771999999999998,6.699966430664063,-0.0681884765625,7.382000732421876
11.781999999999982,6.492260742187501,0.0578704833984375,7.39127197265625
11.791999999999971,4.28331298828125,-0.596051025390625,5.830563354492188
11.80200000000002,5.616726684570313,-0.41451416015625,6.879110717773438
11.812000000000012,12.831994628906251,1.1500823974609375,10.650860595703126
11.82200000000001,7.014141845703126,0.5217315673828126,7.30155029296875
11.832999999999975,3.555072021484375,-0.7527648925781251,6.7712951660156255
11.843000000000018,2.690753173828125,-0.0841888427734375,5.9986419677734375
11.853000000000009,6.7040039062500005,-0.4786651611328125,6.840679931640626
11.863,10.31500244140625,0.0632537841796875,8.840127563476564
11.87299999999999,8.174542236328126,1.4533416748046877,8.993701171875001
11.88299999999998,5.132977294921876,-0.0483001708984375,7.821487426757813
11.892999999999972,3.961959838867188,-0.296978759765625,5.542706298828126
11.90300000000002,5.539865112304688,-0.0273651123046875,5.882901000976563
11.913000000000013,9.627435302734376,-0.1036285400390625,7.425515747070313
11.923000000000007,8.527896118164064,0.18004150390625,8.339031982421876
11.933,5.9772583007812505,1.131689453125,8.49365234375
11.942999999999984,4.363912963867188,-1.080548095703125,7.4301513671875
11.952999999999976,4.445111083984376,-0.253314208984375,6.195880126953125
11.963000000000022,8.100372314453125,-0.110955810546875,6.602169799804688
11.973000000000011,8.470623779296876,0.0536834716796875,7.26805419921875
11.983999999999972,7.63292236328125,0.04725341796875,7.796514892578125
11.993999999999971,5.81396484375,0.21473388671875,7.880105590820313
12.00400000000002,4.782015991210938,-1.36795654296875,6.61368408203125
12.014000000000005,6.442016601562501,0.3886444091796875,6.872381591796875
12.024000000000008,7.0473388671875,0.2127899169921875,7.093545532226563
12.034,6.991262817382813,0.2462860107421875,8.044296264648438
12.043999999999984,6.223843383789063,0.42886962890625,8.692684936523438
12.053999999999974,4.95084228515625,0.2643798828125,7.666567993164063
12.06400000000002,6.680676269531251,-0.445318603515625,6.527401733398438
12.074000000000012,7.294073486328125,0.9015533447265626,6.282012939453126
12.084000000000003,7.513143920898438,-0.2097991943359375,6.725238037109375
12.093999999999994,7.020272827148438,0.112750244140625,8.174990844726564
12.103999999999983,5.317205810546875,0.0154022216796875,7.912554931640625
12.113999999999976,5.881106567382813,-0.36187744140625,7.81954345703125
12.124000000000024,6.634619140625,-0.71478271484375,6.75125732421875
12.134999999999998,6.632376098632813,0.2265472412109375,6.906625366210938
12.144999999999982,7.290783691406251,-0.402252197265625,7.159790039062501
12.154999999999973,5.423825073242188,0.5426666259765626,7.648623657226563
12.16500000000002,4.959664916992188,0.7098480224609376,6.886288452148438
12.175000000000011,7.577145385742188,0.265277099609375,8.295367431640626
12.18500000000001,9.125143432617188,0.4774688720703125,8.120410156250001
12.194999999999991,5.82293701171875,0.9428253173828126,6.178833007812501
12.204999999999984,5.025311279296876,-0.6518280029296876,6.506317138671876
12.214999999999977,5.850003051757813,0.044561767578125,7.28121337890625
12.226999999999975,7.154855346679688,-0.8224487304687501,8.460903930664063
12.235000000000014,7.366897583007813,-0.603826904296875,8.616122436523439
12.245000000000005,6.304144287109375,-0.1006378173828125,7.878012084960938
12.255999999999972,5.750411987304688,-0.7379608154296875,6.411810302734375
12.26600000000002,6.467587280273438,-1.1264556884765626,6.385192871093751
12.276000000000003,7.399346923828125,0.5613586425781251,6.618917846679688
12.286000000000008,7.694830322265625,-0.0168975830078125,7.500134277343751
12.296,6.944906616210938,0.3180633544921875,8.108895874023439
12.305999999999983,5.522817993164063,0.5301055908203125,7.8751708984375
12.315999999999974,5.062695312500001,-0.055926513671875,7.255941772460938
12.326999999999998,6.250161743164063,0.53055419921875,7.063189697265625
12.336000000000013,7.048236083984375,1.05572509765625,7.070068359375001
12.346000000000004,7.99898681640625,-0.4403839111328125,7.220501708984376
12.355999999999996,7.1286865234375005,-0.155517578125,7.391571044921876
12.365999999999984,6.017333984375,-0.1520782470703125,6.817950439453125
12.375999999999976,6.123504638671875,-0.5241241455078125,6.945654296875
12.386000000000024,6.501980590820313,-0.0231781005859375,7.03477783203125
12.396000000000017,6.738098144531251,-0.26617431640625,7.809524536132813
12.406000000000006,6.569271850585938,-0.7029693603515625,8.198617553710939
12.416999999999971,5.499340820312501,0.3249420166015625,7.825823974609375
12.42700000000002,5.883798217773438,0.2720062255859375,7.326672363281251
12.437000000000012,6.778323364257813,0.002392578125,6.840081787109376
12.44700000000001,7.297064208984375,0.7349700927734375,6.84935302734375
12.456999999999994,7.345214843750001,0.433953857421875,7.213024902343751
12.466999999999985,6.15849609375,0.3820648193359375,7.705596923828126
12.476999999999975,5.83310546875,0.4379913330078125,7.597332763671876
12.487000000000023,6.163281250000001,-0.2761932373046875,7.483984375
12.497000000000014,6.628936767578126,-0.3515594482421875,7.133920288085938
12.507000000000003,6.861166381835938,0.1930511474609375,7.316204833984376
12.516999999999996,6.480297851562501,-0.5670410156250001,7.1735473632812505
12.52800000000002,5.838040161132813,-0.424981689453125,6.862063598632813
12.538000000000013,3.995455932617188,-0.249725341796875,6.033932495117188
12.548000000000007,8.498138427734375,-0.1278533935546875,8.870184326171875
12.558,11.399288940429688,0.8030090332031251,9.507806396484376
12.567999999999984,5.113986206054688,0.1625457763671875,5.976959228515625
12.577999999999976,3.705953979492188,-1.2182708740234376,6.084027099609376
12.588000000000022,4.284509277343751,0.227294921875,6.603067016601563
12.598000000000011,7.743728637695313,0.387298583984375,8.293722534179688
12.608000000000004,9.38369140625,0.6658843994140625,10.013537597656253
12.617999999999997,6.129934692382813,1.0020416259765623,8.251702880859376
12.627999999999986,4.74388427734375,-0.50662841796875,6.229974365234376
12.637999999999977,5.475714111328125,-0.8871978759765625,5.296270751953125
12.648000000000025,7.643389892578125,0.7548583984375,6.452633666992188
12.658000000000015,9.470272827148438,-0.22908935546875,7.937078857421875
12.668000000000006,7.109844970703126,-0.019140625,8.655749511718751
12.680000000000009,4.838839721679688,0.0426177978515625,8.040856933593751
12.687999999999988,4.054971313476563,-1.1185302734375,7.048236083984375
12.699000000000012,5.8621154785156255,0.0336456298828125,6.216815185546875
12.709000000000003,8.426809692382813,0.76383056640625,7.333401489257813
12.718999999999994,8.439520263671875,-0.352008056640625,7.50850830078125
12.728999999999983,7.031338500976563,0.3632232666015625,7.759579467773438
12.738999999999976,5.314663696289063,-0.0777587890625,6.689199829101563
12.749000000000024,5.432498168945313,-0.6634918212890626,6.429306030273438
12.759000000000016,6.960009765625,0.478515625,7.056460571289063
12.769000000000004,6.94864501953125,0.31163330078125,7.879956054687501
12.778999999999996,6.596038818359376,-0.2869598388671875,8.588308715820313
12.788999999999987,5.35040283203125,0.49346923828125,8.287890625000001
12.798999999999978,5.4263671875,-0.2811279296875,6.867446899414063
12.808999999999967,7.224987792968751,-0.2376129150390625,6.386538696289063
12.819000000000017,7.6580444335937505,0.5523864746093751,6.444558715820313
12.829999999999984,7.467834472656251,0.026617431640625,7.443460083007813
12.839999999999977,6.2688537597656255,-0.0418701171875,8.03009033203125
12.850000000000025,5.140155029296875,0.2253509521484375,7.9660888671875005
12.860000000000014,6.180328369140626,-0.6252105712890625,7.347756958007813
12.870000000000005,6.644338989257813,-0.1081146240234375,6.857876586914063
12.879999999999995,7.016384887695313,0.3733917236328125,6.998739624023438
12.889999999999986,6.921429443359376,-0.200079345703125,7.819842529296875
12.899999999999975,6.120364379882813,0.0922637939453125,7.420431518554688
12.910000000000023,6.468484497070313,0.208154296875,7.050030517578126
12.920000000000016,5.551678466796876,-0.3120819091796875,5.946304321289063
12.930000000000009,4.787100219726563,0.55567626953125,6.0849243164062505
12.939999999999998,10.331002807617187,0.3904388427734375,10.483230590820312
12.949999999999989,7.528097534179688,-0.0396270751953125,8.625543212890626
12.95999999999998,5.06448974609375,-0.5298065185546875,7.338037109375
12.969999999999978,4.416549682617188,-0.2794830322265625,5.741140747070313
12.980999999999996,5.696429443359375,-0.1185821533203125,5.694036865234375
12.990999999999984,9.049627685546875,0.6667816162109376,8.165270996093751
13.000999999999976,7.972967529296875,0.0131591796875,9.233856201171877
13.011000000000024,5.869293212890625,-0.151629638671875,8.464044189453126
13.021000000000017,4.973721313476563,-0.6193786621093751,6.672003173828125
13.031000000000006,5.258587646484376,-0.0324493408203125,5.558407592773438
13.040999999999997,8.329013061523439,0.6231170654296876,6.6166748046875
13.050999999999988,7.893862915039063,0.250323486328125,7.825076293945313
13.06099999999998,6.759930419921876,-0.1143951416015625,8.773135375976564
13.07099999999997,5.347561645507813,-0.4115234375,8.173495483398439
13.081000000000016,4.647134399414063,-0.2812774658203125,6.459811401367188
13.091000000000008,7.371383666992188,0.42528076171875,6.230722045898438
13.101,7.69034423828125,0.1440032958984375,6.882998657226563
13.112000000000023,7.564883422851563,-0.1057220458984375,7.755392456054688
13.122000000000014,6.327920532226563,-0.04246826171875,8.276824951171875
13.132000000000003,5.046694946289063,-0.24404296875,7.092349243164063
13.141999999999996,6.778472900390626,0.1697235107421875,6.856680297851563
13.151999999999989,6.961953735351563,0.203668212890625,6.513943481445313
13.161999999999978,6.890026855468751,-0.068487548828125,7.2378479003906255
13.171999999999969,6.5021301269531255,-0.023626708984375,8.545092773437501
13.182000000000016,5.312869262695313,0.027813720703125,7.9804443359375
13.192000000000007,6.418090820312501,-0.1526763916015625,7.296017456054688
13.201999999999998,6.967785644531251,0.118731689453125,6.439324951171876
13.211999999999987,7.029843139648438,0.23447265625,6.688601684570313
13.221999999999973,6.993505859375,0.1709197998046875,7.687203979492188
13.231999999999973,5.548837280273438,-0.0560760498046875,7.912255859375
13.24200000000002,6.175692749023438,-0.090020751953125,7.962051391601563
13.252999999999986,6.720452880859376,-0.310736083984375,7.0299926757812505
13.262999999999977,6.679180908203126,0.1727142333984375,6.481195068359376
13.273000000000025,6.797613525390625,0.050244140625,6.800155639648438
13.283000000000015,4.465597534179688,-0.3330169677734375,6.7937255859375005
13.293000000000006,6.493905639648438,-0.2959320068359375,8.502774047851563
13.302999999999995,9.909609985351564,0.194097900390625,9.689193725585938
13.312999999999988,6.378314208984375,-0.35828857421875,6.090158081054688
13.32299999999998,5.490518188476563,-0.3288299560546875,5.940621948242188
13.332999999999975,4.998544311523438,0.23148193359375,6.025259399414063
13.344999999999978,6.413006591796876,0.5909667968750001,8.177532958984376
13.353000000000009,7.907470703125001,0.6605010986328126,10.152008056640623
13.363,6.2458251953125,0.5595642089843751,8.575000000000001
13.37299999999999,6.042605590820313,-0.1963409423828125,6.651217651367188
13.38299999999998,5.936135864257813,-0.1591064453125,5.1358184814453125
13.392999999999972,6.960009765625,0.416607666015625,6.275881958007813
13.403999999999996,8.733508300781251,0.2667724609375,7.753298950195313
13.413999999999987,6.868045043945313,-0.1676300048828125,8.54449462890625
13.423999999999978,6.002978515625,-0.0025421142578125,8.207589721679689
13.433999999999967,4.812222290039063,-0.8335144042968751,7.029693603515626
13.444999999999991,5.181576538085938,-0.0524871826171875,6.435287475585938
13.454000000000008,7.871282958984375,0.118731689453125,7.508209228515626
13.464,7.524359130859375,-0.066693115234375,7.4651428222656255
13.47399999999999,7.697521972656251,0.093310546875,7.4421142578125
13.483999999999972,6.461306762695313,-0.0183929443359375,6.8655029296875005
13.493999999999971,5.5694732666015625,-0.4619171142578125,6.243283081054688
13.50400000000002,6.680975341796875,0.428271484375,7.051974487304688
13.514000000000005,6.146383666992188,0.047552490234375,7.8255249023437505
13.524000000000008,6.5748046875,0.0557769775390625,8.566177368164062
13.534,5.951388549804688,0.211444091796875,8.440866088867189
13.545000000000016,5.403338623046875,-0.11005859375,6.883746337890625
13.555000000000009,7.082031250000001,-0.121722412109375,6.749612426757813
13.564999999999998,7.180426025390625,0.4475616455078125,6.380108642578126
13.574999999999989,7.472918701171875,-0.1347320556640625,7.199118041992188
13.58499999999998,6.848605346679688,-0.005682373046875,7.823431396484375
13.594999999999978,5.454629516601563,-0.1048248291015625,7.797561645507813
13.605000000000018,6.253302001953125,-0.3470733642578125,7.5162841796875
13.615000000000007,6.0998779296875005,-0.082843017578125,7.046591186523438
13.625000000000009,6.570169067382813,0.2761932373046875,7.0060668945312505
13.634999999999998,7.055712890625,-0.0243743896484375,7.505966186523438
13.644999999999982,5.392721557617188,0.405841064453125,6.801950073242188
13.654999999999973,4.720257568359376,0.5924621582031251,5.937033081054688
13.66500000000002,9.638800048828124,0.2483795166015625,9.991107177734376
13.675000000000011,8.797210693359375,0.6443511962890626,7.924966430664063
13.68500000000001,4.81865234375,0.1176849365234375,6.631329345703126
13.69599999999997,4.4449615478515625,-0.703717041015625,5.958267211914063
13.706000000000016,5.5096588134765625,-0.2047149658203125,6.8822509765625
13.716000000000008,8.497241210937501,-0.622967529296875,8.567074584960938
13.726,7.817300415039063,-0.4397857666015625,9.221893310546877
13.73599999999999,5.944958496093751,-0.1751068115234375,8.153457641601562
13.74599999999998,5.209240722656251,-1.0172943115234376,6.31461181640625
13.755999999999972,5.632577514648438,-0.394476318359375,5.50592041015625
13.76600000000002,8.304489135742188,0.6521270751953125,6.83798828125
13.776000000000003,8.290283203125,0.2259490966796875,7.982238769531251
13.786000000000008,6.730023193359376,0.4613189697265625,8.50382080078125
13.796,5.060003662109375,0.304754638671875,7.8001037597656255
13.805999999999983,4.505374145507813,-0.250921630859375,6.833950805664063
13.815999999999974,6.893615722656251,0.8088409423828126,6.5559631347656255
13.826000000000022,7.753897094726563,0.3647186279296875,7.137808227539063
13.836999999999987,7.9684814453125,-0.399261474609375,7.565182495117188
13.846999999999973,6.632824707031251,-0.113348388671875,7.937826538085938
13.856999999999973,5.236306762695313,-0.37264404296875,6.603665161132813
13.86700000000002,6.338986206054688,-0.392681884765625,6.731219482421875
13.87700000000001,6.876718139648438,0.0572723388671875,6.892419433593751
13.887000000000008,6.8918212890625,-0.42109375,7.782907104492188
13.896999999999998,6.471176147460938,-0.1275543212890625,8.573205566406251
13.906999999999982,5.116827392578125,0.3835601806640625,7.887881469726563
13.916999999999971,6.157150268554688,0.113348388671875,7.032684326171876
13.92700000000002,7.154257202148438,0.2859130859375,6.396557617187501
13.937000000000012,7.329962158203125,0.6829315185546876,6.717013549804688
13.94700000000001,7.188052368164063,0.28770751953125,7.660137939453126
13.956999999999994,5.612689208984375,0.3648681640625,7.964144897460938
13.968000000000018,5.879461669921875,0.0669921875,7.690045166015626
13.978000000000009,6.554019165039063,-0.493768310546875,7.268353271484376
13.988,6.668862915039063,-0.09390869140625,6.6995178222656255
13.99799999999999,7.059600830078126,-0.0602630615234375,7.324130249023438
14.00799999999998,6.271246337890625,-0.5897705078125001,7.451684570312499
14.017999999999972,6.253152465820313,-0.3452789306640625,7.26566162109375
14.02800000000002,5.861666870117188,-0.44501953125,6.346463012695313
14.038000000000013,5.026657104492188,-0.295184326171875,5.779122924804688
14.048000000000007,8.9853271484375,0.5148529052734375,9.3178955078125
14.058,9.402981567382811,0.6521270751953125,9.670651245117188
14.067999999999984,4.471429443359376,-0.136676025390625,6.875820922851563
14.077999999999976,3.9232299804687503,-0.0832916259765625,6.103317260742188
14.088000000000022,5.240493774414063,0.4605712890625,5.858227539062501
14.098000000000011,8.852090454101564,0.5982940673828125,8.03009033203125
14.108000000000004,8.988467407226564,0.3635223388671875,9.577191162109376
14.117999999999997,5.612240600585938,0.2160797119140625,8.656497192382814
14.127999999999986,4.651620483398438,-0.6211730957031251,6.549832153320313
14.139000000000005,5.145986938476563,-0.25361328125,5.175146484375
14.149000000000008,8.37222900390625,0.06400146484375,6.487924194335938
14.159,9.094488525390624,-0.2310333251953125,8.329611206054688
14.168999999999984,6.485531616210938,-0.05084228515625,8.753396606445314
14.178999999999974,4.7615295410156255,0.0539825439453125,8.014389038085938
14.18900000000002,4.3915771484375,-0.6059204101562501,6.482540893554688
14.199000000000012,6.938327026367188,0.3123809814453125,6.222946166992188
14.209000000000003,8.585317993164063,0.41690673828125,7.193585205078126
14.218999999999994,7.469778442382813,0.304156494140625,7.725933837890626
14.228999999999983,6.570169067382813,0.24404296875,8.186355590820312
14.238999999999976,5.1368652343750005,-0.2023223876953125,6.701461791992188
14.249000000000024,6.043652343750001,-0.4661041259765625,6.457867431640626
14.259000000000016,7.423721313476563,0.3572418212890625,6.818099975585938
14.269000000000004,6.707443237304688,-0.123516845703125,7.7672058105468755
14.278999999999996,6.535626220703126,-0.150433349609375,8.449688720703126
14.29000000000002,5.302700805664063,-0.15491943359375,8.185757446289063
14.300000000000011,5.840133666992188,-0.4260284423828125,6.886138916015626
14.31000000000001,7.3604675292968755,0.06639404296875,6.492858886718751
14.319999999999991,7.160687255859376,0.5344421386718751,6.521420288085938
14.329999999999984,7.309326171875001,0.0073272705078125,7.685110473632813
14.339999999999977,5.845965576171875,0.229986572265625,8.224786376953126
14.350000000000025,5.459564208984375,0.2062103271484375,7.6598388671875
14.360000000000014,6.635665893554688,-0.0850860595703125,7.235305786132813
14.37099999999998,6.727780151367188,0.11484375,6.712826538085938
14.379999999999995,7.007562255859376,0.1782470703125,7.090405273437501
14.389999999999986,6.486877441406251,-0.1830322265625,7.699017333984376
14.399999999999975,6.061297607421875,-0.016748046875,7.440170288085938
14.411000000000008,6.701312255859375,-0.1918548583984375,7.125247192382813
14.421,5.376870727539063,-0.079254150390625,5.937481689453126
14.430999999999983,4.79532470703125,0.4305145263671875,6.060549926757813
14.440999999999974,10.244869995117188,0.32718505859375,10.735498046875
14.451000000000022,8.021865844726562,0.2423980712890625,8.823678588867189
14.461000000000013,4.820147705078125,-0.5310028076171875,6.675292968750001
14.471000000000004,4.326229858398438,-0.584686279296875,5.418890380859375
14.480999999999996,5.861965942382813,-0.0064300537109375,5.9208831787109375
14.490999999999984,8.986672973632814,0.535040283203125,8.494549560546876
14.500999999999976,7.779916381835938,0.1948455810546875,9.631921386718751
14.511000000000024,5.761776733398438,-0.019140625,8.501278686523438
14.521000000000017,4.943515014648438,-0.97437744140625,6.300405883789063
14.531000000000006,5.4802001953125,-0.04306640625,5.089611816406251
14.540999999999997,8.44998779296875,0.6356781005859375,6.797763061523438
14.550999999999988,8.035025024414063,0.1616485595703125,8.050576782226564
14.56099999999998,6.658096313476563,-0.0847869873046875,9.037066650390626
14.57099999999997,5.135369873046876,-0.252117919921875,8.025903320312501
14.581999999999994,4.602871704101563,-0.4813568115234375,6.3466125488281255
14.591999999999985,7.333102416992188,0.7001281738281251,6.160739135742188
14.601999999999975,7.760775756835938,0.090020751953125,6.9312988281250005
14.612000000000023,7.7029052734375005,-0.2157806396484375,7.990762329101563
14.622000000000014,6.410165405273438,-0.0097198486328125,8.272937011718751
14.632000000000003,4.966394042968751,-0.083740234375,6.837838745117188
14.641999999999996,6.752902221679688,0.0411224365234375,6.5688232421875
14.651999999999989,6.903933715820313,0.435150146484375,6.582281494140625
14.661999999999978,6.996197509765626,-0.167181396484375,7.4397216796875005
14.673000000000007,6.457418823242188,0.0447113037109375,8.589953613281251
14.683,5.252456665039063,0.0207855224609375,8.003024291992189
14.692999999999984,6.430053710937501,-0.3081939697265625,7.247268676757813
14.702999999999976,6.848156738281251,-0.021533203125,6.332257080078126
14.713000000000022,6.983636474609376,0.3198577880859375,6.683816528320313
14.723000000000011,7.129434204101563,0.0405242919921875,7.737298583984375
14.733000000000004,5.770449829101563,0.0832916259765625,7.883694458007813
14.742999999999997,6.280966186523438,-0.0880767822265625,7.866049194335938
14.752999999999986,6.514691162109376,-0.29488525390625,7.058554077148438
14.762999999999977,6.41270751953125,0.2809783935546875,6.629684448242188
14.773000000000025,6.857876586914063,0.2504730224609375,6.887185668945313
14.783000000000015,4.821942138671876,-0.2483795166015625,6.557907104492188
14.793000000000006,5.7578887939453125,-0.10347900390625,7.698568725585938
14.802999999999995,10.0296875,0.1362274169921875,10.231561279296876
14.81400000000002,7.0018798828125,-0.2286407470703125,6.891970825195313
14.82299999999998,5.476910400390626,-0.6231170654296876,5.904733276367188
14.834000000000003,4.722052001953125,-0.2361175537109375,5.811572265625
14.843999999999994,6.397903442382813,0.2875579833984375,7.32906494140625
14.853999999999983,8.290731811523438,0.8197570800781251,9.960601806640623
14.863999999999976,6.6681152343750005,0.566143798828125,9.036767578125
14.874000000000024,5.709588623046876,-0.08673095703125,7.265512084960938
14.884000000000016,5.349655151367188,-0.3291290283203125,5.2819152832031255
14.894000000000004,6.4611572265625,0.4110748291015625,5.970828247070313
14.903999999999996,9.115573120117189,0.5479003906250001,7.649371337890625
14.913999999999987,7.49534912109375,0.101983642578125,8.254095458984375
14.923999999999978,6.029147338867188,0.03887939453125,8.357424926757814
14.933999999999967,4.74029541015625,-0.7868591308593751,7.294970703125
14.944000000000017,4.732818603515625,-0.3512603759765625,6.385043334960938
14.954000000000008,7.889526367187501,0.0886749267578125,7.215866088867188
14.964999999999977,7.742083740234375,-0.1284515380859375,7.547985839843751
14.975000000000025,7.62454833984375,-0.1302459716796875,7.783355712890626
14.985000000000014,6.242984008789063,-0.083740234375,7.140350341796876
14.995000000000005,5.237353515625,-0.45638427734375,6.268405151367188
15.004999999999995,6.951785278320313,0.2619873046875,6.820642089843751
15.014999999999986,6.681723022460938,0.2884552001953125,7.440170288085938
15.024999999999975,6.842623901367188,0.1661346435546875,8.174691772460939
15.035000000000023,6.0424560546875,0.308343505859375,8.631674194335938
15.046,5.026657104492188,0.0219818115234375,7.180725097656251
15.055000000000009,6.732864379882813,-0.0765625,6.8355957031250005
15.064999999999998,7.214968872070313,0.3934295654296875,6.380706787109376
15.074999999999989,7.391122436523438,0.0729736328125,7.117471313476563
15.08499999999998,7.080087280273438,-0.0478515625,7.8494506835937505
15.094999999999978,5.412908935546875,-0.154620361328125,7.733859252929688
15.105000000000018,6.113784790039063,-0.459375,7.641296386718751
15.115999999999984,6.349304199218751,-0.198583984375,6.990814208984376
15.125999999999976,6.627142333984375,0.1263580322265625,7.023562622070313
15.136000000000024,7.21123046875,-0.050543212890625,7.3455139160156255
15.146999999999998,5.7936279296875,0.1655364990234375,7.3009521484375
15.156000000000006,4.928411865234375,0.3973175048828125,6.2362548828125
15.165999999999997,6.255245971679688,0.1440032958984375,7.70828857421875
15.175999999999988,10.241281127929687,0.5752655029296876,9.59109802246094
15.18599999999998,7.240240478515625,0.6616973876953125,7.277774047851563
15.19599999999997,4.325930786132813,-0.426776123046875,6.126495361328126
15.206000000000016,4.847811889648438,0.0064300537109375,5.9089202880859375
15.216000000000008,6.5036254882812505,-0.3506622314453125,7.593893432617188
15.226,8.500830078125,-0.481805419921875,9.026748657226562
15.23599999999999,7.21123046875,-0.0442626953125,9.226828002929688
15.247000000000014,5.253952026367188,-0.55567626953125,7.039114379882813
15.255999999999972,5.47122802734375,-0.8380004882812501,5.971725463867188
15.266999999999996,6.6788818359375,0.2397064208984375,5.6707092285156255
15.276999999999989,8.4182861328125,0.1984344482421875,7.376766967773438
15.286999999999978,7.798309326171876,0.18243408203125,8.541055297851564
15.296999999999969,5.6931396484375005,0.4870391845703125,8.377612304687501
15.307000000000016,4.751361083984375,-0.15970458984375,7.467535400390625
15.317000000000007,5.443563842773438,0.203668212890625,6.452932739257813
15.326999999999998,7.290335083007813,0.70880126953125,6.702508544921876
15.336999999999987,8.224786376953126,-0.180938720703125,7.350149536132813
15.346999999999973,7.229324340820313,-0.126806640625,7.964443969726563
15.356999999999973,6.022866821289063,-0.064599609375,7.369140625000001
15.36700000000002,5.586071777343751,-0.5444610595703125,6.723593139648438
15.37700000000001,6.501382446289063,0.084039306640625,6.535028076171876
15.387000000000008,7.137359619140626,-0.055029296875,7.210034179687501
15.396999999999998,6.789837646484376,-0.4646087646484375,8.103512573242188
15.406999999999982,6.009857177734375,0.2409027099609375,8.198468017578126
15.418000000000006,5.490518188476563,0.097198486328125,7.704101562500001
15.427999999999995,6.377117919921876,-0.1112548828125,6.692340087890625
15.437999999999988,7.048385620117188,0.6225189208984375,6.762921142578126
15.44799999999998,7.215716552734375,0.3385498046875,6.93668212890625
15.457999999999975,6.754696655273438,0.220416259765625,7.894461059570313
15.468000000000018,5.873181152343751,0.3874481201171875,7.772589111328125
15.478000000000009,5.991763305664063,-0.1628448486328125,7.520321655273438
15.488,6.587066650390626,-0.2902496337890625,7.0138427734375
15.49799999999999,6.715667724609376,0.1538726806640625,7.046591186523438
15.50799999999998,6.846511840820313,-0.2944366455078125,7.310372924804688
15.517999999999972,6.261975097656251,-0.4358978271484375,7.239791870117188
15.52800000000002,5.5639404296875,-0.5057312011718751,6.822286987304688
15.538000000000013,5.097836303710938,-0.8085418701171876,6.190646362304688
15.548999999999978,8.782406616210938,0.1111053466796875,9.014337158203126
15.558999999999967,10.025350952148438,0.8344116210937501,8.859417724609376
15.569000000000017,4.5197296142578125,-0.35888671875,6.361715698242188
15.579000000000008,3.635671997070313,0.0671417236328125,6.1261962890625
15.589,5.226138305664063,0.8825622558593751,6.875671386718751
15.59899999999999,8.315106201171876,0.6948944091796876,8.540158081054688
15.608999999999972,9.113180541992188,0.6784454345703126,9.644482421875
15.618999999999971,5.58726806640625,0.31043701171875,7.7029052734375005
15.62900000000002,4.798464965820313,-0.7705596923828125,6.094195556640625
15.639000000000005,5.72783203125,0.032000732421875,5.56334228515625
15.649000000000008,8.055960083007813,0.033197021484375,6.68546142578125
15.659,9.272286987304687,-0.4810577392578125,8.6192626953125
15.668999999999984,6.200665283203126,-0.0171966552734375,8.674591064453125
15.678999999999974,4.403091430664063,-0.168377685546875,7.675540161132813
15.68900000000002,4.659097290039063,-0.6105560302734375,6.557159423828126
15.699999999999989,6.604562377929688,0.435150146484375,6.321640014648438
15.70999999999998,9.162677001953126,0.1864715576171875,7.569967651367188
15.719999999999978,7.66881103515625,0.3554473876953125,7.588211059570313
15.730000000000018,6.192440795898438,0.5236755371093751,7.575051879882813
15.740000000000007,5.411712646484375,-0.2978759765625,6.6669189453125
15.750000000000009,5.705401611328125,-0.4424774169921875,6.583627319335938
15.759999999999998,7.466488647460938,0.4260284423828125,7.126144409179688
15.769999999999982,6.782809448242188,-0.239556884765625,8.022164916992189
15.779999999999973,6.265713500976563,-0.053533935546875,8.339031982421876
15.79000000000002,5.4707794189453125,-0.078656005859375,8.121307373046875
15.800000000000011,5.591754150390625,-0.639715576171875,6.549084472656251
15.81000000000001,7.473367309570313,0.149835205078125,6.667068481445313
15.819999999999991,7.512844848632813,0.47073974609375,6.714172363281251
15.829999999999984,7.189248657226563,-0.1514801025390625,7.502975463867188
15.841000000000008,5.998791503906251,0.2480804443359375,8.167514038085939
15.851,5.21282958984375,0.0560760498046875,7.695278930664063
15.86099999999999,6.535626220703126,-0.12919921875,7.132424926757813
15.87099999999998,6.82303466796875,0.3715972900390625,6.796267700195313
15.880999999999972,7.024160766601563,0.0459075927734375,7.2961669921875005
15.89100000000002,6.649423217773438,-0.0746185302734375,7.72862548828125
15.901000000000003,5.721701049804688,0.1383209228515625,7.19029541015625
15.911000000000008,5.968585205078125,-0.168377685546875,6.787445068359376
15.921,4.662088012695313,-0.04306640625,5.447601318359375
15.930999999999983,8.527148437500001,0.490478515625,8.842071533203125
15.940999999999974,10.520614624023438,0.304156494140625,9.900637817382814
15.951000000000022,4.906130981445313,-0.176751708984375,7.069320678710938
15.963000000000022,3.664532470703125,-0.576611328125,6.072811889648438
15.971000000000004,4.740744018554688,-0.383709716796875,5.620614624023438
15.981999999999973,8.331256103515626,0.035888671875,7.753298950195313
15.99200000000002,9.604855346679688,0.551190185546875,9.609939575195312
16.00200000000001,5.888284301757813,0.2047149658203125,8.796762084960939
16.012000000000008,4.775885009765625,-0.6151916503906251,6.9223266601562505
16.022,4.901495361328125,-0.491973876953125,5.655007934570313
16.031999999999982,7.470227050781251,0.2714080810546875,5.74039306640625
16.041999999999973,9.355877685546876,0.5118621826171875,7.888479614257813
16.05200000000002,7.106854248046876,0.0279632568359375,8.532083129882814
16.062999999999988,5.39346923828125,-0.2591461181640625,8.601916503906251
16.07200000000001,4.249368286132813,-0.5809478759765625,6.81107177734375
16.081999999999994,5.734112548828126,0.1236663818359375,6.069821166992188
16.091999999999985,8.5020263671875,0.3720458984375,7.028347778320313
16.101999999999975,7.903881835937501,-0.09869384765625,7.649221801757813
16.113,6.865652465820313,-0.03050537109375,8.124896240234376
16.12299999999999,5.316906738281251,-0.06220703125,7.241586303710938
16.13299999999998,5.383151245117188,0.010467529296875,6.3259765625
16.142999999999972,7.481442260742188,0.4436737060546875,6.744976806640626
16.15300000000002,7.062442016601563,0.0393280029296875,7.294522094726563
16.16300000000001,6.7473693847656255,-0.0085235595703125,8.333947753906251
16.17300000000001,5.568576049804688,0.098394775390625,8.412454223632814
16.183,5.228680419921876,-0.091217041015625,7.133322143554688
16.192999999999984,7.108050537109375,-0.1314422607421875,6.717910766601563
16.202999999999975,7.317401123046875,0.1858734130859375,6.511849975585938
16.213000000000022,7.270297241210938,0.099591064453125,7.2507080078125
16.223000000000013,6.214123535156251,0.1173858642578125,8.05341796875
16.233000000000004,5.44132080078125,-0.13099365234375,7.795468139648438
16.242999999999995,6.489120483398438,-0.3261383056640625,7.467535400390625
16.252999999999986,6.753799438476563,-0.0322998046875,6.665573120117188
16.264000000000003,7.002926635742188,0.3072967529296875,7.070516967773438
16.274000000000008,6.651516723632813,0.076861572265625,7.4307495117187505
16.284,5.391226196289063,-0.1060211181640625,7.189697265625001
16.293999999999983,4.413409423828125,-0.274249267578125,6.042904663085938
16.303999999999974,6.898101806640626,-0.0581695556640625,7.727877807617188
16.31400000000002,12.159829711914064,0.9685455322265626,10.394854736328126
16.324000000000012,6.713873291015625,0.2103973388671875,6.699368286132813
16.334000000000003,2.650677490234376,-1.1131469726562502,5.78465576171875
16.343999999999994,4.146487426757813,-0.1184326171875,6.030941772460938
16.353999999999985,7.010403442382813,0.1112548828125,7.751205444335938
16.363999999999976,9.93458251953125,0.273651123046875,9.77786865234375
16.374000000000024,7.339532470703125,0.8444305419921876,9.2676513671875
16.384000000000015,4.144992065429688,-0.2914459228515625,6.664376831054688
16.394000000000005,4.830615234375,-0.7155303955078125,5.294775390625
16.403999999999996,6.838436889648438,0.5788543701171875,5.8271240234375
16.41500000000002,9.823626708984376,0.126507568359375,7.568771362304688
16.42500000000001,8.269796752929688,0.1016845703125,8.92730712890625
16.43500000000001,4.77977294921875,0.5505920410156251,8.328713989257814
16.444999999999993,3.79881591796875,-0.8284301757812501,7.31710205078125
16.454999999999984,5.002581787109375,-0.256304931640625,6.095541381835938
16.464999999999975,8.409164428710938,0.483599853515625,6.874624633789063
16.475000000000023,8.974859619140625,-0.193499755859375,7.646679687500001
16.485000000000014,7.107003784179688,0.0886749267578125,7.978500366210938
16.495000000000005,5.48917236328125,0.0755157470703125,7.168164062500001
16.504999999999995,5.034881591796875,-1.0367340087890626,6.246273803710938
16.514999999999986,6.88284912109375,0.1344329833984375,6.620413208007813
16.524999999999977,7.611538696289063,0.32359619140625,7.508807373046875
16.535000000000025,6.718508911132813,-0.2056121826171875,8.20654296875
16.545000000000016,5.743682861328125,0.43544921875,8.721694946289062
16.555999999999983,4.871588134765625,0.01375732421875,7.403085327148438
16.565999999999974,6.493905639648438,-0.3031097412109375,6.50003662109375
16.576000000000022,7.6598388671875,0.83082275390625,6.2577880859375
16.586000000000013,7.566229248046875,0.22071533203125,7.219754028320313
16.596000000000004,6.938177490234375,-0.029010009765625,7.932891845703126
16.605999999999995,5.122808837890625,0.28172607421875,8.105606079101562
16.615999999999985,5.770748901367188,-0.4302154541015625,7.25968017578125
16.625999999999976,6.764715576171875,-0.361279296875,7.090853881835938
16.636000000000024,6.916345214843751,0.218621826171875,6.823931884765625
16.646000000000015,7.034628295898438,-0.3485687255859375,7.645632934570313
16.656000000000006,5.968585205078125,-0.168975830078125,7.541256713867188
16.665999999999997,5.984136962890625,0.2029205322265625,6.99290771484375
16.675999999999988,5.381805419921875,-0.2911468505859375,5.8236846923828125
16.687000000000012,6.303546142578125,0.3240447998046875,7.199118041992188
16.69700000000001,10.361956787109376,0.7835693359375001,10.051220703125
16.706999999999994,6.594842529296876,0.3677093505859375,7.983883666992188
