time,ax,ay,az
0.0,6.964794921875001,-0.2283416748046875,7.362561035156251
0.0099999999999909,6.585421752929688,0.122918701171875,7.336392211914063
0.0199999999999818,6.222497558593751,0.2739501953125,7.423422241210938
0.0299999999999727,6.0490356445312505,0.4773193359375,7.359271240234375
0.0399999999999636,6.085821533203125,1.039126586914063,7.349102783203126
0.0500000000000113,6.317303466796876,1.2831695556640623,7.42117919921875
0.0600000000000022,6.462054443359375,1.272402954101563,7.331756591796876
0.0709999999999695,6.5739074707031255,1.1281005859375002,7.277175903320313
0.0809999999999604,6.528298950195313,0.7720550537109375,7.381851196289063
0.0910000000000081,6.244329833984375,0.45040283203125,7.392617797851563
0.100999999999999,6.151168823242188,0.1758544921875,7.396954345703126
0.11099999999999,6.174346923828126,-0.3037078857421875,7.078890991210938
0.1209999999999809,6.588562011718751,-0.523077392578125,6.961654663085938
0.1309999999999718,7.828665161132813,-0.1792938232421875,7.76810302734375
0.1409999999999627,6.383547973632813,-0.6823333740234375,7.60062255859375
0.1510000000000104,4.880709838867188,-0.463262939453125,7.445404052734376
0.1610000000000013,5.116827392578125,-0.0551788330078125,7.799057006835938
0.1709999999999922,6.52396240234375,0.0375335693359375,7.08023681640625
0.1809999999999831,8.50980224609375,0.6784454345703126,7.717709350585938
0.190999999999974,7.855731201171875,0.7008758544921876,6.522467041015625
0.2009999999999649,6.215469360351563,0.4481597900390625,7.376318359375
0.211999999999989,5.266961669921876,0.8806182861328126,7.354486083984375
0.22199999999998,5.621511840820313,0.7708587646484376,8.105606079101562
0.2319999999999709,7.42476806640625,0.8940765380859376,7.893264770507813
0.2419999999999618,7.318597412109375,0.6663330078125,7.644735717773438
0.2520000000000095,6.7518554687500005,0.317315673828125,6.86131591796875
0.2620000000000004,6.304144287109375,-0.042169189453125,6.971823120117188
0.2719999999999913,5.9866790771484375,0.10228271484375,6.711032104492188
0.2819999999999822,7.495947265625,-0.28052978515625,6.880307006835938
0.2919999999999731,7.0138427734375,-0.6144439697265626,7.439273071289063
0.3019999999999641,6.23326416015625,-0.40374755859375,7.656997680664063
0.3120000000000118,5.575753784179688,-0.5060302734375001,8.074652099609375
0.3220000000000027,5.100827026367188,-0.1619476318359375,8.014239501953126
0.3319999999999936,6.181674194335938,0.417205810546875,7.628735351562501
0.3419999999999845,7.195379638671875,0.7979248046875,7.258633422851563
0.3519999999999754,7.764663696289063,1.0558746337890623,6.716116333007813
0.3629999999999995,7.371383666992188,1.2323272705078123,6.7961181640625
0.3729999999999904,6.4482971191406255,0.9184509277343752,6.5798889160156255
0.3829999999999813,6.328219604492188,0.659454345703125,7.633370971679688
0.3929999999999722,5.834301757812501,0.3159698486328125,7.785000610351563
0.4029999999999631,5.789440917968751,-0.000897216796875,7.945303344726563
0.4130000000000109,6.36844482421875,-0.374737548828125,8.001528930664064
0.4230000000000018,6.147579956054688,-0.5967987060546875,7.33385009765625
0.4329999999999927,6.779519653320313,-0.6410614013671876,6.768753051757813
0.4429999999999836,7.340130615234376,-0.2848663330078125,6.863259887695313
0.4529999999999745,7.016384887695313,-0.0157012939453125,6.579141235351563
0.4629999999999654,6.354089355468751,0.450701904296875,6.202758789062501
0.4730000000000132,3.7756378173828127,0.8978149414062501,4.393072509765625
0.4830000000000041,6.173898315429688,0.4652069091796875,9.654650878906253
0.4939999999999713,8.7867431640625,0.0204864501953125,11.501870727539064
0.5039999999999623,6.650320434570313,-0.2083038330078125,9.962545776367188
0.51400000000001,5.771646118164063,0.0423187255859375,5.8894805908203125
0.5240000000000009,6.10167236328125,1.1113525390625,4.124057006835938
0.5339999999999918,6.983636474609376,1.954736328125,5.7100372314453125
0.5439999999999827,8.2962646484375,1.5183898925781252,9.21561279296875
0.5539999999999736,6.582431030273438,-0.2619873046875,9.758279418945314
0.5639999999999645,5.864956665039063,-0.8710479736328126,8.55047607421875
0.575999999999965,4.643844604492188,-1.9524932861328128,5.9611083984375
0.5840000000000032,5.7362060546875,-0.6228179931640625,5.838937377929688
0.5939999999999941,7.842721557617188,-0.5866302490234375,6.725238037109375
0.6039999999999779,7.830609130859376,-0.28770751953125,8.173794555664063
0.613999999999983,7.886685180664063,0.1392181396484375,7.506564331054688
0.6239999999999739,5.895013427734376,0.7213623046875001,6.830212402343751
0.6349999999999909,5.2194091796875,0.7651763916015626,5.788543701171875
0.6449999999999818,6.030941772460938,2.108758544921875,7.552322387695313
0.6549999999999727,5.689251708984376,1.227542114257813,8.626589965820314
0.6649999999999636,6.175692749023438,1.3606292724609377,9.421673583984376
0.6759999999999877,5.943014526367188,0.5115631103515625,7.9804443359375
0.6850000000000023,6.503475952148438,0.371148681640625,6.282012939453126
0.6949999999999932,7.835842895507813,-0.1816864013671875,5.805291748046876
0.7049999999999841,7.349102783203126,0.1191802978515625,6.10406494140625
0.7149999999999821,7.592846679687501,-1.2263458251953123,7.661334228515625
0.724999999999973,6.198422241210938,-1.1399139404296876,8.567074584960938
0.7350000000000136,5.098135375976563,-1.0953521728515625,7.863058471679688
0.7449999999999974,5.9134063720703125,-0.5031890869140625,7.790832519531251
0.7549999999999955,5.885891723632813,0.221014404296875,6.967636108398438
0.7649999999999864,6.210983276367188,1.1900085449218751,6.755593872070313
0.7760000000000105,6.864306640625,0.2854644775390625,6.696676635742188
0.7860000000000014,7.250408935546876,1.2254486083984375,8.01812744140625
0.7959999999999923,7.052124023437501,0.6063690185546875,7.501480102539063
0.8059999999999832,5.332757568359376,0.409130859375,6.5783935546875005
0.8159999999999741,6.261676025390625,1.0491455078125,7.012048339843751
0.825999999999965,7.568621826171875,0.8031585693359375,7.721597290039063
0.8360000000000127,6.818698120117188,-0.1567138671875,7.988369750976563
0.8460000000000036,5.911462402343751,0.2117431640625,8.094091796875
0.8559999999999945,5.298962402343751,-0.6285003662109375,8.266955566406251
0.8659999999999854,6.1357666015625005,-0.210247802734375,7.404431152343751
0.8759999999999835,7.563088989257813,0.1517791748046875,7.22080078125
0.8859999999999744,8.007211303710939,0.5046844482421875,6.23924560546875
0.8969999999999914,7.788290405273438,0.400457763671875,7.153958129882813
0.906000000000006,6.171505737304688,0.9987518310546876,6.881652832031251
0.9169999999999732,5.75714111328125,0.4115234375,7.646978759765625
0.926999999999964,5.995950317382813,0.5314514160156251,7.264465332031251
0.9370000000000118,6.497644042968751,0.3046051025390625,7.518527221679688
0.9470000000000028,6.849502563476563,-0.1209747314453125,7.164874267578125
0.9569999999999936,6.143841552734376,-0.4894317626953125,7.376467895507813
0.9669999999999774,5.967388916015626,-0.383709716796875,7.319345092773438
0.9769999999999824,6.602767944335938,-0.7870086669921875,7.797860717773438
0.9869999999999736,6.163879394531251,-0.3816162109375,7.454974365234375
0.997000000000014,6.79013671875,-0.2911468505859375,7.684811401367188
1.006999999999998,6.418539428710938,0.05084228515625,7.374523925781251
1.016999999999996,6.413903808593751,0.6065185546875,7.037619018554688
1.0269999999999868,6.645834350585938,0.9093292236328124,7.161734008789063
1.0369999999999775,6.912606811523438,1.2143829345703123,7.328317260742188
1.0469999999999686,6.697872924804688,1.328179931640625,7.178182983398438
1.0569999999999595,6.242535400390626,1.1370727539062502,7.620809936523438
1.0670000000000073,5.954678344726563,0.6913055419921875,7.383197021484375
1.0779999999999816,6.187655639648438,0.3542510986328125,7.6700073242187505
1.0879999999999723,6.338238525390626,-0.209051513671875,7.423123168945313
1.0980000000000132,6.862811279296875,-0.3515594482421875,7.382150268554688
1.108000000000004,6.649722290039063,-0.42109375,6.835745239257813
1.117999999999995,4.9982452392578125,-0.150732421875,5.751010131835938
1.1289999999999625,3.647784423828125,-0.172564697265625,4.843475341796875
1.137999999999984,9.425262451171877,0.198883056640625,10.889370727539063
1.1479999999999675,10.39814453125,-0.0186920166015625,10.005313110351564
1.1580000000000226,5.934939575195313,0.213238525390625,7.841525268554688
1.1680000000000064,4.367950439453125,-0.1437042236328125,5.188455200195313
1.1779999999999973,3.990371704101563,1.16937255859375,6.366351318359375
1.1879999999999882,7.3464111328125,1.501641845703125,7.767953491210938
1.1990000000000125,8.811715698242189,1.2402526855468752,9.436029052734376
1.2090000000000032,8.224636840820313,0.0378326416015625,8.201458740234376
1.218999999999994,6.037670898437501,-0.87747802734375,6.2643676757812505
1.228999999999978,4.145291137695313,-1.3498626708984376,5.309429931640626
1.238999999999983,6.048287963867188,-0.3943267822265625,6.955075073242188
1.248999999999974,7.984033203125,-1.2700103759765626,8.394210815429688
1.2590000000000146,8.055062866210939,-0.5624053955078125,8.690591430664064
1.2690000000000057,7.085769653320313,-0.427972412109375,7.564285278320313
1.2789999999999964,4.5641418457031255,0.0112152099609375,6.235656738281251
1.2889999999999873,5.553472900390625,1.2194671630859375,5.524462890625
1.2989999999999782,6.5036254882812505,2.056869506835937,7.331158447265626
1.308999999999969,7.752999877929688,1.7181701660156252,8.143887329101563
1.31899999999996,6.760827636718751,1.8318176269531248,8.949737548828125
1.3290000000000075,4.8868408203125,1.0814453125,7.796215820312501
1.3389999999999986,5.0902099609375,0.544012451171875,7.1899963378906255
1.3489999999999895,6.230572509765626,0.2859130859375,6.301452636718751
1.3600000000000136,7.686306762695313,-0.374139404296875,6.743331909179688
1.3699999999999974,8.74427490234375,-1.265972900390625,7.895059204101563
1.3799999999999957,6.398800659179688,-1.0635009765625,7.673745727539063
1.3899999999999864,5.578744506835938,-1.3408905029296876,7.622753906250001
1.3999999999999844,5.474368286132813,-0.9734802246093752,7.111639404296875
1.4099999999999682,6.199468994140625,0.12919921875,6.819595336914063
1.419999999999959,7.462750244140626,0.476123046875,7.861563110351563
1.4300000000000068,6.388333129882813,0.9897796630859376,7.4771057128906255
1.4399999999999975,5.3761230468750005,1.3540496826171875,6.317453002929688
1.4499999999999886,6.347958374023438,0.8396453857421876,6.760977172851563
1.4599999999999795,6.708938598632813,1.120025634765625,6.820492553710938
1.4699999999999704,7.435983276367188,1.32967529296875,7.965789794921876
1.4799999999999611,6.574505615234376,0.8716461181640626,8.705844116210939
1.4919999999999618,5.44730224609375,0.5845367431640626,8.222842407226564
1.5009999999999837,5.70390625,-0.1948455810546875,7.700961303710938
1.5109999999999744,6.238049316406251,-0.7883544921875001,7.305438232421875
1.521000000000015,7.589855957031251,-1.1524749755859376,7.275082397460938
1.531000000000006,8.145083618164064,-1.2353179931640623,7.202706909179688
1.5409999999999968,7.345962524414063,-0.7259979248046875,7.135266113281251
1.5509999999999875,6.743182373046875,0.5139556884765626,7.0165344238281255
1.5609999999999786,5.400796508789063,0.49346923828125,7.0509277343750005
1.5709999999999695,5.77867431640625,1.2894500732421876,7.935134887695313
1.5809999999999604,6.380557250976563,1.2436920166015626,8.241683959960938
1.5919999999999774,6.267657470703125,1.143353271484375,7.438824462890626
1.600999999999999,7.224688720703125,1.152774047851563,7.0524230957031255
1.61099999999999,6.733163452148438,0.5935089111328126,6.14952392578125
1.620999999999981,6.83798828125,-0.1694244384765625,6.005819702148438
1.6309999999999718,6.89481201171875,-0.3865509033203125,6.989617919921876
1.641999999999996,6.135317993164063,-0.8257385253906251,8.063735961914062
1.6519999999999868,5.932696533203125,-0.819158935546875,8.353387451171876
1.6619999999999775,5.27384033203125,-0.6383697509765626,8.693133544921876
1.6719999999999686,5.7553466796875,-0.42767333984375,7.417141723632813
1.6819999999999595,6.499887084960938,-0.06160888671875,7.180575561523438
1.6920000000000073,7.169509887695313,0.496759033203125,6.319396972656251
1.7019999999999982,8.032183837890626,0.7571014404296875,7.086965942382813
1.711999999999989,7.181771850585938,1.1310913085937502,6.8140625
1.72199999999998,6.097784423828125,1.3393951416015626,7.565481567382813
1.731999999999971,5.81815185546875,1.070977783203125,7.575201416015625
1.7419999999999618,5.364309692382813,0.7810272216796875,7.788290405273438
1.7520000000000095,6.18541259765625,0.1954437255859375,7.727728271484375
1.7620000000000005,6.643740844726563,-0.1117034912109375,7.917041015625
1.7719999999999914,6.64000244140625,-0.257501220703125,7.032086181640626
1.7830000000000226,7.091751098632813,-0.5402740478515625,7.0927978515625005
1.7930000000000064,6.895559692382813,-0.6090606689453125,6.609048461914063
1.8029999999999973,6.738098144531251,-0.443524169921875,6.5739074707031255
1.812999999999988,4.31561279296875,-0.0010467529296875,4.543954467773438
1.822999999999979,4.2109375,0.474627685546875,6.286199951171875
1.83299999999997,10.756582641601565,1.056024169921875,12.191680908203123
1.842999999999961,9.356475830078123,0.7500732421875,11.583367919921876
1.8530000000000089,4.038522338867188,0.1782470703125,6.426614379882813
1.8629999999999995,3.155960083007813,-0.1810882568359375,4.187161254882813
1.8729999999999905,5.618670654296875,1.3030578613281252,5.0172363281250005
1.8829999999999807,10.031033325195311,1.4970062255859375,8.756387329101564
1.8940000000000048,9.153106689453123,0.6907073974609376,10.010546875
1.9029999999999632,6.018679809570313,-0.31043701171875,9.1336669921875
1.9139999999999875,3.4508453369140626,-1.825387573242188,5.887835693359375
1.9239999999999784,4.290640258789063,-1.3027587890625,5.435488891601563
1.933999999999969,8.157794189453126,0.107965087890625,6.778173828125
1.94399999999996,9.249108886718751,-0.5181427001953125,8.853884887695314
1.954000000000008,7.84287109375,-0.1954437255859375,8.429052734375
1.9639999999999984,5.5041259765625,-0.0148040771484375,7.526751708984375
1.973999999999989,3.847265625,-0.0227294921875,5.541210937500001
1.9839999999999804,6.736752319335938,1.7130859375,5.7960205078125
1.993999999999972,7.494750976562501,1.8527526855468752,6.814212036132813
2.0039999999999623,8.138653564453126,1.2462341308593752,8.67130126953125
2.01400000000001,6.222048950195313,1.05452880859375,8.887081909179688
2.024000000000001,4.034933471679688,0.5979949951171876,7.496844482421875
2.033999999999992,5.2816162109375,-0.1374237060546875,6.6935363769531255
2.0439999999999827,6.794622802734375,0.5169464111328126,6.70340576171875
2.0539999999999736,7.989117431640626,-0.5867797851562501,6.826922607421875
2.0649999999999977,7.947097778320313,-1.03299560546875,8.73829345703125
2.0749999999999886,5.403488159179688,-0.7985229492187501,7.400543212890626
2.0849999999999795,5.976959228515625,-0.7905975341796876,7.444656372070313
2.0949999999999704,6.521569824218751,-0.6765014648437501,6.301153564453125
2.1049999999999613,6.822885131835938,0.8803192138671876,6.965093994140625
2.115000000000009,7.323831176757813,0.392681884765625,7.730419921875001
2.125,5.6382598876953125,1.0802490234375002,8.561990356445314
2.134999999999991,5.586520385742188,1.0992401123046875,7.631576538085938
2.144999999999982,6.489569091796875,0.7591949462890626,7.245773315429688
2.1549999999999727,6.984982299804688,0.9680969238281252,6.012249755859376
2.164999999999964,6.767257690429688,1.1076141357421876,5.714822387695313
2.175000000000012,5.9099670410156255,-0.435748291015625,5.852694702148438
2.1850000000000023,7.20943603515625,0.0868804931640625,8.799154663085938
2.195999999999969,6.048587036132813,-0.7167266845703125,9.396102905273438
2.2059999999999604,5.185763549804688,-0.566741943359375,8.676983642578126
2.216000000000008,6.699966430664063,0.8448791503906251,7.990313720703125
2.225999999999999,6.244628906250001,0.6533233642578126,6.633871459960938
2.23599999999999,7.844815063476563,-0.4562347412109375,6.872232055664063
2.245999999999981,7.26925048828125,0.0635528564453125,7.523162841796876
2.255999999999972,6.7279296875000005,-1.1221191406250002,7.247418212890626
2.2659999999999627,7.363009643554688,-0.0083740234375,7.621707153320313
2.2760000000000105,5.919985961914063,1.1206237792968752,6.887933349609376
2.2860000000000014,5.978305053710938,0.7983734130859376,7.307830810546876
2.2959999999999923,5.937481689453126,0.5728729248046875,8.012893676757812
2.305999999999983,5.478405761718751,1.19927978515625,7.882348632812499
2.315999999999974,7.480844116210938,0.0372344970703125,7.854534912109376
2.325999999999965,6.801800537109376,0.724951171875,6.37442626953125
2.3360000000000127,7.541256713867188,0.6136962890625001,6.139654541015625
2.34699999999998,7.0258056640625,-0.6572113037109375,6.410165405273438
2.356999999999971,5.632577514648438,-0.436346435546875,7.079339599609376
2.366999999999962,6.682022094726563,-0.3126800537109375,8.130877685546876
2.377000000000009,6.0233154296875,-0.86551513671875,8.572906494140625
2.3870000000000005,5.773440551757813,0.2352203369140625,7.526901245117188
2.396999999999992,5.972622680664063,0.1625457763671875,7.74716796875
2.4069999999999823,5.919985961914063,-0.01495361328125,6.791183471679688
2.416999999999973,7.148724365234376,1.0265655517578125,7.362112426757813
2.426999999999964,7.082479858398438,0.8294769287109376,7.062442016601563
2.437000000000012,7.448095703125,0.6996795654296876,7.175042724609376
2.4470000000000027,6.709237670898438,1.2453369140625,7.142742919921876
2.4569999999999936,5.441769409179688,0.4870391845703125,7.178631591796876
2.466999999999977,6.059054565429688,0.0794036865234375,7.835244750976563
2.4769999999999825,5.9338928222656255,0.22430419921875,7.775430297851563
2.5179999999999723,7.06767578125,-0.4629638671875,7.016983032226563
2.527999999999963,6.570468139648438,-0.0584686279296875,6.75723876953125
2.538000000000011,4.013250732421875,0.8372528076171876,5.115631103515625
2.548000000000002,4.008016967773438,0.6066680908203126,5.67698974609375
2.5579999999999927,11.832196044921876,1.4312103271484375,12.582269287109376
2.567999999999984,10.431491088867189,1.224700927734375,10.694973754882811
2.5779999999999816,3.67021484375,-0.1431060791015625,5.588763427734375
2.5879999999999725,2.1258056640625003,-0.19619140625,3.746478271484375
2.598999999999989,4.6416015625,1.0104156494140626,5.373132324218751
2.6089999999999804,10.336984252929687,0.105572509765625,10.207785034179688
2.617999999999995,9.344812011718751,0.461767578125,11.352633666992189
2.6289999999999623,5.587567138671876,-0.3768310546875,8.845062255859375
2.63900000000001,3.6331298828125,-2.5672363281250004,5.148379516601563
2.649000000000001,5.240493774414063,-0.9168060302734377,4.22589111328125
2.658999999999992,9.213668823242188,0.3808685302734375,5.829965209960938
2.6689999999999827,10.149166870117188,-0.4358978271484375,9.460403442382812
2.6789999999999736,6.940121459960938,0.7345214843750001,9.224136352539062
2.6889999999999645,3.4047882080078127,-0.0590667724609375,8.285647583007814
2.6990000000000123,3.0950988769531254,-0.5763122558593751,5.9373321533203125
2.7099999999999795,6.716415405273438,2.257098388671875,5.853143310546876
2.718999999999994,8.745172119140626,1.842584228515625,6.480895996093751
2.728999999999978,9.379653930664062,1.2345703125,8.523858642578126
2.738999999999983,6.423324584960938,1.31173095703125,7.739840698242188
2.748999999999974,4.087719726562501,0.032598876953125,7.115975952148438
2.759999999999991,5.3880859375000005,-0.4128692626953125,6.516186523437501
2.769999999999982,6.067428588867188,0.8426361083984376,7.438525390625
2.7799999999999727,7.488769531250001,-0.8450286865234375,7.752700805664063
2.789999999999964,7.13646240234375,-1.003237915039063,9.332400512695314
2.800000000000012,5.218511962890625,-0.4622161865234375,7.5378173828125
2.8100000000000023,6.273937988281251,-0.9015533447265626,6.743481445312501
2.819999999999993,7.335195922851563,-0.3751861572265625,5.710784912109375
2.829999999999984,7.89072265625,1.120025634765625,6.190496826171875
2.839999999999982,7.335345458984375,0.2376129150390625,7.953976440429688
2.849999999999973,5.275784301757813,1.1623443603515626,8.648272705078126
2.8600000000000136,4.876821899414063,1.1243621826171877,8.400192260742188
2.869999999999997,5.894265747070313,0.38939208984375,7.291531372070313
2.8799999999999955,6.887185668945313,0.91815185546875,6.402090454101563
2.8899999999999864,7.529592895507813,1.2881042480468752,6.931448364257813
2.9010000000000105,6.62564697265625,-0.087628173828125,7.278372192382813
2.9110000000000014,5.170361328125001,-0.6542205810546875,6.433792114257813
2.9209999999999923,2.985638427734376,-2.39915771484375,4.2042083740234375
2.930999999999983,9.608145141601565,-0.4684967041015625,9.607995605468751
2.940999999999974,12.699356079101564,1.5903167724609375,11.33782958984375
2.950999999999965,5.470181274414063,0.8169158935546875,8.471371459960938
2.9610000000000127,1.783816528320313,-0.0647491455078125,5.612390136718751
2.971000000000004,2.771353149414063,0.0004486083984375,5.500537109375
2.9809999999999945,8.52296142578125,-0.481207275390625,7.245474243164063
2.990999999999985,11.39405517578125,0.729437255859375,9.486572265625
3.0009999999999835,8.038763427734375,1.8328643798828128,8.560794067382814
3.0109999999999744,4.536328125000001,0.8309722900390626,6.761425781250001
3.021000000000015,2.846121215820313,0.5764617919921875,5.369244384765626
3.031000000000006,5.983987426757813,0.5973968505859375,6.148776245117188
3.041999999999973,9.676632690429688,-0.172564697265625,8.728125
3.051999999999964,8.064633178710938,0.6296966552734375,8.809173583984375
3.062000000000012,6.052175903320313,0.4768707275390625,8.398248291015626
3.0720000000000027,3.9698852539062495,-1.0579681396484375,6.252255249023438
3.0819999999999936,5.47601318359375,-0.82484130859375,5.267559814453126
3.091999999999977,8.508456420898439,-0.8628234863281251,6.208142089843751
3.1019999999999825,8.346359252929688,-0.4981048583984375,7.767355346679688
3.111999999999973,7.344467163085938,0.6657348632812501,8.954522705078126
3.122000000000014,4.600778198242188,0.2666229248046875,8.137606811523439
3.131999999999998,4.251910400390625,-0.3781768798828125,7.053469848632813
3.141999999999996,6.16746826171875,0.8807678222656251,6.630282592773438
3.151999999999987,7.117321777343751,1.0902679443359375,7.143789672851563
3.1619999999999777,8.03009033203125,1.3147216796875,7.903732299804688
3.1719999999999686,6.285751342773438,1.5636993408203126,8.230020141601564
3.1819999999999595,5.839834594726563,0.3431854248046875,6.996795654296876
3.192000000000008,6.6071044921875,-0.057122802734375,6.870138549804688
3.201999999999998,6.547439575195313,0.1454986572265625,5.923126220703125
3.2129999999999725,7.3488037109375,-0.6418090820312501,7.779766845703126
3.224999999999973,6.354537963867188,-0.6524261474609375,8.360116577148439
3.233000000000004,5.1263977050781255,-0.2842681884765625,8.309274291992189
3.242999999999995,6.427362060546876,-0.6836791992187501,7.718008422851563
3.252999999999986,6.657049560546875,-0.172564697265625,6.393865966796875
3.262999999999984,7.405776977539063,0.360382080078125,6.122906494140626
3.272999999999968,6.863409423828125,0.35888671875,7.072909545898438
3.2830000000000226,2.3668579101562504,1.28182373046875,4.8277740478515625
3.2930000000000064,5.449246215820313,1.6160369873046876,7.882647705078125
3.3029999999999973,13.416830444335938,1.036285400390625,11.917132568359376
3.312999999999988,8.535821533203126,0.3327178955078125,8.883193969726562
3.3240000000000123,3.7505157470703128,-1.0376312255859377,4.424923706054688
3.33299999999997,2.039373779296876,-0.103778076171875,5.579791259765625
3.343999999999994,5.16019287109375,1.30634765625,7.126892089843751
3.353999999999978,10.101016235351564,0.8285797119140625,10.6577392578125
3.363999999999983,8.832650756835939,-0.14534912109375,9.899142456054689
3.373999999999974,6.309826660156251,-0.59754638671875,7.0353759765625
3.3840000000000146,3.6993743896484377,-2.086627197265625,4.608404541015625
3.394000000000005,5.496350097656251,0.11304931640625,5.423226928710938
3.4039999999999964,9.194079589843753,0.326885986328125,7.326821899414063
3.413999999999988,8.840576171875,-0.10108642578125,9.3178955078125
3.423999999999978,7.039114379882813,0.49945068359375,8.488568115234376
3.433999999999969,3.2893463134765626,0.0091217041015625,7.663128662109376
3.44399999999996,3.8369476318359377,0.0572723388671875,5.642745971679688
3.454000000000008,7.201660156250001,2.145843505859375,6.568673706054688
3.463999999999998,8.743975830078126,1.0741180419921876,6.766360473632813
3.474999999999973,9.073104858398438,0.969891357421875,8.262918090820314
3.4850000000000136,5.844918823242188,0.48031005859375,7.58028564453125
3.494999999999997,3.6914489746093753,-0.2148834228515625,7.21781005859375
3.5049999999999955,5.405282592773438,-0.2666229248046875,7.088461303710938
3.5149999999999864,6.107205200195313,0.6174346923828126,7.468582153320313
3.5249999999999844,8.46015625,-0.7708587646484376,8.20654296875
3.534999999999968,6.910662841796875,-0.6461456298828125,8.206991577148438
3.544999999999959,5.3541412353515625,-0.47193603515625,6.986776733398438
3.555000000000007,6.647628784179688,-0.6216217041015626,6.6286376953125
3.5649999999999977,6.71776123046875,0.3342132568359375,6.115130615234375
3.5749999999999886,7.9206298828125,1.1844757080078123,6.898550415039063
3.5849999999999795,6.955972290039063,0.339447021484375,8.558999633789064
3.5949999999999704,4.774090576171876,1.074566650390625,7.9945007324218755
3.604999999999961,5.3282714843750005,0.7023712158203126,8.250057983398438
3.615000000000009,5.941818237304688,0.33555908203125,6.902438354492188
3.625999999999984,7.497891235351563,0.9416290283203126,6.420782470703125
3.6359999999999744,7.817150878906251,0.55926513671875,7.054965209960938
3.646000000000015,5.6288391113281255,-1.0993896484375,6.177188110351563
3.656000000000006,3.3669555664062503,-1.81058349609375,5.259933471679688
3.665999999999997,8.228823852539064,-0.5369842529296875,9.6385009765625
3.675999999999988,10.843313598632813,0.6824829101562501,10.454818725585938
3.685999999999978,6.594692993164063,0.62027587890625,7.831057739257813
3.6959999999999695,2.9271697998046875,0.8377014160156251,5.750411987304688
3.70599999999996,3.6809814453125,0.1102081298828125,5.635867309570313
3.716000000000008,7.495199584960938,0.7168762207031251,8.189794921875
3.726999999999983,9.876263427734376,0.6939971923828125,9.41300048828125
3.73599999999999,8.235403442382813,1.393975830078125,8.821585083007813
3.745999999999981,5.217465209960938,0.81766357421875,6.331210327148438
3.755999999999972,3.830517578125,0.5280120849609375,4.991964721679688
3.766999999999996,6.614431762695313,0.038580322265625,6.490765380859376
3.7760000000000105,8.558551025390626,0.0874786376953125,8.114877319335939
3.786000000000002,7.78843994140625,0.26617431640625,9.39326171875
3.7969999999999686,5.800955200195313,0.19080810546875,7.893115234375
3.80699999999996,4.16368408203125,-0.6314910888671875,6.720004272460938
3.8170000000000073,6.05142822265625,-0.9724334716796876,5.319448852539063
3.826999999999998,7.921527099609375,-0.7971771240234375,6.651815795898438
3.836999999999989,8.373574829101564,0.071478271484375,7.294671630859375
3.84699999999998,7.274484252929688,0.5043853759765625,8.787191772460938
3.856999999999971,4.848260498046876,0.3958221435546875,7.793823242187501
3.866999999999962,4.727883911132813,0.064300537109375,7.237100219726563
3.8770000000000095,5.709738159179688,0.526068115234375,6.996197509765626
3.887000000000001,7.011898803710938,1.0475006103515625,7.263717651367188
3.896999999999992,7.468881225585938,1.0996887207031252,8.03427734375
3.9069999999999823,6.722396850585938,0.8916839599609375,7.785150146484375
3.916999999999973,6.265264892578125,0.308941650390625,7.125396728515626
3.926999999999964,6.551028442382813,-0.0019439697265625,6.255245971679688
3.937000000000012,6.552374267578125,0.00059814453125,6.526654052734376
3.947999999999979,7.188052368164063,-0.4487579345703125,7.843319702148438
3.95799999999997,6.008511352539063,-0.4696929931640625,8.194430541992189
3.967999999999961,5.685064697265625,-0.2669219970703125,8.602215576171876
3.9780000000000086,6.010903930664063,-0.317913818359375,7.229324340820313
3.988,6.521719360351563,0.0967498779296875,6.594692993164063
3.9979999999999913,7.691091918945313,0.268267822265625,6.395510864257813
4.007999999999981,6.962252807617188,0.5543304443359376,7.553219604492188
4.017999999999972,5.1358184814453125,1.0169952392578123,6.511849975585938
4.027999999999963,1.48160400390625,1.00787353515625,4.7305755615234375
4.038000000000011,9.481338500976562,1.161746215820313,9.937124633789065
4.048000000000002,13.298397827148438,0.9099273681640626,10.687197875976564
4.057999999999993,5.960211181640625,-0.34632568359375,6.916943359375001
4.067999999999984,2.679986572265625,-1.09639892578125,5.165277099609376
4.077999999999982,2.134030151367188,0.0958526611328125,6.031240844726563
4.088999999999999,7.886087036132813,0.5650970458984376,8.503372192382812
4.0989999999999895,10.701403808593753,0.1544708251953125,10.544839477539064
4.1089999999999804,7.758981323242188,0.3518585205078125,8.711227416992188
4.118999999999971,4.6810791015625,-1.4467620849609375,5.893368530273438
4.128999999999962,3.904986572265625,-0.7835693359375001,4.948898315429688
4.13900000000001,6.766061401367188,0.945068359375,5.647830200195313
4.149000000000001,9.864151000976562,0.4379913330078125,8.165869140625
4.158999999999992,8.37940673828125,0.4610198974609375,9.405374145507814
4.168999999999983,5.33245849609375,0.722259521484375,8.253048706054688
4.178999999999974,2.75924072265625,-0.7161285400390626,6.922625732421875
4.1889999999999645,5.5021820068359375,1.0729217529296875,5.539715576171876
4.199999999999989,7.87935791015625,1.3133758544921876,6.335696411132813
4.20999999999998,9.144732666015626,0.3922332763671875,7.406076049804688
4.21999999999997,7.798309326171876,0.3632232666015625,8.633020019531251
4.229999999999961,4.671209716796875,0.0569732666015625,7.79442138671875
4.241999999999962,4.20555419921875,-0.759344482421875,7.054516601562501
4.25,5.7818145751953125,0.69384765625,7.158743286132813
4.259999999999991,7.343270874023438,0.030804443359375,6.9746643066406255
4.269999999999982,8.16407470703125,-0.448309326171875,8.519522094726563
4.279999999999973,6.023165893554688,0.05682373046875,7.801898193359375
4.289999999999964,5.526406860351563,0.042169189453125,7.107751464843751
4.300000000000011,6.858474731445313,-0.30146484375,6.446652221679688
4.310000000000002,7.063937377929688,1.196588134765625,6.2494140625000005
4.319999999999993,7.578042602539063,0.429168701171875,7.429852294921876
4.329999999999984,6.050381469726563,0.5295074462890625,8.4517822265625
4.339999999999982,4.799960327148438,0.6727630615234376,8.361013793945313
4.349999999999973,5.809478759765625,0.0010467529296875,7.549929809570313
4.360000000000014,6.8012023925781255,-0.0370849609375,6.6950317382812505
4.370999999999981,7.825973510742188,0.8199066162109375,6.305490112304688
4.380999999999972,6.6130859375,-0.366064453125,6.82303466796875
4.390999999999963,2.7052581787109378,-1.1680267333984375,4.545449829101563
4.4010000000000105,6.485830688476563,-0.14415283203125,9.265109252929689
4.411000000000001,12.097772216796876,1.2107940673828126,10.769293212890624
4.420999999999992,7.916592407226563,0.9811065673828124,8.766854858398439
4.430999999999983,3.7991149902343753,0.816168212890625,5.266961669921876
4.440999999999974,2.273846435546876,-0.5220306396484375,4.8502044677734375
4.450999999999965,6.542803955078125,-0.31043701171875,7.774533081054688
4.461000000000013,9.805383300781251,-0.1221710205078125,9.845159912109375
4.47199999999998,8.365350341796876,0.9305633544921876,9.754541015625
4.481999999999971,6.272293090820313,0.6074157714843751,7.06767578125
4.491999999999962,3.4526397705078127,0.19798583984375,4.921832275390625
4.5020000000000095,5.93060302734375,0.1786956787109375,4.9638519287109375
4.5120000000000005,8.723489379882814,0.4257293701171875,7.963247680664063
4.521999999999991,8.52176513671875,0.710296630859375,9.017776489257812
4.531999999999982,6.71776123046875,1.07666015625,8.874520874023439
4.541999999999973,3.754852294921875,-0.304754638671875,6.92113037109375
4.551999999999964,4.689303588867188,-0.459075927734375,5.648727416992188
4.562000000000012,7.313812255859376,-0.6060699462890625,6.194534301757813
4.572000000000003,8.436380004882814,-0.200079345703125,7.013693237304688
4.581999999999994,8.690591430664064,0.15791015625,9.018972778320313
4.591999999999977,5.409619140625001,0.2086029052734375,7.787692260742188
4.601999999999983,4.2743408203125,-0.47193603515625,7.182968139648438
4.6119999999999735,5.504574584960938,0.0897216796875,6.863558959960938
4.623999999999974,6.357528686523438,0.7029693603515625,6.939822387695313
4.632999999999981,8.133569335937501,0.8151214599609375,8.178878784179688
4.642999999999972,6.763070678710938,1.1536712646484375,8.391818237304689
4.652999999999963,5.621960449218751,0.8979644775390626,7.192089843750001
4.663000000000011,6.56822509765625,0.14534912109375,6.5724121093750005
4.673000000000002,6.398052978515626,0.5022918701171876,6.1167755126953125
4.682999999999993,7.649969482421875,0.1096099853515625,7.058853149414063
4.692999999999984,6.531140136718751,-0.329278564453125,8.398846435546876
4.702999999999982,5.454031372070313,-0.1009368896484375,8.369686889648438
4.7129999999999725,5.7638702392578125,-0.4553375244140625,8.0235107421875
4.723000000000013,6.190945434570313,-0.5401245117187501,6.638806152343751
4.733000000000004,7.452731323242188,0.024224853515625,6.4731201171875
4.743999999999971,7.344168090820313,0.157611083984375,6.887783813476563
4.753999999999962,6.062493896484376,0.627752685546875,7.047039794921876
4.76400000000001,2.7199127197265627,1.0539306640625,4.84556884765625
4.774000000000001,5.472573852539063,0.9230865478515624,7.700512695312501
4.783999999999992,14.068209838867189,0.998602294921875,12.126333618164065
4.793999999999983,8.123251342773438,0.4326080322265625,9.596182250976565
4.803999999999974,2.5175903320312503,-0.8344116210937501,3.920538330078125
4.8139999999999645,2.59893798828125,0.44681396484375,5.132827758789063
4.824000000000012,5.942715454101563,1.0262664794921876,6.503924560546875
4.834000000000003,10.718600463867189,0.6925018310546875,10.281057739257813
4.843999999999994,8.519522094726563,-0.035589599609375,11.003167724609376
4.853999999999978,4.6767425537109375,-0.9078338623046877,7.5976318359375
4.863999999999983,3.849658203125,-2.4368408203125003,4.946505737304688
4.873999999999974,5.754598999023438,0.106768798828125,4.61468505859375
4.884000000000015,10.28629150390625,0.3997100830078125,6.633572387695313
4.894999999999982,9.529190063476562,-0.02093505859375,9.182116699218753
4.904999999999973,6.068325805664063,0.6391174316406251,8.888876342773438
4.914999999999964,3.0900146484375,-0.1810882568359375,8.207290649414062
4.925000000000011,3.5529785156250004,0.1435546875,5.822637939453125
4.935000000000002,7.282858276367188,2.4263732910156253,6.13756103515625
4.944999999999993,9.344662475585938,1.1544189453125,6.9926086425781255
4.954999999999984,8.329611206054688,0.8447296142578126,8.0330810546875
4.964999999999982,5.951089477539063,0.647491455078125,7.570266723632813
4.974999999999973,4.1260009765625005,-0.3901397705078125,7.255642700195313
4.985000000000014,5.928958129882813,-0.1064697265625,6.704302978515625
4.994999999999997,6.4916625976562505,0.5540313720703125,7.457666015625
5.004999999999996,7.562042236328126,-1.07008056640625,8.11024169921875
5.014999999999986,6.354687500000001,-0.5737701416015626,8.830856323242188
5.024999999999984,5.107855224609375,-0.3437835693359375,7.248016357421876
5.036000000000001,6.825576782226563,-0.65616455078125,6.748715209960938
5.045999999999992,7.776626586914063,0.4418792724609375,5.759683227539063
5.055999999999983,7.569070434570313,1.154718017578125,6.566131591796876
5.065999999999974,6.983935546875,0.36546630859375,8.2914794921875
5.075999999999965,4.5656372070312505,1.1420074462890626,8.327816772460938
5.086000000000013,5.286999511718751,0.679791259765625,8.181570434570313
5.096000000000004,6.449792480468751,0.121722412109375,7.22139892578125
5.1059999999999945,7.085470581054688,1.15860595703125,6.487625122070313
5.116999999999962,7.482489013671875,0.6388183593750001,7.181771850585938
5.125999999999984,6.241937255859376,-0.3943267822265625,7.258782958984375
5.135999999999974,4.946356201171875,-0.6377716064453125,6.088812255859375
5.146000000000015,3.540866088867188,-2.019186401367188,4.569973754882813
5.156999999999982,10.194027709960938,-0.02332763671875,10.223037719726562
5.165999999999997,11.644378662109377,1.7570495605468752,10.676580810546875
5.176999999999964,4.51300048828125,0.2558563232421875,7.748065185546875
5.185999999999979,2.370745849609375,0.0524871826171875,5.617474365234376
5.197000000000003,3.5139495849609377,0.2848663330078125,5.83310546875
5.206999999999994,9.058151245117188,-0.1472930908203125,7.577145385742188
5.216999999999977,10.773330688476562,0.7400543212890626,10.126138305664064
5.226999999999983,6.896456909179688,1.6326354980468751,8.107998657226563
5.2369999999999735,4.38260498046875,0.0061309814453125,6.591104125976563
5.247000000000014,3.8595275878906254,0.5426666259765626,5.212530517578125
5.256999999999998,7.034030151367188,0.699530029296875,6.093746948242188
5.266999999999996,9.670651245117188,-0.1999298095703125,8.547634887695313
5.276999999999987,7.371832275390625,0.79373779296875,9.19632263183594
5.286999999999978,5.151370239257813,0.3958221435546875,8.195178222656251
5.296999999999969,3.859976196289063,-1.2042144775390626,6.272293090820313
5.30699999999996,6.237152099609376,-0.4448699951171875,5.4673400878906255
5.317000000000007,8.747265625,-0.4774688720703125,6.303994750976563
5.327999999999982,8.388677978515625,-0.41331787109375,7.854534912109376
5.3379999999999725,6.816305541992188,0.7454376220703125,8.80289306640625
5.348000000000013,4.382754516601563,0.147442626953125,7.908517456054688
5.358000000000004,4.681826782226563,-0.499151611328125,6.78953857421875
5.367999999999995,6.515737915039063,1.053631591796875,7.0464416503906255
5.377999999999986,7.141845703125001,0.8948242187500001,7.114929199218751
5.387999999999984,7.493853759765625,0.9882843017578126,8.321835327148438
5.397999999999968,5.931649780273438,1.3337127685546877,7.930648803710938
5.408000000000023,5.952734375,0.2041168212890625,6.999188232421876
5.418000000000006,7.177584838867188,-0.1763031005859375,6.405679321289063
5.427999999999997,6.768304443359376,0.42767333984375,6.308331298828126
5.437999999999988,7.189846801757813,-0.5567230224609375,7.641744995117188
5.447999999999979,5.887088012695313,-0.4749267578125,8.485128784179688
5.45799999999997,5.152267456054688,-0.07955322265625,8.375070190429689
5.467999999999961,6.453082275390625,-0.5531341552734376,7.481741333007813
5.478000000000009,6.892269897460938,-0.1317413330078125,6.3167053222656255
5.488,7.45347900390625,0.48629150390625,6.456820678710938
5.498999999999974,6.168215942382813,0.411822509765625,6.543850708007813
5.509000000000015,1.5050811767578125,1.0352386474609376,3.8964630126953126
5.5190000000000055,8.465539550781251,1.666131591796875,10.646224975585938
5.528999999999996,13.830148315429687,0.6622955322265626,11.864346313476563
5.539999999999964,6.515737915039063,0.2304351806640625,8.28131103515625
5.548999999999978,2.0970947265625,-0.8857025146484375,3.5483428955078127
5.558999999999969,1.7187683105468752,0.5972473144531251,4.497149658203125
5.56899999999996,7.45347900390625,1.344329833984375,7.448095703125
5.579000000000008,11.216555786132814,0.5707794189453126,11.29775390625
5.588999999999999,7.879058837890626,-0.4350006103515625,10.793667602539063
5.5989999999999895,4.568328857421875,-1.6381683349609375,7.037469482421876
5.6089999999999804,2.8824584960937503,-2.382110595703125,4.260284423828125
5.618999999999971,6.910064697265626,0.4143646240234375,4.541860961914063
5.629999999999996,10.788284301757812,0.3234466552734375,7.270745849609375
5.639999999999986,9.305484008789064,0.213836669921875,9.649865722656251
5.649999999999984,5.862265014648438,0.737213134765625,9.04798278808594
5.659999999999968,1.6616455078125,-0.284716796875,7.657147216796876
5.669999999999959,4.18521728515625,0.6410614013671876,5.45567626953125
5.680000000000007,7.622753906250001,2.494561767578125,6.462203979492188
5.689999999999998,9.7605224609375,1.0763610839843751,6.793276977539063
5.699999999999989,8.857025146484375,0.9159088134765626,8.819342041015625
5.70999999999998,4.995404052734376,0.422589111328125,6.943859863281251
5.71999999999997,3.9179962158203128,-0.6240142822265625,6.9301025390625
5.729999999999961,6.235656738281251,0.0180938720703125,6.853091430664063
5.740000000000009,6.391622924804688,0.365765380859375,7.358673095703126
5.75,8.170205688476564,-1.0552764892578126,8.781210327148438
5.759999999999991,5.671755981445313,-0.6180328369140625,8.913400268554689
5.771000000000015,4.898654174804688,-0.5109649658203126,7.0018798828125
5.781000000000006,7.0832275390625,-0.6676788330078125,6.328070068359375
5.790999999999997,7.718905639648438,0.8220001220703126,5.780169677734375
5.800999999999988,8.397500610351564,1.2000274658203125,6.520822143554688
5.810999999999979,6.407174682617188,0.5307037353515626,8.52296142578125
5.8209999999999695,4.442568969726563,1.2314300537109375,8.34949951171875
5.83099999999996,5.195333862304688,0.5609100341796875,8.440567016601562
5.841000000000008,6.0654846191406255,0.1873687744140625,6.665274047851563
5.850999999999999,7.821188354492188,1.1871673583984377,6.917990112304688
5.86099999999999,7.239941406250001,0.299371337890625,6.874325561523438
5.870999999999981,6.208291625976563,-0.354400634765625,7.359570312500001
5.880999999999972,5.219857788085938,-0.8976654052734375,6.277975463867188
5.890999999999963,2.7375579833984376,-2.355941772460937,3.966445922851563
5.9010000000000105,10.764508056640626,0.0859832763671875,10.504016113281253
5.911999999999978,12.055752563476563,2.010064697265625,11.150012207031253
5.921999999999969,4.589712524414063,0.235968017578125,7.940518188476563
5.93199999999996,1.9487548828125,0.235369873046875,5.312420654296876
5.942000000000007,2.730828857421875,0.13099365234375,4.998394775390626
5.951999999999998,9.655996704101565,0.1652374267578125,7.8030944824218755
5.961999999999989,11.216854858398438,0.9826019287109377,10.253842163085938
5.97199999999998,6.677087402343751,1.8475189208984373,8.858071899414064
5.981999999999971,4.306491088867188,0.111553955078125,6.678732299804688
5.991999999999962,2.768212890625,0.441131591796875,4.936337280273438
6.0020000000000095,7.587463378906251,0.4496551513671875,5.519229125976563
6.0120000000000005,10.261917114257812,-0.289501953125,8.811267089843751
6.021999999999991,7.675540161132813,0.542816162109375,8.885736083984376
6.031999999999982,5.465097045898438,0.2883056640625,8.836688232421876
6.043000000000006,3.075360107421876,-1.359283447265625,6.079690551757813
6.052999999999997,5.987875366210938,-0.521881103515625,5.375375366210938
6.062999999999988,8.995794677734375,-0.579901123046875,6.413156127929688
6.072999999999979,8.199664306640626,-0.090020751953125,7.562789916992188
6.08299999999997,7.273138427734375,1.0304534912109375,9.141293334960938
6.092999999999961,4.270602416992188,0.3614288330078125,7.964743041992188
6.103000000000009,4.543206787109376,-0.3623260498046875,6.678134155273438
6.113,6.576748657226563,1.0256683349609377,6.741836547851563
6.122999999999991,7.042105102539063,0.8246917724609376,7.126593017578125
6.132999999999981,7.864553833007813,1.0368835449218752,8.393463134765625
6.142999999999972,5.77269287109375,1.1430541992187502,8.222244262695312
6.152999999999963,5.717962646484375,0.0521881103515625,7.045544433593751
6.163000000000011,7.156500244140625,-0.3683074951171875,6.499139404296876
6.173000000000002,6.590805053710938,0.3940277099609375,5.9024902343750005
6.182999999999993,7.728924560546876,-0.6090606689453125,7.780215454101563
6.19399999999996,5.872882080078125,-0.423486328125,8.4302490234375
6.204000000000008,5.041909790039063,-0.01016845703125,8.344863891601562
6.213999999999999,6.529794311523438,-0.5982940673828125,7.714718627929688
6.2239999999999895,6.558056640625001,0.0198883056640625,6.34093017578125
6.2339999999999804,7.585369873046876,0.65496826171875,6.267208862304688
6.243999999999971,6.827670288085938,0.2893524169921875,7.255194091796875
6.253999999999962,3.5822875976562503,1.251467895507813,5.410665893554688
6.26400000000001,3.811227416992188,1.4138641357421875,6.311770629882813
6.274000000000001,12.095080566406253,0.8647674560546875,11.708380126953124
6.283999999999992,10.277618408203123,0.6944458007812501,10.399041748046876
6.293999999999983,3.921435546875,-0.403448486328125,4.8322601318359375
6.303999999999974,2.470635986328125,-0.7702606201171875,5.3347015380859375
6.3139999999999645,4.693490600585938,0.816168212890625,5.77030029296875
6.324000000000012,9.439318847656253,0.3748870849609375,9.559396362304687
6.334000000000003,9.573004150390624,-0.2642303466796875,10.770040893554688
6.34499999999997,5.938079833984375,-0.052935791015625,8.494400024414062
6.354999999999961,3.5045288085937503,-2.0963470458984377,5.451788330078125
6.365000000000009,5.428012084960938,-0.5555267333984375,5.059704589843751
6.375,8.682217407226563,0.8215515136718751,5.804843139648438
6.384999999999991,9.889871215820314,0.112152099609375,8.567822265625
6.394999999999982,7.444357299804688,0.6748565673828125,9.087908935546876
6.404999999999973,3.587521362304688,0.5209838867187501,8.249758911132814
6.414999999999964,3.130389404296875,-0.37144775390625,6.322537231445313
6.425000000000011,6.583926391601563,1.795779418945313,6.358126831054688
6.435000000000002,8.470773315429689,1.5276611328125,6.314013671875
6.444999999999993,9.208135986328124,0.62625732421875,8.129531860351562
6.456999999999994,6.507513427734375,0.4209442138671875,7.689297485351563
6.464999999999982,4.29527587890625,0.0088226318359375,7.380505371093751
6.475999999999999,5.503079223632813,-0.7968780517578126,6.731219482421875
6.485000000000014,6.10107421875,0.7240539550781251,7.424020385742188
6.495999999999981,7.660885620117188,-0.5106658935546875,7.70469970703125
6.505999999999972,6.737051391601563,-0.6835296630859375,8.86270751953125
6.515999999999963,5.298065185546875,-0.2346221923828125,7.485479736328125
6.5260000000000105,6.3002563476562505,-0.1733123779296875,6.956869506835938
6.536000000000001,7.278521728515625,-0.0151031494140625,5.992510986328125
6.545999999999992,7.927807617187501,1.36376953125,6.360818481445313
6.55699999999996,7.141546630859375,0.427374267578125,7.8838439941406255
6.565999999999974,5.180828857421876,0.8916839599609375,8.131326293945314
6.575999999999965,5.0680786132812505,0.7319793701171875,8.573056030273438
6.586000000000013,5.929705810546875,0.197686767578125,7.097732543945313
6.596000000000004,7.150369262695313,0.3704010009765625,6.818099975585938
6.6059999999999945,7.56473388671875,0.7831207275390626,6.737350463867188
6.6159999999999854,5.481396484375001,-0.8746368408203126,6.296368408203126
6.6270000000000095,3.0542755126953125,-1.349713134765625,4.941421508789063
6.6370000000000005,8.708685302734375,-0.2971282958984375,10.039108276367188
6.646999999999991,11.909805297851562,0.8623748779296876,10.65833740234375
6.656999999999982,6.898699951171875,0.473431396484375,7.4068237304687505
6.666999999999973,2.444915771484375,0.5091705322265625,5.308831787109376
6.676999999999964,2.9397308349609377,-0.4433746337890625,4.901644897460938
6.687000000000012,7.065582275390626,0.368157958984375,8.648272705078126
6.697000000000003,10.193429565429687,0.6519775390625,10.265206909179687
6.706999999999994,7.984033203125,1.6052703857421875,9.355429077148438
6.716999999999977,5.187258911132813,0.79493408203125,6.322387695312501
6.726999999999983,3.6935424804687504,0.5073760986328125,4.503878784179688
6.7369999999999735,7.001730346679688,0.303857421875,5.545248413085938
6.747000000000014,9.126190185546877,0.23507080078125,7.929302978515626
6.757999999999981,8.465689086914063,0.3258392333984375,9.780111694335938
6.766999999999996,5.4912658691406255,0.32359619140625,8.357873535156251
6.777999999999963,3.1785400390625003,-0.8375518798828125,6.870437622070313
6.788000000000011,5.467190551757813,-0.939984130859375,5.568875122070313
6.798000000000002,7.95113525390625,-0.6222198486328125,6.482391357421876
6.807999999999993,8.847155761718751,-0.279632568359375,7.117620849609375
6.817999999999984,7.9421630859375005,0.450701904296875,8.924914550781251
6.827999999999982,5.005572509765625,0.4684967041015625,7.4531799316406255
6.8379999999999725,4.703210449218751,-0.0411224365234375,7.069769287109375
6.848000000000013,5.528649902343751,0.4759735107421875,6.804342651367188
6.858000000000004,6.781912231445313,1.1602508544921877,7.201361083984375
6.867999999999995,7.556808471679688,0.8762817382812501,8.657693481445314
6.877999999999986,6.305789184570313,1.1974853515625,8.223739624023438
6.887999999999984,5.7664123535156255,0.538031005859375,7.221697998046875
6.897999999999968,6.894064331054688,-0.114544677734375,6.028997802734375
6.908999999999992,6.913653564453125,0.06878662109375,6.2165161132812505
6.918999999999983,7.578790283203125,-0.2619873046875,7.163229370117188
6.928999999999974,6.217263793945313,-0.755157470703125,8.516082763671875
6.9389999999999645,5.523565673828125,-0.1975372314453125,8.632870483398438
6.949000000000012,5.597586059570313,-0.4723846435546875,7.621258544921876
6.959000000000003,6.38040771484375,-0.2582489013671875,6.648825073242188
6.968999999999994,7.601968383789063,0.41810302734375,6.347061157226563
6.978999999999978,6.0370727539062505,0.7523162841796875,6.386239624023438
6.988999999999983,1.9489044189453129,0.7292877197265626,3.7708526611328126
6.998999999999974,9.141891479492188,1.962811279296875,11.231808471679688
7.009000000000015,13.563375854492188,1.005780029296875,10.849893188476564
7.0190000000000055,6.419287109375,0.221612548828125,8.099325561523438
7.028999999999996,2.157806396484375,-0.9166564941406252,3.033639526367188
7.038999999999987,1.47921142578125,0.586181640625,5.357281494140626
7.048999999999978,7.613781738281251,0.6216217041015626,8.600421142578126
7.060000000000002,10.617962646484376,0.6443511962890626,11.612527465820314
7.069999999999993,7.816851806640625,-0.3991119384765625,10.17727966308594
7.079999999999984,4.748968505859375,-1.6722625732421876,6.102868652343751
7.089999999999982,3.589166259765625,-2.153170776367188,3.9725769042968753
7.099999999999973,7.289138793945313,0.6380706787109376,4.844970703125
7.110000000000014,10.350592041015624,-0.0668426513671875,7.921975708007813
7.119999999999997,8.784051513671876,0.75904541015625,9.690838623046876
7.129999999999996,5.438778686523438,0.58917236328125,8.942559814453126
7.139999999999986,1.8692016601562504,-0.1993316650390625,7.167416381835938
7.149999999999984,4.792184448242188,0.9667510986328126,5.4468536376953125
7.159999999999968,7.729074096679688,2.3155670166015625,6.5514770507812505
7.169999999999959,9.71670837402344,0.899908447265625,7.015637207031251
7.180000000000007,8.405276489257814,1.0193878173828126,8.6790771484375
7.189999999999998,4.89342041015625,-0.030206298828125,7.016384887695313
7.200999999999965,4.2336669921875005,-0.6820343017578125,6.984982299804688
7.211000000000013,5.970230102539063,-0.0019439697265625,6.926962280273438
7.221000000000004,6.481045532226563,0.146246337890625,7.492507934570313
7.230999999999994,8.172000122070314,-1.09759521484375,8.842520141601563
7.2409999999999854,5.663830566406251,-0.3533538818359375,8.377612304687501
7.250999999999983,5.474667358398438,-0.4864410400390625,7.113583374023438
7.260999999999974,6.917691040039063,-0.2743988037109375,6.021670532226563
7.271000000000015,7.564883422851563,0.96719970703125,5.9757629394531255
7.281000000000006,8.206393432617189,1.089520263671875,6.936981201171876
7.290999999999997,6.05621337890625,0.6510803222656251,8.618963623046875
7.300999999999988,4.6602935791015625,1.2236541748046876,8.2555908203125
7.310999999999979,5.3701416015625005,0.317913818359375,8.295516967773438
7.3209999999999695,6.132925415039063,0.360980224609375,6.414352416992188
7.331999999999994,7.960107421875,0.9124694824218752,7.065133666992188
7.341999999999977,7.106106567382813,0.082843017578125,7.008010864257813
7.3519999999999825,6.322537231445313,-0.287109375,7.47501220703125
7.361999999999973,6.172702026367188,-0.5432647705078125,7.2378479003906255
7.372000000000014,3.8892852783203127,-1.6842254638671876,4.895214843750001
7.381999999999998,5.39586181640625,-0.61728515625,6.314312744140626
7.391999999999996,11.916833496093751,1.453790283203125,10.63740234375
7.401999999999987,8.841622924804689,1.078155517578125,10.83658447265625
7.411999999999978,4.159497070312501,0.5585174560546875,6.476559448242188
7.421999999999969,1.4944641113281252,-0.078955078125,4.895663452148438
7.431999999999959,6.057708740234375,0.045758056640625,5.635867309570313
7.442000000000007,10.095034790039064,0.4586273193359375,8.713470458984375
7.451999999999998,9.056356811523438,1.050042724609375,10.44165954589844
7.461999999999989,6.3534912109375,0.5869293212890625,8.406622314453125
7.473000000000013,2.922384643554688,-0.0282623291015625,5.94615478515625
7.483000000000004,5.0416107177734375,-0.09091796875,4.382754516601563
7.492999999999995,9.110189819335938,0.3539520263671875,7.093844604492188
7.502999999999986,8.91055908203125,0.1854248046875,8.267404174804689
7.512999999999984,7.419833374023438,0.8767303466796875,9.827664184570311
7.522999999999968,3.69832763671875,-0.3505126953125,7.527798461914063
7.533000000000023,3.876275634765625,-0.3500640869140625,5.793179321289063
7.543000000000006,7.590304565429688,-0.4978057861328125,6.085821533203125
7.552999999999997,8.396603393554688,0.1825836181640625,6.366650390625001
7.562999999999988,8.54090576171875,0.2543609619140625,8.564682006835938
7.572999999999979,5.935687255859375,0.4942169189453125,8.21072998046875
7.58299999999997,4.2187133789062505,-0.2017242431640625,7.526602172851563
7.592999999999961,5.922528076171876,0.18243408203125,6.641049194335938
7.603000000000009,6.169113159179688,0.453692626953125,6.940719604492188
7.612999999999999,7.620211791992188,0.97437744140625,7.616921997070313
7.6229999999999905,6.588412475585938,0.59754638671875,8.685208129882813
7.6340000000000146,5.470928955078126,0.7076049804687501,7.774234008789063
7.644000000000005,6.737500000000001,-0.0488983154296875,7.004122924804688
7.653999999999996,6.711181640625001,0.2426971435546875,5.799609375
7.663999999999987,7.771542358398438,-0.0064300537109375,6.463101196289063
7.673999999999978,6.694882202148438,0.059814453125,8.129382324218751
7.683999999999969,5.3103271484375005,-0.1380218505859375,8.234356689453126
7.69399999999996,5.787945556640626,-0.007476806640625,8.715264892578126
7.704000000000008,6.116326904296876,-0.4065887451171875,6.770098876953125
7.713999999999999,7.079489135742188,0.1798919677734375,6.372183227539063
7.723999999999989,7.520321655273438,0.14654541015625,6.989169311523438
7.7339999999999804,5.299411010742188,0.5706298828125,6.504074096679688
7.743999999999971,2.2126861572265626,0.1191802978515625,4.629489135742188
7.755999999999972,8.324676513671875,0.81287841796875,9.8490478515625
7.764999999999986,14.230307006835938,1.002789306640625,11.644827270507813
7.774999999999984,6.7114807128906255,0.1327880859375,7.327120971679688
7.784999999999968,1.5053802490234376,-0.653472900390625,4.070822143554688
7.794999999999959,2.1241607666015625,1.21363525390625,5.132080078125
7.805000000000007,7.059451293945313,1.19569091796875,7.905377197265626
7.814999999999998,11.087057495117188,0.6238647460937501,11.2510986328125
7.824999999999989,8.089605712890625,0.286810302734375,10.216009521484375
7.8349999999999795,4.232171630859376,-1.565045166015625,6.462054443359375
7.84499999999997,3.796871948242188,-1.6454956054687502,4.64818115234375
7.855999999999994,6.572262573242188,0.6177337646484375,4.868896484375
7.865000000000009,10.828359985351565,-0.194097900390625,7.149172973632813
7.875,9.404177856445314,0.0677398681640625,9.807177734375
7.884999999999991,5.234811401367188,0.5567230224609375,8.466436767578125
7.894999999999982,1.977166748046875,-0.7837188720703125,7.773785400390626
7.904999999999973,4.290640258789063,0.5467041015625,5.6621856689453125
7.914999999999964,7.677783203125,1.958175659179688,6.679031372070313
7.925999999999988,9.943255615234376,0.957928466796875,7.067526245117188
7.935999999999979,8.2843017578125,1.203167724609375,8.304190063476563
7.9459999999999695,5.3152618408203125,0.7448394775390625,7.190145874023438
7.95599999999996,4.1428985595703125,-0.657659912109375,6.603515625000001
7.966000000000008,5.883798217773438,0.3354095458984375,7.041656494140626
7.975999999999999,6.9387756347656255,0.311334228515625,7.473815917968751
7.98599999999999,7.49654541015625,-0.9159088134765626,8.993252563476563
7.995999999999981,5.8097778320312505,-0.4248321533203125,8.32318115234375
8.005999999999972,5.116528320312501,-0.6216217041015626,7.485330200195313
8.015999999999963,7.011151123046876,-0.7820739746093751,5.873181152343751
8.02600000000001,7.864404296875,0.8166168212890625,6.097335815429688
8.036000000000001,8.177084350585938,0.7337738037109376,6.625946044921876
8.045999999999992,6.4755126953125,0.5070770263671875,8.392864990234376
8.05699999999996,4.5279541015625,0.98394775390625,8.4398193359375
8.067000000000007,5.107705688476563,0.5404235839843751,8.073306274414064
8.076999999999998,6.29307861328125,0.3623260498046875,6.970776367187501
8.086999999999989,7.610342407226563,1.164288330078125,6.696975708007813
8.09699999999998,7.203604125976563,0.3512603759765625,7.163528442382813
8.106999999999971,5.95751953125,-0.43365478515625,6.6166748046875
8.116999999999962,3.29158935546875,-1.5152496337890626,5.123406982421876
8.12700000000001,6.613235473632813,-1.365115356445313,7.73460693359375
8.137,12.228317260742188,0.660650634765625,10.2868896484375
8.146999999999991,9.159387207031251,1.006228637695313,10.038211059570314
8.156999999999982,2.66832275390625,0.1780975341796875,5.765963745117188
8.166999999999973,1.5382781982421876,-0.255108642578125,5.241390991210938
8.176999999999964,5.715570068359376,0.8245422363281251,6.656301879882813
8.187000000000012,10.708282470703123,0.36307373046875,9.509451293945313
8.197999999999979,9.745718383789065,1.6426544189453127,9.466534423828126
8.20799999999997,5.732617187500001,1.280926513671875,7.80458984375
8.217999999999961,3.124258422851563,0.4018035888671875,5.003927612304688
8.228000000000009,4.944113159179688,0.6910064697265625,5.417245483398438
8.238,8.954522705078126,0.2331268310546875,7.052273559570313
8.24799999999999,9.492254638671875,-0.1954437255859375,9.510946655273438
8.257999999999981,6.452633666992188,0.6069671630859376,8.710778808593751
8.267999999999972,3.612493896484376,-0.57362060546875,7.788290405273438
8.277999999999963,4.235012817382813,-1.0624542236328125,5.536126708984376
8.288000000000011,7.419534301757813,-0.6356781005859375,5.908770751953125
8.298000000000002,9.349148559570311,-0.5842376708984376,6.8909240722656255
8.307999999999993,8.481988525390626,0.1718170166015625,8.358172607421876
8.317999999999984,5.415301513671875,0.8169158935546875,8.054763793945312
8.327999999999982,4.37841796875,-0.1105072021484375,7.370187377929688
8.337999999999973,5.2699523925781255,0.1567138671875,6.794921875000001
8.34899999999999,6.644338989257813,1.22918701171875,6.891970825195313
8.35899999999998,7.57669677734375,0.8686553955078126,8.290731811523438
8.368999999999971,6.71536865234375,1.190606689453125,8.347406005859376
8.378999999999962,5.480050659179688,0.8486175537109376,7.514340209960938
8.38900000000001,6.49345703125,-0.1302459716796875,6.653759765625001
8.399000000000001,7.102966308593751,0.171368408203125,5.947351074218751
8.408999999999992,7.51329345703125,-0.024224853515625,6.696826171875
8.418999999999983,6.877764892578125,-0.8424865722656251,8.219104003906251
8.428999999999974,5.37432861328125,-0.28411865234375,8.631674194335938
8.438999999999965,5.3596740722656255,-0.4233367919921875,7.989865112304688
8.449000000000012,6.286050415039063,-0.4418792724609375,7.129284667968751
8.459000000000003,7.286297607421876,0.31402587890625,6.212628173828126
8.468999999999994,7.405029296875001,0.4637115478515625,6.868344116210938
8.479999999999961,6.084625244140625,0.557171630859375,7.137808227539063
8.490000000000009,2.264425659179688,1.2024200439453123,5.027105712890625
8.5,6.925466918945313,1.21064453125,8.794967651367188
8.509999999999991,13.721286010742189,1.15980224609375,11.115319824218751
8.519999999999982,7.193734741210938,0.5905181884765626,7.99599609375
8.529999999999973,2.678192138671875,-0.7191192626953126,3.935791015625
8.539999999999964,2.462860107421875,0.2739501953125,5.6621856689453125
8.550000000000011,6.71776123046875,0.6150421142578125,7.582528686523438
8.560000000000002,10.2892822265625,-0.141162109375,11.336334228515623
8.572000000000003,7.7313171386718755,-0.0179443359375,10.060342407226564
8.579999999999984,4.6344238281250005,-1.2697113037109375,6.900942993164063
8.591000000000008,4.279873657226563,-2.03070068359375,4.448550415039063
8.599999999999973,6.898999023437501,0.299969482421875,4.868746948242188
8.610000000000014,10.361508178710938,0.3195587158203125,7.268951416015626
8.619999999999997,8.776873779296876,0.3913360595703125,9.2341552734375
8.630999999999972,5.41141357421875,1.094903564453125,8.895455932617189
8.640999999999963,2.651275634765625,-0.0705810546875,7.546640014648438
8.65100000000001,4.254901123046875,0.6392669677734375,5.894564819335938
8.661000000000001,7.814010620117188,2.185321044921875,6.621310424804688
8.670999999999992,9.225332641601565,1.02103271484375,7.171902465820313
8.680999999999983,8.230319213867189,0.627752685546875,7.941265869140626
8.690999999999974,5.463003540039063,0.240753173828125,7.327719116210938
8.700999999999965,4.522720336914063,-0.9087310791015626,6.82542724609375
8.711000000000013,6.0639892578125005,-0.1688262939453125,6.989318847656251
8.721000000000004,6.569122314453126,0.12381591796875,7.518676757812501
8.730999999999995,7.406524658203126,-0.9654052734375,8.840576171875
8.740999999999985,5.8031982421875,-0.2968292236328125,8.345611572265625
8.750999999999983,5.246774291992188,-0.2032196044921875,7.315008544921875
8.762,7.120162963867188,-0.2720062255859375,6.253601074218751
8.771999999999991,7.692886352539063,1.0143035888671876,5.945257568359375
8.781999999999982,7.970425415039063,1.0723236083984375,6.774884033203126
8.791999999999973,6.429006958007813,0.6718658447265625,8.413800048828126
8.801999999999964,4.566683959960938,1.1684753417968752,8.101119995117188
8.812000000000012,5.461209106445313,0.39716796875,8.256039428710938
8.822000000000003,6.347061157226563,0.103179931640625,6.952832031250001
8.831999999999994,7.335195922851563,0.7898498535156251,6.772790527343751
8.841999999999977,7.280615234375,0.04486083984375,7.3126159667968755
8.851999999999983,6.136962890625001,-0.49107666015625,7.071862792968751
8.861999999999973,4.691397094726563,-1.0609588623046875,5.815908813476563
8.872000000000014,4.020877075195313,-1.93798828125,5.366552734375
8.881999999999998,11.01587829589844,0.3760833740234375,10.287936401367189
8.891999999999996,11.03397216796875,1.59884033203125,10.5572509765625
8.901999999999987,5.161389160156251,0.34154052734375,7.494152832031251
8.911999999999978,1.3788726806640623,0.136077880859375,4.8367462158203125
8.921999999999969,3.306393432617188,0.3289794921875,4.987478637695313
8.932999999999993,9.47146911621094,0.608612060546875,8.83878173828125
8.942999999999984,10.559942626953124,1.3823120117187502,10.517324829101565
8.952999999999982,6.6157775878906255,1.5420166015625,8.79212646484375
8.962999999999973,3.9323516845703126,0.0677398681640625,6.585421752929688
8.973000000000013,3.417349243164063,0.241650390625,4.422531127929688
8.983000000000004,8.373126220703126,0.31282958984375,5.562295532226563
8.992999999999995,10.2294677734375,-0.358587646484375,8.522811889648438
9.002999999999986,7.981192016601563,0.6006866455078126,9.3513916015625
9.012999999999984,4.340884399414063,-0.0438140869140625,8.482736206054689
9.022999999999968,2.7182678222656254,-0.9637603759765626,6.533981323242188
9.033000000000024,6.1806274414062505,-0.5088714599609375,5.715121459960938
9.043000000000006,8.736798095703126,-0.3437835693359375,6.346762084960938
9.052999999999995,9.130825805664063,-0.1434051513671875,7.739093017578125
9.063999999999965,7.0927978515625005,1.0137054443359377,8.692834472656251
9.074000000000012,4.295574951171876,0.2316314697265625,7.144836425781251
9.084000000000003,5.088714599609375,-0.0788055419921875,6.9193359375000005
9.093999999999994,6.264517211914063,0.813177490234375,6.705349731445313
9.103999999999978,7.041506958007813,0.8930297851562501,7.525704956054688
9.113999999999985,7.314111328125,0.7400543212890626,8.964541625976564
9.123999999999974,5.292083740234375,1.082940673828125,8.112933349609376
9.134000000000016,5.960360717773438,-0.1818359375,6.995001220703125
9.144000000000004,7.19986572265625,-0.128900146484375,6.032437133789063
9.153999999999996,7.370037841796876,0.268267822265625,5.987277221679688
9.163999999999987,7.722943115234376,-0.407635498046875,7.432095336914063
9.173999999999978,5.714523315429688,-0.4287200927734375,8.638552856445314
9.183999999999967,5.194436645507813,0.1221710205078125,8.394210815429688
9.194999999999991,5.861666870117188,-0.563153076171875,7.723690795898438
9.204999999999984,6.591552734375001,0.1638916015625,6.388931274414063
9.214999999999982,7.633670043945313,0.5875274658203126,6.830511474609375
9.224999999999971,6.6406005859375,0.3381011962890625,6.997842407226563
9.235000000000014,4.9862823486328125,1.0608093261718752,6.649722290039063
9.244999999999996,2.153619384765625,1.054229736328125,4.254153442382813
9.254999999999995,10.913296508789063,0.9965087890625,10.877557373046876
9.264999999999986,13.419372558593752,1.0026397705078125,11.148367309570313
9.274999999999984,4.211984252929688,-0.1383209228515625,6.510354614257813
9.284999999999968,1.3393951416015626,-1.2777862548828125,4.256246948242188
9.29499999999996,3.0625,0.4406829833984375,5.679083251953125
9.305000000000009,8.896054077148438,0.1649383544921875,8.589056396484375
9.314999999999998,11.247509765625,0.2250518798828125,11.228967285156251
9.324999999999989,6.433044433593751,0.3895416259765625,9.431243896484377
9.33499999999998,3.512155151367188,-1.681982421875,6.24881591796875
9.346000000000004,4.207498168945313,-1.34881591796875,4.574310302734375
9.355999999999996,7.863656616210938,1.000247192382813,4.863812255859376
9.365999999999984,11.464785766601564,0.1840789794921875,8.29267578125
9.375999999999983,7.9589111328125,0.8381500244140626,9.193331909179689
9.385999999999974,4.090411376953125,0.6772491455078126,8.6575439453125
9.396000000000017,2.14913330078125,-0.7831207275390626,7.290484619140625
9.406000000000006,5.177987670898438,1.027313232421875,5.5216217041015625
9.415999999999997,8.864053344726564,1.8023590087890624,6.707742309570313
9.425999999999988,9.75394287109375,0.451300048828125,7.516732788085938
9.43599999999998,7.350299072265625,0.7022216796875,7.9810424804687505
9.44599999999997,4.579095458984376,-0.10706787109375,7.172500610351563
9.45599999999996,4.375128173828125,-0.802410888671875,6.621160888671875
9.466000000000008,6.656750488281251,0.6237152099609375,7.117321777343751
9.476999999999984,7.258035278320313,0.0838897705078125,7.7052978515625
9.486999999999972,7.248764038085938,-0.6889129638671876,9.099423217773438
9.497000000000014,5.01005859375,0.098992919921875,8.01453857421875
9.506999999999998,5.248568725585938,-0.3976165771484375,7.138107299804688
9.516999999999996,7.530639648437501,-0.14176025390625,5.9492950439453125
9.526999999999989,8.103811645507813,1.1731109619140625,5.946453857421876
9.536999999999978,8.097381591796875,0.5953033447265625,7.21182861328125
9.546999999999969,5.730673217773438,0.6913055419921875,8.612982177734375
9.55699999999996,4.04046630859375,0.8504119873046876,8.117868041992189
9.567000000000007,5.845816040039063,-0.10228271484375,8.04444580078125
9.576999999999998,6.738995361328126,0.1416107177734375,6.701910400390625
9.586999999999987,7.620510864257813,0.8837585449218751,6.799407958984376
9.59699999999998,7.067227172851563,-0.148040771484375,7.329663085937501
9.606999999999973,5.759234619140625,-0.0562255859375,7.242483520507813
9.616999999999962,4.403689575195313,-1.1370727539062502,5.457919311523438
9.62700000000001,4.633526611328126,-1.5331939697265626,5.756094360351563
9.637999999999984,11.346502685546875,1.0175933837890625,9.978396606445314
9.647999999999968,10.227374267578126,1.7094970703125,10.705291748046877
9.658000000000024,4.622012329101563,0.4311126708984375,7.131976318359375
9.668000000000006,1.7760406494140626,0.4370941162109375,5.611044311523438
9.677999999999995,4.113589477539063,-0.0581695556640625,5.387338256835938
9.687999999999988,9.68680114746094,0.039178466796875,8.614776611328125
9.69799999999998,10.014584350585938,1.0149017333984376,9.9136474609375
9.70799999999997,6.682470703125,1.0249206542968752,8.339480590820314
9.71799999999996,4.071420288085938,-0.0478515625,6.513793945312501
9.728000000000009,3.747674560546875,0.344232177734375,4.781118774414063
9.738,8.345013427734376,0.06878662109375,6.2150207519531255
9.74799999999999,9.472067260742188,-0.0608612060546875,8.543896484375
9.75799999999998,7.434936523437501,0.9351989746093752,9.18555603027344
9.769999999999982,4.636517333984376,-0.0251220703125,8.230618286132813
9.778999999999996,3.466995239257813,-0.6282012939453125,6.185861206054688
9.788999999999987,6.657199096679688,-0.323297119140625,5.672802734375001
9.798999999999978,8.71317138671875,-0.3309234619140625,6.368295288085938
9.808999999999967,8.5235595703125,0.237762451171875,8.0522216796875
9.81899999999996,6.603216552734375,0.8388977050781251,8.604757690429688
9.829000000000008,4.216320800781251,-0.115740966796875,7.5159851074218755
9.839,5.3178039550781255,-0.12261962890625,6.824230957031251
9.84899999999999,6.304891967773438,0.5839385986328125,6.931597900390625
9.85899999999998,7.247418212890626,0.5316009521484375,7.29197998046875
9.869999999999996,7.3215881347656255,0.8390472412109375,8.649468994140626
9.878999999999962,5.647232055664063,0.8474212646484376,7.853039550781251
9.88900000000001,6.127243041992188,0.0471038818359375,6.922476196289063
9.899999999999984,7.042105102539063,0.1951446533203125,6.259432983398438
9.909999999999968,7.117620849609375,0.247332763671875,6.291882324218751
9.91999999999996,7.22020263671875,-0.3025115966796875,7.754794311523438
9.930000000000009,5.583978271484376,-0.057122802734375,8.445950317382813
9.939999999999998,5.4618072509765625,0.021533203125,8.503671264648439
9.949999999999989,6.226684570312501,-0.3959716796875,7.154705810546876
9.95999999999998,6.768154907226563,0.101983642578125,6.449792480468751
9.96999999999997,7.700811767578125,0.2452392578125,6.719705200195313
9.97999999999996,6.321789550781251,0.41690673828125,7.236053466796876
9.990000000000007,4.141104125976563,1.01983642578125,6.4796997070312505
10.0,3.177194213867188,0.934002685546875,5.36595458984375
10.009999999999993,11.915936279296876,1.0741180419921876,10.765704345703126
10.019999999999982,11.577835083007812,0.8104858398437501,9.757681274414065
10.029999999999973,4.116281127929688,-0.4152618408203125,5.717962646484375
10.039999999999964,1.7413482666015627,-0.6978851318359376,5.36236572265625
10.050999999999988,3.405386352539063,0.017047119140625,7.072460937500001
10.06099999999998,9.201556396484376,0.1311431884765625,9.201257324218751
10.07099999999997,10.26101989746094,0.3576904296875,10.292721557617188
10.08099999999996,6.981094360351563,0.308343505859375,7.659689331054688
10.091000000000008,4.30723876953125,-1.7320770263671876,5.631082153320313
10.101,4.519430541992188,-0.4101776123046875,4.975216674804688
10.11099999999999,8.059698486328125,0.5019927978515626,6.565982055664063
10.12099999999998,9.868338012695313,0.2657257080078125,8.640795898437501
10.130999999999972,7.445404052734376,0.7532135009765626,8.748461914062501
10.140999999999964,4.106411743164063,0.1290496826171875,8.107400512695314
10.15100000000001,3.032891845703125,-0.5670410156250001,6.592300415039063
10.161,5.9993896484375,1.5444091796875,6.187356567382813
10.171999999999969,8.809921264648438,1.2907958984375,6.590505981445313
10.180999999999983,9.547882080078123,0.6886138916015625,7.838385009765625
10.192000000000007,7.003674316406251,0.6433044433593751,7.4187866210937505
10.201999999999998,4.1307861328125,-0.2349212646484375,7.411010742187501
10.211999999999987,4.661041259765625,-0.475823974609375,6.989468383789063
10.22199999999998,5.85404052734375,0.7781860351562501,7.592697143554688
10.231999999999973,7.681072998046876,-0.389990234375,8.023211669921876
10.241999999999962,7.384542846679688,-0.340045166015625,8.6575439453125
10.25200000000001,5.352944946289063,0.030206298828125,7.187603759765626
10.262,6.085821533203125,-0.370550537109375,6.756640625
10.271999999999991,7.203155517578126,0.011065673828125,6.114382934570313
10.281999999999982,7.834048461914063,0.9855926513671877,6.318948364257813
10.291999999999971,7.624398803710938,0.203668212890625,8.118167114257814
10.301999999999964,5.243035888671876,0.8209533691406251,8.281759643554688
10.312000000000012,4.545300292968751,0.6830810546875,8.183065795898438
10.322000000000005,5.834301757812501,-0.07596435546875,7.521069335937501
10.33299999999997,6.987823486328126,0.5193389892578125,6.606655883789063
10.34299999999996,7.926162719726563,0.8254394531250001,6.8439697265625
10.353000000000009,6.802398681640626,-0.3171661376953125,7.030441284179688
10.363,3.530548095703125,-0.7617370605468751,5.6382598876953125
10.37299999999999,4.766613769531251,-0.8563934326171876,6.505419921875
10.38299999999998,11.675631713867189,0.353204345703125,10.54229736328125
10.392999999999972,9.8466552734375,1.20107421875,9.1875
10.402999999999963,4.754351806640625,0.6652862548828126,6.448446655273438
10.413000000000013,1.487884521484375,-0.2869598388671875,5.299111938476563
10.423000000000002,4.504925537109376,0.2364166259765625,7.090704345703125
10.432999999999993,9.398046875,-0.1386199951171875,9.290380859375
10.442999999999984,9.668408203125,0.7630828857421875,9.995892333984376
10.452999999999982,7.000234985351563,1.0561737060546876,7.227679443359375
10.462999999999973,3.870443725585938,0.203070068359375,5.444610595703125
10.47399999999999,4.801754760742188,0.1303955078125,5.031741333007813
10.48399999999998,8.353237915039063,0.6869689941406251,7.326522827148438
10.493999999999971,8.948840332031251,0.0333465576171875,8.721994018554689
10.503999999999962,7.347158813476563,1.0172943115234376,9.053067016601563
10.51400000000001,3.7938812255859378,0.1532745361328125,7.615576171875
10.524,3.831414794921875,-0.369354248046875,5.970828247070313
10.533999999999992,6.957766723632813,-0.605322265625,6.39476318359375
10.543999999999984,8.638253784179689,-0.1478912353515625,6.487026977539063
10.553999999999974,9.039459228515623,-0.404644775390625,8.257235717773439
10.563999999999965,6.3750244140625005,0.3973175048828125,7.825076293945313
10.574000000000012,4.375726318359376,-0.2968292236328125,7.22020263671875
10.584000000000003,5.089312744140625,-0.1640411376953125,6.866101074218751
10.593999999999994,6.068624877929688,0.5701812744140625,7.283157348632813
10.60499999999996,7.598977661132813,0.9347503662109377,8.131027221679688
10.613999999999985,6.9911132812500005,0.7938873291015626,8.625991821289062
10.625,5.486181640625,1.24952392578125,7.401440429687501
10.634999999999993,6.5209716796875,0.2367156982421875,6.67947998046875
10.644999999999982,6.779370117187501,0.3695037841796875,5.7948242187500005
10.654999999999973,7.734457397460938,0.322998046875,6.751107788085938
10.664999999999964,7.070965576171876,-0.189312744140625,8.049530029296875
10.675000000000011,5.404385375976563,-0.3407928466796875,8.461203002929688
10.68599999999998,5.3342529296875005,-0.1152923583984375,8.278619384765626
10.694999999999991,5.888583374023438,-0.648687744140625,7.23814697265625
10.704999999999984,7.056460571289063,-0.0384307861328125,6.282012939453126
10.714999999999982,7.699465942382813,0.1093109130859375,7.202557373046876
10.724999999999971,6.599478149414063,0.2441925048828125,7.104013061523438
10.735000000000014,6.279919433593751,0.7209136962890625,7.795318603515626
10.744999999999996,3.7019165039062494,0.5359375000000001,5.447451782226563
10.754999999999995,3.50093994140625,0.3551483154296875,5.036227416992188
10.765999999999964,13.27103271484375,1.4733795166015626,11.350091552734376
10.77600000000001,10.551419067382811,0.6352294921875,10.815051269531253
10.786999999999978,3.7520111083984378,-0.8025604248046876,5.655157470703125
10.795999999999992,1.182830810546875,-0.3016143798828125,4.9040374755859375
10.805999999999983,4.1847686767578125,0.6702209472656251,5.4479003906250005
10.815999999999974,10.439566040039065,1.191653442382813,9.367990112304687
10.825999999999963,9.775027465820314,0.8347106933593751,10.7845458984375
10.836000000000013,5.973968505859375,-0.1338348388671875,8.9865234375
10.846000000000004,3.224298095703125,-2.3239410400390628,5.978155517578125
10.855999999999996,4.331015014648438,-0.3937286376953125,4.329519653320313
10.865999999999984,9.663174438476563,0.55447998046875,5.840283203125001
10.875999999999983,10.505960083007814,0.206060791015625,8.265460205078126
10.885999999999974,7.368841552734375,0.7810272216796875,9.272885131835938
10.896000000000017,3.678588867187501,-0.264678955078125,8.519522094726563
10.906999999999982,1.987185668945313,-0.6554168701171875,6.605160522460938
10.916999999999971,6.764865112304688,1.6154388427734376,5.870040893554688
10.926999999999964,8.981439208984376,1.104473876953125,6.651367187500001
10.937000000000012,9.355877685546876,0.8735900878906251,7.774832153320313
10.947000000000005,6.701312255859375,0.8755340576171876,7.952182006835938
10.956999999999994,3.810629272460938,-0.26737060546875,7.092349243164063
10.966999999999976,5.666970825195313,-0.3572418212890625,6.6764892578125
10.976999999999984,6.362612915039063,0.7261474609375,7.214071655273438
10.986999999999972,7.57071533203125,-0.4317108154296875,7.701110839843751
10.997000000000014,6.829464721679688,-0.252117919921875,9.347802734375
11.006999999999998,4.412362670898438,-0.3049041748046875,7.586715698242188
11.016999999999996,6.31461181640625,-0.7059600830078125,7.155902099609375
11.026999999999989,7.6715026855468755,-0.015252685546875,5.76072998046875
11.036999999999978,7.993603515625001,1.1201751708984375,5.935687255859375
11.046999999999969,7.919583129882813,0.4338043212890625,7.897750854492188
11.057999999999993,4.7570434570312505,0.99830322265625,8.24661865234375
11.067999999999984,4.758389282226563,0.5105163574218751,8.382846069335939
11.077999999999982,6.0225677490234375,0.0466552734375,7.6119873046875
11.087999999999973,6.770397949218751,0.6524261474609375,6.7219482421875005
11.098000000000011,7.928405761718751,0.8691040039062501,6.873577880859376
11.108000000000004,6.306237792968751,-0.105572509765625,7.425964355468751
11.117999999999997,5.914004516601563,-0.03648681640625,6.960458374023438
11.127999999999986,3.4526397705078127,-1.358087158203125,5.247970581054688
11.137999999999984,6.298013305664063,-0.6133972167968751,7.302297973632813
11.147999999999968,13.144674682617188,1.3833587646484375,10.619158935546876
11.158000000000024,7.76451416015625,0.721661376953125,9.125143432617188
11.168000000000006,3.553875732421876,-0.2226593017578125,5.613436889648438
11.177999999999995,1.7924896240234376,-0.1786956787109375,5.59564208984375
11.188999999999965,5.936434936523438,-0.291595458984375,6.229824829101563
11.199000000000012,10.732058715820314,0.2935394287109375,10.114175415039064
11.209000000000003,8.431295776367188,1.5185394287109375,9.6169677734375
11.218999999999994,5.379562377929688,0.911572265625,7.887881469726563
11.228999999999978,3.786553955078125,0.166583251953125,5.582183837890625
11.238999999999985,4.9982452392578125,0.5591156005859376,4.75345458984375
11.248999999999974,10.178775024414064,0.22490234375,7.11612548828125
11.259000000000016,9.030636596679688,0.256005859375,8.763415527343751
11.269000000000004,6.532186889648438,1.0672393798828126,9.019570922851564
11.278999999999996,3.613092041015625,-0.5633026123046876,7.562640380859375
11.288999999999987,3.3720397949218754,-0.5879760742187501,5.953033447265625
11.298999999999978,7.936929321289063,-0.378326416015625,6.343621826171876
11.308999999999967,8.882595825195313,-0.383709716796875,7.012796020507813
11.31899999999996,8.53492431640625,0.1224700927734375,7.9684814453125
11.329000000000008,6.035128784179688,0.4553375244140625,8.012594604492188
11.339,4.013998413085938,-0.5073760986328125,6.670059204101563
11.349999999999971,6.099578857421875,0.3413909912109375,7.0736572265625
11.360000000000014,6.315658569335938,0.729736328125,7.245922851562501
11.369999999999996,7.199118041992188,0.784765625,8.076745605468751
11.379999999999995,6.666769409179688,1.0089202880859376,8.938073730468751
11.389999999999986,5.03697509765625,0.8332153320312501,7.351495361328125
11.399999999999984,6.730023193359376,0.0814971923828125,6.604562377929688
11.409999999999968,7.339532470703125,0.552984619140625,5.894265747070313
11.41999999999996,7.610791015625001,0.0500946044921875,6.579290771484375
11.430000000000009,7.161734008789063,-0.3303253173828125,8.161831665039063
11.439999999999998,4.935739135742188,-0.2097991943359375,8.408715820312501
11.449999999999989,5.598483276367188,-0.331671142578125,8.286395263671876
11.45999999999998,6.1197662353515625,-0.5914154052734375,6.905429077148438
11.46999999999997,6.929653930664063,0.1212738037109375,6.601571655273438
11.480999999999996,7.784851074218751,0.1244140625,7.089956665039063
11.490999999999984,5.861517333984375,0.6222198486328125,7.161135864257813
11.500999999999983,4.351800537109376,0.9514984130859376,5.614633178710938
11.510999999999974,3.839041137695313,0.8758331298828126,5.668316650390626
11.521000000000017,12.643878173828126,1.2978240966796877,11.282650756835938
11.531000000000006,10.87666015625,0.8393463134765625,10.9424560546875
11.540999999999997,2.776287841796876,-0.6802398681640626,5.172604370117188
11.550999999999988,1.4832489013671877,-0.3505126953125,4.803549194335938
11.56099999999998,4.601675415039063,0.66513671875,5.458218383789063
11.57099999999997,10.137802124023438,0.59515380859375,9.330007934570313
11.58099999999996,10.419229125976564,0.5770599365234376,11.07703857421875
11.591000000000008,5.213278198242188,-0.194696044921875,8.891867065429688
11.601,3.420639038085938,-2.5907135009765625,5.862863159179688
11.61099999999999,4.773193359375,-0.7763916015625001,4.6333770751953125
11.62099999999998,9.071609497070312,0.4526458740234375,5.35458984375
11.630999999999972,11.103057861328123,0.227294921875,8.745770263671876
11.641999999999996,7.008160400390626,0.8551971435546876,9.054562377929688
11.651999999999989,3.475668334960938,0.1638916015625,8.563485717773439
11.661999999999978,2.76043701171875,-0.57840576171875,6.830960083007813
11.671999999999969,5.840731811523438,1.9454650878906248,5.649624633789063
11.68199999999996,9.412701416015626,1.51629638671875,6.8044921875
11.692000000000007,9.238491821289063,0.8145233154296876,7.99779052734375
11.701999999999998,6.605758666992188,0.8450286865234375,7.733111572265625
11.711999999999987,4.353594970703125,-0.30684814453125,6.99290771484375
11.72199999999998,5.139706420898438,-0.6156402587890626,6.445904541015626
11.731999999999973,6.917990112304688,0.7379608154296875,7.069470214843751
11.741999999999962,7.454974365234375,-0.7095489501953125,8.073455810546875
11.75200000000001,6.528149414062501,-0.4658050537109375,9.115573120117189
11.762999999999984,4.707247924804688,-0.1161895751953125,8.091549682617188
11.772999999999968,5.647979736328125,-0.6787445068359376,6.825576782226563
11.783000000000024,7.882199096679688,0.0542816162109375,6.037969970703125
11.793000000000006,8.178131103515625,1.1889617919921875,5.8546386718750005
11.802999999999995,7.800552368164063,0.4454681396484375,7.646679687500001
11.812999999999988,5.263073730468751,1.140811157226563,8.316452026367188
11.82299999999998,4.447503662109376,0.8006164550781251,8.292227172851563
11.83299999999997,6.1107940673828125,-0.0946563720703125,7.606155395507813
11.84299999999996,6.8669982910156255,0.6437530517578125,6.88883056640625
11.853000000000009,7.364505004882813,0.8773284912109376,6.855633544921876
11.863,6.689349365234375,-0.2971282958984375,7.519723510742188
11.87299999999999,5.163632202148438,-0.485992431640625,6.540560913085938
11.88299999999998,3.4663970947265628,-2.146591186523437,4.599880981445313
11.892999999999972,8.711376953125,-0.8689544677734375,9.062487792968753
11.903999999999996,12.717300415039064,1.5457550048828126,10.499978637695314
11.913999999999987,6.627890014648438,0.5902191162109376,8.402734375000001
11.923999999999978,2.014401245117188,0.1399658203125,5.18052978515625
11.933999999999967,2.1139923095703126,0.7319793701171875,5.229129028320313
11.94399999999996,7.509854125976563,0.944769287109375,7.7193542480468755
11.954000000000008,11.005560302734375,0.8895904541015626,10.343264770507814
11.964,7.642791748046876,1.5968963623046877,9.6145751953125
11.97399999999999,4.6451904296875,0.11424560546875,6.703704833984376
11.985000000000014,3.4542846679687504,0.1825836181640625,5.027554321289063
11.993999999999971,6.816903686523438,0.4906280517578125,4.972824096679688
12.003999999999962,10.368984985351563,-0.35828857421875,7.9915100097656255
12.01400000000001,8.580981445312501,-0.0485992431640625,9.177032470703123
12.024,5.097537231445313,0.602630615234375,8.967532348632814
12.033999999999992,2.8214477539062504,-0.8785247802734376,7.036871337890625
12.043999999999984,4.80728759765625,-0.270062255859375,5.712429809570313
12.055000000000009,8.669357299804688,-0.3677093505859375,6.354986572265625
12.064999999999998,9.197967529296877,-0.20037841796875,7.223043823242188
12.074999999999989,7.85423583984375,0.7310821533203126,8.463296508789064
12.08499999999998,4.93768310546875,0.71119384765625,7.386785888671875
12.09499999999997,4.528402709960938,-0.390887451171875,6.872232055664063
12.10499999999996,6.166571044921875,0.5477508544921875,6.769500732421876
12.115000000000007,6.664227294921876,0.6625946044921875,7.738644409179688
12.125,7.21422119140625,0.6476409912109375,8.482287597656251
12.134999999999993,5.8501525878906255,0.8673095703125001,8.5235595703125
12.144999999999982,5.63212890625,0.163592529296875,7.088760375976563
12.154999999999973,7.142294311523438,-0.1933502197265625,6.239694213867188
12.164999999999964,7.377963256835938,0.5133575439453125,5.7608795166015625
12.175000000000011,7.811019897460938,-0.232379150390625,7.204650878906251
12.18599999999998,6.139355468750001,-0.3234466552734375,8.338134765625
12.19599999999997,5.072415161132813,0.0399261474609375,8.502325439453125
12.20599999999996,5.7122802734375,-0.2516693115234375,8.173944091796876
12.216000000000008,6.25419921875,0.0563751220703125,6.47611083984375
12.226,7.316952514648438,0.5523864746093751,6.647927856445313
12.23599999999999,7.401290893554688,0.102581787109375,7.207940673828125
12.24599999999998,5.875872802734375,0.709698486328125,7.227230834960938
12.255999999999972,3.816909790039063,0.5386291503906251,5.403637695312501
12.265999999999964,4.8502044677734375,0.251519775390625,6.195880126953125
12.27600000000001,13.056597900390626,1.0914642333984377,10.856771850585938
12.286,9.781307983398438,0.3337646484375,10.236944580078124
12.295999999999992,3.0130035400390627,-0.9829010009765624,5.4004974365234375
12.305999999999983,1.406985473632813,0.0907684326171875,5.4289093017578125
12.315999999999974,4.644442749023438,0.8107849121093751,6.113485717773438
12.325999999999963,10.569812011718753,0.9199462890625,9.941311645507811
12.336000000000013,9.692483520507814,0.9449188232421876,10.253991699218751
12.34699999999998,5.561398315429688,-0.219219970703125,7.852890014648438
12.356999999999973,3.7639739990234378,-1.7189178466796875,5.565286254882813
12.366999999999962,4.823287963867188,0.0825439453125,4.805941772460938
12.37700000000001,9.69876403808594,0.2223602294921875,6.498242187500001
12.387,9.923815917968753,0.1891632080078125,9.10794677734375
12.396999999999991,6.526654052734376,0.5851348876953125,8.724386596679688
12.406999999999982,3.3775726318359376,-0.551190185546875,8.265609741210938
12.416999999999971,3.08104248046875,-0.5307037353515626,6.09329833984375
12.426999999999964,7.024310302734375,1.469940185546875,6.284555053710938
12.437000000000012,9.63431396484375,0.9304138183593752,6.616375732421876
12.447000000000005,8.79093017578125,0.99710693359375,8.025903320312501
12.456999999999994,6.210983276367188,0.8246917724609376,7.427609252929688
12.466999999999976,3.785507202148438,-0.3055023193359375,7.112985229492188
12.478000000000009,5.578744506835938,-0.030804443359375,6.713125610351563
12.488,6.67349853515625,0.8569915771484375,7.568920898437501
12.49799999999999,7.577893066406251,-0.42886962890625,8.319442749023438
12.50799999999998,6.468334960937501,-0.140863037109375,8.77298583984375
12.517999999999972,4.758389282226563,-0.4251312255859375,7.43314208984375
12.527999999999963,6.48448486328125,-0.681585693359375,6.408221435546875
12.538000000000013,7.8763671875,0.2023223876953125,6.143093872070313
12.548000000000002,8.061941528320313,0.8342620849609376,6.155953979492188
12.557999999999993,7.328018188476563,0.2537628173828125,8.330059814453126
12.567999999999984,4.66373291015625,0.7796813964843751,8.150616455078126
12.577999999999982,4.707247924804688,0.3958221435546875,8.425912475585939
12.587999999999973,6.195730590820313,0.1051239013671875,7.137060546875
12.598000000000011,7.174594116210938,0.843084716796875,6.852493286132813
12.60899999999998,7.773635864257813,0.7745971679687501,6.8954101562500005
12.62099999999998,6.387136840820313,0.102581787109375,7.416244506835938
12.628999999999962,5.480050659179688,-0.0267669677734375,6.760379028320313
12.63900000000001,3.092108154296876,-1.358685302734375,4.452139282226563
12.649,7.706344604492188,-0.2660247802734375,8.473315429687501
12.658999999999992,12.990802001953126,1.4730804443359375,10.331600952148438
12.668999999999984,7.128836059570313,0.5565734863281251,9.38772888183594
12.678999999999974,2.871542358398438,-0.1490875244140625,5.4348907470703125
12.688999999999965,1.6683746337890626,-0.314923095703125,5.515640258789063
12.699000000000012,6.912307739257813,-0.26856689453125,6.938476562500001
12.709000000000003,10.89759521484375,0.2836700439453125,9.781756591796876
12.718999999999994,8.376565551757814,1.22200927734375,9.870730590820314
12.728999999999978,5.221353149414063,0.6256591796875001,7.060198974609375
12.738999999999985,3.165081787109376,0.246136474609375,5.361318969726563
12.748999999999974,5.861517333984375,0.62625732421875,4.830465698242188
12.759000000000016,9.930245971679687,0.3695037841796875,8.026202392578126
12.769999999999982,8.702255249023438,0.4804595947265625,8.808126831054688
12.779999999999973,6.112588500976563,0.88944091796875,9.183013916015623
12.789999999999964,3.219961547851563,-0.4909271240234375,6.971224975585938
12.800000000000011,4.314266967773438,-0.4364959716796875,5.580538940429688
12.810000000000002,8.362210083007813,-0.4978057861328125,6.282012939453126
12.819999999999991,9.067123413085938,-0.25780029296875,7.091452026367188
12.829999999999984,8.0641845703125,0.1233673095703125,8.516531372070313
12.839999999999982,5.2445312500000005,0.224603271484375,7.784252929687501
12.849999999999971,4.100729370117188,-0.5223297119140625,7.0165344238281255
12.860000000000014,6.219656372070313,0.3174652099609375,6.732116699218751
12.869999999999996,6.522766113281251,0.6446502685546875,7.369888305664063
12.879999999999995,7.553369140625,0.96002197265625,8.172747802734376
12.889999999999986,6.258087158203126,1.0146026611328125,8.632870483398438
12.901999999999989,5.400646972656251,0.8046539306640625,7.206295776367188
12.911,6.823483276367188,0.2624359130859375,6.557009887695313
12.920999999999992,7.142294311523438,0.5462554931640625,5.876321411132813
12.930999999999983,7.763168334960938,-0.04127197265625,7.051525878906251
12.940999999999974,6.435287475585938,-0.2370147705078125,8.229272460937501
12.950999999999963,5.020376586914063,-0.2743988037109375,8.414398193359375
12.961000000000013,5.870040893554688,-0.381317138671875,8.1957763671875
12.971000000000004,6.283358764648438,-0.5274139404296876,6.553570556640626
12.980999999999996,7.368841552734375,0.0483001708984375,6.5754028320312505
12.990999999999984,7.497592163085938,0.0904693603515625,7.219903564453125
13.00200000000001,5.867498779296875,0.6781463623046875,7.3918701171875005
13.010999999999974,5.347860717773438,0.9476104736328126,6.803445434570313
13.021000000000017,2.331716918945313,1.0232757568359376,4.2599853515625
13.031000000000006,10.139447021484376,1.45767822265625,9.846057128906253
13.041999999999971,13.102804565429688,1.1943450927734376,11.15240478515625
13.051999999999964,4.746426391601563,0.273052978515625,7.637557983398438
13.062000000000012,2.147039794921876,-1.1554656982421876,4.458419799804688
13.072000000000005,2.732772827148437,-0.3007171630859375,5.277728271484375
13.081999999999994,8.7652099609375,-0.1978363037109375,7.599575805664063
13.091999999999976,10.84241638183594,0.443524169921875,11.088253784179688
13.101999999999984,6.4372314453125,0.420794677734375,9.785195922851564
13.111999999999972,4.2426391601562505,-1.5563720703125,7.255343627929688
13.122000000000014,3.9311553955078127,-1.8593322753906247,4.638311767578125
13.131999999999998,7.586715698242188,0.5206848144531251,4.5776000976562505
13.141999999999996,11.077935791015626,0.3730926513671875,7.727279663085938
13.151999999999989,8.107998657226563,1.0247711181640626,8.902932739257814
13.161999999999978,4.93828125,0.7587463378906251,9.166265869140624
13.171999999999969,2.3484649658203125,-0.52576904296875,7.59404296875
13.18199999999996,4.7420898437500005,0.9112731933593752,5.6093994140625005
13.192000000000007,8.354135131835939,1.927072143554688,6.542056274414063
13.202999999999982,9.361111450195311,0.6119018554687501,7.328466796875
13.212999999999973,7.889825439453125,0.7289886474609375,8.190542602539063
13.223000000000011,4.92572021484375,-0.0925628662109375,7.088012695312501
13.233000000000004,4.463653564453125,-0.7765411376953125,6.621160888671875
13.242999999999997,6.819595336914063,0.399560546875,6.891671752929688
13.252999999999986,6.792678833007813,0.0442626953125,7.596435546875001
13.262999999999984,7.35,-0.6193786621093751,8.962448120117188
13.272999999999968,4.993908691406251,0.138470458984375,8.500979614257814
13.283000000000024,5.063143920898438,-0.27454833984375,7.157546997070313
13.293000000000006,7.587463378906251,-0.2651275634765625,6.323733520507813
13.302999999999995,7.887582397460938,0.9531433105468752,5.6801300048828125
13.312999999999988,8.312863159179688,0.6892120361328126,6.897952270507813
13.324000000000012,5.986380004882813,0.7722045898437501,8.364453125
13.334000000000003,4.280322265625,0.984844970703125,8.189495849609376
13.343999999999994,5.852694702148438,-0.1081146240234375,8.127288818359375
13.353999999999978,6.447549438476563,0.0634033203125,6.967486572265625
13.363999999999985,7.443011474609375,0.8517578125,6.746621704101563
13.373999999999974,6.927410888671876,-0.0275146484375,7.398748779296875
13.384000000000016,5.960360717773438,-0.110357666015625,7.080087280273438
13.394000000000004,4.65057373046875,-0.8910858154296876,5.927313232421875
13.403999999999996,4.3667541503906255,-1.4395843505859376,5.219708251953126
13.413999999999987,11.622546386718753,1.0128082275390626,10.722039794921876
13.423999999999978,10.300347900390626,1.5339416503906251,10.010397338867188
13.433999999999967,4.227386474609375,0.132489013671875,6.892419433593751
13.44399999999996,2.194442749023437,0.26617431640625,5.270700073242188
13.454000000000008,3.943865966796875,-0.058319091796875,5.610745239257813
13.464,9.795513916015626,0.172564697265625,8.726480102539064
13.474999999999971,9.864749145507814,0.9842468261718752,10.469323730468751
13.485000000000014,5.940771484375,0.9633117675781252,8.250955200195314
13.494999999999996,4.152618408203125,-0.1912567138671875,6.497344970703126
13.504999999999995,4.0302978515625005,0.3389984130859375,4.564889526367188
13.514999999999986,8.924914550781251,0.1742095947265625,6.084326171875
13.524999999999984,9.813308715820312,0.0180938720703125,8.575448608398439
13.534999999999968,7.086367797851563,0.919049072265625,9.070114135742188
13.54499999999996,4.338940429687501,0.063702392578125,8.535223388671875
13.555000000000009,3.066238403320313,-0.586181640625,6.159243774414063
13.564999999999998,6.721649169921876,-0.1818359375,5.781216430664063
13.574999999999989,9.157443237304689,-0.2720062255859375,6.696826171875
13.58499999999998,8.3919677734375,0.1553680419921875,7.727429199218751
13.59499999999997,6.654058837890625,0.7479797363281251,8.49903564453125
13.60499999999996,4.3772216796875005,-0.105572509765625,7.110891723632813
13.615000000000007,5.5136962890625005,-0.09869384765625,6.769650268554688
13.625999999999983,6.630731201171876,0.5461059570312501,7.010403442382813
13.635999999999974,6.647329711914063,0.5347412109375,7.758682250976563
13.646000000000017,6.951486206054688,0.6311920166015625,8.734854125976563
13.656000000000006,5.4299560546875005,0.7406524658203125,8.099026489257813
13.665999999999997,6.195880126953125,0.0538330078125,6.712228393554688
13.675999999999988,7.4771057128906255,0.3122314453125,6.050531005859376
13.68599999999998,7.353140258789063,0.284417724609375,6.302798461914063
13.69599999999997,7.371981811523438,-0.1015350341796875,7.580883789062501
13.70599999999996,5.372384643554688,-0.0408233642578125,8.6072998046875
13.716000000000008,5.3868896484375,0.0880767822265625,8.285348510742189
13.726,6.137710571289063,-0.353204345703125,7.531088256835938
13.73599999999999,6.628787231445313,0.0686370849609375,6.206796264648438
13.74599999999998,7.641445922851563,0.18841552734375,7.059002685546876
13.755999999999972,5.625698852539063,0.4592254638671875,6.187805175781251
13.766999999999996,2.319903564453125,0.969891357421875,4.5925537109375005
13.776999999999989,9.326867675781251,1.2152801513671876,10.469622802734376
13.786999999999978,12.94908142089844,0.5211334228515625,11.46463623046875
13.796999999999969,6.191244506835938,0.3034088134765625,7.381103515625001
13.80699999999996,1.786358642578125,-1.1511291503906251,3.9154541015625
13.817000000000007,2.4639068603515626,0.5236755371093751,4.488775634765625
13.826999999999998,8.236151123046875,0.765625,7.894461059570313
13.836999999999987,10.514035034179688,0.5942565917968751,11.323922729492187
13.84699999999998,7.23216552734375,0.408831787109375,10.709478759765624
13.856999999999973,3.979904174804688,-1.305300903320313,7.0593017578125
13.866999999999962,3.643447875976563,-2.0612060546875,4.342080688476563
13.87700000000001,7.565481567382813,0.6936981201171876,4.529898071289063
13.887,10.688693237304689,0.0204864501953125,7.102218627929688
13.897999999999968,9.211276245117189,0.3028106689453125,9.488516235351565
13.908000000000024,5.169464111328125,0.505133056640625,9.105255126953123
13.918000000000006,1.830322265625,-0.6353790283203126,7.511349487304688
13.927999999999995,4.861270141601563,0.4868896484375,5.967388916015626
13.937999999999988,7.445703125,2.2358642578125,6.240740966796875
13.94799999999998,9.739138793945314,0.7310821533203126,7.195230102539063
13.95799999999997,8.462100219726564,0.892431640625,8.480792236328126
13.96799999999996,4.818502807617188,0.5105163574218751,7.078591918945313
13.978000000000009,4.7169677734375,-0.5653961181640625,6.612786865234376
13.988,6.214123535156251,0.310137939453125,6.864306640625
13.99799999999999,6.6636291503906255,0.4523468017578125,7.0916015625
14.00799999999998,7.666717529296876,-0.8822631835937501,9.306680297851564
14.017999999999972,5.155108642578125,-0.1673309326171875,8.612832641601564
14.027999999999963,5.193539428710938,-0.29249267578125,7.45347900390625
14.038000000000013,7.047937011718751,-0.73392333984375,6.060699462890625
14.048000000000002,7.926910400390626,0.7976257324218751,5.788394165039063
14.058999999999967,8.407968139648439,0.8059997558593751,6.701162719726563
14.06899999999996,6.171505737304688,0.4382904052734375,8.282656860351564
14.079000000000008,4.689303588867188,1.073968505859375,8.346957397460939
14.089,5.379412841796875,0.2896514892578125,8.253048706054688
14.09899999999999,6.192889404296875,0.0285614013671875,6.857278442382813
14.10899999999998,7.63052978515625,1.09041748046875,6.89481201171875
14.118999999999971,6.785949707031251,0.285614013671875,7.037319946289063
14.128999999999962,6.296218872070313,-0.2021728515625,7.091003417968751
14.13900000000001,4.397708129882813,-0.7801300048828126,5.8091796875
14.149,4.971627807617188,-1.16279296875,6.245077514648438
14.158999999999992,11.580526733398438,0.465057373046875,10.477249145507812
14.168999999999984,8.988168334960939,1.128399658203125,9.383392333984377
14.178999999999974,4.408474731445313,0.0285614013671875,6.465045166015625
14.188999999999965,2.888739013671876,0.0716278076171875,5.668466186523438
14.200999999999963,4.5974884033203125,0.0895721435546875,5.765664672851563
14.20999999999998,9.527993774414064,0.39298095703125,9.374719238281251
14.21999999999997,8.886782836914064,1.1028289794921875,9.85084228515625
14.22999999999996,5.970379638671876,1.1844757080078123,8.416342163085938
14.240000000000007,4.458868408203125,-0.0148040771484375,5.9503417968750005
14.25,4.519879150390626,0.5456573486328126,4.914654541015626
14.259999999999993,9.257781982421877,0.266473388671875,6.554766845703125
14.269999999999982,8.981738281250001,0.0345428466796875,8.547784423828126
14.279999999999973,6.918289184570313,0.6503326416015626,8.811566162109376
14.289999999999964,4.439578247070313,-0.1547698974609375,8.178878784179688
14.300999999999988,3.4496490478515627,-0.7647277832031251,6.098681640625
14.310000000000002,7.236651611328125,-0.207257080078125,6.207693481445313
14.319999999999991,8.632720947265625,-0.4463653564453125,6.974215698242188
14.329999999999984,8.212374877929689,0.1329376220703125,7.506414794921875
14.341000000000008,6.478952026367188,0.60711669921875,8.263516235351563
14.351,4.499093627929688,-0.0814971923828125,6.9013916015625005
14.36099999999999,5.863760375976563,0.143255615234375,7.113433837890626
14.37099999999998,6.335098266601563,0.7195678710937501,6.917990112304688
14.380999999999972,6.806884765625001,0.5944061279296875,8.09708251953125
14.390999999999964,6.837240600585938,0.9386383056640626,8.672348022460938
14.401999999999989,5.256344604492188,0.7364654541015625,7.615127563476563
14.411,6.640750122070313,0.0901702880859375,6.79312744140625
14.420999999999992,7.334597778320313,0.33914794921875,6.050381469726563
14.430999999999983,7.165771484375001,0.1495361328125,6.432147216796875
14.440999999999974,7.461105346679688,-0.4278228759765625,8.047137451171876
14.450999999999963,5.13507080078125,-0.1278533935546875,8.281610107421876
14.461000000000013,5.652615356445313,-0.242547607421875,8.07734375
14.471000000000004,6.240292358398438,-0.4167572021484375,7.454974365234375
14.480999999999996,6.565533447265626,0.2127899169921875,6.438128662109375
14.491999999999962,7.583575439453125,0.240753173828125,7.040161132812501
14.50200000000001,6.095989990234376,0.4975067138671875,7.237399291992188
14.512,3.116632080078125,0.9051422119140624,4.8273254394531255
14.521999999999991,5.570968627929688,0.9057403564453126,7.205398559570313
14.531999999999982,13.48935546875,1.1333343505859377,11.005410766601564
14.541999999999971,9.72523193359375,0.7771392822265626,9.9423583984375
14.551999999999964,3.00328369140625,-0.9556854248046877,4.846765136718751
14.562000000000012,0.5644989013671875,-0.1595550537109375,5.355487060546875
14.572000000000005,4.850503540039063,0.7070068359375,5.971575927734375
14.581999999999994,10.470220947265624,0.4918243408203125,10.1648681640625
14.591999999999976,10.361358642578123,0.694744873046875,10.502072143554688
14.601999999999984,5.5794921875000005,-0.2310333251953125,8.033679199218751
14.613,2.992816162109375,-2.5940032958984376,5.243783569335938
14.62299999999999,5.130734252929688,-0.3339141845703125,5.187109375
14.63299999999998,9.168508911132813,0.184527587890625,6.115728759765625
14.642999999999972,10.658636474609375,0.24583740234375,8.957513427734376
14.652999999999963,7.171902465820313,0.9494049072265626,9.102264404296877
14.663000000000013,2.8048492431640626,-0.0100189208984375,7.804290771484376
14.673000000000002,3.047994995117188,-0.4762725830078125,6.375921630859375
14.682999999999993,6.412557983398438,2.0528320312500004,6.324481201171875
14.692999999999984,9.490908813476564,1.3223480224609376,6.774734497070313
14.702999999999982,9.50152587890625,0.892132568359375,8.138653564453126
14.712999999999973,6.0150909423828125,0.685772705078125,7.446600341796875
14.723000000000011,4.0771026611328125,-0.456683349609375,6.907821655273438
14.733000000000004,5.176641845703125,-0.5262176513671876,6.504971313476563
14.742999999999997,6.721200561523438,0.7464843750000001,7.420730590820313
14.752999999999986,8.136859130859376,-0.721661376953125,8.306134033203126
14.76400000000001,6.191244506835938,-0.2906982421875,8.86151123046875
14.774,4.828372192382813,-0.2115936279296875,7.798757934570313
14.783999999999992,5.826077270507813,-0.6163879394531251,6.653460693359375
14.793999999999984,7.567276000976563,0.222808837890625,5.730224609375
14.803999999999974,8.699862670898439,1.1511291503906251,6.483438110351563
14.813999999999965,7.426263427734375,0.3768310546875,7.84346923828125
14.824000000000012,4.944561767578126,1.18671875,8.203701782226563
14.834000000000003,4.617227172851563,0.524871826171875,8.439968872070313
14.843999999999994,5.768655395507813,-0.0013458251953125,7.047189331054688
14.853999999999978,7.412356567382813,0.7158294677734376,7.0165344238281255
14.863999999999985,7.564584350585938,0.729437255859375,7.066030883789063
14.873999999999974,6.441867065429688,-0.240753173828125,7.425216674804688
14.884000000000016,5.205203247070313,-0.342138671875,6.521868896484375
14.894000000000004,3.1866149902343754,-1.7935363769531252,4.763473510742188
14.904999999999973,8.910858154296875,-0.274847412109375,8.794668579101563
14.914999999999964,12.585260009765626,1.3208526611328126,9.977200317382811
14.925000000000011,6.72374267578125,0.4532440185546875,8.821585083007813
14.935000000000002,2.478262329101563,0.032598876953125,5.54180908203125
14.944999999999991,1.0815948486328126,0.123516845703125,5.445059204101563
14.954999999999984,7.859020996093751,0.4227386474609375,7.786795043945313
14.964999999999982,10.936325073242188,0.8755340576171876,9.9471435546875
14.974999999999971,7.913751220703125,1.375732421875,9.220846557617188
14.985000000000014,5.1619873046875,0.18662109375,7.006964111328125
14.994999999999996,2.777484130859375,0.2316314697265625,4.952337646484375
15.004999999999995,6.786099243164063,0.4532440185546875,5.029797363281251
15.014999999999986,10.504165649414062,0.0058319091796875,8.368640136718751
15.02600000000001,8.479296875000001,0.2884552001953125,8.877511596679689
15.034999999999968,5.526556396484375,0.4786651611328125,9.025253295898438
15.045999999999992,2.244985961914063,-0.784466552734375,6.859970092773438
15.055999999999983,4.796221923828125,0.0765625,5.816058349609375
15.065999999999974,8.700759887695312,-0.3337646484375,6.637310791015626
15.075999999999963,9.219949340820314,-0.0704315185546875,7.256838989257813
15.086000000000013,8.181271362304688,0.485992431640625,8.482138061523438
15.096000000000004,4.695883178710938,0.150732421875,6.972720336914063
15.105999999999996,4.581338500976563,-0.45458984375,6.7721923828125
15.116999999999962,6.435287475585938,0.6271545410156251,6.700265502929688
15.125999999999983,6.673797607421876,0.4658050537109375,7.60899658203125
15.135999999999974,7.656997680664063,0.7322784423828126,8.801547241210939
15.146000000000017,5.220306396484375,0.8121307373046875,8.602813720703125
15.156000000000006,5.202960205078125,0.2196685791015625,7.044049072265626
15.165999999999997,7.1585937500000005,0.0234771728515625,6.550579833984376
15.175999999999988,7.404580688476563,0.7215118408203125,5.5663330078125
15.187000000000012,8.399743652343751,-0.098992919921875,7.12210693359375
15.197000000000005,6.261077880859376,-0.093609619140625,8.389575195312501
15.206999999999994,4.7570434570312505,-0.0255706787109375,8.187551879882813
15.21799999999996,5.68656005859375,-0.3437835693359375,8.192337036132812
15.226999999999984,6.222497558593751,-0.150732421875,6.623403930664063
15.236999999999972,7.48338623046875,0.4511505126953125,6.849203491210938
15.247000000000014,7.239791870117188,-0.069384765625,7.302447509765625
15.256999999999998,5.906228637695313,0.5778076171875001,7.607949829101563
15.266999999999996,6.00238037109375,0.508123779296875,7.341925048828125
15.276999999999989,2.4087280273437504,-0.265576171875,3.985736083984375
15.288999999999987,8.204299926757812,0.7835693359375001,8.192636108398439
15.296999999999969,13.793511962890626,1.1144927978515626,10.613775634765624
15.308999999999967,6.565383911132813,-0.1792938232421875,8.973513793945314
15.317999999999984,2.7522125244140625,-0.4098785400390625,5.395263671875
15.326999999999998,1.2290374755859377,0.5016937255859375,5.692242431640626
15.337999999999973,7.093994140625001,1.24713134765625,6.927859497070313
15.348000000000011,10.919876098632812,1.185223388671875,10.040603637695312
15.358000000000004,7.970425415039063,0.6747070312500001,9.394308471679688
15.367999999999997,5.609548950195313,-1.2475799560546876,7.46304931640625
15.377999999999986,3.402545166015625,-1.5019409179687502,5.441619873046875
15.387999999999984,6.274087524414063,0.2253509521484375,4.760781860351563
15.397999999999968,10.119110107421877,0.064599609375,7.457965087890625
15.408000000000024,8.563784790039064,-0.0203369140625,8.725881958007813
15.418000000000006,6.261526489257813,0.404345703125,9.300997924804689
15.427999999999995,2.684323120117188,-0.921142578125,7.49654541015625
15.437999999999988,4.129440307617188,0.430364990234375,5.916098022460938
15.451999999999998,8.352191162109376,1.6194763183593752,6.432296752929688
15.459000000000003,8.891268920898439,1.0454071044921875,6.791931152343751
15.468999999999994,8.640347290039063,1.1578582763671876,8.17484130859375
15.478000000000009,5.0561157226562505,0.7358673095703125,7.396206665039063
15.488999999999985,4.060803222656251,-0.467449951171875,6.925765991210938
15.498999999999974,6.401193237304688,0.3871490478515625,7.266259765625
15.509000000000016,6.396557617187501,0.187518310546875,7.514041137695313
15.519000000000004,7.694531250000001,-0.5208343505859375,8.160635375976563
15.528999999999996,5.893817138671875,-0.3928314208984375,8.762368774414064
15.538999999999987,5.032040405273438,-0.5447601318359375,6.898101806640626
15.548999999999978,7.2393432617187505,-0.7197174072265625,6.880157470703126
15.558999999999967,7.550827026367188,0.5045349121093751,5.696878051757813
15.56899999999996,8.151364135742188,0.7265960693359376,7.01683349609375
15.579000000000008,6.419137573242188,0.4921234130859375,8.034875488281251
15.589,4.404586791992188,0.931011962890625,8.340676879882814
15.59899999999999,5.591604614257813,0.3976165771484375,8.21671142578125
15.60899999999998,6.163729858398438,0.3333160400390625,6.941317749023438
15.618999999999971,7.505068969726563,1.0549774169921875,6.6815734863281255
15.628999999999962,7.471273803710938,0.4873382568359375,7.089358520507813
15.639999999999986,4.702163696289063,-0.4840484619140625,6.115429687500001
15.649999999999984,3.293084716796875,-1.0005462646484375,5.2385498046875005
15.659999999999968,9.486721801757811,-0.1505828857421875,10.256683349609377
15.66999999999996,11.758474731445313,0.8315704345703125,10.115072631835938
15.680000000000009,6.538616943359376,0.3055023193359375,7.2856994628906255
15.689999999999998,1.802658081054688,-0.2621368408203125,4.680929565429688
15.699999999999989,3.438433837890625,-0.428271484375,5.5261077880859375
15.70999999999998,8.000033569335939,0.116937255859375,9.372177124023438
15.71999999999997,9.9136474609375,0.506329345703125,10.161428833007813
15.72999999999996,7.474264526367188,1.5496429443359376,9.188098144531253
15.740999999999984,4.373931884765625,0.5806488037109375,5.821591186523438
15.75,4.04644775390625,0.578704833984375,4.511355590820313
15.760999999999974,7.839581298828126,0.6032287597656251,5.693887329101563
15.771000000000017,9.360812377929689,0.3129791259765625,8.366546630859375
15.781000000000006,8.431445312500001,0.6578094482421876,9.590051269531251
15.790999999999997,4.499093627929688,0.50184326171875,8.309872436523438
15.800999999999988,3.1208190917968754,-0.7369140625,6.730172729492188
15.81099999999998,5.739645385742188,-0.6569122314453125,5.7604309082031255
15.82099999999997,8.122802734375,-0.5743682861328125,6.339434814453125
15.83099999999996,9.564181518554689,-0.366961669921875,7.825973510742188
15.841000000000008,7.259829711914063,0.318511962890625,8.454922485351563
15.851,4.768258666992188,0.091815185546875,6.895260620117188
15.86099999999999,5.21402587890625,-0.3838592529296875,7.135565185546875
15.87099999999998,5.634521484375,0.5618072509765626,6.539364624023438
15.880999999999972,6.929653930664063,0.9008056640625,7.8033935546875
15.890999999999964,7.228128051757813,0.8237945556640626,8.920129394531251
15.90100000000001,5.70928955078125,1.2587951660156251,8.1551025390625
15.911999999999978,6.015988159179688,0.4792633056640625,6.935934448242188
15.921999999999969,6.878063964843751,0.31103515625,6.051129150390626
15.93199999999996,7.4307495117187505,0.495263671875,5.995800781250001
15.942000000000007,7.554266357421875,-0.26318359375,7.441964721679688
15.951999999999998,5.95452880859375,-0.491375732421875,8.379257202148438
15.961999999999987,5.416497802734376,-0.1556671142578125,8.695974731445313
15.97199999999998,5.589810180664063,-0.6664825439453126,7.470077514648438
15.981999999999973,6.478802490234376,-0.313128662109375,6.7413879394531255
15.991999999999962,7.501629638671876,0.1840789794921875,6.542205810546876
16.00200000000001,6.87088623046875,0.2238555908203125,7.298260498046876
16.012,6.292630004882813,0.85654296875,7.315457153320313
16.02199999999999,2.7825683593750004,1.160400390625,5.052227783203126
16.033000000000023,6.288592529296875,1.0862304687500002,7.219754028320313
16.043000000000006,13.79007263183594,1.3373016357421876,11.281155395507811
16.051999999999964,7.51927490234375,0.796429443359375,8.901736450195314
16.062999999999988,2.8052978515625,-0.8578887939453126,5.044750976562501
16.07299999999998,1.789349365234375,-0.1194793701171875,5.693289184570313
16.08299999999997,6.019577026367188,0.0022430419921875,6.696676635742188
16.09299999999996,10.810266113281251,0.1066192626953125,10.1720458984375
16.10300000000001,8.619412231445313,0.2776885986328125,10.148269653320312
16.113,5.270700073242188,-0.7523162841796875,7.34581298828125
16.12299999999999,3.9790069580078127,-2.413961791992188,5.253802490234375
16.13299999999998,5.780169677734375,0.1158905029296875,4.852447509765625
16.142999999999972,9.916189575195313,0.5179931640625001,6.926214599609375
16.152999999999963,9.10076904296875,0.5603118896484376,8.884988403320314
16.16300000000001,6.166571044921875,1.122418212890625,9.065179443359376
16.173000000000002,3.0696777343750004,-0.1308441162109375,7.966836547851563
16.182999999999993,3.697729492187501,0.1054229736328125,6.109448242187501
16.19399999999996,7.372579956054688,2.199676513671875,6.289489746093751
16.204000000000008,9.185256958007812,1.000396728515625,6.887185668945313
16.214,8.756536865234375,0.5819946289062501,7.851693725585938
16.22399999999999,6.047091674804688,0.329278564453125,7.634268188476563
16.23399999999998,3.912911987304688,-0.7624847412109376,6.756491088867188
16.24399999999997,6.0150909423828125,-0.2154815673828125,6.904681396484375
16.253999999999962,6.533831787109375,0.372943115234375,7.576547241210938
16.26400000000001,7.481591796875,-0.740203857421875,8.429351806640625
16.274,6.043203735351563,-0.12620849609375,8.752349853515625
16.283999999999992,4.9474029541015625,-0.0155517578125,7.3724304199218755
16.293999999999983,6.858026123046876,-0.352606201171875,6.500933837890625
16.303999999999974,7.770346069335938,0.6317901611328125,5.730374145507813
16.313999999999965,8.093792724609376,1.0430145263671875,6.605010986328126
16.32499999999999,7.004421997070313,0.5984436035156251,8.16407470703125
16.33499999999998,4.357183837890625,1.1013336181640625,8.083026123046876
16.34499999999997,5.342776489257813,0.3485687255859375,8.527447509765626
16.35499999999996,6.169860839843751,-0.1619476318359375,7.083078002929688
16.36500000000001,7.075003051757813,0.7337738037109376,6.708938598632813
16.375,7.639801025390626,0.232977294921875,7.120013427734375
16.38499999999999,5.731719970703125,-0.4861419677734375,7.019674682617188
16.394999999999982,3.1294921875000004,-0.7971771240234375,4.6404052734375005
16.404999999999973,6.869241333007813,-0.6539215087890625,8.282208251953126
16.418000000000006,12.618606567382814,0.9290679931640624,9.77069091796875
16.42500000000001,8.890521240234376,1.33984375,9.290979003906251
16.435000000000002,3.1060150146484378,-0.214434814453125,5.448498535156251
16.444999999999993,1.3295257568359375,-0.380419921875,5.5705200195312505
16.454999999999984,5.787945556640626,-0.0168975830078125,7.683914184570313
16.464999999999982,10.158737182617188,-0.024822998046875,9.9303955078125
16.474999999999973,9.1240966796875,1.2045135498046875,9.762466430664062
16.48599999999999,5.8917236328125,0.8040557861328126,6.701910400390625
16.49599999999998,3.504827880859376,-0.20277099609375,5.019479370117188
16.505999999999972,5.780020141601563,0.6663330078125,5.12908935546875
16.516999999999996,9.099423217773438,0.5208343505859375,7.469479370117188
16.52600000000001,9.29202575683594,0.36187744140625,9.315054321289065
16.536,6.241787719726563,1.0732208251953126,8.852389526367189
16.545999999999992,2.876327514648437,-0.2316314697265625,7.264315795898438
16.555999999999983,4.299313354492188,-0.5999389648437501,6.037969970703125
16.565999999999974,7.409515380859376,-0.122320556640625,6.311770629882813
16.575999999999965,9.46683349609375,-0.4759735107421875,6.7877441406250005
16.586000000000013,8.77298583984375,-0.1230682373046875,8.473315429687501
16.596000000000004,5.393618774414063,0.330474853515625,7.428207397460938
16.605999999999995,4.374978637695313,-0.4592254638671875,7.115826416015626
16.616999999999962,5.427114868164063,-0.0055328369140625,6.8475585937500005
16.62700000000001,6.536822509765625,0.9541900634765624,7.351046752929688
16.637,7.791879272460938,0.6189300537109376,8.475857543945313
16.64699999999999,6.184814453125001,1.1665313720703123,8.506661987304689
16.656999999999982,5.4251708984375,0.9495544433593752,7.371383666992188
16.666999999999973,6.526205444335938,0.1152923583984375,6.194833374023438
16.676999999999964,7.3822998046875,0.4652069091796875,6.045596313476563
16.687000000000012,7.974612426757813,0.3265869140625,6.774435424804688
16.697000000000003,6.580636596679688,-0.416607666015625,8.257086181640625
16.706999999999994,5.226885986328125,-0.02691650390625,8.455520629882812
16.716999999999977,5.186959838867188,-0.4071868896484375,8.285049438476562
16.726999999999983,6.169561767578125,-0.6543701171875,6.696228027343751
