time,ax,ay,az
0.0,6.347360229492188,0.0478515625,7.263119506835938
0.0099999999999909,7.344168090820313,0.2095001220703125,8.06119384765625
0.0199999999999818,5.956472778320313,0.238360595703125,7.711129760742188
0.0300000000000366,6.144439697265626,-0.0904693603515625,6.7473693847656255
0.0400000000000204,6.547439575195313,0.5299560546875001,7.359869384765625
0.0500000000000113,7.315606689453125,0.6563140869140626,6.648526000976563
0.0609999999999857,7.08861083984375,0.505133056640625,7.542303466796875
0.0710000000000263,6.40433349609375,0.561956787109375,7.854086303710938
0.0810000000000172,5.026806640625001,0.08553466796875,7.759429931640626
0.0910000000000081,5.346514892578125,-0.019140625,7.763018798828125
0.100999999999999,6.656750488281251,0.1466949462890625,7.102517700195313
0.1109999999999971,7.51748046875,0.1012359619140625,7.491162109375001
0.1209999999999809,7.145285034179688,0.09151611328125,7.037020874023438
0.1310000000000357,6.051876831054688,0.3096893310546875,7.586416625976563
0.1410000000000195,6.349453735351563,-0.02930908203125,7.159341430664063
0.1510000000000104,6.219955444335938,0.1245635986328125,7.246520996093751
0.1610000000000013,6.935934448242188,0.050244140625,7.308578491210938
0.1709999999999922,6.6681152343750005,0.1807891845703125,7.6595397949218755
0.1809999999999831,5.794973754882813,0.1024322509765625,7.715914916992188
0.1910000000000309,5.895761108398438,0.3349609375,7.572509765625001
0.2010000000000218,6.283358764648438,0.051141357421875,7.404281616210938
0.2119999999999962,7.186557006835938,0.3823638916015625,7.020721435546876
0.2219999999999871,6.880606079101563,0.3647186279296875,7.325326538085938
0.2320000000000277,6.597384643554688,0.185125732421875,7.246371459960938
0.2420000000000186,6.033633422851563,-0.071478271484375,7.591799926757813
0.2520000000000095,6.02391357421875,-0.274847412109375,7.402487182617188
0.2620000000000004,6.511550903320313,-0.3976165771484375,7.677035522460938
0.2719999999999913,6.529644775390626,-0.2911468505859375,7.286895751953126
0.2819999999999822,6.620413208007813,-0.7179229736328125,7.456918334960938
0.2920000000000371,6.333453369140625,-0.85654296875,7.023861694335938
0.3020000000000209,6.671554565429688,-0.8725433349609376,7.355532836914063
0.3120000000000118,6.797763061523438,-0.5716766357421875,7.01982421875
0.3220000000000027,6.730621337890626,-0.314923095703125,7.495199584960938
0.3319999999999936,6.204104614257813,0.29608154296875,7.406076049804688
0.3419999999999845,5.908172607421875,0.398065185546875,7.583425903320313
0.3530000000000086,6.137710571289063,0.8022613525390626,7.716961669921876
0.3629999999999995,6.58377685546875,0.8055511474609376,7.167864990234375
0.3729999999999975,6.937878417968751,0.5525360107421875,7.366748046875
0.3829999999999813,6.6217590332031255,0.27933349609375,6.623852539062501
0.3930000000000362,6.176889038085938,-0.0180938720703125,7.486825561523438
0.40300000000002,7.146182250976563,-0.4988525390625,8.24661865234375
0.4130000000000109,5.2938781738281255,-0.8918334960937501,7.781262207031251
0.4230000000000018,6.276480102539063,-1.2348693847656251,7.071115112304688
0.4329999999999927,7.649221801757813,-0.7421478271484375,6.803295898437501
0.4429999999999836,7.880853271484375,-0.2711090087890625,6.87686767578125
0.4530000000000314,6.682470703125,0.3620269775390625,7.276129150390625
0.4630000000000223,4.895962524414063,1.0678375244140623,8.528643798828126
0.4739999999999966,4.756594848632813,1.5671386718750002,7.518078613281251
0.4830000000000041,6.009857177734375,1.8868469238281247,8.046987915039063
0.492999999999995,7.5378173828125,2.0158966064453128,6.968084716796875
0.5040000000000191,7.447198486328125,1.4407806396484375,7.297363281250001
0.51400000000001,6.269003295898438,0.6455474853515626,6.736901855468751
0.5240000000000009,6.109747314453125,0.1179840087890625,7.275381469726563
0.5339999999999918,6.580636596679688,-1.063052368164063,7.587911987304688
0.5439999999999827,6.929653930664063,-1.6423553466796876,7.129583740234375
0.5540000000000376,6.54130859375,-2.040570068359376,7.845114135742188
0.5640000000000214,6.036325073242188,-1.8448272705078128,7.656698608398438
0.5740000000000123,5.520275878906251,-1.334759521484375,7.591799926757813
0.5840000000000032,6.671405029296875,-0.5217315673828126,7.371832275390625
0.5939999999999941,7.306784057617188,0.2307342529296875,7.100424194335938
0.603999999999985,7.083825683593751,1.2607391357421875,7.108200073242188
0.6140000000000327,6.31700439453125,1.9148101806640627,7.307083129882813
0.6240000000000236,5.533734130859376,2.010662841796876,7.445852661132813
0.6340000000000146,6.061297607421875,1.4536407470703123,7.669110107421876
0.6449999999999818,6.396557617187501,0.7849151611328126,7.485330200195313
0.6550000000000367,6.8224365234375,-0.0641510009765625,7.577893066406251
0.6650000000000205,6.588262939453125,-0.7476806640625,7.163079833984376
0.6750000000000114,6.1596923828125005,-1.591961669921875,7.29556884765625
0.6850000000000023,6.516934204101563,-1.8626220703125,7.097732543945313
0.6949999999999932,6.594393920898438,-1.8473693847656247,7.435385131835938
0.7049999999999841,6.893615722656251,-1.1865692138671875,7.400991821289063
0.7150000000000318,6.840231323242188,-0.5775085449218751,7.445254516601563
0.7250000000000227,6.148327636718751,0.0794036865234375,7.471871948242188
0.7350000000000136,5.94854736328125,0.621771240234375,6.806884765625001
0.7450000000000045,6.201712036132813,1.386050415039063,7.861712646484375
0.757000000000005,7.363607788085938,1.7942840576171877,8.32318115234375
0.7660000000000196,5.512051391601563,1.5481475830078126,7.661932373046875
0.7760000000000105,5.984735107421876,0.977667236328125,6.765911865234376
0.7860000000000014,7.393066406250001,0.904095458984375,6.768753051757813
0.7959999999999923,7.35179443359375,0.2237060546875,6.690097045898438
0.8059999999999832,6.835894775390625,-0.2992218017578125,7.089358520507813
0.8160000000000309,5.8800598144531255,-0.5827423095703126,8.664572143554688
0.8260000000000218,5.25230712890625,-0.9042449951171876,7.996444702148438
0.8360000000000127,5.2983642578125005,-0.8239440917968751,7.75255126953125
0.8460000000000036,7.070217895507813,-0.478814697265625,7.102816772460938
0.8570000000000277,7.802047729492188,-0.2883056640625,7.067376708984376
0.8659999999999854,7.032833862304688,-0.1921539306640625,6.783407592773438
0.8760000000000332,6.571066284179688,0.3751861572265625,7.241287231445313
0.8860000000000241,6.281564331054688,0.3165679931640625,7.666119384765626
0.896000000000015,5.835348510742188,0.3856536865234375,7.078591918945313
0.9069999999999824,6.204403686523438,0.50184326171875,7.78843994140625
0.9170000000000372,6.428408813476563,0.5193389892578125,7.892517089843751
0.9270000000000208,5.5346313476562505,0.6750061035156251,7.534976196289063
0.9370000000000118,6.189300537109376,0.66932373046875,7.479049682617188
0.9470000000000028,6.643441772460938,0.4562347412109375,7.240090942382813
0.9569999999999936,6.695928955078125,0.6216217041015626,7.055862426757813
0.9669999999999844,6.695330810546875,0.6283508300781251,7.357327270507813
0.9770000000000324,6.312817382812501,0.372344970703125,7.294970703125
0.9870000000000232,6.492410278320313,-0.0817962646484375,7.708438110351563
0.997000000000014,6.629385375976563,-0.5902191162109376,7.030889892578125
1.007000000000005,7.044049072265626,-1.0744171142578125,7.413552856445313
1.016999999999996,7.254446411132813,-1.3450775146484375,6.857876586914063
1.0269999999999868,6.599029541015626,-1.7045623779296877,7.145883178710938
1.0369999999999775,6.851446533203125,-1.861126708984375,7.194781494140625
1.0480000000000018,6.4491943359375,-1.8291259765625,7.350747680664063
1.0579999999999927,6.343771362304688,-1.4582763671875,7.600473022460938
1.0679999999999836,6.506466674804688,-0.8952728271484376,7.665222167968751
1.0780000000000314,5.863760375976563,-0.341241455078125,8.026800537109375
1.0880000000000225,6.182870483398438,0.303857421875,7.438226318359375
1.0980000000000132,6.171206665039063,0.71478271484375,7.62095947265625
1.108000000000004,6.829763793945313,0.9565826416015626,6.632824707031251
1.117999999999995,6.424221801757813,1.2616363525390626,6.682620239257813
1.127999999999986,6.03587646484375,1.41102294921875,6.167318725585938
1.1380000000000337,6.172103881835938,1.4626129150390623,7.378860473632813
1.1480000000000246,6.722097778320313,1.3530029296875,8.589056396484375
1.1580000000000157,7.6475769042968755,0.8743377685546876,10.057351684570314
1.1680000000000064,4.134075927734376,0.0518890380859375,7.88115234375
1.1779999999999973,5.1117431640625,-0.389990234375,6.654208374023438
1.1879999999999953,7.596435546875001,-0.83082275390625,5.661288452148438
1.1990000000000125,9.69412841796875,-0.5181427001953125,5.986380004882813
1.2090000000000032,8.653207397460939,-0.019140625,6.856530761718751
1.218999999999994,6.0699707031250005,-0.217425537109375,8.184561157226563
1.228999999999985,3.6456909179687504,-0.02691650390625,8.125494384765625
1.2390000000000327,3.5182861328125004,0.311932373046875,8.446548461914062
1.2490000000000236,6.1919921875,0.8707489013671875,8.081530761718751
1.2590000000000146,7.604360961914063,1.466351318359375,7.850646972656251
1.2690000000000057,7.480844116210938,1.0343414306640626,7.169509887695313
1.2789999999999964,6.613983154296876,1.382012939453125,6.708190917968751
1.2889999999999873,6.274685668945313,0.8230468750000001,6.479251098632813
1.2989999999999782,6.5963378906250005,0.6320892333984376,6.72374267578125
1.309000000000026,7.026702880859376,-0.230584716796875,6.992010498046875
1.3190000000000168,5.805291748046876,-0.1757049560546875,7.239791870117188
1.3290000000000075,5.185015869140625,-0.8581878662109376,7.219903564453125
1.3400000000000318,6.949542236328125,-1.3036560058593751,11.05072021484375
1.3500000000000227,4.73192138671875,-2.0164947509765625,7.912255859375
1.3600000000000136,4.673004150390625,-1.39666748046875,6.208740234375001
1.3700000000000043,10.283450317382814,-1.2876556396484375,7.3021484375
1.3799999999999957,9.080731201171876,-0.299969482421875,5.649923706054688
1.3899999999999864,7.677633666992188,0.5944061279296875,6.862063598632813
1.3999999999999773,5.319149780273438,1.1028289794921875,7.36973876953125
1.410000000000025,4.4325500488281255,0.934002685546875,8.422473144531251
1.420000000000016,5.809927368164063,0.8632720947265625,7.017282104492188
1.4300000000000068,6.933541870117188,1.42896728515625,8.164822387695313
1.4399999999999906,7.625146484375,1.529156494140625,6.498541259765625
1.4499999999999955,5.933294677734375,0.6841278076171875,7.677484130859375
1.4599999999999866,5.759683227539063,0.4414306640625,6.945654296875
1.4700000000000273,6.650021362304688,-0.0402252197265625,8.240338134765626
1.4809999999999943,6.184515380859375,-0.48330078125,6.952981567382813
1.4909999999999854,7.530490112304688,-0.3216522216796875,7.892517089843751
1.5010000000000332,5.9623046875000005,-1.3295257568359375,7.409814453125
1.511000000000024,5.5998291015625,-1.505679321289063,7.546340942382813
1.521000000000015,5.9881744384765625,-1.7749938964843752,7.264315795898438
1.531000000000006,6.245974731445313,-1.6748046875000002,6.471475219726563
1.5409999999999968,5.546893310546875,-2.095001220703125,4.6810791015625
1.5509999999999948,7.478750610351563,0.1327880859375,9.723287963867188
1.5609999999999855,6.951187133789063,1.2218597412109375,9.414495849609375
1.5710000000000264,7.297064208984375,1.926922607421875,9.563433837890626
1.5810000000000173,6.764865112304688,1.4174530029296877,6.1252990722656255
1.5910000000000082,5.882003784179688,0.338250732421875,4.3700439453125
1.600999999999999,6.650769042968751,-0.302362060546875,6.299209594726563
1.610999999999997,6.331658935546876,1.229486083984375,9.027944946289065
1.620999999999981,6.398052978515626,0.8199066162109375,9.922918701171875
1.6310000000000358,6.73570556640625,1.059613037109375,8.45477294921875
1.641999999999996,5.921630859375,0.0011962890625,5.422628784179688
1.6519999999999868,6.991711425781251,-0.6578094482421876,5.340982055664063
1.6619999999999775,6.629684448242188,-1.0469024658203123,5.886639404296876
1.6720000000000257,7.174145507812501,0.0222808837890625,8.564382934570313
1.6820000000000164,7.35179443359375,-0.715679931640625,8.595187377929689
1.6920000000000073,5.192343139648438,-0.283221435546875,8.248263549804689
1.701999999999991,5.547491455078125,-0.8659637451171875,6.730023193359376
1.7119999999999962,4.4658966064453125,-0.433953857421875,7.517181396484376
1.721999999999987,6.233563232421876,0.4197479248046875,7.388580322265626
1.7320000000000275,7.681521606445313,1.4123687744140625,8.542849731445314
1.7420000000000186,7.6715026855468755,0.7644287109375001,6.967486572265625
1.7520000000000095,7.703802490234375,1.033294677734375,6.569122314453126
1.7630000000000337,5.997445678710938,-0.0369354248046875,6.005520629882813
1.7730000000000246,4.718014526367188,0.5806488037109375,6.0834289550781255
1.7830000000000157,4.2886962890625,0.7101470947265626,7.0018798828125
1.7930000000000064,6.770846557617188,0.4299163818359375,10.294964599609376
1.8029999999999973,8.26875,-0.7454376220703125,9.451132202148438
1.8129999999999955,7.031637573242188,-1.1979339599609375,7.760775756835938
1.8229999999999864,6.8714843750000005,-2.493963623046876,5.865255737304688
1.8330000000000268,5.829815673828126,-1.977764892578125,5.6177734375
1.8430000000000104,6.528897094726563,-0.9830505371093752,6.93070068359375
1.8530000000000089,7.342672729492188,0.6539215087890625,9.260772705078123
1.8629999999999995,6.780267333984376,1.215728759765625,9.125592041015626
1.8729999999999976,5.905032348632813,1.55936279296875,7.156799316406251
1.8829999999999807,5.920135498046875,0.7200164794921875,6.401043701171876
1.8940000000000048,6.269302368164063,1.5931579589843752,5.607006835937501
1.9039999999999964,7.550677490234375,1.0105651855468751,6.976010131835938
1.9139999999999875,7.792477416992188,1.0358367919921876,7.518377685546875
1.9239999999999784,6.971224975585938,-0.0414215087890625,7.781860351562501
1.934000000000026,5.3571319580078125,-1.0017425537109377,7.469329833984376
1.9440000000000168,5.103219604492188,-1.4356964111328123,7.424020385742188
1.954000000000008,4.703509521484375,-0.9531433105468752,7.996145629882813
1.9639999999999984,6.569421386718751,-1.085931396484375,8.075399780273438
1.9739999999999969,7.245474243164063,-0.6223693847656251,8.138204956054688
1.983999999999988,7.579388427734376,-0.3384002685546875,7.030291748046875
1.994000000000028,6.504074096679688,0.1652374267578125,6.264666748046875
2.004000000000019,6.578991699218751,0.738409423828125,6.685311889648438
2.01400000000001,6.509906005859375,1.322796630859375,7.005020141601563
2.024000000000001,6.374127197265626,1.0285095214843751,8.252749633789064
2.035000000000025,6.2242919921875,1.1233154296875,7.995547485351563
2.045000000000016,5.1201171875,0.289501953125,7.771542358398438
2.055000000000007,3.356039428710938,-0.491973876953125,5.592501831054688
2.0649999999999906,4.982992553710938,-0.4610198974609375,5.7589355468750005
2.074999999999996,11.79840087890625,0.10587158203125,10.180718994140626
2.084999999999986,11.326315307617188,0.5899200439453125,8.918634033203126
2.095000000000028,5.343374633789063,-0.01435546875,6.910214233398438
2.105000000000011,2.089468383789063,-0.5837890625000001,5.8236846923828125
2.115000000000009,2.989974975585937,-1.325787353515625,6.762322998046876
2.125,8.501278686523438,-1.2728515625,9.239089965820312
2.134999999999991,10.05181884765625,-0.378924560546875,9.26884765625
2.144999999999982,7.810122680664063,0.6243133544921875,7.418487548828126
2.156000000000006,4.942468261718751,0.83082275390625,5.656353759765626
2.1650000000000205,3.992913818359375,0.9438720703125,5.385244750976563
2.175999999999995,6.854736328125001,0.5851348876953125,7.044198608398438
2.1859999999999857,8.423818969726563,0.567938232421875,8.612234497070313
2.1960000000000264,8.123101806640626,0.7907470703125,8.7628173828125
2.2060000000000173,5.795422363281251,0.4687957763671875,7.301101684570313
2.216000000000008,4.015643310546875,-0.4529449462890625,6.087615966796875
2.225999999999999,5.914004516601563,-0.477020263671875,5.905929565429688
2.235999999999997,7.328018188476563,-1.0244720458984375,7.369888305664063
2.245999999999981,8.408416748046875,-0.784466552734375,8.550775146484376
2.256000000000036,6.317752075195313,-0.4089813232421875,8.981289672851563
2.26600000000002,4.548291015625001,-0.447412109375,7.722793579101563
2.2760000000000105,5.00706787109375,-0.2260986328125,6.709088134765626
2.2860000000000014,6.30264892578125,0.273052978515625,6.409417724609376
2.2959999999999923,8.487820434570313,0.503338623046875,7.122256469726563
2.305999999999983,7.892068481445313,0.7778869628906251,7.965341186523438
2.316000000000031,6.036474609375,0.8907867431640626,7.780215454101563
2.326999999999991,5.228680419921876,0.636724853515625,7.3604675292968755
2.336999999999996,5.193838500976563,0.5345916748046875,6.887933349609376
2.346999999999987,4.466195678710938,0.6089111328125001,5.607754516601563
2.357000000000028,3.1175292968750004,0.2669219970703125,4.645040893554688
2.367000000000018,12.16925048828125,0.33436279296875,12.079827880859376
2.377000000000009,13.776165771484376,-0.5381805419921876,11.929095458984376
2.3870000000000005,4.718463134765625,-2.0988891601562503,5.428610229492188
2.396999999999992,1.1325866699218752,-2.0589630126953127,2.9648529052734376
2.4069999999999823,2.2856597900390625,0.1481903076171875,5.493060302734375
2.417000000000037,8.254693603515626,0.6341827392578125,9.492105102539064
2.427000000000021,10.951577758789064,1.1644378662109376,12.33658142089844
2.437000000000012,7.479647827148438,0.8613281250000001,9.511096191406253
2.4470000000000027,3.9052856445312494,-1.6767486572265626,5.0531250000000005
2.458000000000027,3.788198852539063,-0.4562347412109375,3.7419921875
2.46800000000001,6.775930786132813,1.848117065429688,4.860372924804688
2.4780000000000086,10.304534912109377,0.279931640625,8.709582519531251
2.4879999999999995,9.38189697265625,0.757550048828125,10.070510864257812
2.4979999999999976,5.3776184082031255,0.099591064453125,8.710479736328125
2.5079999999999814,2.9632080078125003,-1.8648651123046875,6.130682373046875
2.518000000000036,4.165628051757813,0.4879364013671875,5.128939819335938
2.52800000000002,7.2291748046875,0.7928405761718751,6.0424560546875
2.538000000000011,9.53247985839844,-0.7873077392578126,9.058151245117188
2.548000000000002,7.311718750000001,0.1614990234375,9.64029541015625
2.5579999999999927,4.409371948242188,-0.219219970703125,8.342471313476564
2.567999999999984,4.3597259521484375,-1.0503417968750002,6.239694213867188
2.578000000000032,6.415847778320313,1.2587951660156251,5.667718505859376
2.5880000000000223,8.384490966796875,0.7023712158203126,6.131729125976563
2.598000000000013,8.423519897460938,-0.2540618896484375,8.655599975585938
2.608000000000004,5.677438354492188,0.7539611816406251,8.757434082031251
2.619000000000028,4.410867309570313,-0.292791748046875,8.120410156250001
2.629000000000019,5.847161865234376,-0.7071563720703126,6.68785400390625
2.63900000000001,6.891372680664063,1.038079833984375,5.920584106445313
2.649000000000001,7.9107604980468755,-0.2053131103515625,6.934588623046875
2.658999999999992,5.046844482421875,-0.8836090087890626,6.734359741210938
2.6689999999999827,2.0667388916015628,-0.5879760742187501,5.990716552734376
2.6790000000000376,9.735400390625,-0.4188507080078125,9.72867126464844
2.6890000000000214,12.985717773437502,0.6687255859375001,10.656692504882812
2.6990000000000123,7.519573974609376,1.1162872314453125,7.1908935546875
2.709000000000003,1.158905029296875,-0.447711181640625,5.403338623046875
2.718999999999994,0.492572021484375,-0.067291259765625,5.577398681640625
2.728999999999985,7.391421508789063,0.107666015625,8.70718994140625
2.7390000000000327,11.821429443359376,-0.3357086181640625,10.2390380859375
2.749000000000024,10.015481567382814,1.5430633544921877,8.257983398437501
2.759999999999991,4.270751953125,0.7337738037109376,6.156103515625
2.769999999999982,2.2557525634765625,-0.24464111328125,4.540066528320313
2.7800000000000367,5.495602416992188,0.5879760742187501,6.316555786132813
2.7900000000000205,9.789083862304688,-0.466253662109375,8.400192260742188
2.800000000000012,10.208831787109377,-0.1918548583984375,9.324624633789064
2.8100000000000023,6.0879150390625005,0.286212158203125,7.933789062500001
2.819999999999993,2.9543853759765626,-1.07247314453125,6.195132446289063
2.829999999999984,4.115234375,-1.1076141357421876,5.622109985351563
2.840000000000032,7.198669433593751,-0.1918548583984375,6.816156005859376
2.8500000000000227,9.6050048828125,-0.2284912109375,8.022164916992189
2.8600000000000136,8.046688842773438,0.2896514892578125,9.535470581054687
2.8700000000000045,4.111795043945313,0.7086517333984376,7.824478149414063
2.881000000000036,3.699972534179688,-0.4484588623046875,7.100125122070313
2.8899999999999864,5.775534057617188,0.5284606933593751,6.063690185546875
2.9010000000000105,8.20594482421875,1.2043640136718752,6.5395141601562505
2.9110000000000014,9.168060302734377,0.313427734375,8.249609375
2.9209999999999923,6.477755737304688,0.7674194335937501,8.135812377929689
2.930999999999983,4.537075805664063,0.0509918212890625,7.833599853515626
2.941000000000031,5.276083374023438,-0.7560546875,6.451287841796876
2.951000000000022,6.549084472656251,-0.1754058837890625,6.503924560546875
2.9610000000000127,8.258282470703126,-0.394775390625,7.39725341796875
2.971000000000004,5.759234619140625,-0.6331359863281251,7.595538330078125
2.9809999999999945,2.250518798828125,0.6383697509765626,6.206198120117188
2.990999999999985,6.253900146484376,0.3935791015625,7.132424926757813
3.001000000000033,13.579525756835938,-0.1054229736328125,11.312408447265623
3.011000000000024,9.80643005371094,0.2337249755859375,7.529592895507813
3.021000000000015,2.4323547363281253,-1.005780029296875,5.137911987304688
3.031000000000006,1.4482574462890625,0.12142333984375,5.8860412597656255
3.042000000000037,4.6733032226562505,0.932806396484375,8.336041259765626
3.052000000000021,9.818692016601563,0.0339447021484375,9.987667846679688
3.062000000000012,10.229766845703123,0.6147430419921875,9.539657592773438
3.072999999999986,5.8296661376953125,-0.5479003906250001,6.412109375000001
3.0819999999999936,3.751412963867188,-1.520782470703125,4.799212646484375
3.0919999999999845,5.11832275390625,0.1496856689453125,5.787646484375
3.1020000000000323,8.57978515625,-0.0801513671875,7.599874877929688
3.112000000000023,9.87342224121094,-0.34273681640625,8.945550537109376
3.122000000000014,6.7506591796875,0.5987426757812501,8.689694213867188
3.132000000000005,3.8077880859375,-0.2346221923828125,6.661386108398438
3.141999999999996,4.01474609375,-0.25361328125,6.205151367187501
3.151999999999987,6.689199829101563,1.3704986572265625,5.6716064453125
3.1619999999999777,9.057852172851565,0.5034881591796876,7.658193969726563
3.173000000000002,8.428753662109376,0.1487884521484375,8.904129028320312
3.1829999999999927,4.6961822509765625,0.7627838134765625,8.593692016601564
3.192999999999984,3.4708831787109378,-0.668426513671875,7.47501220703125
3.203000000000032,5.276382446289063,0.075067138671875,6.513494873046875
3.2130000000000223,7.882348632812499,0.56524658203125,6.675741577148438
3.223000000000013,9.17972412109375,-0.6645385742187501,7.4684326171875
3.233000000000004,6.905279541015625,-0.4311126708984375,7.916592407226563
3.242999999999995,5.1039672851562505,-0.11783447265625,7.878012084960938
3.252999999999986,5.129537963867188,-0.90618896484375,6.79312744140625
3.2630000000000337,6.415997314453126,0.1389190673828125,6.836642456054688
3.273000000000025,7.972219848632813,0.5926116943359375,7.178482055664063
3.2830000000000155,6.759780883789063,-0.1736114501953125,7.859768676757813
3.2930000000000064,4.325930786132813,0.052935791015625,6.738546752929688
3.3029999999999973,2.6372192382812503,-0.4819549560546875,5.580838012695313
3.312999999999996,8.398696899414062,-0.0007476806640625,8.184561157226563
3.322999999999986,13.016223144531253,1.732525634765625,10.22632751464844
3.334000000000003,9.151760864257811,1.021630859375,9.040206909179688
3.343999999999994,2.6581542968750003,-0.3102874755859375,5.9467529296875
3.353999999999985,-0.834112548828125,-0.6153411865234375,4.323687744140625
3.3640000000000327,5.95213623046875,-0.8146728515625,7.871282958984375
3.374000000000024,11.134759521484376,-0.4978057861328125,9.9208251953125
3.3840000000000146,10.183560180664063,0.6945953369140625,10.032379150390623
3.394000000000005,6.0209228515625,0.22789306640625,6.951934814453126
3.4039999999999964,2.302108764648437,-0.1806396484375,5.049386596679688
3.413999999999988,4.859027099609375,0.6941467285156251,4.391876220703125
3.423999999999978,9.427804565429687,0.4472625732421875,7.966537475585938
3.434000000000026,10.089202880859377,0.5163482666015625,9.411505126953124
3.444000000000017,6.654507446289063,0.8827117919921875,9.19049072265625
3.454000000000008,2.571124267578125,-0.6226684570312501,7.162033081054688
3.465000000000032,3.988876342773438,-0.3576904296875,5.519976806640625
3.4750000000000227,7.084872436523438,-0.264678955078125,5.9578186035156255
3.4850000000000136,9.96329345703125,-0.4103271484375,6.702658081054688
3.4950000000000045,8.901437377929689,-0.1807891845703125,8.829510498046876
3.5049999999999955,5.241989135742188,-0.2926422119140625,8.244525146484376
3.5149999999999864,3.486285400390625,-1.06888427734375,7.552322387695313
3.5249999999999773,4.412811279296875,-0.318212890625,6.857427978515625
3.535000000000025,6.924868774414063,0.473431396484375,7.069320678710938
3.545000000000016,8.5139892578125,0.5763122558593751,8.092596435546875
3.555000000000007,7.163528442382813,0.9927703857421876,8.218505859375
3.5649999999999906,5.741589355468751,0.6936981201171876,7.303344726562501
3.574999999999996,6.0544189453125,-0.149835205078125,6.55386962890625
3.584999999999986,6.408819580078125,0.61728515625,5.654110717773438
3.596000000000004,7.638006591796875,0.252117919921875,7.518228149414063
3.6059999999999945,6.7907348632812505,-0.219818115234375,8.445950317382813
3.6159999999999854,5.034432983398438,-0.1466949462890625,8.825921630859376
3.626000000000033,5.29776611328125,-0.6059204101562501,7.735354614257813
3.636000000000024,5.546444702148438,-0.5851348876953125,5.777178955078125
3.646000000000015,4.872784423828126,0.353802490234375,3.928762817382813
3.656000000000006,7.759878540039063,0.3624755859375,6.330911254882813
3.665999999999997,12.694720458984376,0.3572418212890625,12.5718017578125
3.675999999999995,9.08282470703125,0.45758056640625,11.03382263183594
3.6859999999999857,1.21722412109375,-1.2852630615234375,5.2475219726562505
3.6960000000000255,0.9045440673828126,-0.3410919189453125,4.189553833007813
3.709999999999986,5.724392700195313,1.1026794433593752,5.88394775390625
3.721000000000004,10.616018676757813,0.3560455322265625,10.19522399902344
3.7280000000000086,10.693478393554688,0.8697021484375,10.975503540039064
3.737000000000023,5.258587646484376,-0.32359619140625,8.383593750000001
3.745999999999981,3.193045043945313,-1.986886596679688,4.244134521484376
3.756000000000036,4.873831176757813,-0.0825439453125,4.651919555664063
3.766999999999996,8.547186279296875,0.292193603515625,6.008212280273438
3.776999999999987,10.188644409179688,-0.4978057861328125,10.070660400390626
3.7869999999999777,6.8224365234375,0.095703125,9.7509521484375
3.7970000000000255,3.853546142578125,-0.33974609375,7.763018798828125
3.807000000000016,3.9132110595703127,-0.6969879150390625,5.414254760742188
3.8170000000000073,6.345565795898438,1.550540161132813,4.7974182128906255
3.826999999999991,9.266754150390623,0.8381500244140626,6.280517578125001
3.836999999999996,8.98951416015625,-0.014654541015625,9.150265502929688
3.846999999999987,5.36236572265625,1.0699310302734375,9.325671386718753
3.857000000000028,3.4687896728515626,-0.202471923828125,8.486026000976564
3.867000000000018,4.409521484375,-0.1136474609375,6.388333129882813
3.877999999999986,6.776828002929688,0.93011474609375,6.279769897460938
3.8880000000000337,8.769696044921876,-0.6352294921875,7.169061279296876
3.898000000000025,7.50850830078125,-0.509619140625,7.984033203125
3.908000000000016,6.136962890625001,-0.02572021484375,8.46195068359375
3.9180000000000064,5.6412506103515625,-0.9996490478515626,6.681723022460938
3.927999999999997,6.342874145507813,-0.5036376953125,6.492260742187501
3.9379999999999953,7.265811157226563,0.590069580078125,6.438726806640625
3.947999999999986,6.432894897460938,-0.2583984375,8.243777465820314
3.958000000000027,5.643643188476563,0.4819549560546875,8.721246337890626
3.96800000000001,5.2355590820312505,0.5573211669921876,8.258432006835939
3.9780000000000086,6.190347290039063,-0.569732666015625,6.504672241210938
3.988,5.591006469726563,0.12022705078125,4.256097412109376
3.9979999999999976,6.337341308593751,0.533245849609375,5.6141845703125
4.009000000000015,10.629476928710938,0.416607666015625,9.659136962890626
4.0190000000000055,9.314605712890623,1.1793914794921876,11.175881958007814
4.028999999999996,5.20086669921875,0.1368255615234375,8.289984130859375
4.038999999999987,0.6436035156250001,-1.2966278076171875,5.28221435546875
4.048999999999978,3.5136505126953126,-0.361578369140625,5.506967163085938
4.059000000000026,9.174191284179688,-0.6781463623046875,8.663674926757814
4.069000000000017,10.713366699218753,-0.461468505859375,9.798205566406253
4.079000000000008,8.14014892578125,0.98035888671875,8.289984130859375
4.088999999999999,4.2770324707031255,0.21832275390625,5.97247314453125
4.098999999999997,4.05302734375,0.0100189208984375,4.488327026367188
4.108999999999988,6.71776123046875,1.1115020751953126,6.319247436523438
4.119000000000028,8.821136474609375,0.2014251708984375,8.946298217773439
4.129000000000019,7.9445556640625,0.7702606201171875,9.664370727539064
4.13900000000001,4.876522827148438,0.441131591796875,8.173345947265625
4.149000000000001,4.600927734375,-0.6433044433593751,5.844320678710938
4.158999999999992,6.0121002197265625,-0.72196044921875,5.260830688476563
4.168999999999983,7.847058105468751,-0.0490478515625,6.0592041015625
4.180000000000007,8.8704833984375,-0.7931396484375001,8.141943359375
4.189999999999991,6.616226196289063,-0.335858154296875,9.361859130859376
4.199999999999996,4.553375244140625,-0.418701171875,8.262918090820314
4.209999999999987,4.195684814453125,-0.9553863525390626,7.397552490234376
4.220000000000027,5.834301757812501,0.3506622314453125,6.341079711914063
4.230000000000011,7.5162841796875,1.0723236083984375,7.0533203125
4.240000000000009,8.093942260742189,0.512908935546875,7.833450317382813
4.25,6.993804931640626,1.134381103515625,7.755093383789063
4.259999999999991,6.126794433593751,0.356195068359375,7.5043212890625
4.269999999999982,5.779421997070313,0.0372344970703125,6.036923217773438
4.280000000000037,6.29906005859375,0.5639007568359375,7.092050170898438
4.2900000000000205,6.862213134765626,-0.0913665771484375,7.619763183593751
4.300000000000011,6.043054199218751,-0.68607177734375,8.826370239257812
4.310000000000002,5.829217529296876,-0.13936767578125,8.067324829101564
4.321000000000026,4.774987792968751,-0.5718261718750001,6.127243041992188
4.331000000000017,3.356637573242188,-0.1945465087890625,3.086126708984376
4.341000000000008,11.358465576171875,0.754559326171875,9.388327026367188
4.350999999999999,13.426998901367188,-0.0729736328125,12.393405151367189
4.360999999999997,3.7240478515625,-0.4056915283203125,6.708041381835938
4.370999999999981,1.3494140625000002,-1.018341064453125,5.538668823242188
4.381000000000036,3.3149169921875004,0.105572509765625,5.368646240234376
4.39100000000002,8.274880981445314,0.9274230957031252,8.039810180664062
4.4010000000000105,10.501922607421877,1.2043640136718752,10.4986328125
4.411000000000001,7.304690551757813,0.5794525146484375,9.617266845703126
4.420999999999992,4.0685791015625,-1.2910949707031252,6.317303466796876
4.430999999999983,4.405633544921876,-1.0338928222656252,4.66253662109375
4.442000000000007,7.20823974609375,0.6615478515625001,5.0550689697265625
4.451999999999991,9.631771850585938,0.071478271484375,7.9795471191406255
4.461999999999996,8.187850952148438,0.0530853271484375,9.325372314453126
4.473000000000013,5.4706298828125,-0.329278564453125,9.056506347656253
4.482000000000028,3.4548828125,-1.1931488037109377,6.496597290039063
4.492000000000019,5.535528564453125,0.4055419921875,5.333056640625
4.5020000000000095,8.1239990234375,1.146792602539063,5.914004516601563
4.5120000000000005,8.364303588867188,0.1045257568359375,7.604660034179688
4.521999999999991,7.197024536132813,0.430963134765625,9.5475830078125
4.531999999999982,4.232321166992188,0.1993316650390625,8.535671997070313
4.542000000000037,4.028652954101563,-0.4275238037109375,7.389926147460938
4.552000000000021,6.498989868164063,0.6884643554687501,6.386688232421876
4.562000000000012,7.5593505859375005,0.4248321533203125,6.650469970703125
4.572999999999986,8.274581909179688,-0.3895416259765625,7.509555053710938
4.583000000000027,6.039315795898438,0.2005279541015625,8.256637573242188
4.593000000000011,5.837442016601563,-0.5031890869140625,7.608398437500001
4.603000000000009,6.467886352539063,-0.8744873046875,6.733612060546876
4.613,6.506167602539063,0.1182830810546875,6.524111938476563
4.6229999999999976,7.271044921875,0.115740966796875,7.312765502929688
4.632999999999981,5.6183715820312505,-0.01614990234375,8.611038208007812
4.643000000000036,5.439227294921875,0.4586273193359375,7.950985717773438
4.65300000000002,6.207693481445313,-0.433056640625,7.63292236328125
4.663000000000011,5.398553466796876,-0.3988128662109375,4.438082885742188
4.673000000000002,5.204605102539063,0.7675689697265625,4.404437255859375
4.682999999999993,10.547979736328124,0.8312713623046876,9.964190673828126
4.692999999999984,11.24810791015625,1.7159271240234375,11.951675415039062
4.703000000000031,4.873831176757813,0.675604248046875,8.675637817382814
4.713000000000022,0.2139862060546875,-1.1101562500000002,4.449896240234375
4.723000000000013,2.941375732421875,-0.9293670654296876,4.743734741210938
4.733000000000004,9.34585876464844,-1.00069580078125,8.027099609375
4.744000000000028,11.377755737304687,-1.11793212890625,10.523904418945314
4.754000000000019,8.150317382812501,0.7020721435546875,9.56552734375
4.76400000000001,3.5423614501953127,0.1303955078125,6.593347167968751
4.774000000000001,3.1463897705078128,-0.675604248046875,3.934445190429688
4.783999999999992,7.174145507812501,0.674407958984375,5.654559326171875
4.793999999999983,9.401187133789064,0.480010986328125,7.991061401367188
4.804000000000038,8.989065551757813,0.7119415283203125,10.299600219726564
4.814000000000021,4.992413330078126,1.2631317138671876,8.480493164062501
4.824000000000012,3.55357666015625,-0.6045745849609375,6.220404052734375
4.834000000000003,5.939724731445313,-0.4843475341796875,5.1323791503906255
4.843999999999994,7.49534912109375,0.2917449951171875,5.698971557617188
4.853999999999985,8.955718994140625,-0.420794677734375,8.09110107421875
4.864000000000033,7.017880249023438,-0.344830322265625,9.214117431640624
4.875,4.5985351562500005,-0.3146240234375,8.754443359375001
4.884999999999991,4.80010986328125,-1.1267547607421875,7.172201538085938
4.894999999999982,5.09140625,0.064300537109375,6.434988403320313
4.905000000000037,7.685559082031251,0.9595733642578126,6.570767211914063
4.9150000000000205,7.82193603515625,0.0919647216796875,8.11383056640625
4.925000000000011,6.733163452148438,0.7974761962890625,8.010650634765625
4.935000000000002,6.265563964843751,0.6784454345703126,7.709634399414063
4.944999999999993,6.056063842773438,-0.2047149658203125,6.434689331054688
4.954999999999984,6.617721557617188,0.729437255859375,6.048886108398438
4.965000000000032,6.633123779296875,0.0372344970703125,7.713372802734375
4.975000000000023,6.223693847656251,-0.44920654296875,8.321835327148438
4.985000000000014,5.457022094726563,0.0985443115234375,9.027346801757814
4.9950000000000045,6.040362548828125,-0.600537109375,6.983486938476563
5.006000000000036,6.03587646484375,-0.6776977539062501,5.261129760742188
5.01600000000002,4.357632446289063,0.265277099609375,3.527706909179688
5.0260000000000105,8.302694702148438,0.3028106689453125,7.704998779296876
5.036000000000001,14.136846923828124,0.29967041015625,14.7251220703125
5.045999999999992,6.049484252929688,0.076861572265625,8.865997314453125
5.055999999999983,-0.0992919921875,-1.7585449218750002,4.068130493164063
5.066000000000031,2.516842651367188,0.5262176513671876,4.34073486328125
5.076000000000022,6.911709594726563,1.761834716796875,6.631927490234376
5.086000000000013,12.253439331054688,0.6030792236328125,11.03262634277344
5.096000000000004,9.116769409179687,0.7888031005859376,11.001373291015623
5.1059999999999945,3.94296875,-0.9347503662109377,7.08861083984375
5.1159999999999854,2.988180541992188,-1.7929382324218752,4.201068115234375
5.126000000000033,5.186959838867188,0.8695526123046876,4.104318237304688
5.136000000000024,10.252346801757811,0.22310791015625,7.698867797851563
5.146000000000015,10.129876708984376,-0.7753448486328126,10.1457275390625
5.156000000000006,5.711383056640625,0.2385101318359375,9.690390014648438
5.165999999999997,3.480453491210938,-0.8738891601562501,6.874774169921875
5.177000000000021,3.8215454101562494,-0.459075927734375,4.838092041015625
5.187000000000012,7.8718811035156255,1.708001708984375,4.70859375
5.197000000000003,9.379504394531253,0.1099090576171875,7.493704223632813
5.206999999999994,7.978799438476563,0.1861724853515625,9.077142333984376
5.2169999999999845,5.112640380859375,1.0166961669921877,9.715811157226565
5.227000000000032,3.0409667968750003,-0.7753448486328126,7.693185424804688
5.237000000000023,5.301055908203125,0.1580596923828125,6.160888671875001
5.247000000000014,7.269100952148438,0.8641693115234376,6.581982421875001
5.257000000000005,8.483932495117188,-0.5658447265625001,7.010253906250001
5.266999999999996,7.222445678710938,-0.0710296630859375,8.650964355468751
5.276999999999987,5.674746704101563,-0.0387298583984375,8.011398315429688
5.286999999999978,6.2362548828125,-1.2163269042968752,6.682321166992188
5.298000000000002,6.543850708007813,0.0650482177734375,6.170608520507813
5.307999999999993,6.878512573242188,0.5976959228515626,6.551776123046875
5.317999999999984,6.620114135742188,-0.401953125,8.699563598632814
5.328000000000031,5.131481933593751,0.5130584716796875,8.772238159179688
5.338000000000022,5.492761230468751,0.1191802978515625,8.118914794921876
5.348000000000013,7.16397705078125,-0.4390380859375,6.612039184570313
5.358000000000004,6.934738159179688,0.9616668701171877,5.383749389648438
5.367999999999995,5.193988037109375,0.0785064697265625,4.608105468750001
5.377999999999986,5.368048095703125,-0.2086029052734375,6.571365356445313
5.388000000000034,9.398495483398438,1.0316497802734377,10.55426025390625
5.398000000000025,10.58057861328125,0.80091552734375,11.403924560546876
5.408000000000016,6.238198852539063,0.0055328369140625,8.380154418945313
5.418000000000006,-0.1287506103515625,-0.3763824462890625,4.389334106445313
5.427999999999997,2.399456787109376,-1.6299438476562502,4.7331176757812505
5.437999999999995,9.110339355468753,-1.13228759765625,9.221145629882812
5.449000000000012,11.959451293945314,-0.15491943359375,10.121353149414062
5.459000000000003,9.161929321289064,0.025421142578125,8.780462646484375
5.468999999999994,3.975119018554688,0.3186614990234375,5.642147827148438
5.478999999999985,2.0972442626953125,0.5770599365234376,4.030895996093751
5.490000000000009,6.293975830078126,0.3757843017578125,6.652862548828126
5.499000000000024,9.5212646484375,1.2359161376953125,9.193780517578126
5.509000000000015,9.102264404296877,1.070977783203125,10.029537963867188
5.5190000000000055,5.67100830078125,0.2507720947265625,7.807879638671875
5.528999999999996,3.251364135742188,-0.0731231689453125,5.883648681640626
5.538999999999987,5.190997314453125,-0.4245330810546875,4.994656372070313
5.548999999999978,7.832104492187501,-0.6811370849609375,5.935687255859375
5.559000000000026,9.80897216796875,-0.5854339599609375,8.171252441406251
5.569000000000017,7.7268310546875005,-0.5970977783203125,9.220846557617188
5.579000000000008,4.139309692382813,-0.98394775390625,8.55047607421875
5.590000000000032,3.52666015625,-0.6048736572265625,7.213323974609375
5.600000000000023,4.725491333007813,0.0581695556640625,6.318051147460938
5.610000000000014,8.165270996093751,0.65018310546875,7.165921020507813
5.6200000000000045,8.560494995117189,1.116885375976563,8.0294921875
5.629999999999996,7.127639770507813,1.057220458984375,8.02052001953125
5.639999999999986,5.9730712890625,0.666632080078125,7.207791137695313
5.649999999999977,5.179483032226563,0.5016937255859375,6.039913940429688
5.660000000000025,6.781463623046876,0.40733642578125,6.453530883789063
5.670000000000016,7.12210693359375,0.0186920166015625,7.856927490234375
5.680000000000007,6.195880126953125,-0.3617279052734375,8.795266723632814
5.689999999999991,5.618222045898438,-0.6646881103515625,8.67847900390625
5.699999999999996,5.471676635742188,-0.9592742919921876,7.371234130859375
5.709999999999987,6.974514770507813,-0.6587066650390625,5.845816040039063
5.720000000000027,6.4901672363281255,-0.35589599609375,5.441619873046875
5.7309999999999945,3.9067810058593753,0.312530517578125,3.958819580078125
5.7409999999999854,8.98712158203125,0.8421875000000001,9.664370727539064
5.751000000000033,13.037158203125,0.6198272705078125,13.668948364257814
5.761000000000024,5.041760253906251,-0.24822998046875,7.23336181640625
5.771000000000015,0.896917724609375,-0.9740783691406252,4.84317626953125
5.781000000000006,2.071673583984375,0.8525054931640625,4.512402343750001
5.790999999999997,7.916293334960938,1.1913543701171876,8.560794067382814
5.800999999999995,12.01358337402344,0.7612884521484375,10.835986328125
5.810999999999986,8.364004516601563,0.380419921875,9.432888793945311
5.821000000000026,4.7528564453125,-1.4690429687500002,5.9612579345703125
5.831000000000017,3.01524658203125,-1.350161743164063,4.056765747070313
5.841000000000008,5.851199340820313,0.38460693359375,5.3175048828125
5.850999999999999,9.917385864257811,-0.288604736328125,8.720648193359375
5.862000000000023,8.825921630859376,-0.3745880126953125,10.051220703125
5.870999999999981,6.142944335937501,0.203070068359375,8.827716064453126
5.882000000000005,3.1703155517578128,-0.8740386962890626,6.229376220703125
5.891999999999996,4.921383666992188,0.4689453125,4.676144409179688
5.901999999999987,8.041305541992188,1.5269134521484375,5.4987426757812505
5.911999999999978,8.956915283203125,0.2373138427734375,7.80399169921875
5.9220000000000255,8.01334228515625,0.6829315185546876,9.642239379882811
5.932000000000016,4.026409912109376,0.3704010009765625,9.206192016601562
5.942000000000007,3.330767822265625,-0.6751556396484375,7.129882812500001
5.951999999999991,5.324234008789063,0.42288818359375,6.488821411132813
5.961999999999996,7.786196899414063,0.262286376953125,6.468035888671875
5.971999999999987,9.068917846679687,-0.610107421875,7.4771057128906255
5.982000000000028,7.015786743164063,-0.1936492919921875,8.383593750000001
5.992999999999995,5.729626464843751,-0.48330078125,7.378411865234375
6.0020000000000095,5.719308471679688,-1.0726226806640626,6.914401245117188
6.013000000000034,6.09329833984375,0.37742919921875,6.194833374023438
6.023000000000025,7.316204833984376,0.3428863525390625,7.408917236328126
6.033000000000016,6.419287109375,0.098992919921875,8.779415893554688
6.043000000000006,5.337841796875001,0.7865600585937501,8.218057250976564
6.052999999999997,5.821292114257813,-0.114544677734375,7.712774658203125
6.062999999999995,5.42816162109375,-0.3736907958984375,4.334005737304688
6.072999999999986,4.613787841796875,0.658856201171875,3.5628479003906253
6.083000000000027,10.605850219726562,0.8889923095703126,9.39027099609375
6.093000000000011,12.4784912109375,1.477716064453125,13.30751953125
6.103000000000009,5.244680786132813,0.6418090820312501,9.289483642578126
6.113,-0.6515289306640626,-1.6296447753906251,3.948052978515625
6.1229999999999976,2.2286865234375,-1.3761810302734376,4.155010986328126
6.132999999999981,9.284848022460938,-0.9141143798828124,7.822683715820313
6.1440000000000055,11.942852783203126,-1.20765380859375,10.932437133789064
6.153999999999996,8.743676757812501,0.787457275390625,10.133316040039062
6.163999999999987,3.2562988281250003,0.4996002197265625,6.72135009765625
6.173999999999978,2.8766265869140626,-0.6120513916015625,3.718215942382813
6.184000000000026,6.708041381835938,1.1518768310546876,4.741940307617188
6.194000000000017,9.852038574218753,0.7991210937500001,8.2675537109375
6.204000000000008,9.428402709960938,0.7765411376953125,10.478445434570313
6.213999999999999,4.848260498046876,1.2918426513671877,9.23938903808594
6.223999999999997,3.18870849609375,-0.51380615234375,6.181823730468751
6.233999999999988,5.2853546142578125,-0.7212127685546875,4.814465332031251
6.244000000000028,7.931097412109375,0.1526763916015625,5.4371337890625
6.254000000000019,9.382794189453126,-0.6078643798828125,7.713522338867188
6.26400000000001,7.499685668945313,-0.8394958496093751,9.563882446289064
6.274000000000001,4.57281494140625,-0.2663238525390625,8.780911254882813
6.285000000000025,4.147384643554688,-1.42059326171875,7.233660888671875
6.295000000000016,5.2494659423828125,-0.1658355712890625,6.300555419921875
6.305000000000007,7.32786865234375,1.1752044677734377,6.573458862304688
6.314999999999991,8.065679931640625,0.36546630859375,8.233609008789063
6.324999999999996,6.791482543945313,1.1240631103515626,8.075698852539062
6.334999999999987,6.0807373046875,1.0733703613281251,7.950985717773438
6.345000000000027,6.375772094726563,-0.1257598876953125,6.1537109375000005
6.355000000000011,6.4243713378906255,0.7304840087890625,5.9730712890625
6.365000000000009,6.893914794921876,0.38819580078125,7.35777587890625
6.375,6.169412231445313,-0.67291259765625,8.512643432617189
6.384999999999991,5.48319091796875,-0.1208251953125,9.172695922851563
6.394999999999982,5.94256591796875,-0.7463348388671875,7.0712646484375
6.405000000000037,5.6412506103515625,-0.9009552001953126,5.4553771972656255
6.4150000000000205,3.942520141601563,0.6826324462890625,2.270407104492188
6.425000000000011,9.180471801757813,0.6446502685546875,8.557055664062501
6.435999999999986,15.179861450195313,0.2050140380859375,15.570748901367187
6.446000000000026,5.290289306640625,0.3505126953125,9.011795043945312
6.456000000000017,-0.8942260742187501,-1.7008239746093752,3.836349487304688
6.466000000000008,1.9290161132812504,-0.004486083984375,3.1206695556640627
6.475999999999999,7.554415893554688,1.1031280517578126,6.700564575195313
6.485999999999997,13.328305053710938,0.3608306884765625,11.144030761718753
6.495999999999981,9.09598388671875,0.746185302734375,12.0334716796875
6.506000000000036,3.454733276367188,-0.841290283203125,7.227529907226563
6.51600000000002,2.1600494384765625,-2.213433837890625,3.946109008789063
6.5260000000000105,5.352496337890625,0.3087921142578125,3.5902130126953127
6.536000000000001,10.456314086914062,0.5459564208984375,7.184912109375
6.545999999999992,10.620953369140626,-0.6727630615234376,10.5369140625
6.555999999999983,6.187506103515625,0.69384765625,10.127334594726562
6.566000000000031,2.8368499755859378,-0.7408020019531251,7.117022705078125
6.576000000000022,3.660345458984376,-0.4708892822265625,4.6094512939453125
6.586999999999996,7.335794067382813,2.1305908203125004,4.202862548828126
6.596999999999987,9.603359985351563,0.3727935791015625,7.5159851074218755
6.607000000000028,8.492456054687501,0.145947265625,9.414047241210938
6.617000000000019,4.85753173828125,0.92413330078125,10.098175048828123
6.6270000000000095,3.331515502929688,-0.8079437255859375,7.663128662109376
6.6370000000000005,4.860073852539063,0.1302459716796875,5.810675048828125
6.646999999999991,7.43553466796875,0.9018524169921877,6.013446044921875
6.656999999999982,8.91055908203125,-0.8015136718750001,7.054067993164063
6.667000000000037,7.133770751953126,-0.445318603515625,9.056057739257811
6.677000000000021,5.518331909179688,0.1697235107421875,8.211029052734375
6.687000000000012,5.790487670898438,-1.3181610107421875,7.136013793945313
6.697999999999986,6.704901123046875,-0.0533843994140625,5.618969726562501
6.708000000000027,7.019375610351563,0.6889129638671876,6.340332031250001
6.718000000000011,6.805987548828125,-0.19439697265625,8.53253173828125
6.728000000000009,5.155856323242188,0.8028594970703126,8.948840332031251
6.738,5.4490966796875,0.31402587890625,8.39735107421875
6.7479999999999976,7.053021240234376,-0.6769500732421876,6.211880493164063
6.757999999999981,5.240792846679688,0.249127197265625,4.087271118164063
6.768000000000036,5.307934570312501,0.442327880859375,4.3014068603515625
6.77800000000002,10.194177246093751,0.4203460693359375,10.634561157226564
6.788000000000011,10.957260131835938,1.08682861328125,11.899636840820314
6.798000000000002,6.116177368164063,-0.5145538330078125,9.41898193359375
6.807999999999993,0.0064300537109375,-1.5746154785156252,4.230078125
6.817999999999984,1.4575286865234376,-0.0408233642578125,4.2647705078125
6.828000000000031,8.8848388671875,-0.5809478759765625,8.262918090820314
6.838000000000022,12.173587036132814,-0.2130889892578125,10.747909545898438
6.848999999999997,9.1001708984375,1.13587646484375,9.561639404296876
6.858999999999988,4.1947875976562505,0.19798583984375,6.271694946289063
6.869000000000028,2.476318359375,0.2296875,3.6044189453125
6.879000000000019,5.98563232421875,1.1533721923828126,5.2983642578125005
6.89100000000002,9.737344360351564,0.4015045166015625,9.234603881835938
6.899000000000001,9.223089599609375,0.5535827636718751,10.4208740234375
6.908999999999992,5.272344970703125,0.506927490234375,8.899493408203126
6.918999999999983,3.199923706054688,-0.9510498046875,5.604464721679688
6.929000000000038,5.275335693359375,-0.755157470703125,5.1682678222656255
6.939000000000021,7.938873291015626,-0.204266357421875,5.16258544921875
6.949000000000012,9.695623779296875,-0.9763214111328126,7.975659179687501
6.959000000000003,7.993453979492188,-0.42169189453125,9.11273193359375
6.968999999999994,4.301107788085938,-0.39417724609375,8.650814819335938
6.978999999999985,3.8801635742187504,-1.09041748046875,7.531088256835938
6.990000000000009,4.6214141845703125,0.5202362060546876,6.393566894531251
7.0,7.104461669921876,1.184326171875,7.049581909179688
7.009999999999991,8.548532104492189,0.8125793457031251,7.900442504882813
7.019999999999982,6.937878417968751,1.212738037109375,8.375369262695314
7.030000000000037,6.663479614257813,0.563153076171875,7.194781494140625
7.0400000000000205,5.648129272460938,-0.11903076171875,6.205899047851563
7.050000000000011,6.446054077148438,0.6687255859375001,5.771795654296875
7.060000000000002,7.146929931640625,-0.031402587890625,7.799057006835938
7.069999999999993,6.248068237304688,-0.9374420166015626,8.8058837890625
7.079999999999984,5.551678466796876,-0.3982147216796875,8.829360961914062
7.090000000000032,5.486630249023438,-1.128848266601563,7.608547973632813
7.100000000000023,6.505120849609376,-0.748876953125,5.774188232421875
7.110999999999997,4.919140625000001,0.4975067138671875,3.955978393554688
7.1200000000000045,5.10576171875,0.6926513671875001,4.125851440429688
7.129999999999996,13.794857788085938,0.7271942138671875,13.951870727539063
7.14100000000002,10.188046264648438,0.8365051269531251,11.875860595703124
7.1510000000000105,1.2909454345703126,-1.2353179931640623,5.627044677734375
7.161000000000001,0.892132568359375,-0.8749359130859375,4.105065917968751
7.170999999999992,4.054971313476563,1.344329833984375,5.200717163085938
7.180999999999983,10.895950317382812,0.82484130859375,9.24537048339844
7.191000000000031,11.59144287109375,0.8800201416015626,11.864944458007812
7.201000000000022,5.910415649414063,0.00777587890625,8.39735107421875
7.211000000000013,3.2383544921875003,-2.5548248291015625,5.2804199218750005
7.221000000000004,3.5800445556640628,-0.720465087890625,3.723748779296875
7.230999999999994,7.867095947265626,0.7790832519531251,5.955575561523438
7.2409999999999854,10.937820434570312,-0.7571014404296875,9.70728759765625
7.251000000000033,7.56712646484375,0.1676300048828125,9.785345458984375
7.261000000000024,4.550234985351563,-0.04844970703125,8.403182983398438
7.271000000000015,3.187063598632813,-1.0699310302734375,5.367001342773438
7.281999999999982,5.833554077148438,1.5587646484375002,4.667321777343751
7.292000000000037,9.032131958007811,1.3936767578125,5.930303955078125
7.302000000000021,8.594140625000001,-0.06639404296875,8.950933837890625
7.312000000000012,6.6202636718750005,1.0280609130859375,9.923068237304689
7.322000000000003,3.150875854492188,-0.019140625,8.82801513671875
7.331999999999994,4.104019165039063,-0.7568023681640625,6.2697509765625
7.343000000000011,6.929055786132813,0.98634033203125,6.053970336914063
7.352000000000032,8.4182861328125,-0.36307373046875,6.399398803710938
7.362000000000023,8.617767333984375,-0.8239440917968751,8.125344848632814
7.372000000000014,5.611941528320313,0.0252716064453125,8.663375854492188
7.382000000000005,5.433096313476563,-1.09759521484375,7.308428955078125
7.391999999999996,6.141000366210938,-0.9033477783203124,6.64359130859375
7.401999999999987,6.657348632812501,0.8559448242187501,6.189151000976563
7.413000000000011,7.374673461914063,0.1538726806640625,7.817749023437501
7.423000000000002,5.744430541992188,0.39058837890625,8.641244506835939
7.432999999999993,5.242886352539063,0.9511993408203124,7.962350463867188
7.442999999999984,5.703457641601563,-0.7968780517578126,6.351995849609375
7.453000000000031,4.622012329101563,0.0154022216796875,3.5797454833984377
7.463000000000022,8.287591552734376,1.5438110351562502,6.63402099609375
7.473000000000013,12.677673339843752,0.90738525390625,12.142184448242189
7.483000000000004,7.736849975585938,0.9885833740234377,10.8204345703125
7.492999999999995,1.3984619140625,-0.8290283203125001,6.302798461914063
7.502999999999986,0.2229583740234375,-2.080795288085937,3.618624877929688
7.513000000000034,6.772341918945313,-0.8299255371093751,6.477157592773438
7.523000000000025,11.647518920898438,-0.605023193359375,9.725531005859375
7.533000000000015,10.146923828125,-0.17166748046875,10.5117919921875
7.543000000000006,5.377020263671875,1.0234252929687502,8.357574462890625
7.552999999999997,2.3560913085937503,-0.1643402099609375,4.554721069335938
7.562999999999995,5.182324218750001,0.1984344482421875,4.1738525390625005
7.574000000000012,9.367092895507811,1.490576171875,6.882550048828126
7.584000000000003,9.433486938476562,0.6084625244140626,9.89869384765625
7.593999999999994,6.863858032226563,0.8529541015625001,9.898095703125
7.603999999999985,2.7776336669921875,0.3796722412109375,7.279568481445313
7.614000000000033,4.403240966796876,-1.06290283203125,5.287747192382813
7.624000000000024,7.596585083007813,-0.3123809814453125,5.29417724609375
7.6340000000000146,8.695974731445313,-0.0952545166015625,6.394165039062501
7.644000000000005,9.147424316406251,-1.0395751953125,8.906820678710938
7.653999999999996,5.112191772460938,-0.5988922119140625,9.032131958007811
7.663999999999987,4.024615478515625,-0.8830108642578126,7.589108276367188
7.673999999999978,5.0306945800781255,-0.8436828613281251,7.037619018554688
7.684000000000026,6.196328735351563,0.7950836181640626,6.442166137695313
7.694999999999993,8.030538940429688,1.28182373046875,7.853637695312501
7.704999999999984,6.931448364257813,0.6096588134765626,8.280712890625
7.715000000000032,6.35947265625,1.2412994384765623,7.772439575195313
7.725000000000023,6.427212524414063,0.26378173828125,6.646133422851563
7.735000000000014,6.561645507812501,0.2145843505859375,5.882901000976563
7.745000000000003,7.030740356445313,0.826336669921875,6.666021728515625
7.7549999999999955,6.314013671875,-0.317913818359375,8.549578857421876
7.764999999999986,5.470928955078126,-0.6497344970703125,8.67847900390625
7.774999999999977,5.6741485595703125,-0.5462554931640625,8.441464233398438
7.785000000000025,6.34691162109375,-1.1590545654296875,6.3825012207031255
7.795000000000016,5.4508911132812505,-0.357989501953125,4.4015960693359375
7.807000000000016,3.5917083740234377,0.641510009765625,3.215475463867188
7.814999999999991,12.420919799804688,0.349615478515625,11.996536254882812
7.824999999999996,13.10355224609375,0.5926116943359375,14.132659912109377
7.834999999999987,2.514151000976563,-0.303558349609375,6.01553955078125
7.845000000000027,0.012261962890625,-1.2677673339843751,3.7485717773437504
7.855999999999994,3.224746704101563,1.293338012695313,4.315313720703125
7.8659999999999854,9.23819274902344,1.3100860595703123,8.354583740234375
7.876000000000033,12.739431762695313,0.5479003906250001,12.372918701171876
7.886000000000024,6.860418701171875,0.5612091064453125,9.755587768554689
7.896000000000015,3.1490814208984377,-1.97208251953125,5.828320312500001
7.906999999999982,3.351702880859375,-1.53304443359375,3.4139099121093754
7.915999999999997,6.585720825195313,0.8288787841796875,4.841531372070313
7.925999999999995,11.293118286132811,-0.620574951171875,8.619412231445313
7.935999999999986,8.762667846679689,-0.6981842041015626,10.73489990234375
7.946000000000026,5.022320556640626,0.304754638671875,8.964242553710939
7.956000000000017,2.7898956298828126,-1.2203643798828123,6.305938720703126
7.966000000000008,4.726986694335938,0.6108551025390625,4.3129211425781255
7.975999999999999,8.618215942382813,2.1714141845703128,5.287298583984375
7.985999999999997,9.260174560546876,0.018841552734375,8.344265747070313
7.997000000000014,7.5384155273437505,1.0205841064453125,9.758877563476563
8.007000000000005,3.816162109375,0.78775634765625,9.374868774414065
8.016999999999996,3.492416381835938,-0.7995697021484376,6.697872924804688
8.026999999999987,6.101821899414063,0.8230468750000001,6.008062744140625
8.036999999999978,7.97506103515625,0.2308837890625,6.184814453125001
8.047000000000025,8.661880493164062,-1.1393157958984377,7.852740478515625
8.057000000000016,6.417492675781251,-0.262286376953125,8.881399536132813
8.067000000000007,5.280270385742188,-0.7292877197265626,7.761074829101563
8.076999999999991,6.226834106445313,-1.5158477783203126,6.488970947265625
8.086999999999996,6.668713378906251,0.4658050537109375,6.0448486328125
8.096999999999987,7.234857177734375,0.32718505859375,6.916195678710938
8.108000000000004,6.339285278320313,-0.074169921875,9.055908203125
8.117000000000019,4.955776977539063,1.1750549316406251,8.387033081054689
8.127999999999986,6.087017822265626,-0.0270660400390625,7.707989501953126
8.138000000000034,5.6632324218750005,-0.447412109375,4.680630493164063
8.148000000000025,4.793530273437501,1.1593536376953126,3.5944000244140626
8.158000000000015,9.826467895507813,0.6168365478515625,8.912353515625
8.168000000000006,11.311959838867187,1.0045837402343751,11.590545654296877
8.177999999999997,7.323382568359375,0.7454376220703125,11.065673828125
8.187999999999995,0.625958251953125,-1.6674774169921875,5.0356292724609375
8.197999999999986,0.499749755859375,-1.6018310546875,3.872238159179688
8.208000000000027,7.879208374023438,-0.2978759765625,7.124798583984376
8.21800000000001,11.570208740234376,-1.2296356201171876,9.919329833984376
8.228000000000009,10.386331176757814,0.5565734863281251,10.497137451171875
8.238,4.810577392578125,1.0427154541015626,7.259829711914063
8.247999999999998,2.047598266601563,-0.4317108154296875,4.279574584960938
8.259000000000015,5.844320678710938,1.0367340087890626,4.5076171875
8.269000000000005,8.49365234375,1.304254150390625,7.648922729492188
8.278999999999996,10.25623474121094,0.43006591796875,10.210925292968753
8.288999999999987,5.926715087890625,1.2625335693359376,9.592742919921877
8.298999999999978,3.093304443359376,-0.0970489501953125,6.606057739257813
8.309000000000026,5.151220703125,-1.12271728515625,5.255148315429688
8.319000000000017,6.780117797851563,-0.2510711669921875,5.07884521484375
8.331000000000017,9.692034912109376,-0.5754150390625,6.928756713867188
8.338999999999999,8.401388549804688,-1.389041137695313,9.405075073242188
8.348999999999997,4.812222290039063,-0.329278564453125,8.778518676757812
8.358999999999988,4.137216186523438,-1.0922119140625002,7.994052124023438
8.369000000000028,4.59195556640625,-0.7439422607421875,6.555215454101563
8.379000000000019,6.889877319335938,1.4273223876953125,6.380557250976563
8.38900000000001,8.196673583984376,0.9000579833984376,7.8135620117187505
8.399999999999977,7.207043457031251,0.9775177001953126,8.084072875976563
8.410000000000025,6.491961669921875,1.3986114501953126,7.947695922851563
8.420000000000016,5.698971557617188,0.08912353515625,6.646282958984376
8.430000000000007,6.367996215820313,0.4744781494140625,5.615081787109375
8.43999999999999,7.0497314453125,0.76263427734375,7.573855590820313
8.449999999999996,6.305490112304688,-0.7262969970703126,7.9690795898437505
8.459999999999987,5.746823120117188,-0.676800537109375,9.295913696289062
8.470000000000027,5.607455444335938,-0.652874755859375,7.530789184570313
8.480000000000011,5.560800170898438,-1.2078033447265626,5.839385986328125
8.490000000000009,4.402493286132813,-0.092413330078125,3.391329956054688
8.5,8.195327758789062,0.6928009033203125,6.974365234375001
8.509999999999991,14.353375244140626,-0.122918701171875,14.04368591308594
8.519999999999982,6.800155639648438,0.374139404296875,9.279315185546876
8.530000000000037,0.006878662109375,-0.8883941650390625,4.760632324218751
8.54000000000002,2.4906738281250003,0.1885650634765625,4.167721557617188
8.550000000000011,6.210684204101563,1.6508789062500002,6.300405883789063
8.560999999999986,11.695819091796876,1.0434631347656251,10.820135498046875
8.571000000000026,9.103012084960938,0.8402435302734376,11.320782470703126
8.581000000000017,4.269705200195313,-0.69683837890625,7.667465209960938
8.591000000000008,3.605615234375,-1.9669982910156247,4.278079223632813
8.600999999999999,5.540313720703125,-0.2337249755859375,3.921734619140625
8.612000000000023,9.709231567382814,0.2205657958984375,6.432894897460938
8.620999999999981,9.758877563476563,-1.0730712890625,10.11761474609375
8.631000000000036,6.167767333984376,-0.2528656005859375,9.824972534179688
8.64100000000002,3.5613525390625003,-0.6473419189453126,7.817749023437501
8.65100000000001,3.961660766601563,-0.6763519287109375,5.000637817382813
8.661000000000001,7.419683837890625,1.874435424804688,4.847811889648438
8.670999999999992,9.018524169921877,1.0190887451171875,6.771145629882813
8.680999999999983,8.020071411132813,0.4415802001953125,9.001327514648438
8.691000000000031,5.349804687500001,1.2143829345703123,9.756036376953126
8.701999999999991,3.6607940673828128,-0.1111053466796875,8.0474365234375
8.711999999999996,5.10635986328125,0.108563232421875,6.100625610351563
8.721999999999987,7.136611938476563,0.8104858398437501,6.485382080078126
8.732000000000028,8.160186767578125,-0.612799072265625,6.805838012695313
8.742000000000019,7.27762451171875,-0.7089508056640625,8.577990722656251
8.75200000000001,5.852096557617188,-0.3265869140625,8.354583740234375
8.762,6.160140991210938,-1.4241821289062502,6.89122314453125
8.771999999999991,6.76561279296875,-0.6766510009765625,6.35947265625
8.781999999999982,6.7147705078125,0.4798614501953125,6.091952514648438
8.792000000000037,6.505270385742188,-0.165087890625,8.604159545898439
8.802000000000021,5.427264404296875,0.6672302246093751,8.419631958007812
8.812000000000012,5.511752319335938,0.6368743896484376,8.257086181640625
8.822000000000003,5.90428466796875,-0.36546630859375,5.371487426757813
8.831999999999994,3.866705322265626,0.9948638916015624,3.275289916992188
8.84300000000001,9.928152465820313,1.8651641845703129,8.304638671875
8.853000000000009,13.38931579589844,1.5831390380859376,13.020559692382813
8.863,6.02451171875,0.921142578125,9.73001708984375
8.872999999999998,-0.0494964599609375,-1.4531921386718751,4.440325927734375
8.882999999999981,0.9688446044921876,-2.50682373046875,4.028952026367188
8.893000000000036,8.724087524414063,-1.4461639404296875,7.546340942382813
8.90300000000002,12.022854614257811,-1.6456451416015627,10.72891845703125
8.913000000000011,9.236697387695314,0.2262481689453125,10.329806518554689
8.923000000000002,4.0726165771484375,0.57840576171875,7.295269775390626
8.932999999999993,2.117431640625,-0.7609893798828126,3.825732421875
8.942999999999984,6.53233642578125,0.7905975341796876,4.352548217773438
8.953000000000031,9.677081298828126,1.5488952636718751,7.665969848632813
8.963000000000022,9.76171875,1.2432434082031252,10.2342529296875
8.973000000000013,5.6022216796875,1.830172729492188,9.518572998046876
8.983000000000004,2.715426635742188,0.070880126953125,6.780416870117188
8.994000000000028,4.777679443359375,-0.6832305908203126,4.832559204101563
9.004000000000019,7.479797363281251,0.0689361572265625,5.599679565429688
9.01400000000001,9.372027587890626,-0.366363525390625,7.192538452148438
9.024,8.41888427734375,-1.377227783203125,9.415093994140626
9.033999999999992,4.790240478515625,-0.8109344482421875,8.815155029296875
9.043999999999984,3.978408813476563,-1.5977935791015627,7.198968505859376
9.054000000000038,5.164230346679688,-0.808392333984375,6.733761596679688
9.06400000000002,7.045693969726563,1.051089477539063,6.253152465820313
9.074000000000012,8.063436889648438,0.5459564208984375,8.268899536132814
9.084000000000003,6.993804931640626,0.9571807861328124,8.218356323242189
9.093999999999994,5.814712524414063,1.523623657226563,7.970425415039063
9.103999999999983,6.301452636718751,0.2926422119140625,6.366650390625001
9.115000000000007,6.500784301757813,0.8510101318359375,5.714523315429688
9.125,7.176239013671876,0.8978149414062501,7.175192260742188
9.134999999999993,6.352145385742188,-0.27813720703125,8.364453125
9.144999999999982,5.232418823242188,-0.275146484375,9.266006469726562
9.155000000000037,5.889630126953126,-0.7152313232421875,7.5623413085937505
9.16500000000002,6.338388061523438,-1.6178314208984377,6.316256713867188
9.175000000000011,5.163931274414063,-0.39298095703125,3.6959350585937503
9.185000000000002,4.623208618164063,0.1338348388671875,4.563394165039063
9.194999999999991,13.490850830078124,-0.1864715576171875,13.501019287109376
9.206000000000016,10.822378540039065,0.5187408447265626,12.613372802734377
9.215000000000032,1.3769287109375,-1.0588653564453123,4.995553588867188
9.225000000000025,1.202569580078125,-0.2513702392578125,3.7445343017578128
9.235000000000014,3.90050048828125,2.212387084960937,4.2755371093750005
9.245000000000005,10.451080322265623,1.3395446777343751,9.414645385742189
9.256000000000036,11.43592529296875,0.9562835693359376,12.639392089843753
9.264999999999986,5.563641357421876,0.3288299560546875,9.529190063476562
9.27600000000001,3.0607055664062504,-2.2997161865234377,5.2210540771484375
9.286,3.9682403564453126,-0.79373779296875,3.464752197265625
9.295999999999992,8.132522583007812,0.7913452148437501,4.7724456787109375
9.307000000000016,11.06866455078125,-1.332366943359375,9.196771240234376
9.316000000000033,8.104110717773438,-0.5761627197265625,10.504016113281253
9.326000000000022,4.386642456054688,-0.1353302001953125,8.663525390625
9.336000000000013,2.9914703369140625,-1.64669189453125,5.8845458984375005
9.346000000000004,5.85404052734375,1.437042236328125,4.319949340820313
9.355999999999996,8.486624145507813,1.6546173095703127,5.9132568359375
9.365999999999984,8.737246704101564,0.1232177734375,8.467483520507812
9.376000000000031,6.61966552734375,1.392031860351563,10.051071166992188
9.386000000000024,3.934445190429688,0.390289306640625,9.061441040039064
9.396999999999991,4.306491088867188,-0.6398651123046876,6.169262695312501
9.406999999999982,6.378164672851563,1.1764007568359376,6.34990234375
9.417000000000035,8.204449462890626,0.019439697265625,5.799310302734376
9.42700000000002,7.907470703125001,-1.04615478515625,8.531036376953125
9.437000000000012,6.212628173828126,-0.07835693359375,8.569467163085939
9.447000000000005,5.607455444335938,-1.2133361816406252,7.898199462890625
9.456999999999994,6.529046630859376,-1.426873779296875,6.363659667968751
9.466999999999985,6.474765014648438,0.6892120361328126,5.786300659179688
9.477000000000032,7.122854614257813,-0.1505828857421875,7.593594360351563
9.487000000000023,6.071316528320313,0.2038177490234375,8.4302490234375
9.497000000000014,4.99749755859375,0.997705078125,8.370135498046876
9.507000000000003,5.653811645507813,-0.4188507080078125,5.804244995117188
9.516999999999996,4.399652099609376,0.3010162353515625,3.945361328125
9.526999999999989,9.373522949218753,2.2049102783203125,7.733261108398438
9.536999999999978,13.095925903320314,1.3552459716796876,13.058093261718753
9.548000000000002,6.534280395507813,0.7835693359375001,9.72986755371094
9.559000000000026,-0.4670013427734375,-1.2746459960937502,4.5805908203125005
9.567999999999984,1.3265350341796875,-2.4680938720703125,3.648532104492188
9.578000000000031,8.659786987304688,-0.9112731933593752,7.538864135742188
9.588000000000022,11.925656127929688,-0.8115325927734376,10.198513793945311
9.598000000000011,9.448590087890626,0.0299072265625,10.9687744140625
9.608000000000004,3.7234497070312496,0.65616455078125,7.526602172851563
9.617999999999997,1.9789611816406247,-0.6602020263671875,4.042111206054688
9.627999999999986,6.403286743164063,0.6168365478515625,4.284658813476563
9.638000000000034,10.084567260742189,1.5819427490234377,7.5378173828125
9.648000000000025,9.897946166992188,1.0110137939453123,10.182064819335938
9.658000000000015,5.618521118164063,1.1940460205078125,9.3968505859375
9.668000000000006,2.4021484375,0.07177734375,7.092050170898438
9.679000000000038,4.714126586914063,-0.7808776855468751,4.7376037597656255
9.687999999999995,7.563088989257813,-0.059515380859375,5.779870605468751
9.699000000000012,9.720297241210938,-0.1997802734375,6.960009765625
9.709000000000003,8.273385620117189,-1.1725128173828123,9.255538940429688
9.718999999999994,5.008114624023438,-0.7774383544921876,8.534774780273438
9.728999999999983,3.867901611328125,-1.2709075927734377,7.22977294921875
9.739000000000033,5.1488281250000005,-0.91695556640625,6.685162353515626
9.749000000000024,7.092349243164063,0.97078857421875,6.7123779296875
9.759000000000016,7.578640747070313,0.84158935546875,8.374172973632813
9.769000000000004,6.744827270507813,0.8634216308593751,8.261572265625
9.778999999999996,5.846414184570313,1.3495635986328125,7.930349731445313
9.788999999999987,6.566879272460938,0.2588470458984375,6.108401489257813
9.798999999999978,6.976608276367188,0.5550781250000001,5.763272094726563
9.809000000000026,7.15201416015625,0.87747802734375,6.889279174804688
9.819000000000017,6.238049316406251,-0.1676300048828125,8.548382568359376
9.829999999999984,5.124154663085938,-0.48150634765625,9.189892578125
9.840000000000032,5.592352294921875,-0.6673797607421875,7.9331909179687505
9.850000000000025,6.59813232421875,-1.4748748779296876,6.513494873046875
9.860000000000014,6.753201293945313,-0.292791748046875,5.411712646484375
9.870000000000005,3.17076416015625,0.626556396484375,3.3273284912109378
9.879999999999995,7.929452514648438,0.6096588134765626,7.771542358398438
9.889999999999986,14.467919921875,0.7393066406250001,14.279653930664065
9.899999999999975,8.741732788085939,0.39537353515625,10.48951110839844
9.910000000000023,0.215631103515625,-1.5281097412109377,4.329220581054688
9.920000000000016,-1.2931884765625,0.3433349609375,2.7408477783203127
9.930000000000009,6.124700927734375,0.65018310546875,6.245077514648438
9.93999999999999,12.699206542968753,0.1478912353515625,11.146572875976563
9.949999999999996,11.4185791015625,0.883160400390625,12.269439697265629
9.959999999999988,5.088714599609375,-0.6350799560546876,7.853189086914063
9.970000000000027,1.347021484375,-2.5009918212890625,3.703262329101563
9.980999999999996,4.120318603515625,0.017645263671875,3.671859741210938
9.990999999999984,9.414047241210938,0.1000396728515625,6.302499389648438
10.001000000000031,11.607144165039063,-0.444720458984375,10.469622802734376
10.011000000000024,7.74058837890625,0.634930419921875,10.521810913085938
10.021000000000017,2.592059326171875,-0.4945159912109375,7.929452514648438
10.031000000000006,2.803952026367188,-0.6706695556640625,4.78575439453125
10.040999999999997,5.732019042968751,2.1736572265625003,4.541262817382813
10.050999999999997,10.19776611328125,0.8240936279296875,5.9730712890625
10.060999999999986,9.900787353515623,0.2316314697265625,9.26884765625
10.071000000000026,5.96708984375,1.1183807373046877,9.900936889648438
10.081000000000016,3.107809448242188,-0.6458465576171876,8.201159667968751
10.091000000000008,3.4489013671875,-0.4239349365234375,6.3319580078125
10.101,6.507214355468751,0.8559448242187501,5.668914794921875
10.110999999999995,9.062338256835938,-0.8544494628906251,7.556210327148438
10.122999999999998,8.058203125,-0.6406127929687501,8.525054931640625
10.132000000000003,5.658148193359375,0.2053131103515625,8.733956909179689
10.141999999999996,5.528649902343751,-1.2350189208984377,6.840231323242188
10.151999999999989,6.4482971191406255,-0.2582489013671875,5.6049133300781255
10.161999999999978,7.382000732421876,0.5725738525390626,5.939126586914063
10.172000000000024,7.326821899414063,0.012860107421875,8.213272094726562
10.182000000000016,5.178436279296875,0.847271728515625,9.135012817382814
10.192000000000007,4.9264678955078125,0.7701110839843751,8.829061889648438
10.201999999999993,6.132626342773438,-0.5869293212890625,6.762921142578126
10.211999999999996,6.058605957031251,0.2621368408203125,4.729229736328126
10.223999999999997,5.015740966796876,0.4653564453125,3.339590454101563
10.232000000000028,10.323825073242189,0.584686279296875,10.084417724609375
10.24200000000002,11.667257690429688,1.0969970703125,12.2212890625
10.252999999999986,5.262625122070313,-0.8765808105468751,8.724237060546876
10.263000000000034,0.3602325439453125,-2.552581787109375,4.093551635742188
10.273000000000025,2.1407592773437503,-0.4358978271484375,4.363912963867188
10.283000000000015,8.635263061523439,-0.4717864990234375,8.570214843750001
10.293000000000006,11.406765747070311,0.289202880859375,11.125189208984375
10.302999999999995,7.788589477539063,1.556521606445313,10.309768676757812
10.312999999999995,4.176992797851563,0.5027404785156251,6.287844848632813
10.324000000000012,3.5209777832031253,-0.0805999755859375,3.720309448242188
10.333000000000029,7.008609008789063,1.690057373046875,4.299163818359375
10.34300000000001,10.181765747070314,0.349615478515625,8.531036376953125
10.353000000000009,8.578887939453125,0.5019927978515626,10.236495971679688
10.363,4.9346923828125,0.6036773681640626,9.240286254882813
10.374000000000024,2.8598785400390625,-1.361077880859375,6.581982421875001
10.384000000000016,5.27384033203125,-1.084136962890625,5.135220336914063
10.394000000000004,7.988220214843751,-0.1686767578125,5.596688842773438
10.403999999999996,9.543545532226563,-1.3075439453125002,7.459310913085938
10.413999999999987,7.968780517578126,-0.2100982666015625,8.819790649414063
10.423999999999978,4.9364868164062505,-0.2286407470703125,8.369836425781251
10.434000000000026,4.536178588867188,-1.03897705078125,7.084872436523438
10.444000000000017,4.87188720703125,0.46236572265625,6.659741210937501
10.454000000000008,6.430203247070313,1.58089599609375,7.372879028320313
10.464,7.508209228515626,0.7369140625,8.416192626953126
10.473999999999997,6.520672607421876,1.4386871337890623,8.571710205078126
10.483999999999988,6.623403930664063,0.5722747802734376,6.999786376953126
10.494000000000028,6.814810180664063,-0.294586181640625,6.29307861328125
10.50400000000002,6.793576049804688,0.62745361328125,5.365206909179688
10.51400000000001,6.855633544921876,0.0447113037109375,7.523312377929688
10.524999999999975,6.354537963867188,-1.2128875732421875,8.595785522460938
10.533999999999992,5.178436279296875,-0.4083831787109375,8.929849243164064
10.545000000000016,5.75115966796875,-1.1654846191406252,7.834048461914063
10.555000000000009,4.720706176757813,-0.729736328125,5.005123901367188
10.56499999999999,2.9217864990234377,0.4391876220703125,2.6895568847656253
10.574999999999996,13.183255004882811,0.285015869140625,11.521310424804687
10.584999999999988,12.643728637695313,0.3440826416015625,12.6124755859375
10.595000000000027,3.8548919677734377,0.8644683837890625,6.72972412109375
10.605000000000013,1.3026092529296875,-0.4257293701171875,4.84317626953125
10.615000000000007,2.4552337646484377,1.290496826171875,4.096841430664063
10.625,8.56483154296875,1.41341552734375,7.844216918945313
10.634999999999993,11.237490844726564,-0.046356201171875,11.821728515625
10.644999999999982,7.438525390625,0.11005859375,9.871029663085938
10.655000000000037,3.8354522705078127,-1.8931274414062504,6.607852172851563
10.66500000000002,3.957623291015625,-1.7144317626953127,3.9220336914062495
10.675000000000011,6.85294189453125,0.46834716796875,4.796072387695313
10.685999999999986,9.796710205078126,-0.7731018066406251,7.102069091796875
10.696000000000026,9.197967529296877,-0.8366546630859376,10.095184326171877
10.706000000000016,5.700466918945313,0.153424072265625,9.20350036621094
10.716000000000008,3.248971557617188,-0.7225585937500001,6.960009765625
10.726,5.246624755859376,0.7853637695312501,4.972225952148438
10.735999999999995,6.843521118164063,2.1256561279296875,5.76312255859375
10.74599999999998,8.47869873046875,0.7261474609375,7.772140502929688
10.756000000000036,7.361962890625,0.8010650634765626,10.234402465820311
10.76600000000002,4.284808349609375,0.9661529541015624,8.740536499023438
10.77600000000001,4.679583740234375,-0.6030792236328125,7.014739990234376
10.786,6.7638183593750005,0.4717864990234375,5.821591186523438
10.795999999999992,7.727578735351563,0.189910888671875,5.5750061035156255
10.805999999999983,8.193533325195313,-1.3664611816406251,8.05042724609375
10.817000000000007,5.882302856445313,-0.7138854980468751,8.493353271484375
10.826999999999993,5.456423950195313,-0.793438720703125,8.793621826171876
10.836999999999996,6.044549560546876,-1.5672882080078123,6.675292968750001
10.846999999999989,6.573458862304688,0.2954833984375,6.444409179687501
10.857000000000028,7.485928344726563,0.4940673828125,6.47611083984375
10.86700000000002,6.105709838867188,0.2462860107421875,8.1646728515625
10.87700000000001,5.5041259765625,1.0594635009765625,7.644735717773438
10.887,4.346865844726563,0.1670318603515625,6.05023193359375
10.896999999999991,4.605563354492188,0.1472930908203125,4.461859130859375
10.906999999999982,12.229513549804688,2.477813720703125,10.410256958007814
10.917000000000035,11.363848876953126,1.9237823486328127,11.793167114257812
10.92700000000002,3.7192626953125,0.151031494140625,6.996795654296876
10.937000000000012,-0.5715270996093751,-1.5370819091796877,4.904187011718751
10.947000000000005,3.92861328125,-2.228387451171875,5.1237060546875
10.956999999999994,10.539605712890626,-2.0707763671875004,9.36978454589844
10.96800000000001,11.603854370117189,-0.5232269287109376,9.821383666992189
10.978000000000009,7.275979614257813,0.2954833984375,8.944952392578125
10.988,2.785858154296875,-0.382513427734375,5.99759521484375
10.997999999999998,3.1583526611328128,-0.099591064453125,4.2172180175781255
11.00799999999998,7.825973510742188,1.0697814941406252,6.101223754882813
11.018000000000036,10.458108520507814,1.1091094970703126,8.852090454101564
11.02800000000002,8.0115478515625,2.201620483398438,9.386083984375
11.038000000000013,4.7076965332031255,0.93489990234375,8.35906982421875
11.048000000000002,2.8912811279296875,-0.0674407958984375,5.80260009765625
11.057999999999993,5.902041625976563,-0.282025146484375,5.227633666992188
11.067999999999984,8.702853393554689,-0.1888641357421875,6.554019165039063
11.078000000000031,8.862258911132812,-0.90858154296875,8.138354492187501
11.088000000000022,6.811819458007813,-0.6782958984375,9.51453552246094
11.098999999999997,3.84188232421875,-1.3912841796875002,7.9690795898437505
11.108999999999988,4.284210205078125,-1.412966918945313,6.997842407226563
11.119000000000028,6.5305419921875005,-0.1447509765625,6.315359497070313
11.12900000000002,7.982986450195313,0.4975067138671875,6.957318115234376
11.13900000000001,8.117120361328126,0.5970977783203125,8.253497314453126
11.149,5.74637451171875,1.4410797119140626,7.9529296875
11.158999999999992,5.704953002929688,0.7669708251953126,7.5025268554687505
11.168999999999984,6.321041870117188,0.6866699218750001,6.151318359375001
11.179000000000038,6.769052124023438,0.9890319824218752,6.666021728515625
11.18900000000002,7.342822265625,0.3835601806640625,7.490414428710938
11.199000000000012,5.62315673828125,-0.122320556640625,8.900241088867189
11.209000000000003,5.385244750976563,-0.1398162841796875,8.048782348632812
11.218999999999994,5.929107666015625,-1.197634887695313,7.283755493164063
11.228999999999983,4.571469116210938,-1.0184906005859375,3.942520141601563
11.240000000000007,6.090606689453125,-0.4385894775390625,4.769155883789063
11.25,12.772030639648438,-0.45279541015625,12.012237548828123
11.259999999999993,10.935577392578123,0.1493865966796875,11.906814575195312
11.269999999999982,1.9436706542968751,-1.0169952392578123,5.9881744384765625
11.280000000000037,0.1191802978515625,-0.25421142578125,3.431106567382813
11.29000000000002,5.010955810546875,1.9723815917968752,5.4347412109375
11.300000000000011,10.0260986328125,1.7214599609375,8.886483764648439
11.310000000000002,10.861257934570313,1.2502716064453123,12.13515625
11.319999999999991,5.860321044921875,0.5580688476562501,9.689791870117189
11.329999999999984,2.720211791992188,-1.6650848388671875,5.344122314453125
11.340000000000032,4.448699951171875,-0.423486328125,3.8118255615234378
11.350000000000025,8.781060791015626,0.6898101806640625,4.79412841796875
11.360000000000014,10.6936279296875,-1.0385284423828125,8.804388427734375
11.370000000000005,8.225982666015625,-0.9091796875,10.426556396484376
11.381000000000036,3.4601165771484377,-0.6871185302734375,8.8656982421875
11.39100000000002,3.012255859375,-1.59046630859375,5.963650512695313
11.40100000000001,6.158047485351563,0.734222412109375,4.948150634765625
11.411,8.888128662109375,1.1671295166015625,5.237353515625
11.420999999999992,9.431842041015626,0.1589569091796875,8.550027465820314
11.430999999999983,6.098980712890626,1.298870849609375,9.277072143554689
11.441000000000033,3.993511962890625,0.6467437744140625,8.938821411132814
11.451000000000022,4.284658813476563,-0.1519287109375,6.83739013671875
11.461000000000013,5.918490600585938,1.18970947265625,6.368893432617188
11.471000000000004,8.2747314453125,0.3481201171875,6.636264038085938
11.480999999999996,7.443908691406251,-0.57421875,8.200112915039064
11.490999999999984,6.109298706054688,-0.04964599609375,8.319741821289064
11.501000000000031,6.0340820312500005,-1.1345306396484376,7.62454833984375
11.511000000000024,6.746771240234375,-1.2733001708984375,6.295321655273438
11.523000000000025,7.13406982421875,0.304754638671875,5.846264648437501
11.531999999999982,6.801351928710938,-0.5001983642578125,7.562191772460938
11.542000000000035,5.7519073486328125,-0.18243408203125,8.477951049804688
11.55200000000002,4.890130615234376,0.4816558837890625,8.850894165039064
11.562000000000012,5.059704589843751,-0.523077392578125,6.186459350585938
11.572000000000005,4.223947143554688,0.05562744140625,3.35738525390625
11.581999999999994,9.50810546875,2.076608276367188,7.22977294921875
11.591999999999985,14.707476806640626,2.0368316650390628,13.54423522949219
11.602000000000032,6.127691650390625,1.199578857421875,9.509600830078126
11.612000000000023,-0.611004638671875,-0.5643493652343751,4.57401123046875
11.622999999999998,0.608612060546875,-1.7814239501953126,3.987530517578125
11.632000000000003,8.158990478515626,-1.2109436035156251,6.984384155273438
11.641999999999996,12.55310974121094,-1.0412200927734376,10.594485473632814
11.651999999999989,9.578836059570314,0.021533203125,10.878155517578126
11.663000000000013,3.910369873046875,0.3446807861328125,7.477853393554688
11.673000000000002,2.0683837890625,-0.7494750976562501,4.267611694335938
11.682999999999993,5.803945922851563,0.1972381591796875,3.8696960449218754
11.692999999999984,10.3036376953125,0.872991943359375,7.363458251953125
11.703000000000031,10.02774353027344,0.8257385253906251,10.372872924804687
11.713000000000022,5.673251342773438,1.6140930175781252,9.602313232421876
11.723000000000011,2.71617431640625,-0.037384033203125,7.425515747070313
11.733000000000004,4.233218383789063,-0.4987030029296875,4.571170043945313
11.742999999999997,7.7651123046875,0.0378326416015625,5.347860717773438
11.752999999999986,9.575396728515626,-0.017645263671875,7.003674316406251
11.763000000000034,8.161233520507814,-0.5659942626953125,9.2532958984375
11.773000000000025,5.175296020507813,-0.4732818603515625,8.982785034179688
11.783000000000015,3.913061523437501,-1.3181610107421875,7.26805419921875
11.793000000000006,5.272195434570313,-0.9389373779296876,6.586468505859376
11.802999999999995,6.871334838867188,0.6809875488281251,6.4707275390625005
11.812999999999995,7.540359497070313,0.4966094970703125,8.020669555664064
11.824000000000012,7.0180297851562505,0.613995361328125,8.614178466796876
11.834000000000003,5.625698852539063,1.0578186035156252,7.9565185546875
11.843999999999994,6.662582397460938,0.0701324462890625,6.493756103515626
11.853999999999983,6.927859497070313,0.57840576171875,5.604016113281251
11.864000000000033,7.088760375976563,0.8215515136718751,6.639105224609375
11.874000000000024,6.46654052734375,-0.1194793701171875,8.249459838867189
11.884000000000016,5.0247131347656255,-0.1158905029296875,9.308026123046876
11.894000000000004,5.594744873046875,-0.3180633544921875,7.867993164062501
11.903999999999996,5.348309326171876,-0.8976654052734375,5.798861694335938
11.913999999999987,3.6403076171875,0.176751708984375,2.1624420166015628
11.923999999999978,10.092941284179688,0.5848358154296875,8.689694213867188
11.935000000000002,15.175375366210938,-0.197088623046875,15.0887939453125
11.944999999999991,4.291088867187501,-0.31163330078125,8.005416870117188
11.954999999999984,-0.116339111328125,-1.8989593505859377,3.982147216796875
11.965000000000032,2.923880004882813,-0.074169921875,4.037326049804688
11.975000000000025,7.604360961914063,1.409527587890625,6.855484008789063
11.985000000000014,12.18839111328125,1.2383087158203123,11.381793212890626
11.995000000000005,7.97745361328125,0.8466735839843751,11.323474121093753
12.004999999999995,3.510360717773438,-0.7946350097656251,7.286746215820313
12.014999999999986,3.321795654296875,-1.91884765625,4.104019165039063
12.024999999999975,6.0629425048828125,0.86551513671875,3.713430786132813
12.035000000000023,10.54349365234375,0.5157501220703126,7.224240112304688
12.045000000000016,9.55520935058594,-0.491973876953125,10.106549072265626
12.055000000000009,5.886788940429688,0.0808990478515625,9.908413696289063
12.06499999999999,3.101678466796875,-1.1297454833984375,7.156649780273438
12.074999999999996,4.0925048828125,-0.5825927734375,4.8617187500000005
12.084999999999988,8.000781250000001,1.7711059570312502,4.7126312255859375
12.095000000000027,8.692086791992189,0.0817962646484375,7.606903076171876
12.105999999999996,8.033230590820313,0.218621826171875,9.440515136718751
12.115999999999984,4.7062011718750005,0.6389678955078125,9.666165161132811
12.126000000000031,3.62655029296875,-0.5591156005859376,7.354187011718751
12.136000000000024,6.061447143554688,0.39716796875,5.963201904296875
12.146000000000017,7.336242675781251,1.0744171142578125,6.122158813476563
12.156000000000006,8.604907226562501,-0.5508911132812501,7.092050170898438
12.165999999999997,6.313265991210938,0.08074951171875,9.019271850585938
12.175999999999997,5.378964233398438,-0.05921630859375,8.113681030273439
12.185999999999986,6.3481079101562505,-1.2161773681640626,7.329513549804688
12.196000000000026,6.715817260742188,-0.0761138916015625,5.710934448242188
12.206000000000016,7.235305786132813,0.569134521484375,6.453082275390625
12.216000000000008,6.57779541015625,-0.515301513671875,8.397500610351564
12.226,5.011404418945313,0.6069671630859376,8.398248291015626
12.237000000000023,5.622409057617188,-0.349615478515625,7.978350830078125
12.247000000000014,4.9574218750000005,-1.2644775390625,4.455877685546875
12.257000000000003,5.3605712890625,0.7759429931640626,4.08592529296875
12.266999999999996,11.7726806640625,1.6051208496093752,10.193429565429687
12.276999999999989,11.474206542968751,1.1855224609375,12.344357299804688
12.286999999999978,5.199520874023438,0.424981689453125,9.038262939453126
12.297000000000024,-1.3995086669921877,-1.653271484375,3.955679321289063
12.307000000000016,1.792340087890625,-1.215130615234375,3.785357666015625
12.317000000000007,10.010397338867188,0.24822998046875,8.759677124023439
12.326999999999993,12.213812255859375,-0.3210540771484375,10.330853271484376
12.336999999999996,9.168807983398438,0.6431549072265625,10.565774536132814
12.346999999999989,2.9466094970703125,0.4358978271484375,6.1345703125
12.358000000000004,2.1367218017578127,-0.68607177734375,3.667672729492188
12.36700000000002,7.073507690429688,0.9643585205078126,4.846615600585938
12.377999999999986,9.93802185058594,0.7560546875,8.468380737304688
12.388000000000034,9.7988037109375,0.436944580078125,10.894155883789065
12.398000000000025,4.640704345703125,0.8613281250000001,9.194976806640623
12.408000000000015,2.14793701171875,-0.5106658935546875,6.034231567382813
12.418000000000006,5.972323608398438,-0.9486572265625,4.713528442382813
12.427999999999995,7.8030944824218755,0.1266571044921875,5.435787963867188
12.43900000000002,10.25623474121094,-0.282025146484375,7.571014404296876
12.447999999999986,7.458563232421875,-0.6652862548828126,9.605453491210938
12.458000000000029,4.040914916992188,-0.198284912109375,8.307928466796875
12.46800000000001,4.405484008789063,-1.212139892578125,7.4172912597656255
12.478000000000009,5.080191040039063,-0.437841796875,6.319546508789063
12.488,7.428057861328125,1.396966552734375,6.821389770507813
12.497999999999998,7.765261840820313,0.4726837158203125,8.426660156250001
12.50799999999998,6.546093750000001,0.7346710205078125,8.212673950195313
12.519000000000004,6.176589965820313,0.7970275878906251,7.754345703125001
12.528999999999996,6.166271972656251,-0.27933349609375,6.082531738281251
12.538999999999987,7.055563354492188,0.6886138916015625,5.573062133789063
12.548999999999978,7.241287231445313,0.5887237548828126,7.466189575195313
12.559000000000026,6.090457153320313,-0.629547119140625,8.407070922851563
12.569000000000017,5.362814331054688,-0.32838134765625,9.371429443359377
12.579000000000008,5.297018432617188,-0.6084625244140626,7.41519775390625
12.589,5.246923828125,-0.8958709716796875,5.20445556640625
12.598999999999997,4.145590209960938,0.4227386474609375,3.1489318847656254
12.608999999999988,11.081076049804688,0.5912658691406251,9.644033813476565
12.619000000000028,13.64651794433594,-0.0372344970703125,13.3182861328125
12.62900000000002,3.800460815429688,-0.1170867919921875,7.053170776367188
12.63900000000001,0.5873779296875,-1.25789794921875,4.670611572265625
12.649,3.1861663818359376,0.5157501220703126,4.8023529052734375
12.660000000000023,7.7163635253906255,1.5562225341796876,7.872030639648438
12.670000000000016,11.568862915039062,0.9411804199218752,11.74576416015625
12.680000000000009,7.445553588867188,0.5869293212890625,9.863702392578126
12.68999999999999,4.001437377929688,-1.2677673339843751,6.415399169921876
12.699999999999996,4.328024291992188,-1.4007049560546876,3.802703857421875
12.709999999999988,6.546392822265625,0.5070770263671875,4.4693359375
12.720000000000027,10.17249450683594,-0.08553466796875,7.940069580078125
12.730000000000013,8.424716186523439,-0.7286895751953125,10.38782653808594
12.740000000000007,5.2235961914062505,-0.23148193359375,9.30398864746094
12.75,3.5149963378906253,-1.033145141601563,6.824530029296875
12.759999999999993,4.918392944335938,0.0142059326171875,4.654611206054688
12.769999999999982,8.233160400390625,1.6602996826171876,5.353094482421875
12.780000000000037,8.78016357421875,0.264678955078125,7.722494506835938
12.79000000000002,7.355233764648438,0.6107055664062501,9.432440185546875
12.800000000000011,4.5112060546875,0.8330657958984375,9.312063598632813
12.810999999999986,3.766815185546875,-0.3294281005859375,7.242483520507813
12.821000000000026,6.072662353515625,0.7484283447265625,6.188702392578126
12.831000000000016,7.631427001953125,0.5402740478515625,6.398501586914063
12.841000000000008,8.070614624023438,-0.6730621337890625,7.392318725585938
12.851,6.515139770507813,-0.2429962158203125,8.574700927734376
12.860999999999995,5.617623901367188,-0.5289093017578126,8.073306274414064
12.87099999999998,6.390725708007813,-1.3027587890625,6.741088867187501
12.881000000000036,6.703854370117188,-0.0109161376953125,6.232366943359375
12.89100000000002,7.098629760742188,0.1739105224609375,6.606655883789063
12.90100000000001,6.284255981445313,-0.217724609375,8.710778808593751
12.911,5.143893432617188,0.5719757080078125,8.152560424804689
12.920999999999992,4.930505371093751,-0.4418792724609375,6.895858764648438
12.930999999999983,4.0711212158203125,-0.8504119873046876,3.863864135742188
12.942000000000007,9.033328247070314,1.66224365234375,7.248614501953125
12.951999999999993,13.835382080078126,2.0769073486328127,12.42884521484375
12.961999999999996,7.121060180664063,0.8391967773437501,9.238790893554688
12.971999999999989,0.078955078125,-0.5819946289062501,5.542108154296876
12.982000000000028,0.9214416503906252,-1.3763305664062502,4.064990234375
12.99200000000002,7.286297607421876,-0.9329559326171876,7.533779907226563
13.00200000000001,12.158035278320312,-0.19559326171875,10.17384033203125
13.012,9.401187133789064,0.4699920654296875,10.356124877929688
13.021999999999991,4.685565185546875,0.145947265625,7.340130615234376
13.031999999999982,2.627349853515625,-0.304754638671875,4.3544921875
13.042000000000035,5.5705200195312505,0.241351318359375,4.117626953125001
13.05200000000002,10.260122680664065,0.590667724609375,7.327420043945313
13.062000000000012,9.225332641601565,0.735418701171875,10.130474853515626
13.072000000000005,5.924920654296876,1.1949432373046875,9.71805419921875
13.081999999999994,2.6584533691406254,-0.1036285400390625,7.539163208007813
13.09300000000001,4.181478881835938,-0.6107055664062501,4.726388549804688
13.103000000000009,8.190692138671876,-0.0967498779296875,5.49993896484375
13.113,9.293521118164064,-0.2989227294921875,6.741238403320313
13.122999999999998,8.482437133789062,-0.3312225341796875,9.219052124023438
13.13299999999998,4.831661987304688,-0.38939208984375,8.8585205078125
13.143000000000036,3.7711517333984377,-1.284814453125,7.614080810546875
13.15300000000002,5.3825531005859375,-0.7161285400390626,6.567776489257813
13.163000000000013,6.866101074218751,0.6048736572265625,6.72374267578125
13.173000000000002,7.978799438476563,0.69923095703125,7.661633300781251
13.182999999999993,6.917840576171876,0.7735504150390625,8.5235595703125
13.192999999999984,5.8087310791015625,0.7678680419921876,7.749859619140626
13.203000000000031,6.376220703125001,0.0287109375,6.599179077148438
13.213000000000022,6.64598388671875,0.5121612548828125,6.036624145507813
13.223000000000011,7.14244384765625,0.802410888671875,6.492260742187501
13.233999999999988,6.523214721679688,-0.29368896484375,8.656048583984376
13.244000000000028,5.337393188476563,-0.0587677001953125,8.604159545898439
13.25400000000002,5.326028442382813,-0.5434143066406251,7.967285156250001
13.26400000000001,4.037924194335938,-0.8852539062500001,4.3054443359375005
13.274,5.023815917968751,0.0629547119140625,3.721954345703125
13.283999999999992,14.651849365234376,0.2265472412109375,13.275518798828124
13.293999999999984,10.310366821289064,-0.268267822265625,11.112628173828126
13.304000000000038,1.60123291015625,-1.0029388427734376,5.560052490234376
13.31400000000002,1.4694915771484376,-0.4041961669921875,4.100430297851563
13.324000000000012,4.603170776367188,1.0950531005859376,5.093649291992188
13.334000000000003,10.565774536132814,1.5077728271484376,9.266754150390623
13.343999999999994,9.684857177734376,1.284814453125,11.949282836914064
13.353999999999983,5.451339721679688,-0.013458251953125,9.441412353515624
13.365000000000007,3.179437255859375,-1.5675872802734376,5.612988281250001
13.375,4.640704345703125,-0.4523468017578125,3.7479736328125
13.384999999999993,9.517376708984376,0.727642822265625,4.823886108398438
13.394999999999982,10.114324951171875,-0.6572113037109375,8.763265991210938
13.405000000000037,7.679129028320313,-0.20994873046875,9.805233764648438
13.41500000000002,3.881958007812501,-0.7585968017578125,9.1863037109375
13.425000000000011,2.8838043212890625,-1.2073547363281252,5.890826416015625
13.435000000000002,6.754547119140626,0.977667236328125,5.10576171875
13.444999999999991,8.561691284179688,0.8245422363281251,5.888583374023438
13.454999999999984,8.43323974609375,0.2860626220703125,8.295516967773438
13.465000000000032,6.19139404296875,0.8548980712890626,9.660931396484376
13.475000000000025,3.9263702392578126,0.054730224609375,8.420977783203126
13.485000000000014,5.095294189453125,-0.056524658203125,6.610842895507813
13.495000000000005,6.661386108398438,0.9482086181640624,6.448745727539063
13.506000000000036,7.862609863281251,0.2524169921875,6.354388427734375
13.51600000000002,7.448245239257813,-0.438739013671875,8.513540649414063
13.52600000000001,5.418142700195313,-0.0246734619140625,8.1192138671875
13.536,6.273788452148438,-1.0552764892578126,7.798458862304688
13.545999999999992,6.847259521484376,-0.7584472656250001,6.508859252929688
13.555999999999983,6.627590942382813,0.3485687255859375,5.853292846679688
13.566000000000033,7.086666870117188,-0.227294921875,7.853637695312501
13.576000000000022,5.4867797851562505,0.1673309326171875,8.13895263671875
13.586000000000013,5.481097412109375,0.3437835693359375,8.691488647460938
13.596000000000004,6.232217407226563,-0.5957519531250001,6.637161254882813
13.605999999999996,4.1095520019531255,-0.0566741943359375,3.8608734130859377
13.615999999999984,7.124349975585938,1.2954315185546876,5.543154907226563
13.626000000000031,12.188092041015626,1.448406982421875,11.59742431640625
13.636000000000024,10.173989868164064,1.6650848388671875,11.890963745117189
13.646999999999991,3.025115966796875,-0.408233642578125,6.986776733398438
13.656999999999982,-1.9291656494140623,-2.108758544921875,3.342581176757813
13.667000000000035,5.308981323242188,-0.9105255126953126,5.650820922851563
13.67700000000002,10.761068725585938,-0.972882080078125,9.24013671875
13.687000000000012,12.150408935546876,-0.34632568359375,10.707684326171876
13.697000000000005,6.839035034179688,1.15262451171875,9.175387573242189
13.706999999999994,1.992718505859375,-0.3488677978515625,5.155856323242188
13.716999999999985,3.910968017578125,-0.1550689697265625,3.9790069580078127
13.727000000000032,7.73460693359375,1.206607055664063,5.733514404296876
13.737000000000023,10.493548583984376,0.6328369140625001,9.489114379882814
13.747000000000014,8.310171508789063,1.16458740234375,10.485174560546875
13.75799999999998,3.2939819335937504,0.8753845214843751,8.342919921875001
13.768000000000036,3.408676147460938,-0.8095886230468751,5.402291870117188
13.776999999999989,6.245077514648438,-0.51141357421875,5.039816284179688
13.788000000000013,8.935980224609375,0.1852752685546875,5.602520751953126
13.797000000000024,9.836038208007814,-1.0516876220703126,8.824725341796876
13.807999999999993,6.186907958984375,-0.436944580078125,9.070114135742188
13.817999999999984,4.046597290039063,-0.8217010498046876,8.007510375976564
13.828000000000031,4.438681030273438,-1.5608581542968751,7.150518798828125
13.840000000000032,5.58726806640625,0.4723846435546875,6.146981811523438
13.848000000000011,7.8270202636718755,1.0226776123046877,7.869488525390626
13.858000000000004,7.52047119140625,0.4735809326171875,7.995547485351563
13.867999999999997,6.276629638671875,1.3387969970703126,8.458511352539062
13.877999999999986,6.314761352539063,0.5323486328125,6.997692871093751
13.888000000000034,6.232666015625001,0.102581787109375,5.793927001953126
13.898000000000025,7.375271606445313,1.036285400390625,6.198870849609375
13.908000000000015,6.614730834960938,0.03409423828125,7.629931640625
13.918000000000006,5.771646118164063,-0.5431152343750001,9.198416137695313
13.927999999999995,5.442068481445313,-0.0946563720703125,8.588308715820313
13.93900000000002,5.092602539062501,-1.1017822265625,6.753500366210938
13.949000000000012,4.3981567382812505,-0.490478515625,3.486135864257813
13.959000000000003,6.931597900390625,0.7070068359375,5.701364135742188
13.968999999999994,14.984716796875,-0.1066192626953125,13.658779907226563
13.978999999999983,7.710083007812501,-0.01256103515625,9.7365966796875
13.989000000000033,0.5662933349609376,-0.91695556640625,4.760333251953125
13.999000000000024,2.627349853515625,-0.398663330078125,4.4445129394531255
14.009000000000016,5.8905273437500005,0.94566650390625,5.908172607421875
14.019000000000004,10.781854248046876,1.2269439697265625,10.229916381835938
14.028999999999996,9.020617675781253,0.855047607421875,11.681912231445311
14.04000000000002,4.356585693359375,-0.351409912109375,8.240188598632812
14.048999999999978,3.7708526611328126,-1.7102447509765626,4.975515747070313
14.059000000000026,5.759832763671875,-0.0279632568359375,3.828573608398438
14.069999999999991,9.337933349609376,0.6727630615234376,5.62554931640625
14.079999999999984,9.9016845703125,-0.5887237548828126,9.48477783203125
14.090000000000032,6.441119384765625,-0.1697235107421875,10.037911987304687
14.100000000000025,3.617279052734376,-0.7405029296875001,8.099923706054689
14.110000000000014,3.831564331054688,-0.83082275390625,5.788095092773438
14.120000000000005,7.166668701171876,1.3552459716796876,4.52496337890625
14.129999999999995,8.851193237304688,0.725250244140625,6.911709594726563
14.139999999999986,8.200860595703126,0.093310546875,8.420230102539064
14.149999999999975,5.476910400390626,0.7831207275390626,9.80044860839844
14.160000000000023,3.907977294921875,-0.12142333984375,7.965042114257813
14.170000000000016,5.052227783203126,0.128900146484375,6.442016601562501
14.180000000000009,7.190145874023438,0.95045166015625,6.5798889160156255
14.18999999999999,7.981192016601563,-0.2038177490234375,6.618020629882813
14.199999999999996,6.907821655273438,-0.3312225341796875,8.552270507812501
14.209999999999988,6.006716918945313,0.0737213134765625,8.0354736328125
14.221000000000004,6.045895385742188,-1.0993896484375,7.488919067382813
14.230999999999996,7.003375244140625,-0.586181640625,6.00238037109375
14.240999999999984,6.713125610351563,0.35709228515625,6.527850341796875
14.251000000000031,6.602169799804688,-0.2471832275390625,7.915695190429688
14.261000000000024,5.342477416992188,0.3611297607421875,8.525054931640625
14.271000000000017,5.208792114257813,-0.0572723388671875,7.9110595703125
14.281000000000006,5.101724243164063,-1.2475799560546876,4.943515014648438
14.290999999999997,5.482144165039063,0.2678192138671875,4.690948486328125
14.300999999999997,12.146221923828126,1.84049072265625,10.427752685546876
14.310999999999986,10.724432373046875,1.411920166015625,11.360708618164065
14.321000000000026,3.595895385742188,0.36666259765625,7.372280883789063
14.331000000000016,-0.115740966796875,-0.7778869628906251,4.6777893066406255
14.341000000000008,3.7485717773437504,-0.9724334716796876,5.198773193359376
14.351,10.271487426757814,-0.1374237060546875,8.969775390625001
14.362000000000023,11.240780639648438,-0.226397705078125,10.596429443359376
14.372000000000014,7.171603393554688,0.3847564697265625,8.858819580078126
14.382000000000003,3.118276977539063,-0.0390289306640625,5.9814453125
14.391999999999996,3.464004516601563,-0.2489776611328125,3.9411743164062494
14.401999999999989,8.257983398437501,0.4687957763671875,5.843273925781251
14.411999999999978,10.020266723632814,0.284716796875,8.697918701171876
14.422000000000024,7.988220214843751,0.8339630126953126,10.171746826171876
14.432000000000016,4.071270751953126,0.4284210205078125,8.410809326171876
14.442000000000007,3.1730072021484377,-0.4355987548828125,6.154309082031251
14.451999999999993,6.33494873046875,-0.42767333984375,4.67210693359375
14.461999999999996,8.674740600585938,-0.0447113037109375,6.461007690429688
14.471999999999989,9.110189819335938,-0.0861328125,7.806683349609376
14.482000000000028,6.5090087890625,-0.079254150390625,9.560144042968751
14.49200000000002,4.329968261718751,-0.6582580566406251,7.84227294921875
14.502999999999986,4.450045776367188,-1.0020416259765623,7.181024169921876
14.513000000000034,6.030941772460938,-0.057421875,6.450390625000001
14.523000000000025,7.377365112304688,0.9081329345703124,7.220950317382813
14.533000000000015,7.51090087890625,0.3231475830078125,8.480792236328126
14.543000000000006,6.45457763671875,0.8062988281250001,7.845712280273438
14.552999999999995,6.169561767578125,0.17884521484375,7.395608520507813
14.562999999999995,6.794622802734375,0.0227294921875,5.92821044921875
14.572999999999986,6.561196899414063,0.6222198486328125,6.231320190429688
14.583000000000029,6.919635009765625,0.185723876953125,7.601220703125
14.59300000000001,5.838339233398438,-0.34931640625,8.908016967773438
14.603000000000009,5.288345336914063,0.0251220703125,8.728872680664063
14.613,5.803945922851563,-0.54730224609375,6.738247680664063
14.622999999999998,3.935491943359376,-0.47911376953125,3.679635620117188
14.63299999999998,5.967388916015626,0.5486480712890626,3.887042236328125
14.644000000000004,14.86912536621094,0.2095001220703125,14.285635375976565
14.653999999999996,10.231411743164063,0.0871795654296875,11.361456298828124
14.663999999999987,0.663641357421875,-1.2371124267578126,5.4371337890625
14.673999999999978,0.2878570556640625,-0.7382598876953126,3.799264526367188
14.684000000000026,4.884896850585938,1.2897491455078125,5.304495239257813
14.694000000000017,11.079431152343751,1.36317138671875,9.358419799804688
14.704000000000008,11.478991699218753,0.984844970703125,12.052911376953126
14.714,5.315560913085938,-0.062506103515625,8.853436279296876
14.723999999999997,2.4802062988281253,-2.040570068359376,5.253054809570313
14.733999999999988,4.063644409179688,-0.3074462890625,3.7439361572265626
14.744000000000028,8.601019287109375,0.82364501953125,5.243634033203126
14.756000000000036,11.223883056640624,-0.5135070800781251,9.258529663085938
14.764999999999986,7.760028076171875,-0.192901611328125,10.285394287109376
14.774999999999975,3.8118255615234378,-0.518890380859375,8.614178466796876
14.785000000000023,2.720510864257813,-1.2039154052734375,5.5687255859375
14.795000000000016,6.228329467773438,1.0977447509765623,4.695883178710938
14.805000000000009,9.044094848632811,1.1061187744140626,5.957669067382813
14.81499999999999,8.774331665039064,0.042767333984375,8.877362060546876
14.824999999999996,6.296517944335938,0.978564453125,9.736148071289064
14.834999999999988,3.4604156494140628,-0.0157012939453125,8.578140258789062
14.845000000000027,4.6483306884765625,-0.389990234375,6.275881958007813
14.855999999999996,6.808380126953126,1.0525848388671877,6.045895385742188
14.865000000000007,8.407070922851563,-0.0462066650390625,6.620861816406251
14.875,7.578790283203125,-0.4849456787109375,8.275628662109376
14.884999999999993,5.291485595703126,0.041571044921875,8.796163940429688
14.894999999999982,5.995800781250001,-1.0460052490234375,7.602267456054688
14.905000000000037,6.510354614257813,-0.887945556640625,6.3481079101562505
14.91500000000002,7.17593994140625,0.60711669921875,5.780767822265625
14.925999999999997,7.095339965820313,-0.14176025390625,7.503872680664063
14.935999999999986,5.532537841796875,0.203668212890625,8.783004760742188
14.946000000000026,5.176492309570313,0.5698822021484375,8.486325073242188
14.956000000000016,5.744729614257813,-0.814373779296875,6.921429443359376
14.966000000000008,4.758688354492188,-0.1763031005859375,3.483145141601563
14.976,7.421478271484376,1.2173736572265623,5.870639038085938
14.985999999999995,12.501220703125002,1.2387573242187502,11.375363159179688
14.99599999999998,9.38787841796875,1.353152465820313,11.665762329101565
15.006000000000036,2.1624420166015628,-0.4894317626953125,6.946401977539063
15.01600000000002,-1.1429046630859376,-1.9306610107421875,3.2760375976562504
15.02600000000001,5.67698974609375,-0.6030792236328125,6.124551391601563
15.036,11.280108642578126,-0.5064788818359376,8.95362548828125
15.045999999999992,11.369979858398438,-0.1052734375,11.168255615234376
15.057000000000016,6.22728271484375,1.1204742431640626,8.974859619140625
15.067000000000007,1.981204223632813,-0.288006591796875,5.051031494140625
15.076999999999993,4.3358001708984375,-0.166583251953125,3.888388061523438
15.086999999999996,8.620608520507814,1.2571502685546876,5.610446166992188
15.096999999999989,10.338629150390624,0.2875579833984375,9.720446777343753
15.107000000000028,8.013790893554688,1.0196868896484377,10.297207641601563
15.11700000000002,2.7526611328125004,0.5682373046875,8.293872070312501
15.12700000000001,3.6660278320312494,-1.1147918701171875,5.290737915039063
15.137,6.534729003906251,-0.353204345703125,5.168417358398438
15.146999999999991,8.778070068359376,0.098095703125,5.788693237304688
15.156999999999982,9.75693359375,-0.8471221923828126,8.866595458984376
15.167000000000035,5.781964111328126,-0.2483795166015625,9.117218017578123
15.17700000000002,4.362118530273438,-0.6959411621093751,7.934088134765625
15.187000000000012,4.490121459960938,-1.34163818359375,6.995300292968751
15.197000000000005,5.9635009765625,0.5945556640625,6.268405151367188
15.206999999999994,7.709484863281251,1.1396148681640623,7.563088989257813
15.21800000000001,7.151864624023438,0.3545501708984375,8.468380737304688
15.228000000000009,6.369790649414063,1.2946838378906251,8.193832397460938
15.238,6.2613769531250005,0.2271453857421875,7.1466308593750005
15.247999999999998,6.622955322265626,-0.0620574951171875,5.6502227783203125
15.25799999999998,7.175790405273438,1.017742919921875,6.048886108398438
15.268000000000036,6.654208374023438,-0.10228271484375,7.9436584472656255
15.27800000000002,5.733364868164063,-0.5881256103515625,8.973663330078125
15.288000000000013,5.156155395507813,-0.1949951171875,8.989215087890626
15.298000000000002,6.0161376953125005,-1.184625244140625,6.881951904296876
15.307999999999993,6.594692993164063,-0.8511596679687501,5.756842041015625
15.317999999999984,3.5022857666015628,-0.0258697509765625,3.1091552734375
15.328000000000031,8.27174072265625,-0.10587158203125,7.754495239257813
15.339,14.84819030761719,0.573919677734375,14.526687622070314
15.348999999999997,5.967837524414063,0.124713134765625,8.071063232421876
15.358999999999988,1.2607391357421875,-1.49476318359375,4.917645263671876
15.369000000000028,1.6164855957031252,1.4838470458984376,4.069625854492188
15.37900000000002,5.894415283203125,2.4716827392578127,6.669012451171875
15.38900000000001,12.18226013183594,1.050640869140625,11.343362426757814
15.399,8.708236694335938,1.0623046875000002,10.891464233398438
15.408999999999992,5.007815551757813,-1.44571533203125,7.316802978515626
15.418999999999984,3.106314086914063,-2.0555236816406253,4.082037353515625
15.429000000000038,4.999591064453125,0.7245025634765625,4.135272216796875
15.43900000000002,10.351638793945312,-0.1789947509765625,6.8355957031250005
15.449000000000012,9.684857177734376,-1.5188385009765626,10.390518188476562
15.459000000000003,6.517681884765626,0.1499847412109375,9.440365600585938
15.468999999999994,3.149978637695313,-1.3604797363281251,7.617221069335938
15.478999999999983,3.827227783203125,-0.446514892578125,4.7301269531250005
15.489000000000033,7.689297485351563,2.07017822265625,5.270849609375
15.5,8.908615112304688,0.366363525390625,7.058853149414063
15.509999999999993,8.358322143554688,0.8590850830078126,9.068768310546876
15.519999999999982,5.104565429687501,1.421490478515625,9.737643432617189
15.530000000000037,3.470135498046876,-0.6117523193359375,7.409515380859376
15.54000000000002,5.374627685546876,0.2743988037109375,6.554168701171876
15.550000000000011,7.093545532226563,0.774298095703125,6.0808868408203125
15.560000000000002,8.353985595703126,-0.7185211181640625,7.184762573242188
15.569999999999991,7.229473876953126,-0.427374267578125,8.769247436523438
15.579999999999984,5.421731567382813,-0.416009521484375,8.064782714843751
15.590000000000032,6.400146484375001,-1.942324829101563,7.006665039062501
15.600000000000025,6.439175415039063,-0.0414215087890625,6.0520263671875005
15.610000000000014,6.976608276367188,0.5193389892578125,6.202758789062501
15.620000000000005,6.973468017578125,-0.3345123291015625,8.775228881835938
15.631000000000036,4.978656005859375,0.7768402099609376,8.306732177734375
15.64100000000002,5.385244750976563,0.24703369140625,8.078240966796876
15.65100000000001,4.558758544921876,-0.69205322265625,4.655059814453125
15.661,4.894168090820313,1.40264892578125,3.930108642578125
15.670999999999992,13.98746032714844,1.849462890625,11.842813110351564
15.680999999999983,10.70962829589844,1.270458984375,10.771835327148438
15.691000000000033,2.58577880859375,0.1900604248046875,7.203005981445313
15.701000000000022,-0.3581390380859375,-1.5349884033203127,4.251461791992188
15.711000000000013,3.795526123046875,-2.139862060546875,5.678784179687501
15.721000000000004,11.225527954101564,-0.8481689453125001,8.981887817382812
15.730999999999996,11.001223754882814,-0.670819091796875,11.151358032226565
15.740999999999984,6.846212768554688,0.8193084716796876,8.499484252929689
15.751000000000031,2.9316558837890625,0.026318359375,5.978753662109376
15.762,3.314617919921876,-0.3988128662109375,3.378619384765625
15.771999999999991,8.99908447265625,0.8453277587890625,6.0209228515625
15.781999999999982,9.825421142578126,0.9129180908203126,9.089703369140626
15.792000000000035,8.057305908203126,1.5826904296875002,9.978695678710938
15.80200000000002,3.8548919677734377,0.8227478027343751,8.612982177734375
15.812000000000012,3.0593597412109377,-0.51978759765625,5.427713012695313
15.822000000000005,6.645834350585938,-0.557171630859375,5.164529418945313
15.831999999999994,8.578439331054689,-0.17406005859375,6.190048217773438
15.841999999999985,8.887530517578126,-0.45159912109375,8.28131103515625
15.852000000000032,6.76920166015625,-0.720166015625,9.505114746093753
15.862000000000023,3.87119140625,-0.9023010253906252,7.929302978515626
15.872000000000014,4.766165161132813,-1.1868682861328126,7.039114379882813
15.882000000000003,6.091354370117188,0.0136077880859375,6.439474487304688
15.891999999999996,7.404281616210938,1.0053314208984376,6.792678833007813
15.901999999999989,7.895358276367188,0.4347015380859375,8.640496826171876
15.911999999999978,5.906228637695313,1.2386077880859376,8.116970825195313
15.923000000000002,6.201712036132813,0.66812744140625,7.386337280273438
15.932999999999993,6.460409545898438,0.288604736328125,6.034979248046875
15.942999999999984,6.770697021484375,0.717474365234375,5.77867431640625
15.953000000000031,7.252502441406251,0.1894622802734375,8.212973022460938
15.963000000000022,5.486929321289063,-0.40853271484375,8.359368896484376
15.973000000000011,5.312570190429688,-0.0886749267578125,8.653057861328126
15.983000000000004,4.635769653320313,-0.5819946289062501,5.3990020751953125
15.992999999999997,3.0293029785156254,-0.2352203369140625,2.6870147705078127
16.002999999999986,13.000372314453124,0.3701019287109375,10.4328369140625
16.013000000000034,14.110379028320311,-0.124713134765625,14.152996826171876
16.023000000000025,2.806793212890625,-0.8537017822265626,6.553421020507813
16.033000000000015,-0.5049835205078126,-1.4772674560546877,4.097439575195313
16.043000000000006,2.9602172851562503,0.03050537109375,4.2655181884765625
16.054000000000038,9.704147338867188,1.1460449218750002,7.779617309570313
16.06400000000002,12.132913208007814,1.3229461669921876,11.82935485839844
16.074000000000012,7.219754028320313,0.9381896972656252,10.36405029296875
16.084000000000003,2.763726806640625,-1.2900482177734376,6.782061767578125
16.093999999999994,2.845822143554688,-1.259393310546875,3.688009643554688
16.103999999999985,7.284503173828125,1.079052734375,4.318005371093751
16.114000000000033,11.091394042968751,0.0976470947265625,7.892517089843751
16.124000000000024,9.2245849609375,-0.0459075927734375,10.240682983398438
16.134000000000015,5.141351318359376,-0.1727142333984375,9.668408203125
16.144000000000005,2.3942230224609378,-1.5508392333984375,6.542205810546876
16.156000000000006,4.72952880859375,0.149835205078125,4.596441650390625
16.163999999999987,8.667263793945313,1.179541015625,5.140603637695313
16.173999999999978,9.186602783203126,-0.1081146240234375,7.831805419921875
16.185000000000002,7.413104248046875,0.5788543701171875,9.86145935058594
16.194999999999993,3.959716796875,0.432757568359375,9.374868774414065
16.204999999999984,3.662588500976563,-0.503936767578125,6.823483276367188
16.215000000000032,6.393267822265625,0.9023010253906252,6.229077148437501
16.225000000000023,7.942462158203125,0.7053619384765626,5.7649169921875005
16.235000000000014,8.535223388671875,-0.551190185546875,8.009005737304689
16.245000000000005,5.7773284912109375,0.398663330078125,8.569766235351564
16.256000000000036,5.112490844726563,-0.3967193603515625,8.34949951171875
16.264999999999986,6.672750854492188,-1.108062744140625,6.756042480468751
16.274999999999977,6.745126342773438,0.146844482421875,5.695083618164063
16.285000000000025,7.745523071289063,0.0007476806640625,6.857876586914063
16.295000000000016,6.00238037109375,-0.2669219970703125,8.361761474609375
16.305000000000007,4.715921020507813,0.4916748046875,8.869436645507813
16.31499999999999,6.228778076171875,-0.5133575439453125,7.724588012695313
16.324999999999996,5.642147827148438,-0.633734130859375,5.327374267578126
16.336000000000013,5.152416992187501,1.0464538574218751,3.2234008789062503
16.345000000000027,8.855081176757814,1.1121002197265626,8.595037841796875
16.355999999999995,11.742623901367187,1.6976837158203126,11.968572998046875
16.365999999999985,7.687054443359376,1.1106048583984376,11.102160644531253
16.376000000000033,0.8399444580078126,-1.4527435302734375,4.975964355468751
16.386000000000024,0.3007171630859375,-1.411920166015625,3.0903137207031253
16.396000000000015,7.352243041992188,-0.8683563232421876,6.9791503906250005
16.406000000000006,11.667556762695312,-1.329376220703125,10.019818115234376
16.415999999999997,10.2115234375,0.372943115234375,11.3946533203125
16.425999999999995,4.858428955078125,0.6421081542968751,7.850347900390625
16.435999999999986,2.285211181640625,-0.7980743408203126,4.239498901367188
16.446000000000026,5.367001342773438,0.45040283203125,3.9371368408203127
16.456999999999994,9.001028442382813,1.0905670166015626,6.983935546875
16.466999999999985,10.3921630859375,0.5849853515625001,10.416836547851563
16.477000000000032,6.444857788085938,1.5671386718750002,9.978546142578123
16.487000000000023,2.805746459960938,-0.005682373046875,6.903335571289063
16.497000000000014,4.759735107421875,-0.9186004638671876,5.342626953125
16.507000000000005,6.695629882812501,0.3183624267578125,4.842877197265626
16.516999999999996,9.325671386718753,-0.2755950927734375,6.887783813476563
16.526999999999987,8.858969116210938,-0.94566650390625,9.044992065429687
16.536999999999978,5.04893798828125,-0.2367156982421875,8.797061157226564
16.547000000000025,4.6957336425781255,-1.3349090576171876,8.003771972656251
16.557000000000016,4.380810546875001,-0.6733612060546875,6.460708618164063
16.567000000000007,6.336444091796875,1.0494445800781251,6.5783935546875005
16.57699999999999,8.036221313476563,0.480908203125,7.704849243164063
16.586999999999996,6.8012023925781255,0.5878265380859375,8.592196655273439
16.596999999999987,6.60770263671875,1.3026092529296875,7.866796875
16.607000000000028,6.00238037109375,-0.054730224609375,6.88284912109375
16.61700000000002,6.737200927734375,0.5924621582031251,5.385992431640625
16.62700000000001,7.116275024414063,0.8106353759765625,6.834249877929688
16.638000000000034,6.4124084472656255,-0.466552734375,8.072109985351563
