time,ax,ay,az
0.0,6.4491943359375,0.5163482666015625,7.331607055664063
0.0099999999999909,6.485830688476563,1.0806976318359376,7.108648681640625
0.0199999999999747,6.381155395507813,1.4231353759765626,7.156350708007813
0.0299999999999727,5.96409912109375,1.2697113037109375,6.550430297851563
0.0399999999999636,6.804043579101563,1.0648468017578123,7.979995727539063
0.0499999999999616,6.677386474609375,0.6899597167968751,8.266806030273438
0.0599999999999454,4.7256408691406255,-0.0447113037109375,7.857376098632813
0.0699999999999363,5.782562255859375,-0.24583740234375,7.274185180664063
0.0800000000000409,7.506115722656251,-0.6440521240234376,7.006216430664063
0.0900000000000389,8.176336669921875,-1.1011840820312502,6.574655151367188
0.1000000000000298,7.67838134765625,-1.4295654296875,7.148724365234376
0.1100000000000136,6.162533569335938,-0.452197265625,7.265960693359376
0.1209999999999809,5.670858764648438,-0.3385498046875,8.0235107421875
0.1309999999999718,6.133374023437501,0.122021484375,7.599426269531251
0.1409999999999627,6.609497070312501,0.8578887939453126,7.693484497070313
0.1509999999999607,6.7892395019531255,1.0802490234375002,6.563290405273438
0.1609999999999516,6.77159423828125,0.8828613281250001,7.3105224609375
0.1709999999999354,6.841876220703125,1.388592529296875,6.824081420898438
0.18100000000004,6.487774658203126,0.8007659912109376,7.482638549804688
0.1910000000000309,6.31461181640625,0.2432952880859375,7.149920654296875
0.2010000000000218,6.209786987304688,0.0157012939453125,7.897451782226563
0.2110000000000127,5.7619262695312505,-0.449505615234375,7.77049560546875
0.2210000000000036,5.882153320312501,-1.0494445800781251,7.688250732421875
0.2310000000000016,6.354089355468751,-0.9151611328125,7.652362060546875
0.2409999999999854,7.072460937500001,-1.0135559082031251,6.947299194335938
0.2519999999999598,7.681820678710938,-1.155914306640625,6.969430541992188
0.2619999999999507,7.556808471679688,-0.741400146484375,6.758584594726563
0.2719999999999345,6.662881469726563,-0.2292388916015625,7.0389648437500005
0.2820000000000391,6.276629638671875,0.271856689453125,7.582229614257813
0.29200000000003,5.880657958984376,0.8922821044921876,7.567276000976563
0.3020000000000209,6.099578857421875,1.10477294921875,7.790832519531251
0.3120000000000047,6.268255615234375,1.2019714355468751,7.560546875000001
0.3220000000000027,6.281414794921876,1.3008148193359377,7.3248779296875
0.3320000000000007,6.682919311523438,1.0029388427734376,7.052124023437501
0.3419999999999845,6.878512573242188,0.4783660888671875,7.048983764648438
0.3519999999999754,6.865054321289063,-0.1425079345703125,7.290933227539063
0.3619999999999663,6.544448852539063,-0.8043548583984376,7.271942138671876
0.3719999999999572,6.118719482421875,-1.3180114746093752,7.584024047851563
0.3819999999999481,6.423324584960938,-1.5228759765625002,7.702606201171876
0.391999999999939,6.672003173828125,-1.4641082763671875,7.3006530761718755
0.40300000000002,6.750210571289063,-1.1285491943359376,7.398001098632813
0.4130000000000109,6.764715576171875,-0.7645782470703125,7.111938476562501
0.4230000000000089,6.846212768554688,-0.1323394775390625,7.387832641601563
0.4329999999999998,6.132327270507813,0.7923919677734376,6.43424072265625
0.4429999999999836,5.84207763671875,1.5488952636718751,6.312966918945313
0.4529999999999745,6.788940429687501,2.328875732421875,7.552471923828126
0.4629999999999654,7.2498107910156255,2.655014038085937,8.941213989257813
0.4729999999999563,6.299209594726563,2.3155670166015625,7.816403198242188
0.4829999999999472,5.471975708007813,1.648187255859375,8.021417236328126
0.4929999999999381,4.981497192382813,0.33974609375,6.794772338867188
0.5030000000000427,6.365304565429688,-0.387298583984375,7.407720947265625
0.5130000000000408,7.745074462890625,-0.8596832275390626,7.455123901367188
0.5230000000000317,8.01453857421875,-1.318310546875,7.913601684570313
0.5330000000000155,7.252502441406251,-1.965802001953125,6.995150756835938
0.5439999999999827,5.8295166015625,-1.729983520507813,6.93309326171875
0.5539999999999736,5.718112182617188,-1.7790313720703126,6.9958984375
0.5639999999999645,6.326873779296876,-1.1279510498046876,7.757186889648438
0.5739999999999554,6.585421752929688,-0.0728240966796875,7.726531982421876
0.5839999999999463,7.009655761718751,0.59635009765625,7.795318603515626
0.5939999999999372,6.880456542968751,0.6989318847656251,6.760079956054688
0.6040000000000347,6.72972412109375,1.3151702880859375,6.465194702148438
0.6140000000000398,6.57420654296875,1.287506103515625,6.3176025390625
0.6240000000000308,6.207843017578125,1.475323486328125,7.367794799804688
0.6340000000000146,6.070718383789063,1.304852294921875,8.031137084960939
0.6440000000000055,5.857180786132813,0.5920135498046876,8.617617797851564
0.6539999999999964,5.5974365234375005,-0.4194488525390625,7.979397583007813
0.6639999999999873,5.7713470458984375,-0.45399169921875,7.414599609375
0.6749999999999616,6.602020263671876,-0.8978149414062501,6.820941162109375
0.6849999999999454,7.680175781250001,-1.1264556884765626,6.769650268554688
0.6949999999999363,7.730868530273438,-1.048248291015625,7.044647216796876
0.7050000000000409,6.982589721679688,-0.790447998046875,7.177883911132813
0.7150000000000389,6.139205932617188,-0.639715576171875,7.422076416015625
0.7250000000000298,5.467041015625,0.170770263671875,7.655203247070313
0.7350000000000136,5.851498413085938,0.576611328125,7.655203247070313
0.7450000000000045,6.400894165039063,1.1251098632812502,8.089456176757814
0.7549999999999955,6.550430297851563,1.320404052734375,7.282409667968751
0.7649999999999864,6.717611694335938,1.1609985351562502,7.212426757812499
0.7749999999999773,6.445904541015626,0.5432647705078125,5.886788940429688
0.7849999999999682,5.830264282226563,-0.122918701171875,4.542459106445313
0.7949999999999591,8.8848388671875,0.165087890625,9.421524047851562
0.80499999999995,7.006515502929688,-0.168377685546875,9.042599487304688
0.8149999999999409,2.888888549804688,-1.8412384033203129,7.515386962890625
0.8260000000000218,5.336346435546876,-0.3886444091796875,8.139102172851564
0.8360000000000127,8.28848876953125,-0.8190093994140626,6.9791503906250005
0.8460000000000036,8.048931884765626,-0.7822235107421875,6.6815734863281255
0.8560000000000016,7.161883544921875,0.451300048828125,7.318447875976563
0.8659999999999854,4.966244506835938,0.8255889892578125,8.097531127929688
0.8759999999999764,5.983538818359375,0.3108856201171875,7.805935668945313
0.8859999999999673,6.627291870117188,1.1152404785156251,7.470526123046875
0.8959999999999582,7.692587280273438,1.2526641845703126,6.6047119140625
0.9059999999999492,6.845614624023438,0.6311920166015625,7.366000366210938
0.91599999999994,5.3302154541015625,1.2212615966796876,7.81954345703125
0.9260000000000446,6.0927001953125,0.5254699707031251,7.863955688476563
0.9360000000000356,6.694134521484376,-0.7304840087890625,7.198968505859376
0.9460000000000264,7.619165039062499,-0.2361175537109375,6.627441406250001
0.9570000000000008,7.596435546875001,-0.9787139892578126,7.125546264648438
0.9669999999999844,5.63153076171875,-1.25909423828125,6.742733764648438
0.9759999999999992,6.255844116210938,-0.6171356201171876,7.645932006835938
0.9869999999999663,6.696975708007813,-1.0633514404296875,7.133770751953126
0.9969999999999573,6.82841796875,-0.600836181640625,7.233062744140626
1.0069999999999482,6.580337524414063,0.4840484619140625,7.327270507812501
1.016999999999939,5.491864013671876,0.459375,7.858123779296876
1.0270000000000437,5.663531494140625,0.9692932128906252,7.986724853515626
1.0399999999999636,5.818301391601563,1.4925201416015623,7.779617309570313
1.0470000000000257,6.893765258789063,0.8109344482421875,7.135565185546875
1.0570000000000164,7.85423583984375,0.8333648681640625,6.958364868164063
1.0670000000000073,6.436483764648438,0.5124603271484376,6.626693725585938
1.0769999999999982,6.657199096679688,-0.2385101318359375,7.220053100585938
1.0879999999999654,6.166122436523438,-0.394476318359375,7.652661132812501
1.09699999999998,6.002529907226563,-0.6488372802734376,7.708587646484376
1.1079999999999472,6.947149658203125,-1.2861602783203123,7.745822143554688
1.1179999999999382,6.1327758789062505,-0.8429351806640626,7.470227050781251
1.1269999999999598,6.187954711914063,-0.617584228515625,7.181771850585938
1.1399999999999864,6.569421386718751,-0.2770904541015625,7.496694946289063
1.1480000000000317,6.596487426757813,0.503338623046875,6.885540771484376
1.1580000000000157,7.601669311523438,0.67889404296875,7.447198486328125
1.1680000000000064,6.50003662109375,0.66094970703125,7.021618652343751
1.1779999999999973,5.552575683593751,1.5361846923828126,6.437530517578126
1.1879999999999882,4.5231689453125,1.6719635009765623,5.1619873046875
1.197999999999979,7.251754760742188,1.5140533447265625,9.264959716796875
1.20799999999997,8.212225341796875,1.121820068359375,9.356625366210938
1.217999999999961,4.928262329101563,0.7280914306640626,8.056259155273438
1.227999999999959,6.768304443359376,-1.1998779296875002,7.858273315429688
1.2390000000000398,6.900494384765626,-1.8928283691406247,5.885144042968751
1.2490000000000308,6.403286743164063,-2.762081909179688,5.50711669921875
1.2590000000000146,7.888330078125,-1.76273193359375,8.246170043945312
1.268000000000029,6.176290893554688,-1.185223388671875,9.276324462890626
1.2789999999999964,5.8217407226562505,-0.6655853271484375,8.245571899414063
1.2889999999999873,5.97366943359375,-0.1846771240234375,7.488320922851563
1.2989999999999782,5.926565551757813,1.2149810791015625,5.989520263671875
1.308999999999969,7.603164672851563,0.987835693359375,6.884045410156251
1.31899999999996,6.939224243164063,1.8116302490234373,7.726382446289063
1.3289999999999509,7.145584106445313,1.7094970703125,7.996145629882813
1.3389999999999418,6.240890502929688,0.7108947753906251,7.250857543945313
1.3490000000000464,6.15849609375,0.45638427734375,6.73271484375
1.3590000000000373,6.510055541992188,0.25660400390625,6.5514770507812505
1.3690000000000282,6.497644042968751,-1.1518768310546876,6.964196777343751
1.379000000000019,6.93668212890625,-0.7819244384765626,7.658343505859375
1.38900000000001,6.824380493164063,-1.140362548828125,7.825973510742188
1.399000000000001,6.048587036132813,-1.3793212890625002,6.954925537109376
1.4089999999999918,6.552374267578125,-0.37862548828125,7.505368041992188
1.419999999999959,5.730075073242188,-0.1136474609375,7.065432739257813
1.42999999999995,6.222198486328126,0.3859527587890625,7.986126708984376
1.4399999999999409,6.163729858398438,1.2891510009765623,8.018875122070312
1.4500000000000457,6.223544311523438,1.280029296875,7.676586914062501
1.4600000000000364,7.2148193359375,0.9963592529296876,6.83499755859375
1.4700000000000273,6.664675903320313,1.2320281982421877,6.69443359375
1.4800000000000182,6.83140869140625,0.654669189453125,6.664675903320313
1.490000000000009,6.6908447265625,0.16568603515625,7.778271484375001
1.5,5.775384521484376,-0.192901611328125,7.53243408203125
1.509999999999991,6.677984619140625,-0.95164794921875,8.3034423828125
1.5199999999999747,6.0689239501953125,-1.2643280029296875,7.231567382812501
1.5299999999999727,6.259133911132813,-0.7183715820312501,7.134219360351563
1.54099999999994,6.853390502929688,-1.072174072265625,7.236651611328125
1.5510000000000446,6.641796875000001,-0.4406829833984375,7.171902465820313
1.5610000000000357,7.020870971679688,0.1146942138671875,7.359121704101563
1.5710000000000264,6.191693115234376,-0.1598541259765625,6.295471191406251
1.5810000000000173,5.57769775390625,-0.13577880859375,5.740243530273438
1.5910000000000082,8.175588989257813,1.4150604248046876,9.374868774414065
1.600999999999999,5.891873168945313,0.6519775390625,8.462698364257813
1.61099999999999,3.508865356445313,0.205462646484375,7.307830810546876
1.620999999999981,6.489718627929688,1.6665802001953127,7.5264526367187505
1.6309999999999718,9.137554931640626,0.3509613037109375,6.748565673828126
1.6409999999999627,8.473464965820312,-0.18004150390625,6.976010131835938
1.6509999999999607,5.644540405273438,0.3306243896484375,7.395608520507813
1.6609999999999516,4.1690673828125,-0.3862518310546875,8.174990844726564
1.6709999999999354,5.789141845703125,-0.511114501953125,8.297311401367189
1.6820000000000164,7.122256469726563,-0.5372833251953125,7.584173583984375
1.6920000000000073,8.567523193359376,-0.5462554931640625,7.249063110351563
1.7019999999999982,6.607553100585938,-0.2056121826171875,6.720153808593751
1.711999999999989,5.336495971679688,1.0693328857421875,7.159490966796875
1.72199999999998,6.793426513671876,0.7409515380859375,7.364056396484376
1.731999999999971,6.826473999023438,0.6062194824218751,7.288241577148438
1.7419999999999547,7.5880615234375,0.9159088134765626,7.265213012695313
1.7519999999999598,6.268106079101563,0.3760833740234375,7.693634033203126
1.7619999999999507,4.7051544189453125,0.350213623046875,7.1496215820312505
1.7719999999999343,6.809725952148438,0.1807891845703125,7.344616699218751
1.782000000000039,7.336392211914063,-0.9064880371093752,6.639404296875001
1.79200000000003,7.581332397460938,-0.655865478515625,6.769052124023438
1.802000000000021,6.463699340820313,-0.8181121826171875,7.290484619140625
1.8120000000000047,5.275634765625,-1.0039855957031252,7.768850708007813
1.8220000000000027,5.862863159179688,-0.4756744384765625,8.410659790039062
1.8320000000000007,5.6218109130859375,-0.176751708984375,7.950686645507813
1.842999999999961,6.72374267578125,0.1484893798828125,7.212426757812499
1.852999999999959,7.306036376953125,0.72076416015625,7.176837158203125
1.8629999999999496,6.4276611328125,0.611602783203125,6.593347167968751
1.8729999999999336,7.160238647460938,0.91456298828125,7.1071533203125
1.8830000000000384,6.512896728515625,1.0673889160156251,7.145883178710938
1.893000000000029,6.459213256835938,0.7248016357421876,7.473217773437501
1.90300000000002,6.507812500000001,0.1709197998046875,7.821188354492188
1.913000000000011,5.478854370117188,-0.1511810302734375,7.599874877929688
1.923000000000009,6.213375854492188,-0.6899597167968751,7.64189453125
1.933,6.310125732421875,-0.4906280517578125,7.537518310546876
1.942999999999984,6.944607543945313,-0.5105163574218751,6.918289184570313
1.9529999999999743,7.691989135742188,-0.726446533203125,7.1242004394531255
1.9639999999999416,6.361566162109376,-0.430963134765625,6.779669189453125
1.9740000000000464,5.205352783203125,0.5546295166015626,5.781964111328126
1.9840000000000373,5.85882568359375,0.557769775390625,7.309326171875001
1.994000000000028,7.346710205078126,1.2919921875,8.412155151367188
2.004000000000019,6.625796508789063,1.6393646240234376,9.179873657226564
2.01400000000001,5.9730712890625,0.9757232666015626,7.611389160156251
2.024000000000001,7.055712890625,0.544012451171875,7.385440063476563
2.033999999999992,5.740542602539063,-0.64300537109375,5.959912109375001
2.0439999999999827,6.957766723632813,-1.293338012695313,7.172799682617188
2.0539999999999736,7.193734741210938,-1.119876098632813,8.520269775390625
2.0639999999999645,6.216067504882813,-1.2018218994140626,8.594290161132813
2.0739999999999554,6.737200927734375,-1.5726715087890626,7.734906005859376
2.0839999999999463,6.190197753906251,-0.3931304931640625,6.585421752929688
2.093999999999937,6.590805053710938,-0.605621337890625,6.096588134765625
2.1040000000000347,7.552023315429688,-0.017047119140625,7.468731689453126
2.115000000000009,6.533383178710938,1.0376312255859377,7.767355346679688
2.125,6.574057006835938,1.1659332275390626,8.202655029296876
2.134999999999991,6.14952392578125,0.9018524169921877,6.906027221679688
2.1449999999999747,6.318200683593751,1.639813232421875,6.6950317382812505
2.155999999999949,6.826773071289063,0.4541412353515625,6.41629638671875
2.164999999999964,6.516635131835938,0.37264404296875,7.156350708007813
2.1749999999999616,6.865652465820313,0.125909423828125,7.608847045898438
2.184999999999945,6.2099365234375,-0.46116943359375,8.124148559570314
2.1949999999999363,5.853143310546876,-0.67410888671875,7.30753173828125
2.205000000000041,6.070718383789063,-0.411224365234375,7.632772827148438
2.215000000000039,6.0584564208984375,-1.1669799804687502,7.334896850585938
2.22500000000003,6.496597290039063,-0.14295654296875,7.756439208984376
2.2350000000000136,6.697723388671876,-0.09271240234375,7.454226684570313
2.245999999999981,7.0951904296875,0.09989013671875,7.244577026367188
2.255999999999972,7.145135498046876,0.6183319091796875,6.845614624023438
2.2659999999999627,6.311770629882813,0.8429351806640626,6.634918212890626
2.2759999999999607,6.431698608398438,0.4140655517578125,7.536172485351563
2.285999999999952,5.816357421875001,1.0584167480468751,7.834796142578125
2.2959999999999354,6.1022705078125,0.3653167724609375,8.066726684570312
2.30600000000004,6.662881469726563,0.1792938232421875,7.555612182617188
2.316000000000031,6.342425537109375,-0.0483001708984375,7.101919555664063
2.326000000000022,6.834848022460938,-0.353204345703125,6.830661010742188
2.3360000000000127,6.792678833007813,-0.7856628417968751,7.1481262207031255
2.346000000000004,6.553720092773438,-0.3180633544921875,7.278521728515625
2.3560000000000016,6.793276977539063,-0.760540771484375,7.4660400390625
2.365999999999985,4.829867553710938,-0.7116424560546876,5.289691162109375
2.3759999999999764,7.1765380859375005,-0.0384307861328125,8.038912963867189
2.385999999999968,7.723690795898438,0.3602325439453125,8.5187744140625
2.395999999999958,4.035830688476563,0.124713134765625,7.820889282226563
2.405999999999949,5.996548461914063,1.4226867675781252,8.003622436523438
2.41700000000003,8.519223022460938,1.2287384033203126,7.702456665039063
2.427000000000021,7.162780761718751,0.8945251464843751,6.603964233398438
2.4370000000000047,6.482540893554688,0.8889923095703126,6.877764892578125
2.4470000000000027,4.866952514648438,0.2950347900390625,8.171551513671876
2.4570000000000007,6.5329345703125,-0.7941864013671875,7.993753051757813
2.4669999999999845,7.320690917968751,-1.1719146728515626,7.926611328125
2.4769999999999754,7.524508666992188,-0.6389678955078125,6.627291870117188
2.4869999999999663,6.8535400390625005,-1.1106048583984376,6.9507385253906255
2.4969999999999573,5.400347900390625,-0.576910400390625,7.17294921875
2.506999999999948,6.388931274414063,0.1751068115234375,8.020071411132813
2.516999999999939,6.754547119140626,-0.188116455078125,7.563088989257813
2.527000000000044,7.057955932617188,0.6957916259765625,7.033432006835938
2.5370000000000417,7.424020385742188,1.0875762939453126,7.128536987304688
2.548000000000009,5.5759033203125,0.4176544189453125,6.470428466796876
2.558,6.421231079101563,0.8982635498046876,6.997692871093751
2.567000000000008,6.748715209960938,0.456982421875,7.482638549804688
2.5779999999999745,6.516485595703125,-0.0681884765625,7.328765869140626
2.587999999999965,6.66990966796875,0.0046356201171875,7.978051757812499
2.5979999999999563,5.287448120117188,-0.313726806640625,7.457366943359376
2.6079999999999472,5.978305053710938,-0.6998291015625,7.814010620117188
2.617999999999938,6.195431518554688,-0.0916656494140625,7.530490112304688
2.6280000000000427,6.621459960937501,-0.3911865234375,7.211080932617188
2.6380000000000408,8.022463989257814,-0.5052825927734376,7.262371826171876
2.649000000000001,6.521569824218751,0.105572509765625,6.820492553710938
2.6580000000000155,6.514840698242188,0.2202667236328125,6.959860229492188
2.6680000000000064,6.325228881835938,0.414813232421875,7.635464477539063
2.6779999999999973,5.664279174804688,0.8200561523437501,7.435086059570313
2.689999999999941,6.864456176757813,0.3410919189453125,8.068820190429689
2.697999999999979,6.178833007812501,0.3207550048828125,7.391720581054688
2.7089999999999463,6.196179199218751,0.4990020751953125,7.337887573242188
2.718999999999937,6.799407958984376,-0.0213836669921875,7.164126586914063
2.7290000000000347,6.457418823242188,0.0013458251953125,6.848455810546875
2.73900000000004,7.434936523437501,-0.1272552490234375,7.347607421875001
2.7490000000000308,6.5619445800781255,-0.6192291259765625,7.412954711914063
2.7590000000000146,6.002230834960938,-0.220416259765625,7.212277221679688
2.769000000000005,5.08841552734375,0.282025146484375,6.271096801757813
2.7789999999999964,5.199221801757813,0.26976318359375,6.343472290039063
2.788999999999988,8.903979492187501,0.9745269775390626,9.400140380859376
2.798999999999978,6.299508666992188,1.0608093261718752,8.512493896484376
2.808999999999969,5.277130126953125,0.6346313476562501,7.054815673828125
2.81899999999996,8.521466064453126,-0.0530853271484375,7.893414306640626
2.828999999999951,5.997296142578126,-0.97198486328125,5.402291870117188
2.838999999999942,6.847857666015625,-1.15860595703125,7.024758911132813
2.85000000000003,5.980548095703125,-0.6018829345703125,9.017327880859376
2.8600000000000136,5.179632568359375,-0.6151916503906251,8.902633666992188
2.8700000000000045,7.044049072265626,-0.9945648193359377,8.293423461914063
2.8799999999999955,6.79013671875,0.185723876953125,6.506915283203125
2.8899999999999864,7.369888305664063,0.2065093994140625,5.803048706054688
2.8999999999999773,7.307382202148438,-0.2214630126953125,6.637310791015626
2.909999999999968,6.142196655273438,0.8444305419921876,7.679727172851563
2.919999999999959,7.024609375000001,0.654669189453125,8.589654541015626
2.93100000000004,5.741140747070313,0.2663238525390625,7.310073852539063
2.939999999999941,6.80150146484375,1.2918426513671877,6.904382324218751
2.950000000000045,6.363510131835938,0.00657958984375,6.442166137695313
2.9600000000000364,6.198571777343751,-0.0892730712890625,7.030441284179688
2.971000000000004,7.366000366210938,0.3339141845703125,7.328616333007813
2.9810000000000016,6.258236694335938,-0.3828125,7.770346069335938
2.990999999999985,6.669012451171875,-0.464459228515625,7.32547607421875
3.0009999999999764,5.97845458984375,0.085235595703125,7.765411376953126
3.010999999999968,5.227484130859375,-0.7412506103515626,7.118368530273438
3.020999999999958,6.449642944335938,0.2256500244140625,8.311517333984376
3.030999999999949,6.14354248046875,0.20994873046875,7.3978515625
3.04099999999994,7.400094604492188,0.04725341796875,7.1825195312500005
3.051000000000045,7.450787353515626,0.2667724609375,7.119863891601563
3.0610000000000355,6.068325805664063,0.792242431640625,6.388034057617188
3.0710000000000264,6.890026855468751,0.0701324462890625,7.424020385742188
3.0810000000000173,5.817852783203126,0.6261077880859376,7.56533203125
3.093999999999937,6.1884033203125,0.063104248046875,8.094540405273438
3.1019999999999754,6.777426147460938,-0.14415283203125,7.89969482421875
3.11099999999999,5.5675292968750005,0.04844970703125,7.168014526367188
3.1219999999999573,7.000234985351563,-0.1401153564453125,7.1182189941406255
3.130999999999972,6.738546752929688,-0.7038665771484376,7.069171142578125
3.141999999999939,6.758734130859375,0.13577880859375,6.883148193359376
3.152000000000044,7.317849731445313,-0.366064453125,7.804290771484376
3.1620000000000417,5.840133666992188,-0.0240753173828125,7.021170043945313
3.172000000000025,5.317205810546875,-0.1502838134765625,5.558108520507813
3.1820000000000164,6.478652954101563,-0.21712646484375,7.652362060546875
3.192000000000008,7.951583862304688,0.6222198486328125,9.103610229492189
3.201999999999998,4.4195404052734375,0.52935791015625,8.305386352539063
3.211999999999989,4.694088745117188,0.5387786865234375,7.231716918945313
3.22199999999998,9.047384643554688,1.3754333496093751,7.491162109375001
3.231999999999971,8.424716186523439,0.334063720703125,6.648376464843751
3.2419999999999547,6.808380126953126,0.26856689453125,6.45517578125
3.25199999999996,5.215222167968751,0.1993316650390625,8.528793334960938
3.2630000000000408,5.008563232421875,-1.20167236328125,7.662530517578125
3.273000000000032,7.150668334960938,-1.66463623046875,8.462100219726564
3.2830000000000155,7.322036743164063,-0.1269561767578125,6.768753051757813
3.2930000000000064,6.880307006835938,-0.6017333984375001,7.287045288085938
3.3029999999999973,6.2733398437500005,-0.1296478271484375,7.134368896484376
3.312999999999988,5.893218994140625,0.9033477783203124,7.603164672851563
3.322999999999979,7.040609741210938,0.1320404052734375,7.024609375000001
3.33299999999997,7.382748413085938,0.8119812011718751,7.105059814453125
3.342999999999961,6.989019775390625,1.3809661865234375,6.83499755859375
3.352999999999959,6.216067504882813,0.15611572265625,7.208837890625
3.36299999999995,5.495303344726563,0.377728271484375,7.309774780273438
3.3729999999999336,6.787594604492188,0.17884521484375,7.30394287109375
3.383000000000038,6.7961181640625,-0.844281005859375,7.394412231445313
3.393000000000029,6.64598388671875,-0.35111083984375,7.3846923828125
3.40300000000002,5.675494384765625,-0.4675994873046875,7.695578002929688
3.413999999999988,5.803048706054688,-0.902001953125,7.706643676757813
3.423999999999978,6.134719848632813,0.1751068115234375,7.7537475585937505
3.433999999999969,6.781314086914063,0.029010009765625,7.153958129882813
3.44399999999996,7.459759521484376,-0.259295654296875,7.030142211914063
3.453999999999951,6.854885864257813,0.8021118164062501,7.140499877929688
3.463999999999942,6.0958404541015625,0.5221801757812501,6.944458007812501
3.4740000000000464,6.402688598632813,0.591864013671875,7.729373168945313
3.4840000000000373,6.18900146484375,0.8979644775390626,7.335195922851563
3.494000000000028,6.598580932617188,0.120526123046875,7.765560913085938
3.504000000000019,6.447848510742188,-0.1520782470703125,7.376019287109376
3.51400000000001,5.890676879882813,0.2752960205078125,7.500582885742188
3.524000000000001,6.664077758789063,-0.5274139404296876,7.258334350585938
3.533999999999992,6.835894775390625,-0.39537353515625,7.160537719726563
3.5439999999999827,6.993057250976563,-0.2860626220703125,7.103564453125
3.55600000000004,6.955673217773438,-0.6587066650390625,7.337588500976563
3.564999999999941,5.845965576171875,-0.067889404296875,7.245474243164063
3.575000000000045,4.890280151367188,0.7932891845703126,5.817254638671876
3.5850000000000364,6.319546508789063,0.5372833251953125,7.400991821289063
3.595000000000028,8.546289062500001,1.247430419921875,8.778518676757812
3.605000000000018,5.598184204101563,1.4371917724609375,8.544943237304688
3.615000000000009,5.308831787109376,0.4735809326171875,7.172500610351563
3.625,7.778121948242188,0.1123016357421875,7.502078247070313
3.634999999999991,6.44261474609375,-1.0681365966796876,5.953781127929688
3.644999999999975,7.145733642578126,-1.3208526611328126,7.218557739257813
3.655999999999949,6.1895996093750005,-0.8242431640625001,8.953775024414064
3.664999999999964,5.481845092773438,-1.0518371582031252,8.411257934570314
3.6749999999999616,6.764416503906251,-1.3986114501953126,8.003472900390626
3.6849999999999454,7.074105834960938,0.1724151611328125,6.300405883789063
3.6960000000000255,7.369140625000001,-0.026318359375,6.253451538085938
3.706000000000017,7.102368164062501,0.1036285400390625,6.750061035156251
3.716000000000008,5.9881744384765625,1.1034271240234377,8.078540039062501
3.725999999999999,6.311770629882813,0.8320190429687501,8.169757080078126
3.73599999999999,6.097036743164063,0.7535125732421876,7.489666748046876
3.745999999999981,6.928308105468751,1.5469512939453127,6.664376831054688
3.755999999999972,6.7087890625,-0.039776611328125,6.414352416992188
3.7659999999999614,6.516784667968751,0.0299072265625,7.082928466796876
3.7759999999999607,6.790286254882813,0.1326385498046875,7.227529907226563
3.785999999999952,6.272891235351563,-0.7953826904296876,7.824777221679688
3.795999999999936,6.725088500976563,-0.6826324462890625,7.459909057617188
3.80600000000004,5.849255371093751,-0.281427001953125,7.722943115234376
3.816000000000031,5.586370849609375,-0.8631225585937501,7.3787109375
3.826000000000022,6.125,0.203668212890625,8.058203125
3.836999999999989,6.238497924804688,0.2761932373046875,7.401290893554688
3.84699999999998,7.526153564453126,0.1780975341796875,7.105358886718751
3.856999999999971,7.292578125,0.6567626953125001,7.053021240234376
3.866999999999954,6.408520507812501,0.9332550048828124,6.4109130859375005
3.87699999999996,6.49405517578125,0.402252197265625,7.65206298828125
3.886999999999951,5.681774902343751,0.8163177490234376,7.346560668945313
3.896999999999936,6.3466125488281255,0.0083740234375,8.295367431640626
3.907000000000039,6.567028808593751,-0.238958740234375,7.639651489257813
3.91700000000003,5.8561340332031255,-0.024822998046875,7.310073852539063
3.927000000000021,6.853988647460938,-0.5600128173828125,7.038067626953126
3.9370000000000047,6.71776123046875,-0.7348205566406251,7.067974853515626
3.9470000000000014,6.937878417968751,-0.161798095703125,7.087115478515625
3.95799999999997,7.171752929687501,-0.4888336181640625,7.471871948242188
3.967999999999961,5.893069458007813,-0.1230682373046875,7.062741088867188
3.977999999999959,4.993161010742188,-0.1278533935546875,5.4084228515625
3.98799999999995,6.901989746093751,-0.0629547119140625,8.631524658203126
3.9979999999999336,7.622903442382813,0.8845062255859376,8.815454101562501
4.008000000000038,3.927716064453125,0.795233154296875,7.881900024414063
4.018000000000029,6.0654846191406255,1.1710174560546875,7.5019287109375
4.02800000000002,8.692984008789063,1.4615661621093752,6.950888061523438
4.038000000000011,7.873077392578126,0.450103759765625,6.434390258789063
4.048000000000009,6.857577514648438,0.19559326171875,7.167416381835938
4.058,5.014694213867188,-0.1628448486328125,8.606103515625001
4.067999999999984,5.429507446289063,-1.912417602539063,7.527200317382813
4.077999999999975,7.074554443359376,-1.7921905517578127,8.401687622070312
4.087999999999965,7.410263061523438,-0.4725341796875,6.412857055664063
4.097999999999956,6.860418701171875,-0.764129638671875,7.221997070312501
4.107999999999947,6.164926147460938,-0.0210845947265625,7.282260131835938
4.117999999999938,6.1178222656250005,0.95224609375,7.759878540039063
4.128000000000043,6.823333740234376,0.1176849365234375,6.9301025390625
4.13900000000001,7.2737365722656255,1.3842559814453126,7.00487060546875
4.149000000000001,7.1017700195312505,1.4440704345703126,6.899896240234376
4.158999999999992,6.017483520507813,0.411822509765625,7.031936645507813
4.168999999999983,5.758187866210938,0.5962005615234376,7.431497192382813
4.178999999999974,6.421978759765626,0.1239654541015625,7.500732421875001
4.1889999999999645,6.731069946289063,-0.9764709472656252,7.516732788085938
4.198999999999955,6.822137451171876,-0.234173583984375,7.539761352539063
4.208999999999946,5.76910400390625,-0.8212524414062501,7.473965454101563
4.218999999999937,5.998941040039063,-1.0385284423828125,7.600921630859376
4.229000000000035,5.9851837158203125,0.033795166015625,7.697521972656251
4.23900000000004,6.804641723632813,-0.170770263671875,7.170407104492188
4.249000000000031,7.657595825195313,-0.2570526123046875,7.208538818359376
4.259000000000015,6.64658203125,0.95045166015625,7.146182250976563
4.269999999999975,6.262722778320313,0.5465545654296875,6.920532226562501
4.279999999999973,6.077297973632813,0.7819244384765626,7.667614746093751
4.289999999999964,6.0807373046875,1.0488464355468752,7.331307983398438
4.299999999999962,6.863110351562501,0.2337249755859375,7.974014282226563
4.309999999999945,6.494204711914063,0.0369354248046875,7.230520629882813
4.319999999999936,6.066830444335938,0.3552978515625,7.451535034179688
4.330000000000041,6.576898193359376,-0.6772491455078126,7.217510986328126
4.340000000000039,6.533233642578126,-0.385205078125,7.0712646484375
4.35000000000003,7.139602661132813,-0.538330078125,7.322784423828126
4.360000000000014,6.871035766601563,-0.8092895507812501,7.3245788574218755
4.3700000000000045,5.802151489257813,-0.0255706787109375,7.072610473632813
4.379999999999996,4.659994506835938,0.7002777099609375,5.496649169921875
4.389999999999986,7.411758422851563,0.3665130615234375,9.006561279296875
4.399999999999977,7.797711181640626,1.112847900390625,8.530139160156251
4.410999999999952,4.408175659179688,1.21243896484375,7.632025146484375
4.420999999999935,6.88284912109375,0.18482666015625,7.650418090820313
4.43100000000004,7.553369140625,0.0411224365234375,6.879110717773438
4.441000000000031,6.552523803710938,-0.8255889892578125,5.8262268066406255
4.451000000000022,7.078143310546875,-0.6041259765625,8.176187133789064
4.461000000000013,5.695681762695313,-0.2250518798828125,8.56243896484375
4.471000000000004,6.0711669921875,-1.1429046630859376,8.042651367187501
4.481000000000002,6.7712951660156255,-0.74708251953125,7.462451171875
4.4909999999999854,6.694134521484376,0.2121917724609375,6.391921997070313
4.500999999999976,7.308129882812499,-0.5776580810546875,6.770846557617188
4.510999999999967,6.5260559082031255,0.2438934326171875,7.439572143554688
4.520999999999958,6.381155395507813,0.8309722900390626,7.69931640625
4.530999999999949,6.495999145507813,0.1891632080078125,7.671652221679688
4.54200000000003,6.548037719726563,0.9914245605468752,6.929205322265625
4.551000000000045,6.752304077148438,0.9849945068359376,6.808529663085938
4.562000000000005,6.584823608398438,-0.203070068359375,6.695181274414063
4.572999999999979,6.684713745117188,0.4783660888671875,7.398748779296875
4.582000000000001,6.6071044921875,0.067291259765625,7.359271240234375
4.5919999999999845,6.159542846679688,-0.51141357421875,7.618865966796876
4.601999999999975,6.421530151367188,-0.048748779296875,7.771392822265626
4.611999999999966,5.6049133300781255,-0.426776123046875,7.495797729492188
4.621999999999957,6.0101562500000005,-0.576611328125,7.735504150390626
4.631999999999948,6.2269836425781255,0.246734619140625,7.781710815429688
4.641999999999939,6.659442138671875,-0.153424072265625,7.250857543945313
4.652000000000044,7.555911254882813,0.010467529296875,6.958963012695313
4.662000000000042,6.828118896484376,0.6602020263671875,6.9181396484375
4.673999999999978,6.563739013671875,0.385504150390625,6.878512573242188
4.682000000000016,6.243283081054688,0.371148681640625,7.650119018554688
4.692999999999984,5.749813842773438,0.5558258056640626,7.5488830566406255
4.702999999999975,6.649273681640626,-0.1562652587890625,8.217459106445313
4.712999999999965,6.15311279296875,0.1897613525390625,7.330111694335938
4.722999999999956,6.306985473632813,0.2507720947265625,7.220352172851563
4.732999999999947,6.90916748046875,-0.4729827880859375,7.043151855468751
4.742999999999938,6.691891479492188,-0.2189208984375,7.11253662109375
4.753000000000043,6.946401977539063,-0.103179931640625,7.269100952148438
4.763000000000041,6.703854370117188,-0.492572021484375,7.39725341796875
4.774000000000001,5.540612792968751,-0.1155914306640625,6.621011352539063
4.783000000000016,5.421881103515625,-0.29488525390625,6.127093505859375
4.793000000000006,7.332504272460938,0.003887939453125,8.74906005859375
4.802999999999997,6.222048950195313,0.718670654296875,8.334246826171876
4.812999999999988,5.646035766601563,0.5585174560546875,7.766159057617188
4.822999999999979,7.890573120117188,1.2148315429687502,7.927957153320313
4.83299999999997,7.139752197265626,0.7620361328125,6.403286743164063
4.843999999999937,6.146533203125,0.2811279296875,6.519476318359375
4.854000000000035,5.935687255859375,0.1736114501953125,7.879656982421875
4.86400000000004,5.90966796875,-0.4044952392578125,8.326620483398438
4.875,7.216165161132813,-1.5023895263671876,8.158840942382813
4.884000000000015,6.95103759765625,-0.6003875732421875,7.338934326171875
4.8940000000000055,6.646881103515626,-0.5090209960937501,6.461456298828126
4.903999999999996,6.340481567382813,-0.5956024169921875,6.619216918945313
4.913999999999987,6.429306030273438,0.3019134521484375,7.629483032226563
4.923999999999978,7.045544433593751,0.2926422119140625,7.7672058105468755
4.933999999999969,6.676339721679688,0.246435546875,7.848703002929688
4.94399999999996,6.421231079101563,1.2741973876953123,6.689349365234375
4.953999999999951,6.135018920898438,0.5476013183593751,7.03477783203125
4.963999999999942,6.491812133789063,0.4930206298828125,6.554019165039063
4.97500000000003,7.086068725585938,0.5405731201171875,7.384094238281251
4.985000000000014,6.842773437500001,-0.2648284912109375,7.328018188476563
4.9950000000000045,6.570468139648438,-0.521881103515625,7.876068115234376
5.004999999999996,5.634521484375,-0.1984344482421875,7.566976928710938
5.014999999999986,5.4837890625000005,-0.79971923828125,7.412506103515626
5.024999999999977,6.279919433593751,-0.235968017578125,7.855581665039063
5.034999999999968,6.680825805664063,0.0779083251953125,7.410711669921875
5.044999999999959,7.008908081054688,-0.226995849609375,7.409515380859376
5.05499999999995,6.892269897460938,0.217724609375,7.146929931640625
5.064999999999941,6.386239624023438,0.5956024169921875,6.886138916015626
5.0750000000000455,6.912158203125,0.2989227294921875,7.127340698242188
5.085000000000036,6.224142456054688,0.8504119873046876,7.244577026367188
5.095000000000027,6.3893798828125,0.457281494140625,7.92960205078125
5.105000000000018,6.230722045898438,0.0554779052734375,7.721447753906251
5.115000000000009,5.767459106445313,0.170770263671875,7.682867431640625
5.125,6.626693725585938,-0.1679290771484375,7.032833862304688
5.135999999999967,6.927261352539063,-0.3576904296875,7.415347290039063
5.145999999999958,6.938925170898438,-0.0776092529296875,6.643890380859376
5.155999999999949,6.847857666015625,-0.4532440185546875,7.740139770507813
5.16599999999994,6.289489746093751,-0.4079345703125,7.118667602539063
5.176000000000045,5.844021606445313,0.1520782470703125,7.308877563476563
5.186000000000036,4.79173583984375,0.1466949462890625,5.444461059570313
5.196000000000026,7.686157226562501,0.7675689697265625,8.951083374023439
5.206000000000017,7.995697021484376,0.8698516845703126,8.91534423828125
5.216000000000008,3.9046875,0.6062194824218751,7.433441162109376
5.226999999999975,6.396408081054688,0.2217620849609375,7.359719848632813
5.23599999999999,8.285946655273438,0.02930908203125,6.466390991210938
5.245999999999981,7.487274169921876,-1.0606597900390626,6.070120239257813
5.255999999999972,7.176986694335938,-0.17166748046875,8.136859130859376
5.266999999999939,4.505374145507813,-0.3195587158203125,8.935083007812501
5.277000000000044,5.117425537109376,-0.8767303466796875,8.174392700195312
5.287000000000042,6.711032104492188,-0.193499755859375,7.55277099609375
5.2970000000000255,7.617819213867188,0.5976959228515626,6.102420043945313
5.307000000000016,8.248562622070313,-0.381915283203125,6.675143432617188
5.317000000000007,6.274685668945313,0.5495452880859375,7.363458251953125
5.326999999999998,6.0943450927734375,0.4414306640625,7.664624023437501
5.336999999999989,5.872433471679688,0.044561767578125,7.746868896484376
5.34699999999998,6.653909301757813,0.7745971679687501,6.819744873046876
5.356999999999971,7.304092407226563,0.5927612304687501,7.329663085937501
5.366999999999955,6.454727172851563,-0.5326477050781251,6.676190185546876
5.37699999999996,6.330612182617188,0.3258392333984375,7.575201416015625
5.386999999999951,6.539813232421875,-0.29847412109375,7.071414184570313
5.398000000000032,6.403436279296876,-0.3793731689453125,7.204800415039063
5.408000000000016,7.21422119140625,0.05443115234375,7.649520874023438
5.418000000000006,5.821591186523438,-0.281427001953125,7.463198852539063
5.427999999999997,5.610147094726563,-0.1423583984375,8.117269897460938
5.437999999999988,5.532537841796875,0.5852844238281251,7.698867797851563
5.447999999999979,6.321490478515625,-0.0895721435546875,7.546640014648438
5.45799999999997,7.824777221679688,0.2893524169921875,6.936831665039063
5.467999999999961,6.911260986328125,0.6219207763671876,6.927261352539063
5.477999999999959,6.829315185546876,0.219818115234375,6.8909240722656255
5.48799999999995,6.313265991210938,0.31641845703125,7.586566162109375
5.497999999999934,5.671905517578125,0.13817138671875,7.284951782226563
5.508000000000038,6.94864501953125,-0.44681396484375,7.954724121093751
5.518000000000029,6.094494628906251,-0.022430419921875,7.579537963867188
5.52800000000002,6.220852661132813,0.0275146484375,7.274484252929688
5.538000000000011,6.531887817382813,-0.404345703125,7.593594360351563
5.548999999999978,6.461007690429688,-0.0599639892578125,6.888681030273438
5.558999999999969,7.175341796875,-0.0336456298828125,7.290335083007813
5.56899999999996,6.984683227539063,-0.0251220703125,7.03238525390625
5.578999999999951,5.69254150390625,0.075665283203125,6.524261474609376
5.588999999999942,5.2449798583984375,-0.8385986328125,5.475714111328125
5.599000000000046,7.000384521484375,-0.094805908203125,8.794967651367188
5.609000000000037,6.850848388671875,0.5562744140625,8.78494873046875
5.619000000000028,5.439227294921875,-0.0982452392578125,8.139251708984375
5.629000000000019,7.89371337890625,1.8777252197265624,8.706442260742188
5.63900000000001,6.915447998046876,1.308441162109375,6.266909790039063
5.649000000000001,5.834451293945313,0.4553375244140625,5.901742553710938
5.658999999999992,6.624899291992188,0.454888916015625,7.4068237304687505
5.668999999999983,6.090158081054688,-0.7315307617187501,8.36744384765625
5.678999999999974,7.3365417480468755,-1.85843505859375,8.524606323242189
5.689999999999941,6.622207641601563,-0.234173583984375,7.944406127929688
5.7000000000000455,5.782711791992188,-0.265875244140625,6.277078247070313
5.710000000000036,6.29307861328125,-0.3928314208984375,6.663330078125001
5.720000000000027,6.542205810546876,0.4182525634765625,7.491311645507813
5.730000000000018,7.639950561523438,0.153125,7.875619506835938
5.740000000000009,7.090106201171875,0.1987335205078125,7.765411376953126
5.75,6.285003662109376,1.6390655517578123,6.454727172851563
5.759999999999991,6.186459350585938,0.279632568359375,6.917990112304688
5.769999999999975,5.9851837158203125,0.22550048828125,6.499288940429688
5.779999999999973,6.816754150390626,0.3901397705078125,7.744625854492188
5.789999999999964,6.78116455078125,-0.5157501220703126,7.734307861328125
5.799999999999962,6.202609252929688,-0.5722747802734376,7.889077758789063
5.809999999999945,6.136663818359375,-0.0602630615234375,7.317700195312501
5.819999999999936,5.900247192382813,-0.9658538818359376,7.047039794921876
5.830000000000041,6.430053710937501,-0.05802001953125,7.423721313476563
5.841000000000008,6.756042480468751,0.050244140625,7.564883422851563
5.850999999999999,6.779519653320313,-0.3050537109375,7.558602905273438
5.86099999999999,6.935186767578125,0.39537353515625,7.40263671875
5.870999999999981,6.0823822021484375,0.6634918212890626,6.933990478515626
5.880999999999972,6.634918212890626,0.3509613037109375,6.958663940429688
5.890999999999963,6.313565063476563,0.9577789306640626,7.426861572265626
5.900999999999961,6.391921997070313,0.17884521484375,7.727279663085938
5.910999999999952,6.712527465820313,-0.0599639892578125,7.952780151367188
5.920999999999935,5.992510986328125,0.2806793212890625,7.273287963867188
5.93100000000004,6.490017700195313,-0.221014404296875,6.922924804687501
5.941000000000031,6.9327941894531255,-0.475225830078125,7.361514282226563
5.951000000000022,6.443212890625,-0.0849365234375,6.879110717773438
5.961000000000013,6.990963745117188,-0.6060699462890625,7.8967041015625
5.971000000000004,6.243731689453125,-0.258697509765625,7.443759155273438
5.981999999999971,6.101971435546876,0.1795928955078125,7.3694396972656255
5.991999999999955,6.094494628906251,0.045159912109375,6.369940185546875
6.00199999999996,4.840484619140625,0.7400543212890626,4.901943969726563
6.011999999999951,8.645132446289063,1.2498229980468751,9.102114868164064
6.021999999999935,7.865002441406251,0.69803466796875,9.217257690429689
6.032000000000039,3.720758056640625,1.2110931396484377,7.645632934570313
6.04200000000003,6.631478881835938,0.067291259765625,8.393014526367189
6.052000000000021,6.826324462890626,-0.8115325927734376,5.897106933593751
6.062000000000005,7.4265625,-1.1669799804687502,6.043801879882813
6.072000000000003,7.449591064453125,-0.9024505615234376,7.73759765625
6.082000000000001,5.570968627929688,-0.719268798828125,8.983383178710938
6.092999999999961,5.7175140380859375,-0.6189300537109376,8.3632568359375
6.102999999999959,6.040811157226563,-0.46236572265625,7.784103393554688
6.111999999999966,7.040609741210938,0.3494659423828125,5.925668334960938
6.122999999999934,7.779019165039063,-0.1407135009765625,6.694134521484376
6.133000000000038,6.665124511718751,0.6817352294921876,7.071563720703126
6.143000000000029,6.785800170898438,1.24892578125,8.414846801757813
6.15300000000002,5.489321899414063,0.569134521484375,7.304241943359376
6.163000000000011,6.738098144531251,0.7674194335937501,7.324728393554688
6.173000000000009,6.5712158203125,0.49346923828125,6.668563842773438
6.183,6.30205078125,-0.2364166259765625,7.194332885742188
6.192999999999984,7.081433105468751,0.1006378173828125,7.426712036132813
6.202999999999975,6.405380249023438,-0.36427001953125,7.406375122070313
6.212999999999965,6.643292236328126,-0.9108245849609377,6.766659545898438
6.222999999999956,6.947598266601563,-0.44442138671875,7.583874511718751
6.232999999999947,5.798114013671875,-0.587078857421875,6.8954101562500005
6.242999999999938,6.291732788085938,0.031402587890625,8.2675537109375
6.253000000000043,5.536126708984376,0.3611297607421875,7.673895263671875
6.263000000000041,6.390426635742188,0.3736907958984375,7.895208740234375
6.274999999999977,7.066030883789063,0.3698028564453125,7.153808593750001
6.283999999999992,6.342126464843751,1.003387451171875,6.852792358398438
6.293999999999983,7.137060546875,0.4556365966796875,6.864157104492188
6.303999999999974,6.592449951171876,0.6904083251953126,7.422225952148438
6.3139999999999645,6.208142089843751,0.2935394287109375,7.192987060546876
6.323999999999955,6.857577514648438,-0.243743896484375,8.1000732421875
6.333999999999946,5.813665771484375,-0.45279541015625,7.144238281250001
6.343999999999937,6.341229248046876,-0.214434814453125,7.66881103515625
6.354000000000035,6.35289306640625,-0.8816650390625,7.335494995117188
6.3659999999999854,6.504971313476563,-0.2260986328125,7.35179443359375
6.375,7.247567749023438,-0.2758941650390625,7.258334350585938
6.384000000000015,6.580337524414063,-0.090618896484375,7.174594116210938
6.3940000000000055,6.586767578125,0.1927520751953125,7.03477783203125
6.404999999999973,5.627642822265625,0.280230712890625,6.439324951171876
6.414999999999964,5.855535888671875,0.1006378173828125,6.656900024414063
6.424999999999962,8.455221557617188,1.060061645507813,9.449636840820313
6.434999999999945,4.567730712890626,0.21951904296875,7.710232543945313
6.444999999999936,4.457821655273438,0.5432647705078125,7.281661987304688
6.455000000000041,8.375070190429689,1.0783050537109375,7.610940551757813
6.465000000000039,8.299105834960939,0.4637115478515625,6.6815734863281255
6.47500000000003,7.6550537109375005,0.2400054931640625,7.109396362304688
6.485000000000014,4.727435302734375,0.2691650390625,7.959957885742188
6.4950000000000045,4.5925537109375005,-1.316217041015625,7.674942016601563
6.504999999999996,7.15440673828125,-1.837350463867188,8.356228637695313
6.514999999999986,7.65684814453125,-0.9233856201171876,6.951486206054688
6.524999999999977,8.099325561523438,-0.503338623046875,7.039562988281251
6.534999999999968,5.917144775390625,-0.408831787109375,6.819296264648438
6.545999999999935,5.1996704101562505,0.932806396484375,7.371981811523438
6.55499999999995,6.56822509765625,0.2065093994140625,7.627987670898438
6.566000000000031,6.850399780273438,0.822149658203125,7.532882690429688
6.576000000000022,7.816403198242188,1.6600006103515623,7.362261962890625
6.586000000000013,5.97008056640625,0.7819244384765626,6.896307373046875
6.596000000000004,5.561099243164063,0.65137939453125,6.846810913085938
6.606000000000002,6.869839477539063,0.415411376953125,7.243679809570313
6.6159999999999854,6.7865478515625,-0.9509002685546876,6.937579345703125
6.625999999999976,7.568173217773438,-0.5641998291015625,7.63651123046875
6.635999999999967,6.147430419921876,-0.7029693603515625,7.645333862304688
6.645999999999958,5.220904541015625,-1.2209625244140625,7.743728637695313
6.655999999999949,5.647381591796876,-0.43963623046875,7.8015991210937505
6.66599999999994,5.949594116210938,-0.196490478515625,7.319195556640626
6.677000000000021,7.969827270507813,-0.13817138671875,7.390225219726563
6.686000000000036,7.084124755859375,0.949853515625,7.272091674804688
6.697000000000003,5.939425659179688,0.9721343994140624,6.823483276367188
6.707000000000001,6.690246582031251,0.7375122070312501,7.512695312500001
6.7169999999999845,5.907574462890626,1.0800994873046876,7.060946655273438
6.726999999999975,6.848605346679688,0.657958984375,7.435235595703125
6.736999999999966,6.883148193359376,0.0777587890625,7.760028076171875
6.746999999999957,5.581585693359376,0.23387451171875,7.598977661132813
6.756999999999948,6.351696777343751,-0.6208740234375001,7.547387695312499
6.766999999999939,6.245376586914063,-0.8855529785156251,7.204501342773438
6.777000000000044,7.247567749023438,-0.5386291503906251,6.939822387695313
6.787000000000042,7.382150268554688,-0.843084716796875,7.294223022460938
6.7970000000000255,6.145187377929688,-0.498553466796875,7.237997436523438
6.807000000000016,6.321041870117188,0.1481903076171875,7.60421142578125
6.817000000000007,5.057611083984376,0.008673095703125,6.811370849609376
6.826999999999998,5.61119384765625,0.9621154785156252,6.481045532226563
6.837999999999965,8.568719482421876,1.3304229736328126,8.900839233398438
6.847999999999956,6.174197387695313,0.8948242187500001,7.886535644531251
6.857999999999947,5.7185607910156255,1.0193878173828126,7.503573608398438
6.867999999999938,6.997244262695313,0.441131591796875,7.144985961914063
6.878000000000043,6.821389770507813,-0.7719055175781251,6.294424438476563
6.888000000000041,7.299755859375001,-0.6936981201171876,7.378411865234375
6.898000000000032,5.7354583740234375,-0.7333251953125001,8.224935913085938
6.908000000000016,5.745327758789063,-0.8806182861328126,8.726779174804689
6.918000000000006,5.950939941406251,-0.714483642578125,7.835842895507813
6.927999999999997,6.81944580078125,-0.1317413330078125,6.677087402343751
6.937999999999988,8.178131103515625,-0.1786956787109375,6.248367309570313
6.947999999999979,6.961654663085938,0.0925628662109375,6.68486328125
6.95799999999997,6.642395019531251,0.7253997802734375,7.605407714843751
6.967999999999961,5.832955932617188,0.6313415527343751,8.185458374023439
6.979000000000035,5.455227661132813,0.7950836181640626,7.354037475585938
6.98900000000004,7.205099487304688,0.9529937744140624,7.327270507812501
6.999000000000031,6.576300048828125,0.1730133056640625,6.672003173828125
7.009000000000015,6.936981201171876,0.1463958740234375,6.832904052734375
7.0190000000000055,6.993954467773438,-0.0562255859375,7.354486083984375
7.028999999999996,6.15849609375,-0.4789642333984375,7.085470581054688
7.038999999999987,7.008908081054688,-0.3923828125,7.587164306640625
7.048999999999978,6.079989624023438,-0.6353790283203126,7.49534912109375
7.058999999999969,5.749514770507813,-0.5707794189453126,7.778271484375001
7.06899999999996,5.650820922851563,-0.0013458251953125,8.270843505859375
7.078999999999951,5.620465087890626,0.128302001953125,7.374523925781251
7.088999999999942,7.516732788085938,0.24942626953125,7.511199951171876
7.099000000000046,7.191192626953126,0.5899200439453125,6.713125610351563
7.109000000000037,6.824679565429688,0.7076049804687501,6.733462524414063
7.119000000000028,6.829763793945313,0.6548187255859376,7.279867553710938
7.129000000000019,5.713925170898438,0.5360870361328125,7.446899414062501
7.139999999999986,6.416445922851563,0.184228515625,7.790982055664063
7.149999999999977,6.294873046875001,-0.1344329833984375,7.692587280273438
7.159999999999968,6.049185180664063,-0.1586578369140625,7.397552490234376
7.169999999999959,6.665722656250001,-0.435150146484375,7.56712646484375
7.17999999999995,6.34093017578125,-0.4797119140625,7.014739990234376
7.189999999999941,7.171304321289063,-0.380419921875,7.213323974609375
7.2000000000000455,7.02640380859375,-0.344830322265625,6.997393798828125
7.210000000000036,6.010006713867188,-0.2178741455078125,6.7473693847656255
7.220000000000027,5.7843566894531255,-0.3672607421875,6.146234130859376
7.230000000000018,6.379959106445313,-0.0299072265625,8.517129516601564
7.240000000000009,6.222348022460938,0.6314910888671875,8.429800415039063
7.25199999999996,6.315060424804688,0.6720153808593751,8.4589599609375
7.260999999999967,7.072311401367188,1.46365966796875,7.472918701171875
7.270999999999958,6.845465087890625,1.2257476806640626,6.601123046875
7.279999999999973,6.204104614257813,0.6543701171875,6.0687744140625
7.293000000000006,6.523065185546876,0.4128692626953125,7.92003173828125
7.301000000000045,6.640451049804688,-0.56763916015625,8.2974609375
7.3110000000000355,6.847109985351563,-1.5886718750000002,8.459109497070314
7.321000000000026,6.501980590820313,-0.8493652343750001,7.059451293945313
7.331000000000017,6.193487548828125,-0.740203857421875,6.414053344726563
7.341000000000008,6.743182373046875,-0.6335845947265626,6.68785400390625
7.350999999999999,6.9387756347656255,0.2462860107421875,7.743728637695313
7.36099999999999,6.690396118164063,-0.0665435791015625,7.765859985351563
7.370999999999981,6.686657714843751,0.338848876953125,7.899844360351563
7.380999999999972,5.967837524414063,1.2601409912109376,6.766061401367188
7.393000000000029,6.319845581054688,0.96181640625,6.760827636718751
7.402000000000044,6.961804199218751,0.778485107421875,6.572860717773438
7.412000000000042,6.979000854492188,0.539227294921875,7.407122802734375
7.4220000000000255,6.862362670898438,-0.251220703125,7.561892700195313
7.432000000000016,6.084027099609376,-0.200677490234375,7.773635864257813
7.442000000000007,5.692990112304688,-0.3937286376953125,7.424618530273438
7.451999999999998,6.049633789062501,-0.8882446289062501,7.5757995605468755
7.461999999999989,6.0475402832031255,-0.545806884765625,7.524807739257813
7.47199999999998,6.706695556640626,-0.31103515625,7.592398071289063
7.481999999999971,6.931149291992188,-0.5130584716796875,7.667614746093751
7.492999999999938,6.732864379882813,0.2932403564453125,6.903335571289063
7.50199999999996,6.6337219238281255,0.5298065185546875,6.896606445312501
7.511999999999951,6.793426513671876,0.461767578125,7.078890991210938
7.5219999999999345,6.279919433593751,0.95523681640625,7.39366455078125
7.532000000000039,6.167617797851563,0.6720153808593751,7.828216552734376
7.543000000000006,6.219357299804688,0.2600433349609375,7.899246215820313
7.552000000000021,6.135617065429688,0.4414306640625,7.492208862304688
7.562999999999988,6.502728271484376,-0.1164886474609375,7.075750732421875
7.572999999999979,6.944009399414063,-0.2752960205078125,7.042553710937501
7.58299999999997,6.848904418945313,-0.366064453125,7.115826416015626
7.592999999999961,6.7626220703125,-0.6657348632812501,7.455572509765625
7.602999999999959,6.441717529296875,-0.4631134033203125,7.4546752929687505
7.61299999999995,5.9937072753906255,-0.097198486328125,7.153808593750001
7.622999999999934,4.809530639648438,0.069085693359375,5.542855834960938
7.633000000000038,7.117770385742188,0.7783355712890626,8.157495117187501
7.643000000000029,8.045343017578126,0.8792724609375001,8.683114624023439
7.65300000000002,5.132229614257813,0.7796813964843751,8.250506591796876
7.663000000000011,6.380856323242188,0.3886444091796875,7.787841796875001
7.673000000000009,7.147229003906251,-0.054730224609375,6.502728271484376
7.683999999999969,6.767706298828125,-1.1840270996093751,5.965893554687501
7.69399999999996,7.209735107421875,-0.260791015625,7.853189086914063
7.703999999999951,5.750112915039063,-0.147442626953125,8.85552978515625
7.713999999999942,5.7936279296875,-0.3883453369140625,8.33035888671875
7.724000000000046,6.463250732421876,-0.1855743408203125,7.536322021484375
7.734000000000037,6.951934814453126,0.102581787109375,5.993408203125
7.744000000000028,7.578192138671875,-0.5094696044921876,6.367398071289063
7.754000000000019,6.708190917968751,0.416607666015625,7.615426635742188
7.76400000000001,6.482839965820313,0.5402740478515625,8.113381958007814
7.774000000000001,5.874526977539063,0.273651123046875,7.764962768554688
7.783999999999992,6.602767944335938,0.6113037109375,6.689199829101563
7.793999999999983,7.105957031250001,0.3847564697265625,6.7602294921875
7.803999999999974,6.679330444335938,-0.1876678466796875,6.592449951171876
7.8139999999999645,6.488522338867188,0.481805419921875,7.600921630859376
7.823999999999955,6.331359863281251,-0.174957275390625,7.590902709960938
7.835000000000036,6.174346923828126,-0.2815765380859375,7.712026977539063
7.845000000000027,6.57779541015625,-0.0136077880859375,7.572659301757813
7.855000000000018,5.719158935546876,-0.4294677734375,7.228726196289063
7.865000000000009,6.053073120117188,-0.16748046875,7.823132324218751
7.875,6.283209228515625,0.2717071533203125,7.499536132812499
7.884999999999991,6.885391235351563,-0.1347320556640625,7.481442260742188
7.894999999999975,7.413104248046875,0.2746978759765625,6.921279907226563
7.904999999999973,6.610394287109376,0.4086822509765625,7.008160400390626
7.914999999999964,6.399398803710938,0.286212158203125,6.948046875
7.924999999999962,6.076101684570313,0.3840087890625,7.722943115234376
7.934999999999945,5.927462768554688,0.266473388671875,7.650418090820313
7.944999999999936,6.893167114257813,-0.123516845703125,8.047885131835939
7.955000000000041,6.194085693359376,0.110357666015625,7.111639404296875
7.965000000000039,6.516635131835938,-0.1088623046875,7.17294921875
7.97500000000003,6.692190551757813,-0.26976318359375,7.165472412109375
7.98599999999999,6.535626220703126,-0.0644500732421875,7.08861083984375
7.995999999999981,6.959411621093751,-0.19559326171875,7.458862304687501
8.005999999999972,6.627890014648438,-0.183929443359375,7.3404296875
8.015999999999963,5.301055908203125,-0.0928619384765625,5.995800781250001
8.02599999999996,6.152215576171876,-0.4079345703125,6.647030639648438
8.035999999999952,7.623352050781251,0.3620269775390625,8.764611816406251
8.045999999999935,5.488275146484376,0.5701812744140625,8.530438232421876
8.05600000000004,5.022918701171875,0.6431549072265625,7.9325927734375
8.066000000000031,7.7776733398437505,1.5660919189453126,7.903134155273438
8.076000000000022,7.527798461914063,0.8028594970703126,6.300854492187501
8.086000000000013,6.846212768554688,0.2337249755859375,6.343023681640625
8.096000000000004,6.126495361328126,0.0844879150390625,7.896853637695313
8.106000000000002,5.84088134765625,-1.20765380859375,8.17962646484375
8.116999999999955,6.875970458984376,-2.0079711914062504,8.412454223632814
8.12699999999996,6.848605346679688,-0.428271484375,7.081433105468751
8.13699999999995,6.521121215820313,-0.6600524902343751,6.6788818359375
8.146999999999935,6.46654052734375,-0.4613189697265625,6.91514892578125
8.157000000000039,6.239694213867188,0.64599609375,7.805935668945313
8.16700000000003,6.884045410156251,0.1758544921875,7.507461547851563
8.177000000000021,6.966738891601563,0.7523162841796875,7.501779174804688
8.187000000000005,6.8744750976562505,1.788751220703125,6.468634033203125
8.197000000000003,6.480148315429688,0.5130584716796875,6.899896240234376
8.207,6.158944702148438,0.5444610595703125,6.782360839843751
8.216999999999985,6.417941284179688,0.38580322265625,7.662680053710938
8.226999999999975,6.531140136718751,-0.602630615234375,7.701409912109375
8.236999999999966,6.464596557617188,-0.4693939208984375,7.9092651367187505
8.246999999999957,5.946304321289063,-0.4006072998046875,7.326223754882813
8.256999999999948,5.861666870117188,-1.1624938964843752,7.371981811523438
8.266999999999939,6.318499755859375,-0.2175750732421875,7.665969848632813
8.27800000000002,6.753500366210938,-0.005084228515625,7.224539184570313
8.288000000000011,7.299905395507813,-0.3751861572265625,7.422973632812501
8.298000000000009,6.939822387695313,0.572723388671875,7.11253662109375
8.308,6.114831542968751,0.6829315185546876,6.931747436523438
8.317999999999984,6.401193237304688,0.43126220703125,7.440618896484375
8.327999999999975,5.92222900390625,1.1892608642578126,7.427310180664063
8.337999999999965,6.524411010742188,0.3970184326171875,7.912106323242188
8.347999999999956,6.699966430664063,0.0856842041015625,7.414151000976563
8.357999999999947,6.07236328125,0.3162689208984375,7.521218872070313
8.367999999999938,6.711331176757813,-0.33914794921875,6.858175659179688
8.378000000000043,6.715817260742188,-0.564947509765625,7.3470092773437505
8.38800000000004,6.735256958007813,-0.2787353515625,6.858474731445313
8.399000000000001,6.908718872070313,-0.8115325927734376,7.865899658203125
8.408999999999992,6.172103881835938,-0.3799713134765625,7.3470092773437505
8.418999999999983,5.941818237304688,0.103179931640625,7.168463134765625
8.428999999999974,4.843923950195313,0.0249725341796875,5.351748657226563
8.438999999999965,7.115228271484376,0.8836090087890626,7.939770507812501
8.448999999999955,8.495745849609376,1.14664306640625,8.828762817382813
8.458999999999946,5.076901245117188,0.822149658203125,8.375668334960938
8.468999999999937,5.897256469726563,0.7108947753906251,7.929751586914063
8.479000000000035,6.936831665039063,0.0324493408203125,6.582281494140625
8.48900000000004,6.554318237304688,-1.2103454589843752,5.8057403564453125
8.49900000000003,7.880853271484375,-0.311932373046875,7.950088500976563
8.509000000000015,6.061297607421875,-0.5950042724609376,8.613430786132813
8.519000000000005,5.9926605224609375,-0.8013641357421876,8.23585205078125
8.528999999999996,6.289938354492188,-0.3386993408203125,7.57310791015625
8.539999999999964,6.440969848632813,0.0985443115234375,6.043801879882813
8.548999999999978,7.599575805664063,-0.3638214111328125,6.620712280273438
8.559999999999945,6.6636291503906255,0.7135864257812501,7.749261474609375
8.569999999999936,6.5951416015625,0.7074554443359375,7.989266967773438
8.580000000000041,6.07535400390625,0.4825531005859375,7.814758300781251
8.590000000000039,6.205899047851563,0.8342620849609376,6.354388427734375
8.60000000000003,7.374224853515625,0.5360870361328125,6.749313354492188
8.610000000000014,6.731369018554688,-0.1543212890625,6.5873657226562505
8.620000000000005,6.493606567382813,0.36546630859375,7.669708251953126
8.629999999999995,6.357678222656251,-0.4454681396484375,7.855133056640626
8.639999999999986,5.7365051269531255,-0.481207275390625,7.663577270507813
8.649999999999977,6.5395141601562505,-0.314324951171875,7.661782836914063
8.659999999999968,5.969332885742188,-0.6032287597656251,7.103265380859376
8.669999999999959,6.207394409179688,-0.2546600341796875,7.606454467773438
8.67999999999995,6.5664306640625005,0.270361328125,7.678680419921876
8.68999999999994,6.562393188476563,-0.0109161376953125,7.326672363281251
8.701000000000022,7.379010009765626,0.5269653320312501,7.086367797851563
8.711000000000013,6.610992431640626,0.60113525390625,6.995001220703125
8.721000000000004,6.306985473632813,0.435748291015625,6.917391967773438
8.731000000000002,6.307882690429688,0.614593505859375,7.808029174804688
8.740999999999985,5.708392333984375,0.30086669921875,7.671951293945313
8.750999999999976,6.822885131835938,-0.127703857421875,7.999136352539063
8.760999999999967,6.357229614257813,0.0572723388671875,7.163079833984376
8.770999999999958,6.509307861328126,-0.2370147705078125,6.869540405273438
8.780999999999949,6.9821411132812505,-0.4329071044921875,7.437628173828125
8.79099999999994,6.391921997070313,-0.2175750732421875,6.981393432617188
8.801000000000045,6.861465454101563,-0.3934295654296875,7.599874877929688
8.811000000000035,6.618768310546876,-0.3001190185546875,7.233810424804688
8.822000000000003,5.1956329345703125,-0.185125732421875,6.174346923828126
8.831000000000017,6.304293823242188,-0.33077392578125,6.573309326171875
8.841999999999985,7.284802246093751,0.41810302734375,8.84595947265625
8.851999999999975,5.274737548828125,0.4604217529296875,8.259628295898438
8.861999999999966,5.640054321289063,0.6141448974609376,8.004519653320314
8.871999999999957,8.171401977539062,1.6653839111328126,7.709335327148438
8.881999999999948,7.82432861328125,0.8616271972656251,6.389828491210938
8.894000000000005,6.44261474609375,0.401654052734375,6.267507934570313
8.902000000000044,5.257092285156251,0.329876708984375,7.885937500000001
8.912000000000042,5.8371429443359375,-1.0594635009765625,8.309872436523438
8.922000000000025,7.206594848632813,-1.7307312011718752,8.592645263671876
8.932000000000016,7.075601196289063,-0.356494140625,7.017730712890626
8.942000000000007,6.626544189453125,-0.749176025390625,6.760079956054688
8.951999999999998,5.996697998046876,-0.3692047119140625,6.730471801757813
8.961999999999989,6.289489746093751,0.65496826171875,7.617819213867188
8.97199999999998,7.218856811523438,-0.003289794921875,7.536172485351563
8.982999999999947,7.195529174804688,0.7629333496093751,7.5369201660156255
8.994000000000028,6.769949340820313,1.4605194091796876,6.871035766601563
9.003000000000043,5.793478393554688,0.4472625732421875,6.936981201171876
9.01300000000004,6.032437133789063,0.6317901611328125,6.887783813476563
9.023000000000032,6.725985717773438,0.3213531494140625,7.387084960937501
9.033000000000015,7.082778930664063,-0.6021820068359376,7.476507568359375
9.043000000000006,7.0165344238281255,-0.2938385009765625,7.703503417968751
9.052999999999995,5.682373046875,-0.49586181640625,7.374673461914063
9.063999999999965,5.549884033203125,-1.1366241455078123,7.42476806640625
9.07299999999998,5.839236450195313,-0.231182861328125,7.768402099609376
9.08299999999997,6.722396850585938,-0.1203765869140625,7.371981811523438
9.093999999999935,7.550827026367188,-0.2959320068359375,7.733111572265625
9.10299999999996,6.683367919921875,0.694744873046875,6.9567199707031255
9.11400000000004,6.1477294921875005,0.5221801757812501,6.928756713867188
9.12400000000003,6.599627685546875,0.512310791015625,7.157098388671876
9.134000000000016,6.1791320800781255,1.0048828125,7.332803344726563
9.144000000000004,6.920083618164063,0.4631134033203125,7.793673706054688
9.153999999999996,6.403137207031251,0.20576171875,7.650717163085938
9.163999999999987,5.707644653320313,0.308941650390625,7.57908935546875
9.173999999999978,6.341229248046876,-0.468048095703125,7.1693603515625
9.183999999999967,6.643740844726563,-0.3952239990234375,7.199716186523438
9.194999999999936,7.318746948242188,-0.3698028564453125,7.000534057617188
9.20399999999995,7.041207885742188,-0.734222412109375,7.52047119140625
9.213999999999942,6.167617797851563,-0.2663238525390625,7.267605590820313
9.224000000000046,5.714971923828125,0.154620361328125,6.702209472656251
9.234000000000036,4.750912475585938,0.288006591796875,5.369393920898438
9.244000000000028,7.629782104492188,1.32130126953125,8.680871582031251
9.25400000000002,7.58507080078125,1.15382080078125,9.052618408203124
9.26400000000001,5.2943267822265625,0.9455169677734376,8.305834960937501
9.274999999999975,6.9731689453125005,0.289202880859375,8.157196044921875
9.284999999999968,6.115280151367188,-0.9730316162109376,5.493658447265625
9.29499999999996,6.944607543945313,-1.6598510742187502,6.0584564208984375
9.30499999999995,7.610940551757813,-0.50782470703125,8.252899169921875
9.31499999999994,5.919985961914063,-0.413616943359375,8.846258544921875
9.325000000000044,6.392221069335938,-0.4191497802734375,8.543148803710938
9.335000000000036,5.8576293945312505,-0.0629547119140625,7.004272460937501
9.345000000000027,6.440670776367188,-0.0880767822265625,5.98802490234375
9.355000000000018,7.553369140625,-0.133984375,6.594543457031251
9.365000000000007,6.55087890625,1.0015930175781251,7.929302978515626
9.375,7.144387817382813,0.7781860351562501,8.200860595703126
9.384999999999993,5.948397827148438,0.512310791015625,7.666268920898438
9.395999999999958,6.447250366210938,0.6751556396484375,6.250610351562501
9.405999999999947,6.769351196289063,0.0339447021484375,6.725985717773438
9.41599999999994,6.405230712890625,-0.1341339111328125,6.76561279296875
9.426000000000045,7.006665039062501,0.2564544677734375,7.905825805664063
9.436000000000035,6.379959106445313,-0.6280517578125,7.791729736328126
9.446000000000026,6.045147705078126,-0.4119720458984375,7.289736938476563
9.456000000000016,6.546841430664063,-0.243743896484375,7.591650390625
9.466000000000008,5.634970092773438,-0.4254302978515625,6.873727416992188
9.476,6.343173217773438,0.3264373779296875,7.944256591796876
9.48599999999999,6.428408813476563,0.4074859619140625,7.743878173828126
9.49599999999998,6.71776123046875,0.1463958740234375,7.396954345703126
9.505999999999972,7.168463134765625,0.4840484619140625,7.187603759765626
9.515999999999964,6.2404418945312505,0.447113037109375,6.615927124023438
9.52599999999996,6.7123779296875,0.2956329345703125,7.157546997070313
9.535999999999952,6.370239257812501,0.5214324951171876,7.545892333984375
9.547000000000024,5.965893554687501,0.0500946044921875,7.76451416015625
9.557000000000016,6.989019775390625,-0.268865966796875,8.078240966796876
9.567000000000007,5.826675415039063,-0.14774169921875,7.078143310546875
9.576999999999998,6.557009887695313,-0.3686065673828125,6.9958984375
9.586999999999987,6.782360839843751,-0.3360076904296875,7.345065307617188
9.59699999999998,6.5440002441406255,-0.0085235595703125,7.1227050781250005
9.606999999999973,7.150817871093751,-0.1667327880859375,7.615576171875
9.616999999999956,6.375173950195313,-0.013458251953125,7.346261596679688
9.62699999999996,6.116326904296876,0.2815765380859375,7.068722534179688
9.63699999999995,5.683868408203125,-0.0826934814453125,6.358425903320313
9.648000000000032,5.617922973632813,0.02572021484375,6.028399658203125
9.65700000000004,8.268002319335938,0.6290985107421876,9.07265625
9.66700000000003,5.5125,0.1087127685546875,8.238992309570314
9.67700000000002,5.0399658203125,0.5653961181640625,8.317648315429688
9.687000000000005,8.067474365234375,1.3124786376953126,8.060595703125001
9.69799999999998,6.889578247070313,0.6286499023437501,6.186160278320313
9.70799999999997,7.491760253906251,0.449505615234375,6.1611877441406255
9.71799999999996,6.202908325195313,-0.1463958740234375,7.646978759765625
9.72799999999996,5.732019042968751,-1.6028778076171877,7.766757202148438
9.73799999999995,7.150369262695313,-1.8262847900390624,8.804837036132813
9.747999999999934,6.123056030273438,-0.5251708984375001,7.371832275390625
9.758000000000038,6.616226196289063,-0.15013427734375,7.027450561523438
9.768000000000027,6.092251586914063,-0.0399261474609375,6.938925170898438
9.77800000000002,6.306536865234375,0.8258880615234375,7.296765136718751
9.788000000000013,7.483535766601563,0.3207550048828125,7.764813232421876
9.798000000000007,6.843222045898438,0.9414794921875,7.1615844726562505
9.808,7.062442016601563,1.5980926513671876,6.881054687500001
9.817999999999984,6.174795532226563,0.5064788818359376,6.733462524414063
9.827999999999976,5.743533325195313,0.26019287109375,6.848306274414063
9.837999999999964,6.917391967773438,-0.0336456298828125,7.835244750976563
9.849000000000046,6.34691162109375,-0.940283203125,7.499685668945313
9.859000000000036,6.893615722656251,-0.56943359375,7.789785766601563
9.869000000000028,6.259732055664063,-0.680389404296875,7.299008178710938
9.87900000000002,5.515939331054688,-1.048098754882813,7.243231201171875
9.88900000000001,6.372482299804688,-0.2612396240234375,7.536770629882813
9.899,6.330313110351563,0.0490478515625,7.507012939453125
9.908999999999992,7.387832641601563,0.118133544921875,7.527050781250001
9.918999999999984,6.878811645507813,1.0020416259765623,7.352243041992188
9.928999999999974,5.780319213867188,0.916058349609375,6.818548583984375
9.938999999999965,6.802398681640626,0.716278076171875,7.37691650390625
9.948999999999955,5.989669799804688,0.8662628173828125,7.370187377929688
9.961000000000013,6.651068115234375,0.4021026611328125,7.332205200195313
9.970000000000027,6.887933349609376,-0.04127197265625,8.051324462890626
9.979000000000037,5.809329223632813,0.0826934814453125,7.169659423828126
9.990000000000007,6.557608032226563,-0.6389678955078125,7.367196655273438
10.0,6.526953125,-0.858038330078125,7.079190063476563
10.01199999999995,6.752752685546875,-0.555975341796875,7.187454223632813
10.019999999999976,7.151416015625,-0.6823333740234375,7.595388793945313
10.029999999999973,6.075503540039063,-0.2630340576171875,7.284652709960938
10.039999999999964,6.495849609375001,0.2388092041015625,7.502825927734375
10.049999999999962,5.894116210937501,0.2322296142578125,6.818399047851563
10.059999999999944,4.9538330078125,1.1974853515625,5.465396118164063
10.069999999999936,7.622753906250001,1.54739990234375,8.536270141601562
10.08000000000004,7.2139221191406255,1.0035369873046875,8.519671630859376
10.09000000000004,5.586520385742188,1.2792816162109375,8.073455810546875
10.10000000000003,6.834249877929688,0.086431884765625,8.0091552734375
10.111999999999966,6.211730957031251,-1.090118408203125,6.0056701660156255
10.12099999999998,7.025656127929688,-1.6489349365234376,6.659591674804688
10.130999999999972,6.905279541015625,-1.418499755859375,8.041305541992188
10.140999999999964,6.15849609375,-0.8082427978515626,8.68924560546875
10.15099999999996,6.560598754882813,-0.378924560546875,8.259329223632813
10.160999999999952,6.343322753906251,-0.179144287109375,6.741238403320313
10.170999999999935,7.098928833007813,0.1613494873046875,5.92462158203125
10.18100000000004,7.037619018554688,0.1658355712890625,6.736602783203126
10.191000000000033,6.285153198242188,1.0937072753906252,8.025903320312501
10.201000000000022,6.371136474609376,1.4126678466796876,8.467782592773439
10.211999999999987,5.763720703125,0.8839080810546875,7.614080810546875
10.221000000000004,7.026553344726563,0.5292083740234376,6.64359130859375
10.231000000000002,6.775930786132813,0.133087158203125,6.399548339843751
10.240999999999984,6.792977905273438,-0.2878570556640625,6.522915649414063
10.250999999999976,7.099975585937501,-0.2441925048828125,7.686157226562501
10.26199999999995,6.271844482421876,-0.6959411621093751,7.516583251953126
10.271999999999936,6.4064270019531255,-0.838299560546875,7.557257080078125
10.28200000000004,6.229077148437501,-0.635528564453125,7.651016235351563
10.29200000000003,5.3246826171875,-0.3739898681640625,7.404879760742188
10.30200000000002,6.049783325195313,0.18721923828125,7.940817260742188
10.312000000000005,6.199618530273438,0.5405731201171875,7.593594360351563
10.322000000000005,7.234408569335938,0.6285003662109375,7.484732055664063
10.332,7.3787109375,0.652874755859375,6.839633178710938
10.341999999999985,6.413455200195313,0.90379638671875,6.580337524414063
10.351999999999975,6.677536010742188,0.5311523437500001,7.154556274414063
10.361999999999966,5.917294311523438,0.4206451416015625,7.662530517578125
10.371999999999955,6.1285888671875,0.1063201904296875,7.849301147460938
10.381999999999948,6.670059204101563,-0.325091552734375,8.009902954101562
10.39199999999994,5.9986419677734375,-0.6138458251953125,7.317700195312501
10.402000000000044,6.60770263671875,-0.5323486328125,7.114031982421875
10.413000000000013,6.58616943359375,-0.65496826171875,7.0616943359375
10.423000000000007,6.992160034179688,-0.3458770751953125,7.02939453125
10.433,7.108349609375001,-0.1487884521484375,7.581930541992188
10.442999999999984,6.372183227539063,0.084039306640625,7.225286865234375
10.452999999999976,6.282461547851563,0.29010009765625,7.587313842773438
10.462999999999964,5.364758300781251,0.40015869140625,6.823184204101563
10.472999999999956,5.07525634765625,0.3566436767578125,5.921630859375
10.482999999999947,8.002426147460938,0.9063385009765624,8.512942504882814
10.492999999999938,6.77518310546875,0.5791534423828125,8.175289916992188
10.503000000000045,5.9491455078125,0.2235565185546875,7.771990966796875
10.51300000000004,6.759930419921876,0.7011749267578126,7.849151611328126
10.523000000000032,6.410763549804688,-0.011065673828125,6.550729370117188
10.533000000000015,7.100125122070313,0.0004486083984375,7.036123657226563
10.543999999999984,6.362164306640626,-0.016748046875,7.844216918945313
10.553999999999974,6.117523193359375,-0.7781860351562501,8.004519653320314
10.563999999999965,6.683966064453125,-1.5216796875,8.177084350585938
10.573999999999955,6.368594360351563,-0.7732513427734375,6.966439819335938
10.583999999999946,7.401290893554688,-0.244342041015625,6.794473266601563
10.593999999999935,6.768005371093751,0.1317413330078125,6.645236206054688
10.604000000000037,6.381155395507813,1.0174438476562502,7.53482666015625
10.61400000000004,6.542355346679688,0.6276031494140626,8.052670288085938
10.62400000000003,5.9706787109375,0.4442718505859375,7.454525756835938
10.634000000000016,6.769052124023438,1.1623443603515626,7.040609741210938
10.644000000000004,6.691891479492188,0.48330078125,6.7548461914062505
10.653999999999996,6.655255126953126,0.3581390380859375,6.705349731445313
10.663999999999987,7.150070190429688,-0.045758056640625,7.343869018554688
10.673999999999978,6.215618896484376,-0.8940765380859376,7.211679077148438
10.683999999999967,6.598880004882813,-0.8021118164062501,7.790084838867188
10.69399999999996,5.9323974609375005,-0.471337890625,7.604959106445313
10.70500000000004,5.5735107421875005,-0.694744873046875,7.767654418945313
10.71500000000004,6.106906127929688,-0.085833740234375,7.873974609375001
10.72500000000003,6.130383300781251,0.213238525390625,7.5378173828125
10.735000000000014,7.174295043945313,0.2654266357421875,7.084722900390625
10.745000000000005,7.2752319335937505,0.66932373046875,7.096386718750001
10.754999999999995,6.706097412109376,0.90439453125,6.6097961425781255
10.764999999999986,6.988720703125001,0.6132476806640625,7.345663452148438
10.774999999999975,5.674298095703126,0.7496246337890625,7.369888305664063
10.784999999999968,6.031539916992188,0.3315216064453125,7.979098510742188
10.79499999999996,6.3917724609375,-0.224603271484375,7.843020629882813
10.80499999999995,6.011801147460938,-0.2615386962890625,7.470077514648438
10.81499999999994,6.84696044921875,-0.562255859375,7.2243896484375005
10.825000000000044,6.724490356445313,-0.5591156005859376,7.194332885742188
10.836000000000013,6.840380859375,-0.348419189453125,6.752902221679688
10.846000000000004,7.084124755859375,-0.478515625,7.50791015625
10.856000000000002,6.346463012695313,-0.2642303466796875,7.221847534179688
10.865999999999984,6.337042236328125,0.3883453369140625,7.275082397460938
10.875999999999976,4.4135589599609375,0.740203857421875,5.190847778320313
10.885999999999967,6.825277709960938,1.25191650390625,7.910311889648438
10.895999999999958,8.884091186523438,1.1744567871093752,9.599322509765626
10.905999999999947,4.150524902343751,0.796429443359375,8.286395263671876
10.91599999999994,5.4479003906250005,0.1828826904296875,7.69871826171875
10.926000000000045,7.849002075195313,-0.4151123046875,6.686358642578125
10.936000000000035,7.316204833984376,-1.6804870605468751,5.369692993164063
10.946000000000026,8.383743286132812,-0.8867492675781251,7.769747924804688
10.956000000000016,5.134622192382813,-0.46595458984375,8.84476318359375
10.966000000000008,5.120266723632813,-0.3040069580078125,8.648870849609375
10.976,6.185861206054688,-0.4293182373046875,7.669857788085938
10.986999999999966,6.928308105468751,0.45399169921875,6.038568115234376
10.996999999999955,8.366098022460939,-0.1628448486328125,6.49046630859375
11.006999999999948,6.476409912109376,0.6180328369140625,7.383944702148438
11.01699999999994,6.08013916015625,1.155914306640625,8.052072143554689
11.027000000000044,5.931948852539063,0.5236755371093751,8.105905151367189
11.037000000000042,6.352294921875001,0.3446807861328125,6.576150512695313
11.047000000000024,7.766159057617188,0.6591552734375,6.864306640625
11.057000000000016,6.387585449218751,-0.6509307861328125,6.589010620117188
11.067000000000007,6.401940917968751,0.1117034912109375,7.63651123046875
11.076999999999998,6.39835205078125,-0.4065887451171875,7.575650024414063
11.086999999999987,5.994155883789063,-0.789251708984375,7.124948120117188
11.09699999999998,7.444656372070313,-0.355596923828125,7.6101928710937505
11.106999999999973,5.94974365234375,-0.2400054931640625,7.200314331054688
11.117999999999938,5.668316650390626,-0.1676300048828125,7.7402893066406255
11.128000000000045,5.756542968750001,0.844580078125,8.108297729492188
11.13800000000004,6.136364746093751,0.3696533203125,7.419982910156251
11.148000000000032,8.005267333984376,0.3907379150390625,7.103115844726563
11.158000000000015,6.896456909179688,0.7363159179687501,6.684564208984376
11.168000000000006,6.305340576171876,0.503936767578125,6.9061767578125
11.177999999999995,6.41629638671875,0.25540771484375,7.775729370117188
11.187999999999988,5.507415771484375,0.389093017578125,7.445703125
11.19799999999998,7.162631225585938,-0.4379913330078125,7.921826171875001
11.20799999999997,6.566729736328125,-0.4930206298828125,7.386337280273438
11.21799999999996,5.917892456054688,-0.234173583984375,7.078292846679688
11.22799999999996,6.578991699218751,-0.5552276611328125,7.547985839843751
11.23799999999995,6.306387329101563,-0.32000732421875,7.16995849609375
11.247999999999934,7.275381469726563,0.0698333740234375,7.285549926757813
11.258000000000038,7.174145507812501,-0.1303955078125,7.236502075195313
11.268000000000027,5.981594848632813,0.366363525390625,7.223342895507813
11.278999999999996,6.293377685546876,0.404046630859375,7.440469360351563
11.288999999999987,4.553076171875,-0.411224365234375,5.832806396484376
11.298999999999978,6.867745971679688,0.1828826904296875,7.376318359375
11.308999999999967,8.734405517578125,0.5597137451171875,8.834146118164064
11.31899999999996,4.832110595703125,-0.4557861328125,7.590902709960938
11.32899999999995,5.377767944335938,0.3527557373046875,7.939321899414063
11.338999999999942,7.431796264648438,0.9096282958984376,7.555462646484376
11.349000000000046,7.525106811523438,0.1529754638671875,6.347509765625
11.359000000000036,7.43673095703125,0.758148193359375,6.958364868164063
11.369000000000028,5.250213623046875,0.4918243408203125,8.22568359375
11.37900000000002,5.649325561523438,-0.4972076416015625,8.208187866210938
11.38900000000001,6.278573608398438,-0.6065185546875,8.2627685546875
11.399,7.143789672851563,-0.1936492919921875,6.500485229492188
11.409999999999968,8.192486572265626,-0.32060546875,6.971075439453125
11.41999999999996,6.141448974609376,0.20277099609375,6.528149414062501
11.42999999999995,6.100625610351563,0.702520751953125,7.796365356445313
11.43999999999994,6.160888671875001,-0.312530517578125,7.80399169921875
11.450000000000044,6.246871948242188,0.3351104736328125,7.580734252929688
11.460000000000036,7.72264404296875,0.5387786865234375,7.243679809570313
11.470000000000027,6.122906494140626,0.1933502197265625,6.667965698242188
11.480000000000018,6.452932739257813,0.4355987548828125,6.723892211914063
11.490000000000007,6.790884399414063,-0.26138916015625,7.335345458984375
11.5,6.252255249023438,-0.624761962890625,7.146331787109376
11.509999999999993,7.158145141601563,0.0219818115234375,7.823431396484375
11.519999999999976,5.9448089599609375,-0.3186614990234375,7.596884155273438
11.530999999999947,5.73740234375,-0.3183624267578125,7.609445190429688
11.54099999999994,5.56094970703125,0.0548797607421875,7.831356811523438
11.551000000000045,6.026455688476563,-0.065496826171875,7.275531005859375
11.561000000000035,7.867843627929688,0.165087890625,7.580136108398438
11.572000000000005,7.070965576171876,0.541021728515625,6.8104736328125
11.581000000000016,6.594992065429688,0.32957763671875,6.761874389648438
11.591000000000008,6.679928588867188,0.32120361328125,7.496844482421875
11.601,5.4646484375,0.3922332763671875,7.190145874023438
11.611999999999966,6.719107055664063,0.063104248046875,8.004818725585938
11.62099999999998,6.540112304687501,-0.065496826171875,7.676437377929688
11.630999999999972,5.970529174804688,0.001495361328125,7.500433349609375
11.640999999999964,6.600823974609376,-0.248828125,7.288241577148438
11.65099999999996,6.167617797851563,-0.067291259765625,7.0344787597656255
11.660999999999952,7.400543212890626,-0.1831817626953125,7.014889526367188
11.670999999999935,7.128237915039063,-0.2681182861328125,7.40084228515625
11.682000000000016,6.135617065429688,0.12919921875,6.878811645507813
11.692000000000007,5.2953735351562505,0.5825927734375,5.8773681640625
11.701999999999998,5.78465576171875,0.7556060791015625,7.149472045898438
11.712999999999964,8.132522583007812,1.0110137939453123,9.149368286132812
11.72199999999998,5.1443420410156255,0.5863311767578125,8.614776611328125
11.731999999999973,5.643045043945313,0.076263427734375,7.802496337890625
11.741999999999956,8.773583984375001,-0.341839599609375,7.480694580078126
11.75199999999996,6.10167236328125,-1.4306121826171876,5.2804199218750005
11.76199999999995,7.045843505859375,-1.1001373291015626,6.891073608398438
11.773000000000032,5.876919555664063,-0.2519683837890625,8.771041870117188
11.78200000000004,5.4957519531250005,-0.1954437255859375,8.764462280273438
11.79200000000003,7.344766235351563,-0.260791015625,8.480343627929688
11.80200000000002,6.527401733398438,0.5969482421875001,6.285153198242188
11.812999999999988,7.01444091796875,-0.1027313232421875,5.871835327148438
11.82299999999998,6.828268432617188,0.2609405517578125,6.962103271484375
11.832,6.1166259765625,1.0406219482421877,7.999584960937501
11.84299999999996,7.121060180664063,0.4927215576171875,8.41708984375
11.851999999999975,6.19498291015625,0.1646392822265625,7.308279418945313
11.86299999999995,6.767706298828125,0.5945556640625,6.694882202148438
11.872999999999934,6.148776245117188,-0.6240142822265625,6.5472900390625
11.883000000000038,6.186907958984375,0.01016845703125,7.023263549804688
11.893000000000027,7.457965087890625,-0.0249725341796875,7.562490844726563
11.90300000000002,6.605310058593751,-0.6419586181640625,7.600173950195313
11.913000000000013,6.733462524414063,-0.233575439453125,7.20823974609375
11.923000000000007,5.8860412597656255,0.05682373046875,7.516732788085938
11.933,5.253952026367188,-0.3022125244140625,7.12449951171875
11.942999999999984,6.235806274414063,0.8671600341796876,8.338882446289062
11.952999999999976,6.489270019531251,0.33555908203125,7.6221557617187505
11.962999999999964,7.336990356445313,0.25660400390625,7.288839721679688
11.972999999999956,6.866549682617188,0.5329467773437501,7.0628906250000005
11.984000000000036,6.07535400390625,0.377728271484375,6.476409912109376
11.994000000000028,6.941168212890625,0.0825439453125,7.380206298828125
12.00400000000002,6.249713134765625,0.3689056396484375,7.403833007812499
12.01400000000001,6.569720458984375,-0.389990234375,7.978948974609375
12.024,6.510803222656251,-0.3868499755859375,7.787841796875001
12.033999999999992,5.4867797851562505,-0.2065093994140625,7.196725463867188
12.043999999999984,6.623703002929688,-0.4143646240234375,7.36375732421875
12.053999999999974,6.758734130859375,-0.221612548828125,6.997244262695313
12.063999999999965,6.9791503906250005,0.293389892578125,7.217510986328126
12.073999999999955,7.2746337890625,-0.03050537109375,7.452880859375001
12.083999999999946,5.905032348632813,0.317315673828125,7.349102783203126
12.093999999999935,6.237301635742188,0.4335052490234375,6.925616455078125
12.104000000000037,5.0520782470703125,-0.19678955078125,5.746524047851563
12.11400000000004,6.946701049804688,0.41810302734375,7.508956909179688
12.12400000000003,8.256936645507814,0.7775878906250001,9.326718139648438
12.134000000000016,3.743637084960938,-0.172265625,7.691690063476563
12.144999999999976,5.294625854492188,0.6902587890625,8.064483642578125
12.153999999999996,8.827267456054688,0.791943359375,7.312017822265625
12.164999999999964,8.05401611328125,-0.038580322265625,6.316107177734375
12.174999999999962,7.322784423828126,0.22550048828125,6.766061401367188
12.184999999999944,4.304098510742188,-0.37144775390625,8.052819824218751
12.196000000000026,5.722149658203126,-1.5249694824218751,8.153607177734376
12.20500000000004,7.223492431640626,-1.301861572265625,8.542401123046876
12.21500000000004,7.271493530273438,-0.25660400390625,6.576748657226563
12.22500000000003,7.633071899414063,-0.381915283203125,7.000384521484375
12.23599999999999,5.361618041992188,0.3802703857421875,6.693984985351563
12.245000000000005,6.00537109375,0.9335540771484376,7.676736450195313
12.254999999999995,6.987225341796876,0.274847412109375,7.710830688476563
12.264999999999986,6.849801635742188,1.1535217285156252,7.274932861328126
12.27599999999996,7.5608459472656255,1.1799896240234375,7.277325439453126
12.285999999999952,5.417544555664063,0.265576171875,6.784603881835938
12.295999999999935,5.8953125,0.5277130126953126,7.039114379882813
12.30600000000004,6.9312988281250005,-0.334661865234375,7.353738403320313
12.316000000000033,6.812716674804688,-0.9461151123046876,7.109396362304688
12.326000000000022,7.562490844726563,-0.5147033691406251,7.770794677734376
12.336000000000013,5.691046142578125,-0.8375518798828125,7.412356567382813
12.346000000000004,5.478106689453125,-0.8417388916015626,7.422525024414063
12.356000000000002,5.836544799804688,0.01136474609375,7.830908203125
12.365999999999984,6.2643676757812505,-0.0797027587890625,7.371084594726563
12.375999999999976,7.931097412109375,0.3922332763671875,7.582080078125
12.385999999999967,6.533233642578126,1.0292572021484376,7.112686157226563
12.395999999999958,6.124102783203125,0.7751953125000001,6.941616821289063
12.405999999999947,6.611441040039063,0.8187103271484376,7.338934326171875
12.41700000000003,5.964846801757813,0.8169158935546875,7.094741821289063
12.426000000000045,7.336990356445313,0.0973480224609375,7.701260375976563
12.437000000000005,6.329864501953126,0.042169189453125,7.671203613281251
12.447000000000005,5.6662231445312505,-0.1233673095703125,7.392169189453125
12.457,6.442764282226563,-0.8320190429687501,7.663726806640626
12.466999999999985,6.256741333007813,-0.6881652832031251,7.07664794921875
12.476999999999975,7.472769165039063,-0.4933197021484375,7.1071533203125
12.486999999999966,7.041806030273438,-0.7008758544921876,7.295269775390626
12.496999999999955,6.121411132812501,0.0677398681640625,7.098480224609376
12.506999999999948,6.091653442382813,0.3434844970703125,7.100872802734376
12.519000000000004,4.41490478515625,0.6944458007812501,5.147482299804688
12.527000000000044,7.808627319335938,1.461865234375,8.931793212890625
12.537000000000042,7.296316528320313,1.095501708984375,8.814108276367188
12.547000000000024,4.268807983398438,1.0651458740234376,7.739990234375001
12.557000000000016,7.932742309570313,0.344830322265625,8.670703125000001
12.567000000000007,7.005169677734376,-0.844281005859375,6.022268676757813
12.576999999999998,6.905429077148438,-1.627850341796875,5.851647949218751
12.587999999999964,7.042852783203125,-0.8357574462890626,7.826721191406251
12.597999999999956,5.135369873046876,-0.6951934814453126,8.281759643554688
12.607999999999947,6.942214965820313,-0.5169464111328126,8.88184814453125
12.617999999999938,6.426464843750001,-0.0107666015625,7.380206298828125
12.62900000000002,6.483587646484375,0.206060791015625,6.113186645507813
12.63800000000004,7.292877197265626,-0.382513427734375,6.758584594726563
12.648000000000032,5.800506591796875,0.9525451660156252,7.501181030273438
12.658000000000015,7.31949462890625,1.0546783447265626,8.059100341796876
12.668000000000006,6.413455200195313,0.6296966552734375,7.534527587890626
12.677999999999995,6.910064697265626,0.8224487304687501,6.538766479492188
12.68999999999994,6.784005737304688,0.07955322265625,6.994253540039063
12.698999999999955,5.5570617675781255,-0.411822509765625,6.5472900390625
12.708999999999946,6.908120727539063,0.135479736328125,7.919583129882813
12.718999999999935,6.549832153320313,-0.6009857177734376,7.691540527343751
12.730000000000018,6.377716064453126,-0.58319091796875,7.327569580078125
12.73900000000004,6.801351928710938,-0.2923431396484375,7.671652221679688
12.74900000000003,5.287448120117188,-0.5546295166015626,7.031039428710938
12.759000000000016,6.238796997070313,0.209649658203125,7.707092285156251
12.769999999999976,6.351696777343751,0.5677886962890626,7.423123168945313
12.778999999999996,7.0616943359375,0.235369873046875,7.562042236328126
12.788999999999987,7.431945800781251,0.6608001708984376,7.377066040039063
12.798999999999978,5.684616088867188,0.6925018310546875,6.82542724609375
12.808999999999967,6.517532348632813,0.337353515625,7.117770385742188
12.819999999999936,6.352444458007813,0.37144775390625,7.56114501953125
12.831000000000016,6.19139404296875,0.156414794921875,7.511349487304688
12.84000000000004,7.380206298828125,-0.3431854248046875,7.9092651367187505
12.85000000000003,5.7608795166015625,-0.2905487060546875,7.265362548828126
12.860000000000014,6.397006225585938,-0.4161590576171875,7.143640136718751
12.870000000000005,6.545346069335938,-0.5588165283203126,7.224539184570313
12.879999999999995,6.584674072265625,-0.1254608154296875,7.168164062500001
12.889999999999986,7.370187377929688,-0.1371246337890625,7.5737060546875
12.899999999999975,5.929855346679688,-0.1508819580078125,6.800305175781251
12.909999999999968,5.428610229492188,-0.234173583984375,5.567678833007813
12.920999999999935,7.179528808593751,-0.0011962890625,8.625991821289062
12.92999999999995,5.787945556640626,0.5800506591796876,7.930349731445313
12.93999999999994,5.418142700195313,0.5964996337890626,8.06597900390625
12.951000000000022,7.570416259765626,1.347320556640625,8.507260131835938
12.960000000000036,7.881002807617188,1.185671997070313,6.755294799804688
12.971000000000004,6.773687744140625,0.383709716796875,6.411062622070313
12.981000000000002,5.3151123046875,0.237762451171875,6.702059936523438
12.990999999999984,5.7003173828125,-0.5378814697265626,8.26875
13.000999999999976,7.257138061523438,-1.5400726318359377,8.754443359375001
13.010999999999967,7.020272827148438,-0.9076843261718752,8.030688476562501
13.020999999999958,6.917541503906251,-0.51260986328125,6.651217651367188
13.030999999999947,5.7021118164062505,-0.66693115234375,6.486877441406251
13.04099999999994,6.337341308593751,0.4916748046875,6.9028869628906255
13.051000000000045,7.3404296875,0.3853546142578125,7.932144165039063
13.061000000000035,7.144836425781251,0.4293182373046875,7.590304565429688
13.071000000000026,6.903036499023438,1.4033966064453125,7.595986938476563
13.081000000000016,5.515042114257813,0.7200164794921875,6.714620971679688
13.091000000000008,5.675344848632813,0.4797119140625,6.766061401367188
13.101,7.092498779296876,0.596649169921875,7.319345092773438
13.11099999999999,7.1669677734375,-0.3273345947265625,7.112686157226563
13.121999999999955,7.292279052734376,-0.554180908203125,7.663726806640626
13.131999999999948,5.887686157226563,-0.5483489990234376,7.312017822265625
13.14199999999994,5.49156494140625,-1.15980224609375,7.414151000976563
13.152000000000044,6.102120971679688,-0.6500335693359376,7.563687133789063
13.162000000000042,5.99759521484375,-0.0668426513671875,7.632324218750001
13.172000000000024,7.312167358398438,-0.221014404296875,7.833151245117188
13.182000000000016,6.7363037109375,0.499151611328125,7.466937255859375
13.192000000000007,6.05621337890625,0.8136260986328125,6.808828735351563
13.201999999999998,6.8774658203125005,0.5748168945312501,6.942962646484376
13.211999999999987,6.496298217773438,1.0286590576171877,7.109396362304688
13.22199999999998,6.934887695312501,0.7464843750000001,7.360617065429688
13.231999999999973,6.4468017578125005,0.172564697265625,8.024856567382812
13.241999999999956,5.628689575195313,0.285614013671875,7.589855957031251
13.253000000000045,6.151916503906251,-0.2657257080078125,7.579986572265626
13.26199999999995,6.405978393554688,-0.7200164794921875,7.043301391601563
13.273000000000032,7.084722900390625,-0.4143646240234375,7.163079833984376
13.283000000000015,7.187603759765626,-0.7484283447265625,7.310671997070313
13.293000000000006,6.3893798828125,-0.46116943359375,7.282559204101563
13.302999999999995,6.385491943359376,-0.06041259765625,7.220950317382813
13.312999999999988,5.1159301757812505,-0.040374755859375,5.130584716796875
13.32299999999998,6.565982055664063,0.5825927734375,6.7937255859375005
13.33299999999997,8.198019409179688,1.3044036865234376,9.408065795898438
13.34299999999996,4.63382568359375,0.372943115234375,9.31610107421875
13.35299999999996,5.938528442382813,0.194696044921875,8.566177368164062
13.36299999999995,7.847506713867188,-0.12979736328125,7.00845947265625
13.372999999999934,6.709835815429688,-1.1630920410156251,4.310977172851563
13.383000000000038,7.701110839843751,0.2573516845703125,6.681124877929688
13.393000000000027,5.471975708007813,1.0472015380859376,8.494998168945314
13.40300000000002,5.861517333984375,0.2021728515625,9.789981079101564
13.413000000000013,6.192889404296875,-0.0477020263671875,8.800949096679688
13.423999999999978,5.9371826171875,-0.0681884765625,6.090606689453125
13.433999999999967,7.666119384765626,-0.9390869140625,5.627941894531251
13.44399999999996,6.962402343750001,0.207257080078125,6.734210205078125
13.45399999999995,7.033731079101563,0.618780517578125,8.026651000976564
13.463999999999942,7.016683959960938,-0.192303466796875,8.526101684570314
13.474000000000046,5.60521240234375,-0.0213836669921875,7.078890991210938
13.484000000000036,6.827371215820313,-0.0040374755859375,6.899148559570313
13.494000000000028,5.646334838867188,-0.5662933349609376,6.599478149414063
13.50400000000002,6.451287841796876,0.9138153076171877,7.38768310546875
13.51400000000001,7.551126098632813,0.2109954833984375,7.809375
13.524,6.563888549804688,-0.0536834716796875,7.25728759765625
13.534999999999968,7.073059082031251,0.279632568359375,6.864456176757813
13.543999999999984,5.648727416992188,-0.0357391357421875,6.879559326171876
13.55499999999995,5.765664672851563,-0.0825439453125,7.254895019531251
13.56499999999994,6.312667846679688,0.6160888671875,8.702105712890626
13.575000000000044,5.8295166015625,-0.369952392578125,7.661483764648438
13.585000000000036,7.255194091796875,-0.104376220703125,7.789187622070313
13.595000000000027,6.466390991210938,-0.063702392578125,6.765463256835938
13.605000000000018,6.358724975585938,-0.069683837890625,6.425418090820313
13.615000000000007,7.198071289062501,0.11783447265625,7.366149902343751
13.625,6.2841064453125,0.433953857421875,7.320840454101563
13.634999999999993,7.103564453125,-0.2875579833984375,8.090203857421876
13.644999999999976,6.057260131835938,0.2193695068359375,7.397552490234376
13.654999999999973,5.439825439453125,0.0037384033203125,7.2632690429687505
13.664999999999964,6.6884521484375,0.033795166015625,7.503573608398438
13.674999999999962,6.174197387695313,0.3983642578125,7.284503173828125
13.684999999999944,7.299905395507813,0.3378021240234375,7.398599243164063
13.694999999999936,7.117172241210938,-0.2211639404296875,7.463348388671876
13.706000000000016,5.948995971679688,0.21473388671875,6.833950805664063
13.716000000000008,6.536972045898438,-0.39776611328125,6.608151245117188
13.726,5.1500244140625,-1.0678375244140623,5.4479003906250005
13.73599999999999,7.260427856445313,-0.10587158203125,8.279815673828125
13.74599999999998,6.970327758789063,0.0139068603515625,8.971420288085938
13.755999999999972,4.807736206054688,-0.673809814453125,8.063287353515626
13.765999999999964,6.933242797851563,1.6336822509765627,8.896951293945314
13.77599999999996,7.294970703125,0.9842468261718752,6.49345703125
13.785999999999952,6.792529296875,0.863720703125,5.9946044921875
13.797000000000024,7.116574096679688,1.1065673828125,7.123303222656251
13.80600000000004,5.502481079101563,-0.232379150390625,8.11502685546875
13.816000000000033,7.201660156250001,-0.8557952880859375,8.561093139648438
13.826999999999998,6.263320922851563,-0.2815765380859375,7.733560180664063
13.836999999999987,6.3765197753906255,-0.5191894531250001,6.302200317382813
13.84699999999998,6.689498901367188,-0.337652587890625,7.266259765625
13.856999999999973,5.775384521484376,0.1900604248046875,7.28599853515625
13.866999999999956,7.3224853515625,-0.199481201171875,8.11981201171875
13.87699999999996,6.963150024414063,0.0620574951171875,7.4744140625
13.88699999999995,6.43125,0.96002197265625,6.613235473632813
13.896999999999936,7.2291748046875,0.2026214599609375,6.914550781250001
13.90700000000004,5.447152709960938,0.44083251953125,6.670208740234376
13.91700000000003,6.791333007812501,0.5508911132812501,7.607949829101563
13.92700000000002,6.718060302734376,-0.3826629638671875,7.757934570312501
13.937000000000005,6.146682739257813,0.055328369140625,7.311868286132813
13.947000000000005,6.869540405273438,-0.13817138671875,7.638156127929688
13.957,5.722747802734375,-0.692352294921875,7.052124023437501
13.966999999999985,6.141897583007813,-0.1927520751953125,7.361663818359376
13.976999999999975,6.446054077148438,-0.244342041015625,7.6834655761718755
13.98799999999995,6.598880004882813,-0.317315673828125,7.552322387695313
13.997999999999934,7.441815185546876,0.421990966796875,7.545742797851563
14.008000000000038,5.861218261718751,0.2570526123046875,6.84696044921875
14.018000000000027,6.507214355468751,0.3828125,7.120013427734375
14.02800000000002,6.491812133789063,0.5921630859375,7.465740966796876
14.038000000000013,6.186459350585938,0.193798828125,7.316204833984376
14.048000000000007,7.23037109375,0.268267822265625,8.016033935546876
14.058,6.038568115234376,0.4027008056640625,7.233511352539063
14.067999999999984,6.126495361328126,-0.1538726806640625,7.101620483398438
14.077999999999976,6.644488525390625,-0.158807373046875,7.393515014648438
14.087999999999964,6.255245971679688,-0.187518310546875,7.150967407226563
14.097999999999956,7.482489013671875,-0.439337158203125,7.673147583007813
14.107999999999947,6.260928344726563,-0.16807861328125,7.345364379882813
14.119000000000028,6.145785522460938,0.0059814453125,7.170407104492188
14.12900000000002,5.919686889648438,0.0155517578125,6.174197387695313
14.13900000000001,5.315859985351563,0.7406524658203125,5.71527099609375
14.149,8.758929443359376,1.0338928222656252,9.403280639648438
14.158999999999992,5.8438720703125,0.57960205078125,9.01089782714844
14.168999999999984,4.127197265625,0.7576995849609376,7.354934692382813
14.178999999999974,8.10784912109375,-0.101385498046875,8.27174072265625
14.188999999999965,6.980047607421875,-1.078005981445313,5.296719360351563
14.198999999999955,7.89072265625,-1.131838989257813,6.630880737304688
14.208999999999946,6.306536865234375,-0.6479400634765625,7.874273681640625
14.218999999999935,4.834353637695313,-0.1562652587890625,8.887081909179688
14.229000000000037,6.596786499023438,-0.0928619384765625,8.567822265625
14.23900000000004,6.268405151367188,0.357989501953125,7.169659423828126
14.25,7.306484985351563,0.1936492919921875,5.846414184570313
14.259999999999993,7.344317626953125,-0.2579498291015625,7.048086547851563
14.269999999999976,5.9048828125,0.6878662109375,7.426113891601563
14.279999999999973,7.07066650390625,0.7035675048828125,8.271292114257813
14.289999999999964,6.004025268554688,0.1763031005859375,7.269998168945313
14.299999999999962,7.160836791992188,0.5037872314453126,7.01444091796875
14.309999999999944,6.3286682128906255,-0.34871826171875,6.6705078125
14.319999999999936,5.917593383789063,-0.1614990234375,7.254296875
14.331000000000016,7.183566284179688,0.1789947509765625,7.519873046875
14.34000000000004,6.567626953125001,-0.3518585205078125,7.435684204101563
14.35000000000003,6.999337768554688,-0.3066986083984375,6.658544921875
14.360000000000014,6.548934936523438,-0.0704315185546875,7.789486694335938
14.370000000000005,5.16258544921875,-0.35948486328125,6.941317749023438
14.379999999999995,6.163580322265625,0.578106689453125,8.569317626953126
14.389999999999986,5.811273193359376,0.3255401611328125,7.489816284179688
14.399999999999975,7.001281738281251,0.334661865234375,7.641296386718751
14.410999999999952,7.252502441406251,0.3366058349609375,7.089508056640626
14.420999999999935,6.0689239501953125,0.4643096923828125,6.5993286132812505
14.432000000000016,7.017730712890626,0.0216827392578125,7.242034912109376
14.441000000000033,6.295172119140625,0.369952392578125,7.49295654296875
14.451000000000022,6.453082275390625,-0.1087127685546875,7.402038574218751
14.461000000000013,6.958813476562501,-0.1840789794921875,7.9146484375
14.471000000000004,5.460461425781251,-0.3862518310546875,7.208538818359376
14.481000000000002,6.548037719726563,-0.2284912109375,7.493255615234376
14.490999999999984,6.284255981445313,-0.3718963623046875,7.316204833984376
14.500999999999976,6.857278442382813,0.22071533203125,7.2019592285156255
14.510999999999967,7.437628173828125,-0.0228790283203125,7.456320190429688
14.520999999999958,5.99400634765625,0.240155029296875,6.5918518066406255
14.53200000000004,5.813516235351563,-0.53653564453125,5.6859619140625
14.54200000000003,6.258984375000001,-0.3093902587890625,7.762420654296876
14.55200000000002,6.385641479492188,0.3923828125,8.083474731445314
14.562000000000005,6.0031280517578125,0.2552581787109375,8.738592529296875
14.572000000000005,6.693237304687501,0.94566650390625,8.698068237304689
14.582,7.545144653320313,1.3519561767578123,7.150219726562501
14.591999999999985,6.483288574218751,0.0861328125,6.064886474609375
14.601999999999975,6.158346557617188,0.40614013671875,6.300555419921875
14.611999999999966,6.7243408203125,-0.2292388916015625,8.446398925781251
14.621999999999955,6.989468383789063,-1.04256591796875,8.437127685546876
14.631999999999948,6.735256958007813,-0.4912261962890625,8.090203857421876
14.64199999999994,6.008810424804688,-0.2247528076171875,6.474465942382813
14.652000000000044,5.994903564453125,-0.5175445556640625,6.8026977539062505
14.662000000000042,6.613385009765626,0.584088134765625,7.118667602539063
14.672000000000024,7.025656127929688,0.407037353515625,8.097381591796875
14.682000000000016,7.2498107910156255,0.48150634765625,7.750308227539063
14.692000000000007,6.4850830078125,1.0463043212890626,7.1095458984375
14.702999999999976,6.138458251953126,0.439337158203125,6.329266357421876
14.712999999999964,6.431100463867188,0.1284515380859375,6.8619140625
14.724000000000046,6.5114013671875,0.3898406982421875,7.201211547851563
14.732999999999947,7.138406372070313,-0.415411376953125,7.859170532226563
14.742999999999938,6.370687866210938,-0.611602783203125,7.70888671875
14.753000000000045,6.0065673828125,-0.5250213623046875,7.342971801757813
14.76300000000004,6.09808349609375,-0.91875,7.282110595703125
14.773000000000032,6.109747314453125,-0.41571044921875,7.270596313476563
14.783000000000015,6.307583618164063,0.040673828125,7.667465209960938
14.793000000000006,7.0225158691406255,-0.0584686279296875,7.691241455078125
14.802999999999995,6.769052124023438,0.5902191162109376,7.4307495117187505
14.812999999999988,6.407473754882813,0.7979248046875,6.949691772460938
14.82299999999998,6.291583251953125,0.5476013183593751,6.9627014160156255
14.833999999999946,6.577645874023438,0.88345947265625,7.385888671875
14.843999999999935,6.432147216796875,0.411224365234375,7.416992187500001
14.854000000000037,6.571514892578126,0.000897216796875,8.005715942382814
14.86400000000004,6.330313110351563,0.2118927001953125,7.394711303710938
14.87400000000003,6.156402587890626,-0.3970184326171875,7.171304321289063
14.884000000000016,6.551327514648438,-0.7385589599609376,7.130929565429688
14.894000000000004,6.804940795898438,-0.35350341796875,7.2387451171875
14.903999999999996,6.807632446289063,-0.544012451171875,7.440170288085938
14.913999999999987,6.677536010742188,-0.267071533203125,7.589706420898438
14.923999999999978,6.054269409179688,0.0719268798828125,7.153210449218751
14.933999999999967,5.602670288085938,0.19200439453125,5.549285888671875
14.94399999999996,5.9874267578125,0.7449890136718751,5.775982666015626
14.95399999999995,8.319891357421875,1.4539398193359376,9.4327392578125
14.963999999999942,5.700466918945313,0.67291259765625,9.149069213867188
14.974000000000046,4.817156982421875,0.4158599853515625,8.502175903320314
14.985000000000014,7.646380615234375,-0.283221435546875,7.9086669921875
14.995000000000005,6.557608032226563,-1.474725341796875,5.092752075195313
15.004999999999995,7.4666381835937505,-1.1629425048828126,6.146234130859376
15.014999999999986,6.875671386718751,0.09390869140625,8.1192138671875
15.024999999999975,5.970230102539063,-0.036785888671875,9.010299682617188
15.034999999999968,6.528897094726563,0.3069976806640625,8.620159912109376
15.04499999999996,5.771795654296875,0.5640502929687501,6.6609375
15.05499999999995,6.403884887695313,-0.1158905029296875,5.954080200195313
15.06499999999994,7.069320678710938,0.0177947998046875,7.232464599609376
15.075000000000044,6.540560913085938,1.0638000488281252,8.103961181640626
15.085000000000036,7.286148071289063,0.369952392578125,8.215664672851563
15.095000000000027,6.174197387695313,0.1997802734375,6.9327941894531255
15.105000000000018,7.027899169921875,0.0862823486328125,6.503326416015626
15.115000000000007,6.253900146484376,-0.6039764404296876,6.480895996093751
15.125,6.079690551757813,0.0390289306640625,7.342074584960938
15.135999999999967,7.147378540039063,0.10946044921875,7.974014282226563
15.145999999999958,6.496298217773438,-0.48270263671875,7.778271484375001
15.155999999999947,6.386837768554688,-0.15850830078125,6.9387756347656255
15.16599999999994,6.038568115234376,-0.142059326171875,7.1959777832031255
15.176000000000045,5.7220001220703125,-0.1161895751953125,7.071862792968751
15.186000000000035,6.674694824218751,0.7307830810546876,8.122952270507813
15.196000000000026,6.4133056640625,0.2857635498046875,7.60062255859375
15.206000000000016,7.120910644531251,0.1434051513671875,7.498489379882813
15.216000000000008,6.590505981445313,0.3644195556640625,7.055264282226563
15.226,5.798562622070313,0.18482666015625,6.662731933593751
15.23599999999999,6.768005371093751,0.1206756591796875,7.448544311523438
15.24599999999998,6.534878540039063,0.3720458984375,7.6954284667968755
15.256999999999948,6.683666992187501,-0.2244537353515625,7.703054809570313
15.26699999999994,6.710882568359375,-0.2044158935546875,7.507012939453125
15.277000000000044,5.674298095703126,-0.2483795166015625,6.955374145507813
15.287000000000042,6.688751220703126,-0.3479705810546875,7.319644165039063
15.297000000000024,6.503326416015626,-0.04366455078125,7.309475708007813
15.307000000000016,6.910513305664063,0.165985107421875,7.5258544921875
15.317000000000007,6.99290771484375,0.014654541015625,7.542453002929688
15.326999999999998,5.8535919189453125,0.2332763671875,7.227529907226563
15.336999999999987,6.352743530273438,0.174658203125,6.712826538085938
15.34699999999998,5.393618774414063,-0.1535736083984375,5.7848052978515625
15.356999999999973,6.770846557617188,0.3063995361328125,6.938177490234375
15.366999999999956,7.759130859375,0.5746673583984375,8.943756103515625
15.37699999999996,5.11114501953125,0.0587677001953125,8.168261718750001
15.38699999999995,6.426614379882813,1.039126586914063,9.180023193359377
15.396999999999936,7.237249755859375,0.965704345703125,7.065582275390626
15.40700000000004,6.433493041992188,0.209649658203125,5.980548095703125
15.418000000000006,7.283905029296876,-0.031103515625,6.505718994140626
15.427999999999995,5.887237548828125,-0.9942657470703126,7.732064819335938
15.437999999999988,6.968084716796875,-1.8718933105468751,8.572308349609376
15.448999999999955,6.690695190429688,-1.030154418945313,8.698965454101563
15.45799999999997,5.718411254882813,-0.17705078125,6.597683715820313
15.46799999999996,6.8296142578125005,-0.251220703125,6.8116699218750005
15.47799999999996,6.2434326171875005,0.451300048828125,6.8026977539062505
15.48799999999995,7.082180786132813,0.7191192626953126,7.783505249023438
15.497999999999934,7.126742553710938,0.5363861083984376,7.834945678710938
15.508000000000038,6.1537109375000005,1.51031494140625,7.335644531250001
15.518000000000027,6.714321899414063,0.9805084228515626,6.886587524414063
15.52800000000002,5.759533691406251,0.37025146484375,6.784454345703126
15.538000000000013,6.577197265625,0.4634124755859375,6.898999023437501
15.548999999999978,7.259381103515626,-0.5184417724609376,7.769448852539063
15.558999999999967,6.668264770507813,-0.920843505859375,7.291830444335938
15.56899999999996,6.663778686523438,-0.5495452880859375,7.6101928710937505
15.57899999999995,5.758187866210938,-1.194644165039063,6.902438354492188
15.588999999999942,6.064288330078125,-0.7789337158203126,7.435983276367188
15.599000000000046,6.366351318359375,-0.1574615478515625,7.794122314453125
15.609000000000036,6.1731506347656255,-0.0575714111328125,7.673596191406251
15.619000000000028,7.1191162109375,0.6569122314453125,7.752850341796876
15.62900000000002,6.280068969726563,1.2887023925781251,7.069320678710938
15.63900000000001,6.313265991210938,0.7973266601562501,6.8490539550781255
15.649,6.846212768554688,1.09400634765625,7.071862792968751
15.658999999999992,6.373828125,0.712689208984375,7.367794799804688
15.668999999999984,6.948345947265626,0.1496856689453125,7.805935668945313
15.678999999999974,6.103317260742188,0.1048248291015625,7.543499755859376
15.688999999999965,5.879910278320313,-0.2860626220703125,7.292877197265626
15.700000000000044,6.764566040039063,-1.0458557128906252,7.483834838867188
15.710000000000036,6.271395874023438,-0.7514190673828125,7.175491333007813
15.720000000000027,7.224688720703125,-0.8548980712890626,7.353738403320313
15.730000000000018,6.701611328125001,-0.629248046875,7.529891967773438
15.740000000000007,6.1525146484375,0.039178466796875,7.050180053710938
15.75,6.616824340820313,0.2103973388671875,7.172201538085938
15.759999999999993,5.132827758789063,0.8121307373046875,5.433993530273438
15.769999999999976,6.558056640625001,1.64130859375,7.060797119140625
15.779999999999973,7.988519287109375,1.4615661621093752,9.230267333984376
15.789999999999964,4.718911743164063,1.4742767333984377,8.594888305664064
15.799999999999962,5.939425659179688,0.7562042236328126,8.245571899414063
15.809999999999944,7.2991577148437505,-0.5363861083984376,7.187603759765626
15.819999999999936,6.885540771484376,-1.7790313720703126,5.307485961914063
15.831000000000016,8.163476562500001,-1.81357421875,7.314410400390625
15.841000000000008,5.899349975585938,-1.2558044433593751,8.094091796875
15.851,6.117971801757813,-0.485992431640625,8.858221435546875
15.86099999999999,6.241339111328125,-0.5323486328125,7.818048095703125
15.87099999999998,6.109448242187501,0.2643798828125,6.397006225585938
15.880999999999972,7.325625610351563,-0.1208251953125,6.680825805664063
15.890999999999964,6.346463012695313,0.5818450927734375,7.417141723632813
15.90099999999996,6.482391357421876,1.5050811767578125,7.975210571289063
15.910999999999952,6.705349731445313,1.2864593505859376,8.108297729492188
15.920999999999935,6.460110473632813,0.7089508056640625,6.463699340820313
15.93100000000004,7.293026733398438,0.55029296875,6.890325927734375
15.941000000000033,6.0759521484375005,-0.415411376953125,6.305938720703126
15.951999999999998,6.537719726562501,-0.0478515625,7.8608154296875
15.961999999999987,6.657348632812501,-0.4366455078125,7.49295654296875
15.97199999999998,6.251507568359376,-0.81885986328125,7.588510131835938
15.981999999999973,7.071115112304688,-0.9452178955078124,7.157846069335938
15.991999999999956,5.778973388671876,-0.55029296875,7.338635253906251
16.00199999999996,5.938977050781251,-0.371746826171875,7.257885742187501
16.01199999999995,6.194534301757813,0.6625946044921875,8.121905517578126
16.021999999999935,6.315060424804688,0.5088714599609375,7.551574707031251
16.03200000000004,7.519573974609376,0.7648773193359375,7.363458251953125
16.04200000000003,6.498391723632813,0.727642822265625,6.7757812500000005
16.05200000000002,6.114981079101563,0.90499267578125,6.928009033203126
16.062000000000005,6.565084838867188,0.4266265869140625,7.581332397460938
16.072000000000003,6.016287231445313,0.6495849609375001,7.516433715820313
16.082,7.203155517578126,-0.1939483642578125,7.865600585937501
16.091999999999985,6.387734985351563,-0.4786651611328125,7.37572021484375
16.101999999999975,5.9866790771484375,-0.675604248046875,7.013543701171876
16.111999999999966,6.561645507812501,-0.7553070068359375,7.424020385742188
16.121999999999957,6.342874145507813,-0.7671203613281251,7.280316162109376
16.133000000000038,7.277474975585938,-0.091815185546875,7.508209228515626
16.14300000000003,6.874923706054688,-0.2211639404296875,7.366598510742188
16.15300000000002,5.997744750976563,0.295184326171875,7.135864257812501
16.16300000000001,5.9279113769531255,0.1846771240234375,6.7386962890625
16.17300000000001,5.294625854492188,0.258099365234375,6.1686645507812505
16.183,7.987322998046875,0.7873077392578126,8.650216674804689
16.192999999999984,5.881854248046875,0.6759033203125,8.1479248046875
16.202999999999975,4.865457153320313,0.16688232421875,7.198818969726563
16.212999999999965,7.853936767578125,1.1641387939453125,8.350695800781251
16.222999999999956,7.4803955078125,0.4007568359375,6.804791259765626
16.232999999999947,7.072161865234375,0.3443817138671875,6.905279541015625
16.242999999999938,5.750711059570313,0.2103973388671875,7.566528320312501
16.25400000000002,5.140005493164063,-0.8459259033203126,7.705596923828126
16.26400000000001,7.549331665039063,-1.747479248046875,8.255441284179689
16.274,6.922775268554688,-0.8243927001953125,7.179379272460938
16.283999999999992,7.394412231445313,-0.566741943359375,6.835745239257813
16.293999999999983,6.3107238769531255,-0.108563232421875,7.0419555664062505
16.303999999999974,5.3043457031250005,0.8797210693359375,7.310671997070313
16.313999999999965,6.799407958984376,0.590069580078125,7.981939697265625
16.323999999999955,6.836642456054688,0.576611328125,7.477703857421876
16.333999999999946,7.11851806640625,1.418798828125,6.893167114257813
16.343999999999937,6.744079589843751,0.6159393310546876,7.057208251953125
16.354000000000035,5.609997558593751,0.593359375,6.617272949218751
16.36400000000004,7.015487670898438,0.2899505615234375,7.394711303710938
16.37400000000003,6.539962768554688,-0.8169158935546875,7.2746337890625
16.384000000000015,6.878512573242188,-0.7176239013671876,7.456768798828126
16.394000000000005,6.246423339843751,-0.7364654541015625,7.822833251953125
16.403999999999996,5.477059936523438,-1.0863800048828125,7.467684936523438
16.414999999999964,6.0834289550781255,-0.43963623046875,7.839730834960938
16.42499999999996,6.197225952148438,-0.1293487548828125,7.247866821289063
16.434999999999945,7.111639404296875,0.011663818359375,7.3727294921875
16.444999999999936,7.425515747070313,0.7630828857421875,7.38887939453125
16.45500000000004,5.9219299316406255,0.9787139892578126,6.807931518554688
16.46500000000004,6.715518188476563,0.85474853515625,7.449740600585938
16.47500000000003,6.128289794921876,1.011163330078125,7.238446044921876
16.485000000000014,6.3439208984375,0.578704833984375,7.48458251953125
16.495000000000005,6.829763793945313,0.0904693603515625,7.74058837890625
16.504999999999995,5.897854614257813,0.0462066650390625,7.543499755859376
16.514999999999986,6.4796997070312505,-0.5194885253906251,7.341326904296875
16.524999999999977,6.582730102539063,-0.795233154296875,7.259530639648438
16.534999999999968,6.701312255859375,-0.6521270751953125,6.9157470703125
16.545999999999935,7.366000366210938,-0.7831207275390626,7.581033325195313
16.55600000000004,6.129037475585938,-0.412420654296875,7.049432373046876
16.56600000000003,6.022268676757813,0.2950347900390625,6.874176025390626
16.576000000000022,5.085873413085938,0.615789794921875,5.463153076171875
16.586000000000013,7.512695312500001,1.2972259521484375,8.965737915039064
16.596000000000004,7.170257568359376,1.1849243164062502,8.724685668945312
16.606,4.213629150390625,0.9763214111328126,7.916442871093751
16.615999999999985,7.510003662109375,0.3309234619140625,8.175738525390626
16.625999999999976,7.281063842773438,-0.451898193359375,5.935537719726563
16.635999999999967,6.844119262695313,-1.3414886474609375,5.8909759521484375
16.645999999999958,7.294522094726563,-0.48330078125,8.228375244140626
16.65599999999995,4.964151000976563,-0.6883148193359375,8.5474853515625
16.66599999999994,6.572711181640625,-0.7445404052734376,8.759976196289063
16.676000000000045,6.659442138671875,-0.1861724853515625,7.162780761718751
16.687000000000005,6.673648071289063,0.051739501953125,5.794973754882813
16.696000000000026,7.805038452148438,-0.386700439453125,6.6788818359375
16.707,5.836843872070313,0.881964111328125,7.60421142578125
16.716999999999985,6.5748046875,0.72794189453125,8.19278564453125
