time,ax,ay,az
0.0,6.569570922851563,1.3335632324218751,8.860614013671876
0.0099999999999838,4.494607543945313,1.7471801757812502,7.966836547851563
0.0200000000000883,5.9507904052734375,1.4546875,7.147677612304688
0.0300000000000792,6.6190673828125,0.7736999511718751,6.110494995117188
0.0400000000000702,8.220748901367188,0.2250518798828125,6.959710693359376
0.0500000000000611,8.079736328125001,-0.35350341796875,7.883395385742188
0.060000000000052,5.910116577148438,-0.9814056396484376,7.468731689453126
0.07000000000005,6.0150909423828125,-1.468743896484375,6.819744873046876
0.0800000000000338,6.00357666015625,-1.1632415771484377,6.901989746093751
0.0900000000000247,7.0898071289062505,-1.2229064941406251,6.5798889160156255
0.1000000000000156,6.62205810546875,-0.723455810546875,8.611785888671875
0.1100000000000065,5.338589477539063,0.174658203125,8.19996337890625
0.1199999999999974,5.248568725585938,0.3982147216796875,8.730068969726563
0.1299999999999883,5.516986083984375,0.9304138183593752,7.219305419921875
0.1410000000000693,6.906475830078126,1.6644866943359375,6.51439208984375
0.1500000000000838,7.751055908203125,1.4750244140625002,6.931149291992188
0.1610000000000511,7.193435668945313,1.4964080810546876,6.9958984375
0.1710000000000491,6.226385498046875,1.0454071044921875,7.646231079101563
0.1810000000000329,6.1740478515625,0.0536834716796875,7.554714965820313
0.1910000000000238,5.209390258789063,-0.1284515380859375,7.076498413085938
0.2010000000000147,4.76541748046875,-0.4128692626953125,5.087069702148438
0.2110000000000056,7.491012573242188,-1.0292572021484376,9.747213745117188
0.2209999999999965,6.679330444335938,-1.4976043701171875,9.049777221679689
0.2309999999999874,5.265017700195313,-1.6266540527343751,8.1766357421875
0.241000000000092,7.6819702148437505,-1.9405303955078128,8.0641845703125
0.25100000000009,7.759280395507813,-1.051239013671875,5.243035888671876
0.26400000000001,7.451983642578125,-0.2702117919921875,5.869741821289063
0.2720000000000482,6.976907348632813,1.4944641113281252,7.351495361328125
0.282000000000032,5.145687866210938,2.18023681640625,9.104357910156253
0.2920000000000229,5.727532958984376,1.9620635986328123,8.508157348632814
0.3020000000000138,6.035128784179688,1.7397033691406252,7.588360595703126
0.3120000000000047,6.974215698242188,1.5179412841796875,5.797216796875
0.3219999999999956,7.224987792968751,0.3265869140625,6.698321533203125
0.3319999999999865,6.106008911132813,-0.02811279296875,6.701910400390625
0.3420000000000911,7.121658325195313,-1.3026092529296875,8.599673461914064
0.3520000000000891,5.337841796875001,-1.9607177734375,7.727429199218751
0.3630000000000493,6.135617065429688,-1.9939147949218752,7.378262329101563
0.3720000000000638,6.279919433593751,-1.41461181640625,8.186206054687501
0.3820000000000547,5.765664672851563,-1.0717254638671876,6.832455444335938
0.3920000000000456,6.603366088867188,-0.14893798828125,8.078240966796876
0.4020000000000365,7.142892456054688,0.4024017333984375,7.204650878906251
0.4120000000000274,6.738397216796876,1.0338928222656252,6.854437255859375
0.4229999999999947,7.185360717773438,1.4352478027343751,7.013244628906251
0.4329999999999856,5.573361206054688,1.8095367431640623,6.741836547851563
0.4430000000000831,5.2161193847656255,1.2297851562500002,6.861764526367188
0.4530000000000882,5.232269287109375,0.8812164306640625,7.604360961914063
0.4630000000000791,6.440371704101563,0.5778076171875001,8.984280395507813
0.4730000000000629,7.139154052734376,-0.4732818603515625,8.266506958007813
0.4830000000000538,6.797164916992188,-0.202471923828125,8.115325927734375
0.4930000000000447,7.306484985351563,-0.3485687255859375,6.552075195312501
0.5030000000000356,6.332257080078126,-1.149783325195313,7.043002319335938
0.5149999999999793,6.333602905273438,-1.4563323974609377,6.327322387695313
0.5230000000000175,7.049880981445313,-1.7488250732421875,8.736499023437501
0.5330000000000084,6.736752319335938,-1.5659423828125,7.989117431640626
0.5429999999999993,6.215170288085938,-0.1664337158203125,7.7555419921875
0.5529999999999902,6.25419921875,0.5462554931640625,7.014739990234376
0.5640000000000782,6.377267456054688,0.7980743408203126,6.455325317382813
0.574000000000062,6.754696655273438,1.2688140869140625,6.872381591796875
0.5840000000000529,7.21422119140625,1.571026611328125,7.447348022460938
0.5940000000000438,6.124401855468751,1.41939697265625,7.519125366210938
0.6040000000000347,6.1955810546875005,1.2528137207031251,7.446002197265625
0.6140000000000256,5.768655395507813,0.449505615234375,7.8632080078125
0.6240000000000165,5.4586669921875,-0.40614013671875,7.250259399414063
0.6340000000000074,6.036474609375,-0.7189697265625,8.254992675781251
0.6439999999999984,6.85234375,-1.23397216796875,7.608547973632813
0.6539999999999893,7.057058715820313,-1.4051910400390626,7.306185913085938
0.6639999999999731,7.062142944335938,-1.10357666015625,6.964047241210938
0.6740000000000848,6.737948608398438,-0.834112548828125,6.5544677734375005
0.6840000000000757,6.577047729492188,-0.4390380859375,7.39725341796875
0.6940000000000666,6.1919921875,0.2023223876953125,7.573556518554688
0.7050000000000338,5.642446899414063,0.9452178955078124,8.127587890625001
0.7150000000000247,6.353341674804688,1.096099853515625,7.971322631835938
0.7250000000000156,5.189053344726563,1.6386169433593751,7.449740600585938
0.7350000000000065,4.0437561035156255,1.508670043945313,5.338888549804688
0.7449999999999974,4.526458740234375,1.3175628662109375,5.464498901367188
0.7549999999999883,10.802789306640626,0.7116424560546876,8.980392456054688
0.7649999999999793,13.290322875976564,0.1114044189453125,11.655145263671876
0.7750000000000838,6.496597290039063,-1.3169647216796876,7.438973999023438
0.7850000000000747,0.1772003173828125,-1.3539001464843752,4.424624633789063
0.7950000000000657,1.4659027099609376,-1.35360107421875,5.775982666015626
0.8050000000000566,7.260128784179688,-1.25849609375,8.730966186523439
0.8150000000000475,11.021560668945312,-0.708203125,10.861856079101564
0.8250000000000384,9.811813354492188,-0.1519287109375,9.076394653320314
0.8350000000000293,5.0280029296875,-0.9374420166015626,5.658895874023438
0.8459999999999965,3.792984008789063,-0.163592529296875,3.9818481445312495
0.8559999999999874,5.564089965820313,0.8055511474609376,5.686709594726563
0.866000000000092,8.513540649414063,1.31173095703125,8.391220092773438
0.87600000000009,8.9422607421875,1.6834777832031251,10.54229736328125
0.8860000000000738,5.34202880859375,1.3414886474609375,8.658291625976563
0.8960000000000647,3.8290222167968753,-0.0174957275390625,6.240142822265626
0.9060000000000556,4.6104980468750005,0.7182220458984375,5.740542602539063
0.9160000000000466,7.431646728515625,0.38819580078125,5.513397216796875
0.9260000000000376,9.259426879882811,-0.2077056884765625,8.585018920898438
0.9360000000000284,7.959808349609376,-0.7215118408203125,8.592944335937501
0.9460000000000192,4.591357421875,-1.057070922851563,8.12998046875
0.9560000000000032,4.586871337890625,-1.559063720703125,7.039712524414063
0.9660000000000082,4.986431884765626,-0.2045654296875,6.896157836914063
0.9759999999999992,7.328018188476563,-0.2525665283203125,7.077096557617188
0.98700000000008,8.213122558593751,-0.1030303955078125,8.637655639648438
0.9970000000000638,6.5568603515625,0.5176940917968751,7.668362426757813
1.0070000000000547,6.212179565429688,0.495263671875,7.273886108398438
1.0170000000000456,5.810675048828125,0.683380126953125,6.345416259765625
1.0270000000000366,6.482540893554688,1.2408508300781251,6.173300170898438
1.0370000000000277,7.074105834960938,0.6290985107421876,8.339779663085938
1.0470000000000184,5.980847167968751,0.5269653320312501,8.210131835937501
1.0570000000000093,5.5424072265625,0.1280029296875,8.7341064453125
1.0670000000000073,5.719607543945313,-0.7225585937500001,7.057058715820313
1.0769999999999982,4.637564086914063,-1.0180419921875,4.849307250976563
1.086999999999982,5.746524047851563,-0.7777374267578125,4.934393310546875
1.0970000000000866,10.12000732421875,-0.1075164794921875,9.262567138671876
1.1070000000000777,10.343713378906251,0.2292388916015625,10.066622924804689
1.1170000000000684,7.827618408203126,-0.54251708984375,9.548480224609376
1.1280000000000356,2.3125762939453125,-0.7886535644531251,6.491064453125
1.1380000000000263,0.2524169921875,-0.584686279296875,4.287799072265625
1.1480000000000177,5.9074249267578125,0.3040069580078125,8.252151489257812
1.1580000000000084,10.503268432617189,0.9465637207031252,9.09478759765625
1.1679999999999993,11.119357299804689,1.0944549560546877,9.78385009765625
1.1800000000000566,7.019226074218751,0.895123291015625,6.057559204101563
1.187999999999974,3.1445953369140627,0.8215515136718751,4.671359252929688
1.1980000000000857,4.512402343750001,0.5060302734375001,5.647531127929688
1.2080000000000766,6.956271362304688,0.2516693115234375,8.347406005859376
1.2180000000000677,8.96259765625,-0.2032196044921875,10.181915283203123
1.2280000000000584,7.404431152343751,-0.74468994140625,9.367990112304687
1.2380000000000493,3.5725677490234378,-0.7554565429687501,6.436932373046876
1.2480000000000402,5.180828857421876,-0.8164672851562501,5.429806518554688
1.258000000000031,6.568972778320313,-0.7008758544921876,6.0472412109375
1.2689999999999984,8.920129394531251,-0.31043701171875,6.589608764648438
1.2800000000000793,8.832501220703126,-0.0910675048828125,9.404327392578123
1.288999999999973,5.534033203125,0.2403045654296875,7.574752807617188
1.2990000000000848,4.501934814453126,0.11185302734375,7.715765380859375
1.3090000000000757,4.37841796875,0.33077392578125,6.739443969726563
1.3190000000000666,5.809927368164063,1.0325469970703125,6.9875244140625
1.3290000000000577,8.115176391601564,0.97557373046875,8.623300170898439
1.3390000000000484,7.160986328125,0.8306732177734376,8.214019775390625
1.3490000000000393,6.1345703125,0.372344970703125,7.505368041992188
1.359000000000023,6.283807373046876,-0.3865509033203125,6.460110473632813
1.369000000000021,6.043203735351563,-0.1903594970703125,6.001483154296875
1.3799999999999883,7.5043212890625,-0.3772796630859375,7.099526977539063
1.38900000000001,6.6047119140625,-0.7011749267578126,8.637057495117189
1.4000000000000838,5.747720336914063,-0.65137939453125,8.381350708007814
1.4100000000000747,5.417095947265626,-0.7245025634765625,8.132223510742188
1.4200000000000657,3.5942504882812503,-0.26378173828125,4.592852783203125
1.4300000000000566,4.185067749023438,0.488983154296875,3.74498291015625
1.4400000000000477,12.011639404296876,0.7298858642578125,10.475155639648438
1.4500000000000384,14.361749267578126,1.023126220703125,13.837625122070314
1.4600000000000293,5.122210693359375,0.125909423828125,8.070016479492189
1.4700000000000202,-2.052084350585938,-0.4945159912109375,1.948306274414063
1.480000000000011,1.96131591796875,1.233673095703125,3.8708923339843753
1.490000000000009,9.16761169433594,0.9832000732421876,7.750009155273438
1.5,12.100164794921875,0.2208648681640625,12.828704833984377
1.5099999999999838,8.401837158203126,0.2782867431640625,11.336633300781251
1.5200000000000884,2.51878662109375,-1.9819519042968752,6.541159057617188
1.5300000000000793,2.7601379394531254,-2.071524047851563,2.8902343750000004
1.5400000000000702,7.135565185546875,0.1266571044921875,4.18402099609375
1.5510000000000377,10.8969970703125,-0.5920135498046876,7.438824462890626
1.5610000000000284,10.348348999023438,-0.5199371337890626,11.502917480468753
1.5710000000000193,4.1309356689453125,0.5902191162109376,10.231710815429688
1.581000000000003,1.941876220703125,-0.8613281250000001,6.618768310546876
1.5910000000000082,3.997698974609375,0.6616973876953125,4.944711303710938
1.600999999999999,8.216113281250001,2.1930969238281253,4.837493896484375
1.610999999999983,10.502969360351564,0.8058502197265626,8.128036499023438
1.6210000000000877,8.127737426757813,0.8499633789062501,9.045590209960938
1.6310000000000784,4.7313232421875,0.9582275390625,8.454025268554688
1.6410000000000693,4.0382232666015625,-0.9425262451171876,6.337640380859376
1.651000000000053,5.412609863281251,0.1973876953125,6.161785888671876
1.661000000000051,7.017282104492188,0.1242645263671875,7.181024169921876
1.6710000000000491,7.234707641601563,-1.5439605712890627,8.816650390625
1.681000000000033,5.952584838867188,-0.6942962646484375,9.760671997070313
1.6920000000000073,5.471676635742188,-0.6226684570312501,7.543649291992188
1.7019999999999982,6.652713012695313,-1.158905029296875,5.976809692382813
1.711999999999982,8.353387451171876,0.6126495361328126,4.9777587890625
1.7220000000000866,7.379608154296876,0.6530242919921876,6.614132690429688
1.7330000000000538,6.344818115234376,0.1428070068359375,8.534475708007813
1.7420000000000684,4.514047241210938,1.2768890380859377,9.767999267578126
1.7520000000000593,4.924673461914063,0.3970184326171875,7.787841796875001
1.7620000000000573,5.899649047851563,-0.209649658203125,6.411660766601563
1.7720000000000482,4.6882568359375005,0.9824523925781252,3.9897735595703128
1.782000000000032,8.413800048828126,0.515301513671875,7.541107177734376
1.792000000000023,10.263861083984375,0.42886962890625,9.666464233398438
1.8020000000000136,8.842819213867188,0.4894317626953125,9.4686279296875
1.8120000000000047,5.988473510742188,-1.1162872314453125,8.454623413085939
1.821999999999996,0.30924072265625,-1.5942047119140623,4.259536743164063
1.8330000000000768,3.0626495361328128,-1.0373321533203126,6.5592529296875
1.843000000000068,8.841174316406251,-1.2070556640625,9.318942260742189
1.8530000000000584,10.1098388671875,-0.0931610107421875,10.26356201171875
1.8630000000000493,8.721246337890626,0.7947845458984376,8.318246459960939
1.87300000000004,4.375128173828125,0.3548492431640625,5.2315216064453125
1.883000000000031,4.0018859863281255,1.0053314208984376,3.849957275390625
1.893000000000022,7.392169189453125,1.2549072265625,7.118667602539063
1.903000000000013,8.134616088867189,1.1701202392578125,9.190640258789063
1.913000000000004,8.127737426757813,0.9953125,10.143783569335938
1.9229999999999947,4.141403198242188,0.2298370361328125,8.126840209960939
1.9329999999999856,4.240994262695313,-0.74708251953125,5.576800537109375
1.943000000000083,5.863909912109375,-0.5561248779296876,6.093148803710938
1.953000000000088,8.175888061523438,-0.6542205810546875,5.898452758789063
1.9630000000000791,9.6408935546875,-0.9108245849609377,8.505465698242189
1.9740000000000395,6.877166748046876,-0.9535919189453126,8.276675415039064
1.984000000000023,4.446755981445313,-0.940283203125,7.361663818359376
1.994000000000021,4.721902465820313,-0.8336639404296876,7.312765502929688
2.004000000000012,5.30853271484375,0.267071533203125,6.806735229492188
2.01400000000001,7.05870361328125,1.0371826171875,8.029791259765625
2.023999999999994,7.472918701171875,1.1002868652343751,8.59234619140625
2.0339999999999847,6.154458618164063,1.385601806640625,7.987622070312501
2.0440000000000893,6.319845581054688,0.7618865966796875,6.580337524414063
2.054000000000088,6.369491577148438,0.6084625244140626,6.108551025390625
2.064000000000078,7.400692749023438,0.5890228271484376,6.132327270507813
2.074000000000062,6.930999755859376,-0.084637451171875,8.23944091796875
2.084000000000053,5.723794555664063,-0.653472900390625,8.658740234375001
2.094000000000044,5.319149780273438,-0.8092895507812501,8.432192993164064
2.105000000000011,5.519378662109375,-1.371246337890625,7.3129150390625
2.115000000000009,6.168365478515626,-0.7439422607421875,5.694186401367188
2.125,3.767413330078125,-0.145648193359375,4.151571655273438
2.134999999999984,9.078338623046877,0.060113525390625,8.603262329101563
2.1450000000000884,13.191778564453124,0.478515625,13.425802612304688
2.15500000000008,5.2255401611328125,0.1502838134765625,6.838885498046875
2.16500000000007,2.595199584960937,-0.3922332763671875,5.186062622070313
2.175000000000061,3.071920776367188,1.4180511474609376,4.222750854492188
2.185000000000052,6.490765380859376,1.6634399414062502,7.398898315429688
2.19500000000005,10.284048461914065,0.9184509277343752,11.545684814453123
2.205000000000034,7.0045715332031255,0.449505615234375,10.510745239257814
2.2150000000000247,5.230325317382813,-1.4718841552734376,7.0138427734375
2.225000000000016,4.604666137695313,-1.888043212890625,4.107608032226563
2.2350000000000065,6.360369873046875,0.4631134033203125,4.340585327148438
2.244999999999997,10.073052978515626,-0.7750457763671875,7.808029174804688
2.2560000000000784,7.693035888671876,-0.9114227294921876,9.827664184570311
2.2660000000000693,5.995800781250001,-0.22550048828125,9.652706909179688
2.276000000000053,3.245382690429688,-0.99830322265625,7.2408386230468755
2.286000000000051,4.765267944335938,0.452496337890625,5.134323120117188
2.296000000000049,8.089755249023439,1.9206420898437504,6.161038208007813
2.306000000000033,8.223141479492188,0.5848358154296875,6.792230224609376
2.316000000000024,8.469577026367189,0.9359466552734376,8.872277832031251
2.3260000000000147,5.3477111816406255,1.101931762695313,8.412603759765625
2.3360000000000056,4.226937866210938,-0.33017578125,6.520223999023438
2.3459999999999965,5.804095458984375,0.45638427734375,7.73819580078125
2.3559999999999874,5.67100830078125,0.210845947265625,6.479849243164063
2.366000000000092,7.285250854492188,-1.0977447509765623,8.957363891601563
2.37600000000009,6.7458740234375005,-0.6431549072265625,8.563934326171875
2.3870000000000573,5.561398315429688,-0.6424072265625,7.210034179687501
2.397000000000048,7.933340454101563,-1.45169677734375,6.533383178710938
2.407000000000032,6.776828002929688,0.2878570556640625,5.6422973632812505
2.417000000000023,6.8669982910156255,0.3228485107421875,6.557308959960938
2.427000000000014,6.756491088867188,-0.15611572265625,8.949887084960938
2.4370000000000047,4.159197998046875,0.908880615234375,8.26456298828125
2.446999999999996,5.540911865234375,-0.129498291015625,7.63292236328125
2.4569999999999865,3.676345825195313,-0.1769012451171875,5.514294433593751
2.467000000000091,7.566229248046875,1.594354248046875,6.365304565429688
2.477000000000089,12.178372192382811,1.0217803955078126,10.790228271484375
2.48700000000008,8.474063110351564,0.6492858886718751,8.509951782226564
2.497000000000064,4.177740478515625,-0.1997802734375,6.628936767578126
2.5070000000000547,1.5363342285156252,-1.6139434814453126,4.874279785156251
2.5170000000000456,4.949945068359376,-0.964208984375,6.617422485351563
2.527000000000037,9.521713256835938,-0.332568359375,10.36285400390625
2.538000000000004,8.609243774414063,-0.3234466552734375,9.903778076171877
2.5479999999999947,6.007763671875001,0.5745178222656251,8.168261718750001
2.5579999999999856,4.482794189453125,-0.01614990234375,5.003329467773438
2.568000000000083,5.50352783203125,0.33316650390625,4.3126220703125
2.578000000000088,9.295764160156253,1.02103271484375,6.8505493164062505
2.588000000000079,8.32437744140625,1.1282501220703125,9.313409423828126
2.598000000000063,6.299957275390626,0.8179626464843751,9.518722534179688
2.608000000000054,3.525015258789063,0.3766815185546875,8.178878784179688
2.6180000000000447,3.9519409179687504,-0.5872283935546876,5.63153076171875
2.628000000000036,7.711578369140626,-0.5007965087890626,6.185263061523438
2.6380000000000265,8.422323608398438,-0.292193603515625,6.888381958007813
2.648000000000017,8.443258666992188,-0.7080535888671875,7.816552734375
2.6580000000000084,6.106756591796875,-0.8717956542968751,8.537765502929688
2.668,4.796520996093751,-0.9168060302734377,6.796267700195313
2.680000000000057,5.39227294921875,-0.729437255859375,7.201361083984375
2.689000000000078,6.105709838867188,0.2392578125,7.179379272460938
2.699000000000062,6.610992431640626,0.8880950927734376,8.315704345703125
2.709000000000053,6.63402099609375,0.6735107421875001,8.712573242187501
2.719000000000044,6.009259033203126,0.8574401855468751,7.709036254882813
2.7290000000000347,6.482241821289063,0.9772186279296876,6.303396606445313
2.7390000000000256,7.598828125000001,0.338848876953125,5.950491333007813
2.7490000000000165,6.914401245117188,0.8110839843750001,6.792379760742188
2.7590000000000074,6.580487060546876,-0.091815185546875,7.888330078125
2.7689999999999984,5.25469970703125,-0.5187408447265626,9.187350463867189
2.78000000000008,5.665475463867188,-0.6779968261718751,7.747018432617188
2.788999999999973,5.3930206298828125,-0.7722045898437501,6.737200927734375
2.800000000000061,4.316659545898438,-0.504833984375,4.147683715820313
2.810000000000052,6.392221069335938,0.4876373291015625,6.311471557617188
2.82000000000005,13.800839233398438,0.011065673828125,13.426849365234377
2.830000000000034,8.858819580078126,0.26497802734375,9.687548828125
2.8400000000000247,1.2218597412109375,-0.5644989013671875,4.159347534179688
2.850000000000016,2.692547607421876,-0.11663818359375,4.1092529296875
2.8600000000000065,5.612689208984375,1.1043243408203125,6.43424072265625
2.869999999999997,9.9208251953125,0.6993804931640626,10.481884765625
2.8799999999999883,8.837435913085939,0.9090301513671876,12.491799926757814
2.88999999999998,4.565188598632813,-0.285015869140625,7.478900146484375
2.900000000000084,4.4059326171875,-1.825686645507813,4.9574218750000005
2.9100000000000747,5.946453857421876,-0.0817962646484375,3.402694702148438
2.9200000000000657,8.923269653320313,0.1413116455078125,5.989968872070313
2.930000000000057,9.799252319335938,-0.9843963623046876,10.182214355468751
2.9400000000000475,6.124850463867188,-0.184527587890625,9.942059326171876
2.9500000000000384,3.44112548828125,-0.6944458007812501,8.337686157226564
2.9610000000000056,4.274041748046876,-0.700726318359375,5.5021820068359375
2.9709999999999965,6.097634887695313,1.7403015136718751,5.185614013671875
2.9809999999999874,9.5188720703125,0.75067138671875,6.7219482421875005
2.991000000000092,8.154653930664063,0.3098388671875,8.673992919921876
3.00100000000009,6.23087158203125,1.203466796875,8.52894287109375
3.011000000000074,4.633526611328126,0.03768310546875,7.80758056640625
3.0210000000000647,4.632928466796876,0.232977294921875,6.216067504882813
3.031000000000056,6.470578002929688,0.9076843261718752,7.018627929687501
3.0410000000000466,6.917092895507813,-0.6627441406250001,8.187103271484375
3.051000000000037,6.776977539062501,-0.61429443359375,8.518624877929689
3.0610000000000284,6.008212280273438,-0.1398162841796875,8.692684936523438
3.07100000000002,6.594094848632813,-1.33326416015625,5.991912841796875
3.0819999999999865,7.256988525390626,-0.346624755859375,6.0475402832031255
3.091000000000008,7.326821899414063,0.1855743408203125,5.998342895507813
3.102000000000089,6.219058227539063,-0.2092010498046875,8.125045776367188
3.11200000000008,5.64110107421875,0.387298583984375,9.200061035156253
3.122000000000064,5.268008422851563,0.5730224609375001,8.526699829101563
3.1320000000000547,6.128887939453126,-0.1626953125,7.0234130859375
3.1420000000000456,5.959014892578125,0.7330261230468751,5.48199462890625
3.152000000000037,4.1144866943359375,0.9305633544921876,4.723696899414063
3.1620000000000275,8.786294555664064,0.299969482421875,8.219104003906251
3.1720000000000184,10.352685546875,1.236663818359375,10.0165283203125
3.1820000000000093,9.744372558593753,0.5779571533203125,10.202700805664064
3.192000000000008,3.2105407714843754,-0.8185607910156251,6.622357177734376
3.201999999999998,-0.4547393798828125,-1.1680267333984375,4.358978271484375
3.211999999999982,4.994955444335938,-1.7510681152343752,7.37332763671875
3.223000000000063,10.1624755859375,-1.7769378662109376,9.931292724609376
3.232000000000077,10.80787353515625,0.119927978515625,9.345260620117188
3.2430000000000447,7.340878295898438,0.5615081787109375,7.7411865234375
3.253000000000036,3.312374877929688,0.0124114990234375,4.306640625
3.2630000000000265,4.177291870117188,0.8919830322265626,5.038320922851563
3.273000000000017,7.774234008789063,1.0319488525390623,7.51329345703125
3.2830000000000084,8.908016967773438,1.5788024902343751,10.10669860839844
3.293,7.398599243164063,1.5050811767578125,9.360662841796875
3.30299999999999,3.6555603027343753,0.2023223876953125,7.471871948242188
3.312999999999974,4.3642120361328125,-0.599041748046875,5.2135772705078125
3.3230000000000857,6.507214355468751,-0.305950927734375,5.9817443847656255
3.333000000000077,9.063534545898438,-0.8695526123046876,6.299957275390626
3.3430000000000675,9.391915893554687,-1.0472015380859376,8.722891235351563
3.3530000000000584,5.823236083984376,-0.9808074951171876,8.335742187500001
3.3630000000000493,4.2759857177734375,-1.4060882568359376,7.72862548828125
3.37300000000004,3.9263702392578126,-0.6963897705078126,7.0763488769531255
3.3840000000000074,6.1312805175781255,0.3772796630859375,6.8236328125000005
3.3939999999999984,7.719055175781251,0.7786346435546876,8.368191528320313
3.4039999999999893,7.373178100585938,1.1608489990234376,8.132672119140626
3.413999999999973,6.306985473632813,1.5273620605468752,7.8987976074218755
3.4240000000000848,5.8980041503906255,0.9371429443359376,6.130233764648438
3.434000000000076,6.728826904296875,0.784466552734375,6.060848999023438
3.4440000000000666,7.23037109375,0.708203125,6.869241333007813
3.454000000000057,6.645535278320313,-0.331671142578125,8.2795166015625
3.4640000000000484,5.305242919921875,-0.3686065673828125,9.047833251953126
3.47400000000004,5.21881103515625,-0.9377410888671877,7.71187744140625
3.484000000000023,4.829418945312501,-1.1146423339843752,6.385940551757813
3.494000000000021,4.7555480957031255,-0.465057373046875,3.68935546875
3.5049999999999883,9.23819274902344,-0.042767333984375,8.297161865234376
3.51400000000001,14.132659912109377,-0.2465850830078125,13.137646484375
3.525000000000084,4.876971435546875,0.203369140625,7.728775024414063
3.5350000000000747,0.8208038330078126,-0.7005767822265625,4.129440307617188
3.5450000000000657,3.713580322265625,0.8317199707031251,4.948001098632813
3.555000000000057,6.918887329101563,1.40504150390625,6.801351928710938
3.5650000000000475,10.989260864257814,0.8252899169921876,11.775970458984377
3.5750000000000384,6.817800903320313,0.9353485107421876,11.158685302734376
3.5850000000000293,3.879714965820313,-0.9891815185546876,6.7548461914062505
3.59500000000002,4.865457153320313,-1.47322998046875,4.814016723632813
3.605000000000011,6.844717407226563,0.435748291015625,3.191549682617188
3.615000000000009,10.2438232421875,-0.2588470458984375,7.631277465820313
3.625,8.737844848632813,-0.98035888671875,9.990359497070314
3.634999999999984,4.519430541992188,-0.3704010009765625,9.692633056640624
3.645000000000088,3.551931762695313,-1.3721435546875,7.855133056640626
3.6550000000000793,4.460214233398438,-0.046356201171875,5.11832275390625
3.666000000000047,7.919583129882813,1.7093475341796875,5.567230224609375
3.6760000000000375,9.630575561523438,0.1730133056640625,7.213174438476563
3.686000000000029,7.119265747070313,0.80869140625,8.46075439453125
3.696999999999996,5.914303588867188,1.0020416259765623,8.442660522460939
3.706000000000003,4.100579833984376,-0.035888671875,7.272839355468751
3.716000000000008,5.732019042968751,0.71717529296875,6.224142456054688
3.725999999999999,6.605459594726563,0.6974365234375001,7.835244750976563
3.735999999999983,6.384744262695313,-0.7720550537109375,7.904330444335938
3.746000000000088,6.518130493164063,-0.1305450439453125,9.297409057617188
3.7560000000000784,5.815011596679688,-0.5166473388671875,7.523013305664063
3.766000000000069,7.281063842773438,-1.303955078125,5.83310546875
3.776000000000053,7.797711181640626,-0.0729736328125,6.1285888671875
3.786000000000051,6.924569702148438,-0.0779083251953125,6.20933837890625
3.7970000000000175,5.882003784179688,-0.342138671875,8.830706787109376
3.807000000000009,5.2973175048828125,0.3760833740234375,8.890222167968751
3.8170000000000073,5.260083007812501,0.1757049560546875,8.065530395507814
3.826999999999998,6.686209106445313,-0.18243408203125,6.722247314453125
3.836999999999982,4.37841796875,0.9338531494140626,4.724743652343751
3.847000000000087,6.240292358398438,0.7657745361328125,6.098532104492188
3.8570000000000775,10.69886169433594,0.703717041015625,10.040603637695312
3.867000000000069,9.51348876953125,1.3301239013671875,9.596630859375
3.8770000000000593,6.956271362304688,-0.2238555908203125,8.226281738281251
3.887000000000057,0.51141357421875,-0.816168212890625,4.944711303710938
3.897000000000048,2.3655120849609377,-0.9299652099609376,5.503826904296876
3.907000000000032,8.047286987304688,-1.5587646484375002,9.64149169921875
3.917000000000023,10.328311157226564,-0.72674560546875,10.032379150390623
3.927000000000014,8.649468994140626,0.4613189697265625,8.810968017578126
3.9370000000000047,4.866055297851563,-0.189910888671875,5.526257324218751
3.9480000000000857,4.005026245117188,0.323895263671875,4.064242553710938
3.958000000000077,6.904980468750001,0.8752349853515625,6.353640747070313
3.968000000000068,8.683862304687501,0.8910858154296876,8.757882690429689
3.9780000000000575,7.934835815429688,1.6266540527343751,10.320684814453124
3.988000000000049,4.833905029296876,0.6972869873046875,8.273385620117189
3.99800000000004,3.3569366455078127,-0.252117919921875,6.457269287109376
4.008000000000031,6.030941772460938,-0.276043701171875,5.381356811523438
4.018000000000022,7.831356811523438,-0.2896514892578125,6.453231811523438
4.028000000000013,9.728372192382814,-0.8504119873046876,7.378860473632813
4.038000000000004,7.3589721679687505,-0.705810546875,8.681619262695314
4.047999999999995,4.928411865234375,-1.2122894287109376,7.416693115234375
4.057999999999986,4.470233154296875,-1.1201751708984375,7.270446777343751
4.068000000000083,4.953533935546876,-0.0919647216796875,7.042553710937501
4.078000000000088,7.261175537109375,0.4397857666015625,7.84227294921875
4.089000000000048,6.760079956054688,0.7699615478515626,8.720498657226564
4.099000000000039,6.6884521484375,1.137371826171875,7.95592041015625
4.109000000000023,6.06339111328125,0.9177032470703126,7.035226440429688
4.119000000000021,6.657348632812501,0.7861114501953126,5.4737701416015625
4.129000000000012,7.598529052734375,0.9467132568359377,6.701312255859375
4.13900000000001,6.863409423828125,0.249127197265625,7.364205932617188
4.148999999999994,5.8217407226562505,-0.2382110595703125,8.8908203125
4.158999999999985,5.0127502441406255,-0.40135498046875,8.680123901367189
4.169000000000089,5.393170166015626,-1.1841766357421877,7.153359985351563
4.179000000000087,6.212478637695313,-0.75306396484375,6.323284912109376
4.189000000000078,4.144842529296875,-0.17166748046875,3.3777221679687504
4.199000000000062,8.329611206054688,0.1164886474609375,8.304339599609376
4.209000000000053,14.544332885742188,0.057122802734375,14.0970703125
4.22000000000002,4.494158935546875,0.09091796875,7.603912353515626
4.230000000000011,1.958175659179688,-1.1267547607421875,4.0617004394531255
4.240000000000009,3.130239868164063,0.93848876953125,4.863961791992188
4.25,6.746322631835938,1.3405914306640625,6.175991821289063
4.259999999999984,11.264855957031251,0.8004669189453125,12.483276367187502
4.270000000000088,6.384893798828125,1.0552764892578126,10.665814208984376
4.280000000000079,4.866354370117188,-1.1273529052734377,7.32906494140625
4.29000000000007,4.471429443359376,-1.6245605468750002,4.509561157226563
4.300000000000061,6.333752441406251,0.7946350097656251,2.989974975585937
4.310000000000052,10.479940795898438,-0.36785888671875,8.206243896484375
4.32000000000005,8.2866943359375,-0.9697418212890626,9.354232788085938
4.330000000000034,5.341131591796875,-0.1909576416015625,10.189840698242188
4.340000000000025,3.676345825195313,-1.4470611572265626,7.576248168945313
4.350000000000016,3.9806518554687504,0.02213134765625,4.98912353515625
4.360000000000007,8.211178588867188,1.8099853515625,5.634222412109375
4.371000000000088,8.868090820312501,0.0418701171875,7.088760375976563
4.381000000000078,7.69991455078125,0.8556457519531251,8.591748046875
4.391000000000069,6.047689819335938,0.9383392333984376,9.093890380859376
4.401000000000053,3.2480743408203128,-0.08194580078125,6.73570556640625
4.411000000000051,6.409716796875,0.6220703125,6.749313354492188
4.421000000000049,6.024661254882813,0.7690643310546875,7.271194458007813
4.431000000000033,7.082031250000001,-0.9023010253906252,7.573406982421876
4.441000000000024,6.896307373046875,-0.155816650390625,9.706838989257813
4.451000000000015,5.337991333007813,-0.444122314453125,7.057058715820313
4.461000000000006,7.591650390625,-1.3876953125,6.5559631347656255
4.4709999999999965,7.191192626953126,-0.0016448974609375,5.916546630859376
4.480999999999987,6.604263305664063,0.1203765869140625,6.018829345703125
4.491000000000092,6.614132690429688,-0.5012451171875001,9.36036376953125
4.50100000000009,4.761679077148438,0.5552276611328125,8.256488037109376
4.512000000000057,5.683868408203125,0.200677490234375,8.615673828125
4.522000000000048,7.147827148437501,-0.188116455078125,6.752304077148438
4.532000000000032,4.597189331054688,1.191802978515625,5.028451538085938
4.542000000000023,5.610446166992188,0.306549072265625,5.353094482421875
4.552000000000014,8.542401123046876,0.4749267578125,9.251800537109377
4.562000000000005,10.191485595703126,1.3316192626953125,9.419729614257813
4.571999999999996,8.954971313476562,-0.0297576904296875,10.013537597656253
4.5819999999999865,1.8937255859375,-0.3868499755859375,5.123556518554688
4.592000000000091,1.307244873046875,-0.8130279541015626,5.009161376953125
4.602000000000089,6.01195068359375,-1.77828369140625,8.420828247070313
4.61200000000008,9.905422973632811,-0.914862060546875,9.53681640625
4.622000000000064,10.118063354492188,0.276641845703125,10.097427368164062
4.632000000000055,5.948248291015625,-0.016748046875,6.209786987304688
4.642000000000046,3.6600463867187503,0.4903289794921875,4.680630493164063
4.653000000000013,5.693887329101563,0.5163482666015625,5.46763916015625
4.663000000000004,7.78843994140625,0.7535125732421876,7.743728637695313
4.672999999999995,9.162228393554688,1.5258666992187502,10.179074096679688
4.682999999999986,6.196926879882813,0.880169677734375,8.954522705078126
4.693000000000083,3.3651611328125,0.020037841796875,6.865203857421876
4.703000000000088,5.143594360351563,-0.331671142578125,5.739794921875
4.713000000000079,6.382351684570313,-0.3481201171875,5.983538818359375
4.723000000000063,9.86639404296875,-0.8211029052734375,6.783108520507813
4.733000000000054,8.396005249023439,-0.6352294921875,8.997439575195314
4.743000000000045,5.694485473632813,-1.0430145263671875,7.3009521484375
4.753000000000036,4.4793548583984375,-1.15860595703125,7.886236572265625
4.7630000000000265,4.258340454101563,-0.319110107421875,6.637310791015626
4.7730000000000175,6.508709716796876,0.3285308837890625,7.495199584960938
4.783000000000008,7.377215576171875,0.666632080078125,8.742630004882812
4.794000000000089,6.82841796875,1.2840667724609376,8.025155639648439
4.804000000000087,6.182421875,0.9685455322265626,7.7172607421875
4.814000000000078,6.427960205078126,0.7565032958984376,5.783459472656251
4.824000000000062,6.75125732421875,0.9467132568359377,6.093597412109375
4.834000000000053,7.815805053710938,0.1819854736328125,7.071862792968751
4.844000000000044,6.012698364257813,-0.081048583984375,8.5714111328125
4.854000000000035,5.329617309570313,-0.3153717041015625,8.67728271484375
4.864000000000026,5.25469970703125,-1.19329833984375,8.217160034179688
4.8740000000000165,5.8217407226562505,-0.8719451904296875,6.406576538085938
4.884000000000008,5.75235595703125,-0.6060699462890625,4.731173706054688
4.893999999999998,4.230975341796875,-0.0683380126953125,4.077401733398438
4.903999999999989,13.40845642089844,0.3443817138671875,12.80986328125
4.91500000000007,11.106497192382813,0.434552001953125,12.882687377929688
4.924000000000085,1.398162841796875,-0.7925415039062501,4.381259155273438
4.935000000000052,1.4271728515625002,0.0921142578125,4.291836547851563
4.94500000000005,4.399801635742188,1.6257568359375,4.224844360351563
4.955000000000034,10.043743896484376,1.2673187255859375,9.461898803710938
4.965000000000025,10.6362060546875,1.0187896728515626,12.641485595703124
4.975000000000016,5.175146484375,-0.03289794921875,9.585565185546876
4.985000000000007,3.433648681640625,-2.120721435546875,5.578594970703126
4.994999999999997,4.572366333007813,-0.5441619873046876,3.338693237304688
5.004999999999988,8.260824584960938,0.5932098388671876,4.851998901367188
5.014999999999979,11.14881591796875,-1.1674285888671876,9.061740112304689
5.025000000000084,6.927859497070313,-0.3210540771484375,10.846603393554688
5.035000000000075,4.1813293457031255,-0.6838287353515625,8.72513427734375
5.045000000000066,2.6932952880859378,-1.2816741943359375,6.345565795898438
5.055000000000057,6.110494995117188,1.4072845458984375,4.608255004882813
5.066000000000024,9.003869628906251,1.209149169921875,6.2404418945312505
5.076000000000015,8.900540161132813,0.226995849609375,7.95113525390625
5.086000000000006,7.182818603515625,1.256402587890625,9.367242431640626
5.097000000000087,3.756048583984376,0.423785400390625,7.716961669921876
5.105999999999987,5.23974609375,-0.3530548095703125,6.5140930175781255
5.116000000000092,5.799160766601563,1.2538604736328125,6.905578613281251
5.12600000000009,6.877017211914063,-0.3832611083984375,6.97855224609375
5.136000000000074,7.132424926757813,-0.80570068359375,9.602163696289065
5.146000000000065,5.541360473632813,-0.0538330078125,8.175140380859375
5.156000000000056,6.354687500000001,-1.2356170654296876,7.25728759765625
5.166000000000047,7.675091552734376,-0.8496643066406251,5.892620849609376
5.1760000000000375,6.952084350585938,0.5950042724609376,5.3287200927734375
5.186000000000028,7.278073120117188,-0.403448486328125,7.885189819335938
5.196999999999996,5.3047943115234375,0.119329833984375,8.440267944335938
5.206000000000003,4.830316162109376,0.7574005126953125,9.270193481445313
5.217000000000091,6.767556762695313,-0.3186614990234375,7.702606201171876
5.227000000000089,5.969033813476563,0.8877960205078126,6.439474487304688
5.23700000000008,6.68546142578125,0.8631225585937501,5.66502685546875
5.247000000000064,4.134375,-0.4637115478515625,5.697027587890625
5.257000000000055,6.852493286132813,0.2208648681640625,7.163229370117188
5.267000000000046,11.346353149414064,0.3389984130859375,10.344610595703124
5.2770000000000366,9.696371459960938,-0.0073272705078125,9.581976318359375
5.287000000000028,4.856484985351563,0.24344482421875,7.601818847656251
5.297000000000018,-1.6988800048828123,-0.753662109375,4.788446044921876
5.307000000000009,3.694290161132813,-1.1943450927734376,6.465045166015625
5.317000000000007,10.391714477539065,-0.4197479248046875,10.320086669921876
5.326999999999998,11.597274780273438,-0.1254608154296875,8.763116455078126
5.336999999999982,8.293722534179688,0.524273681640625,7.920779418945313
5.347000000000087,2.9993957519531254,1.0174438476562502,5.011105346679688
5.358000000000054,2.8525512695312503,0.2244537353515625,4.530795288085938
5.368000000000045,7.882647705078125,0.7496246337890625,8.013491821289064
5.378000000000036,9.321633911132814,1.0146026611328125,9.14263916015625
5.3880000000000265,8.148074340820314,0.6006866455078126,9.863104248046875
5.3980000000000175,4.126748657226563,0.014654541015625,7.537667846679688
5.408000000000008,2.629144287109375,-0.09091796875,5.564837646484375
5.417999999999999,7.127938842773438,-1.2278411865234375,5.609698486328125
5.42799999999999,8.836239624023438,-0.4358978271484375,6.574954223632813
5.437999999999974,9.944302368164063,-0.6181823730468751,7.952780151367188
5.448000000000086,6.391473388671876,-0.7125396728515625,9.02884216308594
5.458000000000077,3.398358154296876,-0.6413604736328126,7.33983154296875
5.468000000000068,4.202413940429688,-0.3979156494140625,7.206295776367188
5.478000000000058,5.888583374023438,-0.1733123779296875,7.187005615234376
5.488000000000049,7.812515258789063,1.229486083984375,7.549032592773438
5.4990000000000165,7.576846313476563,0.9248809814453126,9.01089782714844
5.509000000000008,6.145486450195313,0.8949737548828126,7.214669799804688
5.518999999999998,5.684915161132813,0.9740783691406252,6.934887695312501
5.528999999999989,6.797912597656251,0.2845672607421875,5.512948608398438
5.538999999999973,7.433740234375,0.290399169921875,7.063787841796875
5.549000000000085,6.96060791015625,-0.0064300537109375,7.762420654296876
5.559000000000076,5.358776855468751,-0.764129638671875,9.335989379882813
5.569000000000067,4.92691650390625,-0.7270446777343751,8.036221313476563
5.5790000000000575,5.814712524414063,-0.8743377685546876,7.291680908203125
5.589000000000048,6.129486083984376,-0.6002380371093751,5.328421020507813
5.599000000000039,4.884747314453126,0.0370849609375,4.114935302734375
5.609000000000023,8.976803588867188,0.6841278076171875,8.803939819335938
5.619999999999997,13.135253906250002,0.454290771484375,12.95506286621094
5.629000000000012,4.979702758789063,0.1514801025390625,7.954425048828125
5.639999999999979,1.2750946044921876,-0.644500732421875,4.399053955078125
5.650000000000084,2.4731781005859377,0.8242431640625001,4.790090942382813
5.660000000000075,7.545144653320313,1.17415771484375,7.443609619140625
5.670000000000066,10.9663818359375,0.662445068359375,11.51831970214844
5.680000000000057,7.515536499023438,0.6003875732421875,10.236047363281251
5.690000000000048,4.837493896484375,-1.4814544677734376,6.703704833984376
5.700000000000038,3.993212890625,-1.45289306640625,4.3144165039062505
5.710000000000029,6.650918579101563,0.1553680419921875,3.966445922851563
5.72000000000002,9.536068725585938,-0.39298095703125,8.251852416992188
5.730000000000011,8.566775512695314,-0.8228973388671875,9.530386352539065
5.740000000000009,5.202511596679688,-0.0662445068359375,10.387677001953126
5.75,3.4492004394531253,-1.0706787109375,6.7653137207031255
5.759999999999984,4.577151489257813,0.4649078369140625,5.462106323242188
5.770000000000088,8.140896606445313,1.6211212158203123,5.3586273193359375
5.781000000000056,9.041403198242188,0.6012847900390625,7.173397827148438
5.791000000000047,7.877713012695313,0.72794189453125,8.84476318359375
5.8010000000000375,5.429806518554688,0.97437744140625,8.541802978515626
5.811000000000028,3.731524658203125,-0.2525665283203125,7.002178955078126
5.821000000000019,6.125747680664063,0.497955322265625,6.829315185546876
5.831000000000003,5.963351440429688,0.3491668701171875,7.232913208007813
5.841000000000008,7.384841918945313,-0.94088134765625,7.97386474609375
5.850999999999999,6.461007690429688,-0.4496551513671875,9.323727416992188
5.860999999999983,5.736355590820313,-0.5438629150390626,6.972271728515626
5.871000000000088,7.446151733398438,-1.3076934814453125,6.696527099609376
5.881000000000078,7.202706909179688,0.1782470703125,5.647381591796876
5.891000000000069,6.940121459960938,0.0943572998046875,6.515289306640626
5.901000000000053,6.164178466796876,-0.0825439453125,8.941064453125001
5.912000000000028,4.917794799804688,0.6821838378906251,8.424716186523439
5.922000000000018,5.725588989257813,0.3748870849609375,8.777621459960939
5.932000000000009,6.82542724609375,0.0357391357421875,6.485232543945313
5.942000000000007,5.6261474609375,1.200775146484375,6.026904296875
5.951999999999998,5.132229614257813,-0.1451995849609375,5.1133880615234375
5.961999999999982,6.2338623046875,0.0913665771484375,7.277923583984376
5.972000000000087,11.599069213867187,0.7243530273437501,10.525997924804688
5.9820000000000775,9.703997802734376,0.064599609375,9.650015258789065
5.992000000000068,3.0650421142578126,-0.2791839599609375,6.199768066406251
6.002000000000059,0.9045440673828126,-0.201275634765625,5.401693725585938
6.0130000000000265,3.956427001953125,-1.538128662109375,7.202557373046876
6.022000000000048,10.1541015625,-0.9269744873046876,9.391616821289062
6.032000000000032,10.659384155273438,0.22191162109375,10.499081420898438
6.042000000000023,7.005169677734376,0.310137939453125,6.432446289062501
6.05299999999999,3.9490997314453127,0.44920654296875,5.484835815429688
6.062999999999974,4.24503173828125,0.6246124267578126,4.308584594726563
6.073000000000086,7.690792846679688,0.20755615234375,7.531088256835938
6.083000000000077,9.293521118164064,1.0225280761718751,9.80897216796875
6.093000000000068,6.885092163085938,1.167727661132813,9.613229370117187
6.103000000000058,3.890032958984375,-0.0091217041015625,7.390225219726563
6.113000000000049,4.426718139648438,-0.3742889404296875,5.809478759765625
6.125,6.1776367187500005,-0.275445556640625,5.433694458007813
6.133000000000031,9.528591918945311,-0.9392364501953124,6.541757202148438
6.143000000000022,8.585317993164063,-0.3409423828125,8.621206665039063
6.153000000000013,6.473568725585938,-0.55029296875,8.205496215820313
6.163000000000004,4.165328979492188,-1.1312408447265625,8.151962280273438
6.172999999999995,4.049288940429688,-0.308642578125,6.812567138671875
6.182999999999986,5.85404052734375,0.3210540771484375,7.003524780273438
6.193000000000083,7.7292236328125,0.463262939453125,8.310171508789063
6.2040000000000575,7.350598144531251,1.112847900390625,7.901339721679688
6.214000000000048,6.449493408203126,1.0156494140625,8.171701049804689
6.224000000000039,6.370986938476563,0.4771697998046875,6.0251098632812505
6.234000000000023,6.180178833007813,0.8493652343750001,6.226684570312501
6.244000000000021,7.45706787109375,0.1102081298828125,6.526953125
6.254000000000012,6.3645568847656255,-0.10347900390625,8.659487915039064
6.26400000000001,5.559902954101563,-0.318511962890625,8.550924682617188
6.273999999999994,5.3892822265625,-0.7988220214843751,8.806781005859376
6.283999999999985,5.752505493164063,-0.9162078857421876,6.411660766601563
6.294000000000089,7.398898315429688,-0.5199371337890626,6.365902709960938
6.304000000000087,5.128341674804688,-0.0369354248046875,4.98553466796875
6.314000000000078,5.17215576171875,0.7265960693359376,5.630783081054688
6.324000000000062,11.927450561523438,0.68607177734375,12.508099365234376
6.334000000000053,9.506011962890623,0.2184722900390625,10.182064819335938
6.34500000000002,2.5104125976562504,-0.7591949462890626,5.463003540039063
6.355000000000011,2.218069458007813,-0.1514801025390625,4.872335815429688
6.365000000000009,4.32757568359375,1.0877258300781252,5.660092163085938
6.375,9.950283813476563,0.7261474609375,10.048529052734375
6.384999999999984,9.650164794921876,0.6892120361328126,11.054159545898438
6.395000000000088,5.67041015625,-0.23267822265625,8.238394165039063
6.405000000000079,4.706948852539063,-2.0320465087890627,5.423526000976563
6.41500000000007,4.4026428222656255,-0.098394775390625,4.14573974609375
6.425000000000061,8.709881591796876,0.171966552734375,5.675344848632813
6.435000000000052,9.353485107421877,-0.5957519531250001,9.68336181640625
6.44500000000005,6.952682495117188,-0.17884521484375,9.2544921875
6.455000000000034,4.2599853515625,-0.44501953125,9.178228759765624
6.465000000000025,3.578399658203125,-0.6895111083984375,5.590557861328126
6.475000000000016,6.291732788085938,1.5747650146484375,5.4479003906250005
6.485999999999983,8.962298583984376,0.8122802734375001,6.456970214843751
6.496000000000088,8.529391479492189,0.20875244140625,7.663876342773438
6.506000000000078,6.691891479492188,0.8571411132812501,9.265557861328126
6.516000000000069,4.364959716796875,-0.0275146484375,7.546041870117188
6.526000000000053,4.395913696289063,-0.0471038818359375,7.1182189941406255
6.536000000000051,6.368594360351563,0.757550048828125,6.868792724609375
6.546000000000049,6.592898559570313,-0.4083831787109375,7.817001342773438
6.556000000000033,7.414749145507813,-0.629547119140625,8.323330688476563
6.566000000000024,5.96170654296875,-0.1102081298828125,8.529092407226564
6.576000000000015,6.335546875,-0.877178955078125,6.148327636718751
6.586000000000006,7.6335205078125,-0.5193389892578125,6.569869995117188
6.5959999999999965,6.773986816406251,0.6000885009765625,5.867199707031251
6.605999999999987,6.873129272460938,-0.2139862060546875,7.781860351562501
6.616000000000092,5.297915649414063,0.357989501953125,9.201406860351565
6.627000000000059,5.068228149414063,0.4661041259765625,8.142242431640625
6.637000000000057,6.058755493164063,-0.17406005859375,7.781262207031251
6.647000000000048,6.084027099609376,0.285614013671875,5.306588745117188
6.657000000000032,4.257443237304688,0.7364654541015625,4.5690765380859375
6.667000000000023,9.357672119140624,0.11424560546875,8.62763671875
6.677000000000014,11.437570190429687,1.2421966552734376,11.3085205078125
6.687000000000005,6.7506591796875,0.4281219482421875,8.60550537109375
6.696999999999996,2.3638671875000004,-1.003237915039063,5.453732299804688
6.7069999999999865,1.3797698974609376,-0.52158203125,4.740145874023438
6.717000000000091,7.371981811523438,-1.4240325927734376,7.545144653320313
6.727000000000089,10.100119018554688,-1.2472808837890623,11.000924682617187
6.73700000000008,8.503222656250001,0.9462646484375,9.331503295898438
6.747000000000064,5.359524536132813,0.2935394287109375,7.75015869140625
6.758000000000031,3.97945556640625,-0.189910888671875,3.710739135742188
6.768000000000022,6.269900512695313,0.91815185546875,5.033834838867188
6.778000000000013,9.122451782226562,0.171966552734375,7.504470825195313
6.788000000000004,8.333200073242189,0.9076843261718752,9.880899047851564
6.797999999999995,5.514743041992188,1.5334930419921875,9.502871704101564
6.807999999999986,3.748272705078125,-0.5976959228515626,7.075302124023438
6.818000000000083,4.930056762695313,-0.48748779296875,5.562893676757813
6.828000000000088,7.636660766601563,-0.0213836669921875,5.757589721679688
6.838000000000079,8.356378173828126,-0.7448394775390625,7.156051635742188
6.848000000000063,8.42606201171875,-0.48748779296875,8.583673095703126
6.858000000000054,5.500836181640626,-0.2684173583984375,8.540307617187501
6.868000000000045,4.801605224609375,-1.3271331787109375,6.970626831054688
6.878000000000036,5.0725646972656255,-0.1622467041015625,7.135266113281251
6.8880000000000265,5.88035888671875,0.7741485595703126,6.995748901367188
6.8980000000000175,7.361663818359376,0.189910888671875,8.236898803710938
6.908999999999985,6.737051391601563,1.0409210205078123,8.840127563476564
6.919000000000089,6.340032958984375,0.9646575927734377,6.995001220703125
6.929000000000087,6.686508178710938,0.1933502197265625,6.902438354492188
6.939000000000078,6.931448364257813,0.6939971923828125,5.461209106445313
6.949000000000062,6.593347167968751,0.3937286376953125,7.2650634765625
6.959000000000053,6.576599121093751,-0.672613525390625,8.183364868164062
6.969000000000044,5.237203979492188,0.13697509765625,9.177780151367188
6.979000000000035,5.727682495117188,-0.8122802734375001,7.702456665039063
6.989000000000026,6.556710815429688,-1.1065673828125,6.977056884765625
6.9990000000000165,5.2433349609375,0.361279296875,4.783212280273438
7.009000000000008,3.7665161132812495,0.7630828857421875,3.964352416992188
7.018999999999998,11.11636657714844,0.58438720703125,11.3216796875
7.030000000000079,12.857266235351563,0.5718261718750001,13.211666870117188
7.04000000000007,2.531646728515625,-0.7146331787109376,6.052175903320313
7.050000000000061,1.924380493164063,-1.5870269775390626,4.128244018554688
7.060000000000052,3.45906982421875,0.8514587402343751,4.993908691406251
7.07000000000005,8.958709716796875,0.4161590576171875,7.655352783203125
7.080000000000034,10.936624145507814,0.5169464111328126,12.203942871093751
7.090000000000025,6.348257446289063,0.629248046875,10.05884704589844
7.100000000000016,4.024166870117188,-2.047747802734375,6.258685302734375
7.110000000000007,4.049288940429688,-1.096099853515625,4.091159057617188
7.119999999999997,7.134967041015625,1.21064453125,4.273892211914063
7.129999999999988,10.18580322265625,-0.287109375,8.475408935546875
7.139999999999979,8.367593383789064,-0.143255615234375,9.893310546875
7.150000000000084,4.9514404296875005,0.368756103515625,9.759176635742188
7.160000000000075,3.265121459960938,-1.380068969726563,6.214273071289063
7.170000000000066,5.121762084960938,1.0220794677734375,5.412310791015625
7.180000000000057,8.050875854492189,1.540521240234375,5.465994262695313
7.191000000000024,8.781210327148438,-0.4012054443359375,7.695877075195313
7.201000000000015,7.617520141601563,0.4532440185546875,9.523059082031253
7.211000000000006,4.515393066406251,0.44681396484375,8.360415649414064
7.2209999999999965,4.405484008789063,-0.78895263671875,7.082180786132813
7.230999999999987,6.219207763671876,0.9338531494140626,6.423773193359375
7.241000000000092,6.360369873046875,0.276043701171875,6.716116333007813
7.25100000000009,8.056707763671875,-1.0184906005859375,8.392565917968751
7.261000000000074,5.770001220703126,0.4222900390625,9.049179077148438
7.271000000000065,5.895761108398438,-0.40853271484375,7.0234130859375
7.281000000000056,7.451834106445313,-1.070977783203125,7.020571899414063
7.2910000000000466,6.516934204101563,0.8538513183593751,5.035479736328125
7.301000000000037,7.298410034179688,-0.04486083984375,7.485330200195313
7.312999999999974,5.834301757812501,-0.1063201904296875,8.681619262695314
7.321999999999996,4.867401123046875,0.7828216552734376,8.661730957031251
7.331999999999986,6.349005126953125,-0.5034881591796876,8.352789306640625
7.342000000000091,6.473568725585938,-0.3022125244140625,6.092550659179688
7.352000000000089,4.8497558593750005,0.8664123535156251,4.876971435546875
7.36200000000008,5.896359252929688,-0.47073974609375,5.846115112304688
7.372000000000064,9.214715576171876,0.6009857177734376,9.358270263671876
7.382000000000055,11.459103393554688,1.1285491943359376,10.913446044921876
7.392000000000046,6.314910888671876,-0.11304931640625,8.399295043945314
7.402000000000035,0.164190673828125,-0.1221710205078125,4.661788940429688
7.413000000000004,2.271902465820313,-0.4789642333984375,5.678485107421875
7.422000000000018,7.648623657226563,-1.5299041748046875,8.605355834960939
7.432999999999986,11.749951171875,-0.3138763427734375,10.38079833984375
7.443000000000083,8.799752807617189,0.7180725097656251,9.304885864257812
7.453000000000088,4.4992431640625,-0.0572723388671875,5.2355590820312505
7.461999999999982,3.533688354492188,0.411224365234375,4.882354736328125
7.473000000000063,6.233563232421876,0.2956329345703125,5.314215087890625
7.483000000000054,9.149517822265626,0.26138916015625,8.93927001953125
7.493000000000045,8.828463745117189,1.149334716796875,10.364498901367188
7.503000000000036,4.547842407226563,0.6836791992187501,8.322882080078125
7.513000000000026,3.854443359375,-0.5737701416015626,6.657199096679688
7.5230000000000175,5.338888549804688,-0.207855224609375,5.211782836914063
7.533000000000008,7.6206604003906255,-0.1900604248046875,5.767010498046876
7.542999999999999,10.113427734375,-0.6694732666015626,7.796664428710938
7.55299999999999,6.96300048828125,0.039776611328125,8.908016967773438
7.562999999999974,5.2988128662109375,-0.7980743408203126,7.830459594726563
7.573000000000086,3.937884521484375,-0.9610687255859376,7.930798339843751
7.583000000000077,4.624853515625,0.2298370361328125,5.954977416992188
7.5930000000000675,7.441366577148438,0.3375030517578125,8.19158935546875
7.603000000000058,7.479049682617188,0.5087219238281251,7.94395751953125
7.614000000000026,6.852493286132813,1.06888427734375,8.250057983398438
7.624000000000016,6.358276367187501,0.3720458984375,7.329663085937501
7.634000000000007,6.143392944335938,0.42886962890625,5.6781860351562505
7.643999999999998,6.909317016601563,0.6926513671875001,6.411660766601563
7.653999999999989,7.287942504882813,-0.2367156982421875,7.517031860351563
7.663999999999973,5.505322265625001,-0.0228790283203125,8.6934326171875
7.674000000000085,5.723196411132813,-0.2803802490234375,8.957662963867188
7.684000000000076,5.2385498046875005,-0.8166168212890625,7.46962890625
7.694000000000067,6.547439575195313,-0.5342926025390625,6.070867919921875
7.7040000000000575,5.179632568359375,-0.0203369140625,4.835699462890625
7.714000000000048,5.834152221679688,0.3955230712890625,5.831759643554688
7.724000000000039,13.229611206054688,0.431561279296875,12.79072265625
7.7350000000000065,7.553518676757813,0.2476318359375,9.6385009765625
7.744000000000021,2.461813354492188,-1.1420074462890626,4.423727416992188
7.754999999999988,2.828326416015625,0.229986572265625,5.584725952148438
7.764999999999979,5.4371337890625,1.0364349365234375,5.504873657226563
7.775000000000084,9.338232421875,0.67291259765625,10.887277221679687
7.785000000000075,8.524008178710938,0.8883941650390625,11.144329833984376
7.795000000000066,5.040414428710938,-0.3814666748046875,8.099624633789062
7.805000000000057,5.313168334960938,-1.825985717773437,5.186959838867188
7.815000000000047,5.702410888671875,0.4027008056640625,3.6720092773437503
7.825000000000038,8.832501220703126,0.170770263671875,5.942117309570313
7.835000000000029,9.310269165039063,-1.0469024658203123,9.470571899414065
7.84500000000002,5.612838745117188,-0.0255706787109375,9.944601440429688
7.855000000000011,4.3727355957031255,-0.9658538818359376,8.355032348632813
7.866000000000092,3.869546508789063,-0.557769775390625,6.360369873046875
7.87600000000009,6.889279174804688,1.5726715087890626,4.78575439453125
7.884999999999984,8.831903076171876,0.4269256591796875,6.980795288085938
7.896000000000065,8.190692138671876,0.2029205322265625,7.603912353515626
7.906000000000056,6.444558715820313,1.1352783203125,9.022412109375
7.9160000000000466,4.48668212890625,-0.0949554443359375,7.60301513671875
7.926000000000037,5.191445922851563,0.23267822265625,6.852194213867188
7.936000000000028,5.67100830078125,1.0095184326171875,7.324279785156251
7.946000000000019,6.911859130859376,-0.7079040527343751,7.591500854492188
7.956000000000003,6.429156494140625,-0.137274169921875,8.883193969726562
7.966000000000008,6.545645141601563,-0.1789947509765625,7.668661499023438
7.975999999999999,6.917242431640625,-1.1388671875,6.906924438476563
7.985999999999983,7.48458251953125,-0.3207550048828125,5.508761596679688
7.996000000000087,6.803146362304688,0.3158203125,6.630581665039063
8.006000000000078,6.378314208984375,-0.431561279296875,7.661483764648438
8.01600000000007,5.319000244140625,0.326287841796875,9.134564208984376
8.026000000000053,5.327374267578126,0.2890533447265625,8.541354370117189
8.037000000000027,6.18302001953125,-0.3494659423828125,6.894064331054688
8.047000000000018,4.613787841796875,0.7198669433593751,5.105462646484376
8.05700000000001,5.666671752929688,0.6856231689453125,4.8126708984375
8.067000000000007,10.640542602539064,0.720166015625,10.32218017578125
8.076999999999998,11.5549560546875,1.5723724365234375,10.996438598632814
8.086999999999982,5.347860717773438,0.0847869873046875,7.996295166015625
8.097000000000087,0.159405517578125,-1.4096771240234376,4.233816528320313
8.107000000000077,2.602227783203125,-0.8514587402343751,5.420535278320313
8.117000000000068,8.245571899414063,-1.6454956054687502,8.647973632812501
8.12700000000006,11.401382446289062,-0.9486572265625,10.941708374023438
8.137000000000057,7.841076660156251,1.20645751953125,9.47281494140625
8.147000000000048,4.363165283203125,-0.2077056884765625,5.631979370117188
8.157000000000032,3.9517913818359376,-0.151031494140625,4.342379760742188
8.167000000000023,6.833502197265625,1.1521759033203125,4.81566162109375
8.17799999999999,9.448141479492188,0.5947052001953126,9.061590576171875
8.187999999999974,8.572158813476562,1.362124633789063,10.231561279296876
8.198000000000086,4.007269287109375,1.2981231689453123,8.918933105468751
8.208000000000077,3.7917877197265626,-0.8936279296875,6.549234008789063
8.218000000000067,5.27025146484375,-0.33675537109375,5.291485595703126
8.230000000000011,7.842123413085938,0.2247528076171875,5.6979248046875
8.23800000000005,10.074697875976565,-1.188812255859375,7.999584960937501
8.24800000000004,6.965093994140625,-0.4024017333984375,8.676983642578126
8.258000000000031,5.522518920898438,-0.884954833984375,7.94754638671875
8.268000000000022,4.126150512695313,-1.4702392578125,7.33145751953125
8.278000000000013,5.095892333984375,0.094207763671875,6.09569091796875
8.288000000000004,7.118966674804688,0.6821838378906251,8.232562255859376
8.297999999999995,7.058105468750001,0.2546600341796875,8.051773071289062
8.309000000000076,6.518280029296876,1.46485595703125,8.830706787109376
8.319000000000067,6.140701293945313,0.9245819091796876,7.126144409179688
8.330000000000034,6.467587280273438,0.3739898681640625,5.735607910156251
8.339000000000048,7.473815917968751,1.066043090820313,6.211132812500001
8.34900000000004,7.050030517578126,0.10826416015625,7.071414184570313
8.359000000000023,5.705999755859375,-0.333465576171875,8.819342041015625
8.369000000000021,5.588763427734375,-0.15372314453125,9.029440307617188
8.379000000000012,4.95682373046875,-1.09041748046875,7.552023315429688
8.38900000000001,7.315008544921875,-1.28720703125,6.554318237304688
8.398999999999994,5.529098510742188,0.263482666015625,5.278326416015625
8.408999999999985,3.055770874023437,0.5453582763671876,3.245233154296875
8.41900000000009,12.302935791015626,0.490179443359375,12.378302001953124
8.430000000000057,11.723333740234375,0.7292877197265626,12.651055908203126
8.440000000000047,3.2076995849609378,-0.6252105712890625,5.666372680664063
8.450000000000038,1.9723815917968752,-0.9727325439453126,5.243035888671876
8.46000000000003,2.6379669189453128,1.0008453369140626,3.710739135742188
8.47000000000002,9.369186401367188,0.369354248046875,8.984280395507813
8.480000000000011,10.967727661132812,0.6018829345703125,11.5549560546875
8.490000000000009,6.340182495117188,0.6403137207031251,9.8370849609375
8.5,4.777679443359375,-2.272799682617188,6.260629272460938
8.509999999999984,3.320449829101563,-1.0060791015625,3.715225219726563
8.520000000000088,7.330709838867188,0.801214599609375,4.607806396484375
8.53000000000008,10.234851074218753,-0.8399444580078126,8.698815917968751
8.54000000000007,7.6580444335937505,0.1401153564453125,9.960751342773438
8.550000000000061,5.8790130615234375,0.04127197265625,9.553863525390623
8.560000000000052,2.684771728515625,-1.271356201171875,6.597683715820313
8.57000000000005,5.591006469726563,1.2951324462890623,4.551580810546875
8.581000000000003,7.783953857421875,1.5322967529296876,6.406576538085938
8.590000000000025,8.580084228515625,-0.05443115234375,6.83140869140625
8.600999999999999,7.907171630859375,0.9108245849609377,10.335787963867189
8.610999999999983,4.347015380859375,0.3177642822265625,8.057904052734376
8.621000000000087,4.636068725585938,-0.6329864501953125,6.995150756835938
8.631000000000078,5.8446197509765625,0.99830322265625,6.674395751953125
8.64100000000007,6.5978332519531255,-0.098992919921875,6.3176025390625
8.651000000000053,7.922274780273438,-0.97437744140625,8.845361328125001
8.661000000000051,6.199020385742188,0.0315521240234375,8.577691650390626
8.67100000000005,5.620913696289063,-0.5671905517578125,7.462899780273438
8.681000000000033,7.498190307617188,-1.18372802734375,6.557608032226563
8.691000000000024,6.264068603515626,0.7627838134765625,5.585623168945313
8.701000000000015,7.390524291992188,-0.1224700927734375,7.07664794921875
8.711000000000006,5.947052001953125,0.085833740234375,8.903680419921876
8.720999999999997,4.809829711914063,1.0463043212890626,8.40213623046875
8.732000000000077,6.317303466796876,-0.456683349609375,7.955172729492188
8.742000000000068,4.80369873046875,-0.4605712890625,5.19249267578125
8.75200000000006,5.208193969726563,0.7986724853515625,4.295574951171876
8.762000000000057,10.4065185546875,0.323895263671875,10.062136840820314
8.772000000000048,10.919427490234376,1.23038330078125,10.379602050781251
8.782000000000032,6.140103149414063,0.5347412109375,9.110339355468753
8.792000000000023,1.0463043212890626,-1.4678466796875,4.3417816162109375
8.802000000000014,2.4025970458984376,-0.462066650390625,5.245428466796875
8.812000000000005,8.240936279296875,-0.5754150390625,8.061492919921875
8.821999999999996,10.389620971679689,-0.9271240234375,10.982531738281253
8.831999999999987,7.987472534179688,1.0862304687500002,9.524255371093751
8.842000000000091,4.680181884765625,0.2092010498046875,6.758135986328125
8.85200000000009,3.791339111328125,-0.2220611572265625,3.605316162109376
8.86300000000005,7.543798828125,1.13348388671875,5.245877075195313
8.872000000000064,9.02405700683594,0.39537353515625,8.162130737304688
8.883000000000031,8.487222290039064,0.6787445068359376,10.065875244140626
8.893000000000022,4.28331298828125,1.1521759033203125,9.407766723632813
8.903000000000013,3.5105102539062503,-0.6643890380859375,6.441119384765625
8.913000000000004,5.737701416015625,-0.763531494140625,5.595193481445313
8.922999999999995,7.794869995117188,0.1751068115234375,5.735757446289063
8.932999999999986,9.273184204101565,-0.822149658203125,7.532284545898438
8.943000000000083,7.306185913085938,-0.390887451171875,8.847604370117189
8.953000000000088,5.260980224609376,-0.481805419921875,7.959210205078126
8.96300000000008,4.563244628906251,-1.2538604736328125,7.373178100585938
8.973000000000063,5.553472900390625,-0.3132781982421875,6.476260375976563
8.983000000000054,6.372631835937501,1.1907562255859376,7.8273193359375
8.993000000000045,7.1406494140625005,0.2095001220703125,7.992706298828126
9.003000000000036,6.425418090820313,1.129296875,8.820239257812501
9.013000000000028,6.565234375,0.7907470703125,6.818847656250001
9.023999999999994,6.722546386718751,0.0450103759765625,6.323733520507813
9.033999999999985,7.05870361328125,0.8719451904296875,5.91385498046875
9.04400000000009,6.7234436035156255,0.4306640625,7.326672363281251
9.054000000000087,5.884695434570313,-0.687567138671875,8.828463745117189
9.064000000000078,5.657550048828125,-0.1371246337890625,8.808276367187501
9.074000000000062,5.219110107421876,-0.8157196044921876,7.701708984375
9.084000000000051,7.331158447265626,-1.194644165039063,6.529495239257813
9.094000000000044,5.873779296875,0.0602630615234375,5.815908813476563
9.104000000000037,3.4626586914062503,-0.14295654296875,3.9398284912109376
9.114000000000026,8.919381713867189,0.2906982421875,9.280810546875
9.124000000000017,13.249948120117187,1.016845703125,13.102804565429688
9.134000000000007,6.4037353515625,-0.594854736328125,7.684512329101563
9.143999999999998,0.96361083984375,-1.01864013671875,4.488027954101563
9.15500000000008,1.7978729248046876,1.3953216552734375,4.260134887695313
9.16500000000007,7.1286865234375005,1.3374511718750002,8.146578979492189
9.17500000000006,11.109637451171876,0.75904541015625,10.996438598632814
9.185000000000052,8.395257568359376,1.1331848144531251,10.834042358398438
9.19500000000005,4.989422607421876,-1.9189971923828129,6.442465209960938
9.205000000000034,3.080294799804688,-1.286907958984375,4.183273315429688
9.215000000000025,6.243133544921876,0.6450988769531251,4.2949768066406255
9.225000000000016,9.900189208984376,-0.8302246093750001,7.81236572265625
9.235000000000008,9.330007934570313,-0.8300750732421875,10.06617431640625
9.244999999999996,5.851647949218751,0.0417205810546875,9.785195922851564
9.254999999999988,2.368502807617188,-1.33984375,6.9133544921875005
9.26499999999998,4.816259765625,0.5471527099609376,5.307485961914063
9.275000000000084,7.585818481445313,1.714581298828125,5.717962646484375
9.285000000000077,9.676483154296877,0.20755615234375,6.596188354492188
9.295000000000066,8.247366333007813,0.9389373779296876,9.614126586914065
9.306000000000031,4.520028686523438,1.06409912109375,7.944705200195313
9.316000000000024,4.342678833007813,-0.7838684082031251,7.715466308593751
9.326000000000016,5.3910766601562505,0.69683837890625,6.690246582031251
9.336000000000006,6.282461547851563,0.3375030517578125,6.6920410156250005
9.345999999999997,7.864404296875,-0.98873291015625,8.623001098632812
9.355999999999987,6.455923461914063,-0.1945465087890625,8.486175537109375
9.366000000000092,5.61478271484375,-0.5598632812500001,7.571463012695313
9.37600000000009,7.552471923828126,-1.549493408203125,6.497644042968751
9.386000000000074,6.514691162109376,0.6225189208984375,5.588015747070313
9.396000000000065,7.724737548828125,0.0106170654296875,6.78056640625
9.406000000000056,5.863909912109375,-0.09989013671875,8.671749877929688
9.416000000000048,4.763623046875001,0.904095458984375,8.726181030273438
9.426000000000036,5.9706787109375,0.1069183349609375,8.727078247070313
9.437000000000005,6.079541015625001,0.15731201171875,6.495251464843751
9.446999999999996,6.415100097656251,1.088922119140625,5.337841796875001
9.456999999999988,4.58477783203125,-0.1541717529296875,5.088565063476563
9.467000000000091,7.959060668945313,0.4508514404296875,7.638156127929688
9.47700000000009,12.372171020507814,1.251318359375,12.81629333496094
9.48700000000008,6.276629638671875,-0.1601531982421875,7.390075683593751
9.497000000000064,2.383905029296875,-0.5939575195312501,6.193637084960938
9.507000000000057,1.9246795654296875,-0.6222198486328125,4.846466064453125
9.517000000000046,6.2099365234375,-1.995260620117188,7.563088989257813
9.52899999999999,11.160928344726564,-0.947760009765625,10.743722534179687
9.537000000000027,8.603561401367188,0.6712677001953126,9.669155883789063
9.547999999999996,5.386141967773438,0.137872314453125,6.333752441406251
9.55700000000001,4.575357055664063,0.1490875244140625,4.884747314453126
9.567000000000007,4.963253784179688,0.8747863769531251,4.472476196289063
9.576999999999998,9.5906494140625,-0.0100189208984375,8.132223510742188
9.58800000000008,8.007809448242188,1.2617858886718751,10.218701171875
9.598000000000065,5.8295166015625,1.46485595703125,8.80169677734375
9.608000000000054,4.042559814453125,-0.5344421386718751,7.505667114257813
9.618000000000045,4.741192626953126,-0.084039306640625,5.055517578125
9.629000000000012,7.536022949218751,-0.2702117919921875,5.779571533203125
9.638000000000028,8.845062255859375,-1.054080200195313,7.299307250976563
9.648000000000016,8.084970092773439,-0.2352203369140625,8.546588134765626
9.658000000000008,5.71826171875,-0.477618408203125,8.719451904296875
9.668,4.474868774414063,-1.4715850830078123,7.191790771484375
9.67799999999999,4.631881713867188,0.2782867431640625,6.970477294921875
9.687999999999974,6.501531982421875,0.1822845458984375,6.914999389648438
9.698000000000086,7.283905029296876,0.4894317626953125,8.429800415039063
9.708000000000077,7.086367797851563,1.2712066650390623,8.26456298828125
9.718000000000067,6.34451904296875,0.8728424072265626,7.696624755859376
9.730000000000013,6.548635864257813,0.346624755859375,6.175543212890625
9.739000000000026,6.632675170898438,0.8664123535156251,5.9253692626953125
9.749000000000017,6.84097900390625,-0.028411865234375,7.224688720703125
9.759000000000007,6.415847778320313,-0.277239990234375,8.201309204101562
9.768999999999998,5.2409423828125,-0.1018341064453125,9.385186767578126
9.77899999999999,6.013595581054688,-0.9604705810546876,7.528546142578126
9.788999999999971,6.070120239257813,-0.9414794921875,7.003225708007813
9.799000000000085,6.00238037109375,-0.100189208984375,4.925271606445313
9.809000000000076,3.5469970703125004,0.084039306640625,4.389483642578125
9.819000000000068,11.269641113281253,0.512908935546875,10.820733642578126
9.829000000000056,12.201400756835938,0.5682373046875,12.737637329101563
9.839000000000048,3.0230224609375003,-0.6941467285156251,5.439675903320313
9.850000000000016,2.199676513671875,-0.6437530517578125,4.884298706054688
9.860000000000008,3.3660583496093754,1.417901611328125,4.910467529296875
9.869999999999996,8.511297607421875,0.6890625,8.192187500000001
9.879999999999988,10.488912963867188,0.93310546875,12.623391723632814
9.88999999999998,6.148477172851563,0.403448486328125,9.281857299804688
9.900000000000084,4.486233520507813,-2.0157470703125,6.556112670898438
9.910000000000077,4.817007446289063,-0.8133270263671876,3.604269409179688
9.920000000000066,7.109396362304688,0.8646179199218751,4.235012817382813
9.930000000000057,10.695272827148438,-1.01505126953125,8.649468994140626
9.940000000000047,7.425814819335938,-0.322998046875,9.969424438476564
9.950000000000038,4.577301025390625,-0.2109954833984375,9.655548095703123
9.96000000000003,3.598138427734375,-1.4605194091796876,6.838436889648438
9.97000000000002,4.807736206054688,1.2021209716796877,5.083929443359375
9.980000000000013,8.976803588867188,1.3764801025390625,5.615231323242188
9.990000000000007,8.61148681640625,0.045458984375,7.722344970703125
10.0,7.508209228515626,1.040771484375,8.425314331054688
10.011000000000074,5.06329345703125,0.4930206298828125,8.992205810546876
10.021000000000065,4.236807250976563,-0.5112640380859376,6.445007324218751
10.031000000000056,5.941967773437501,1.035089111328125,7.294372558593751
10.041000000000048,6.246572875976563,-0.06280517578125,7.022366333007813
10.051000000000036,7.079788208007813,-0.8465240478515625,8.349349975585938
10.061000000000028,6.337789916992188,0.11304931640625,9.062188720703126
10.07100000000002,6.378762817382813,-0.9245819091796876,6.814212036132813
10.081000000000005,7.398001098632813,-0.9649566650390624,6.438128662109375
10.091000000000008,7.453030395507813,0.4897308349609375,5.528350830078125
10.101,6.339285278320313,-0.084039306640625,7.087414550781251
10.110999999999985,6.193188476562501,-0.047552490234375,8.811267089843751
10.121000000000087,4.641452026367188,0.7512695312500001,8.983682250976564
10.132000000000057,5.994903564453125,-0.17166748046875,7.775729370117188
10.14100000000007,6.059353637695313,-0.1266571044921875,6.089559936523438
10.152000000000037,3.8568359375,0.9311614990234376,4.00816650390625
10.162000000000027,8.740686035156251,0.1359283447265625,7.623202514648438
10.172000000000018,12.064276123046875,1.3271331787109375,12.050369262695312
10.18200000000001,7.6335205078125,1.0379302978515623,8.644534301757814
10.192000000000007,2.433251953125,-0.9356475830078126,6.06937255859375
10.201999999999998,1.2804779052734376,-0.8523559570312501,4.059756469726563
10.211999999999982,6.146234130859376,-0.9423767089843752,7.476208496093751
10.222000000000088,10.560989379882812,-1.8304718017578123,10.5943359375
10.232000000000076,8.740835571289063,0.8104858398437501,10.391864013671876
10.242000000000068,5.609997558593751,0.51380615234375,7.359869384765625
10.25200000000006,4.186114501953125,-0.6042755126953125,4.380810546875001
10.262000000000056,5.667568969726563,0.964208984375,4.059756469726563
10.272000000000048,9.246566772460938,0.5160491943359375,7.450189208984375
10.282000000000032,8.406024169921876,0.6280517578125,10.133914184570314
10.293,5.967987060546875,1.8968658447265627,9.482833862304688
10.30299999999999,3.387741088867188,-0.3306243896484375,7.738046264648438
10.312999999999974,4.952487182617188,-0.8049530029296875,5.11533203125
10.323000000000086,7.054067993164063,0.2660247802734375,5.8969573974609375
10.333000000000077,8.761471557617188,-0.6434539794921875,6.687405395507813
10.343000000000067,8.45118408203125,-0.7080535888671875,8.786444091796875
10.353000000000058,5.7534027099609375,-0.0584686279296875,8.471820068359376
10.36300000000005,4.8307647705078125,-1.5681854248046876,7.269400024414063
10.37300000000004,4.7903900146484375,-0.50244140625,6.957318115234376
10.383000000000033,6.161038208007813,0.71478271484375,6.905578613281251
10.393000000000022,6.944607543945313,0.2785858154296875,8.304788208007814
10.403000000000011,7.141546630859375,0.7239044189453125,8.502923583984376
10.413999999999971,6.237750244140625,1.362274169921875,7.776327514648438
10.422999999999996,6.734957885742188,0.0322998046875,6.207843017578125
10.434000000000076,6.817800903320313,0.7879058837890626,6.012997436523438
10.444000000000068,6.756640625,0.666632080078125,6.807931518554688
10.454000000000056,6.447399902343751,-0.5522369384765625,8.230169677734375
10.464000000000048,5.460012817382813,0.0055328369140625,9.280511474609376
10.47400000000004,5.5859222412109375,-0.496160888671875,7.538565063476563
10.484000000000025,6.303546142578125,-1.2697113037109375,7.128985595703125
10.49400000000002,5.186810302734376,-0.064300537109375,4.1469360351562505
10.504000000000012,4.05960693359375,0.346624755859375,4.6583496093750005
10.51400000000001,13.0251953125,-0.0518890380859375,12.38443298339844
10.523999999999994,10.739984130859376,0.887945556640625,12.36484375
10.533999999999985,2.4308593750000003,-0.8187103271484376,5.009310913085938
10.54600000000005,1.7573486328125,-0.8738891601562501,4.35150146484375
10.555000000000057,3.8338073730468754,1.4910247802734375,4.24503173828125
10.565000000000047,10.07215576171875,0.6890625,9.480441284179689
10.575000000000038,10.162625122070311,0.8501129150390626,12.52320251464844
10.58500000000003,5.572763061523438,0.52337646484375,9.488067626953123
10.59500000000002,3.845022583007813,-2.112945556640625,6.01434326171875
10.605000000000013,4.460513305664063,-0.7101470947265626,2.995358276367188
10.615000000000007,8.169308471679688,0.9902282714843752,4.75225830078125
10.625,10.98193359375,-1.1071655273437502,9.086264038085938
10.634999999999984,7.120312500000001,-0.271258544921875,10.150064086914064
10.646000000000065,4.421783447265625,-0.226397705078125,9.598724365234377
10.65500000000008,2.8015594482421875,-1.4726318359375,5.906378173828125
10.66500000000007,5.624353027343751,1.3449279785156252,5.014096069335938
10.67500000000006,9.162826538085938,1.2673187255859375,6.019726562500001
10.685000000000052,8.397052001953126,-0.0294586181640625,7.928106689453125
10.69500000000005,7.411758422851563,1.0175933837890625,9.301596069335938
10.705000000000034,4.021026611328125,0.5483489990234376,8.361611938476564
10.716000000000008,4.928411865234375,-0.5703308105468751,6.114532470703125
10.726,6.368145751953126,1.254458618164063,7.209585571289063
10.735999999999985,6.4348388671875005,-0.0803009033203125,6.606356811523438
10.747000000000064,7.407122802734375,-0.8628234863281251,9.10914306640625
10.756000000000078,5.769552612304688,0.08134765625,8.811267089843751
10.76600000000007,6.1167755126953125,-0.9184509277343752,6.755444335937501
10.776000000000051,7.760775756835938,-1.09041748046875,6.581533813476563
10.786000000000053,7.011001586914063,0.6657348632812501,5.132977294921876
10.79600000000005,6.71776123046875,-0.25361328125,7.642343139648438
10.806000000000031,5.916696166992188,-0.0945068359375,8.838183593750001
10.816000000000024,4.5436553955078125,0.8522064208984376,8.887081909179688
10.826000000000016,6.7174621582031255,-0.34871826171875,7.668661499023438
10.836000000000006,5.964996337890625,0.019439697265625,5.962902832031251
10.847000000000088,4.1010284423828125,0.8993103027343751,3.665280151367188
10.857000000000076,7.697222900390625,-0.1287506103515625,7.458114624023438
10.867000000000068,11.499478149414063,1.388592529296875,11.398391723632812
10.87700000000006,9.512142944335938,0.9443206787109376,10.568914794921875
10.887000000000056,2.5762084960937504,-0.9784149169921876,6.039913940429688
10.897000000000048,0.2968292236328125,-0.649884033203125,3.8306671142578126
10.907000000000032,4.993011474609375,-0.64599609375,6.853240966796876
10.917000000000025,10.667459106445314,-1.7745452880859376,9.958807373046875
10.927000000000014,10.24905700683594,0.5988922119140625,10.85452880859375
10.937000000000005,6.566729736328125,0.51380615234375,7.872479248046876
10.946999999999996,3.128146362304688,-0.4149627685546875,4.41251220703125
10.956999999999988,4.8168579101562505,0.9441711425781252,4.1200195312500005
10.967000000000091,8.477951049804688,0.6596038818359375,7.055862426757813
10.97700000000009,9.342120361328126,0.5015441894531251,9.989761352539062
10.98700000000008,6.975860595703126,1.663140869140625,10.007257080078126
10.99800000000004,3.1308380126953126,-0.0474029541015625,7.706942749023438
11.008000000000033,4.353594970703125,-0.8936279296875,5.101275634765625
11.018000000000022,6.593048095703126,0.1232177734375,5.851498413085938
11.028000000000011,9.035272216796876,-0.7104461669921875,6.017333984375
11.038000000000004,9.196621704101563,-0.7823730468750001,9.169256591796875
11.047999999999996,5.860321044921875,-0.095703125,8.502474975585939
11.057999999999986,4.330416870117188,-1.3881439208984376,7.55516357421875
11.068000000000085,4.5458984375,-0.8583374023437501,6.928756713867188
11.078000000000088,5.942715454101563,0.7816253662109376,6.515737915039063
11.08800000000008,7.459759521484376,0.3768310546875,8.246768188476564
11.098000000000065,7.461853027343751,0.7704101562500001,8.613729858398438
11.108000000000054,5.872433471679688,1.4322570800781251,7.98702392578125
11.11900000000002,6.623553466796875,0.0611602783203125,6.341827392578126
11.129000000000012,6.502578735351563,0.764129638671875,5.9587158203125
11.13900000000001,7.105059814453125,0.8557952880859375,6.219207763671876
11.148999999999994,6.836642456054688,-0.590069580078125,8.658590698242188
11.158999999999985,5.342327880859376,-0.0626556396484375,8.870632934570313
11.16900000000009,5.333355712890626,-0.5873779296875,8.381649780273438
11.179000000000087,6.190496826171875,-1.289300537109375,7.174893188476563
11.189000000000078,6.519625854492188,-0.2954833984375,5.264569091796876
11.199000000000062,3.9447631835937504,0.151629638671875,4.152917480468751
11.209000000000051,7.717709350585938,0.064599609375,7.037918090820313
11.219000000000044,13.537655639648438,0.8886932373046875,14.405413818359376
11.229000000000037,7.200314331054688,-0.1990325927734375,8.883193969726562
11.239000000000026,1.0501922607421876,-1.4868377685546876,4.747174072265626
11.249000000000017,1.83271484375,0.7360168457031251,4.245928955078125
11.259000000000007,6.1327758789062505,1.4030975341796876,6.35648193359375
11.270000000000088,11.125936889648438,0.9320587158203124,11.000027465820311
11.28000000000008,9.42197265625,1.2948333740234377,11.168255615234376
11.29000000000007,4.71756591796875,-1.0515380859375,7.636959838867188
11.30000000000006,3.6468872070312495,-1.9804565429687504,4.070672607421876
11.310000000000052,4.93170166015625,0.666632080078125,4.559207153320313
11.32000000000005,9.697268676757814,-0.347821044921875,6.345266723632813
11.330000000000034,9.807028198242188,-0.94805908203125,10.528988647460938
11.340000000000025,6.296517944335938,0.0333465576171875,9.636706542968753
11.350000000000016,3.1311370849609377,-1.304254150390625,7.659091186523438
11.360000000000008,3.9579223632812495,-0.346026611328125,5.496499633789063
11.369999999999996,7.193435668945313,1.807443237304688,5.005422973632813
11.379999999999988,9.193630981445311,0.3416900634765625,6.982290649414063
11.38999999999998,8.81605224609375,0.4664031982421875,8.660235595703126
11.400000000000084,5.068377685546875,1.387994384765625,9.255987548828124
11.410000000000077,4.117178344726563,-0.4442718505859375,7.072460937500001
11.42100000000005,5.0758544921875,0.6117523193359375,7.194183349609376
11.431000000000031,6.45218505859375,0.9147125244140626,5.991314697265626
11.441000000000024,7.837039184570313,-0.83680419921875,8.430697631835939
11.451000000000016,6.737500000000001,-0.2594451904296875,8.4709228515625
11.461000000000006,5.592501831054688,-0.3291290283203125,7.987921142578125
11.470999999999997,6.827221679687501,-1.6134948730468752,6.836193847656251
11.480999999999987,7.039413452148438,0.00777587890625,5.548687744140626
11.491000000000092,7.104013061523438,0.2154815673828125,6.587515258789063
11.50100000000009,6.863110351562501,-0.5707794189453126,8.197421264648439
11.511000000000074,4.496701049804688,0.722259521484375,8.967980957031251
11.521000000000065,5.907125854492188,0.13218994140625,8.365798950195312
11.531000000000056,5.671755981445313,-0.36068115234375,6.6830688476562505
11.541000000000048,4.868746948242188,0.8683563232421876,3.9909698486328127
11.552000000000014,6.911111450195313,0.694744873046875,6.390576171875001
11.562000000000005,11.479141235351562,1.0723236083984375,11.118161010742188
11.571999999999996,9.840374755859376,1.3684051513671875,11.0884033203125
11.581999999999988,3.0411163330078126,-0.75665283203125,6.188552856445313
11.592000000000091,0.7333251953125001,-1.43255615234375,3.4847900390625
11.60200000000009,4.979702758789063,-0.53653564453125,6.071017456054688
11.61200000000008,9.600369262695311,-1.67958984375,9.012542724609377
11.622000000000064,10.080380249023438,0.121124267578125,12.203195190429687
11.632000000000057,6.111392211914063,1.1355773925781252,8.998187255859376
11.642000000000046,3.1954376220703127,-0.480908203125,5.219110107421876
11.653000000000011,5.643344116210938,0.2824737548828125,3.580194091796875
11.663999999999971,8.254693603515626,1.1865692138671875,5.3895812988281255
11.672000000000018,9.897946166992188,0.1667327880859375,9.146078491210938
11.682999999999986,7.40263671875,1.5538299560546875,10.83179931640625
11.693000000000085,2.698080444335938,0.6954925537109375,8.393612670898438
11.703000000000088,4.226339721679688,-1.2477294921875002,6.091055297851563
11.71300000000008,5.927462768554688,0.091815185546875,5.553622436523438
11.723000000000065,8.731265258789064,-0.131890869140625,5.621511840820313
11.733000000000054,9.553863525390623,-1.2733001708984375,9.07190856933594
11.743000000000045,6.265713500976563,-0.0372344970703125,7.887582397460938
11.753000000000036,5.244232177734375,-1.0727722167968752,7.729373168945313
11.763000000000028,5.2090911865234375,-1.2418975830078125,6.714022827148438
11.773000000000016,5.353244018554688,0.757550048828125,6.320742797851563
11.783000000000008,6.872381591796875,0.481805419921875,8.589654541015626
11.793,6.485232543945313,0.272454833984375,8.859268188476562
11.80299999999999,5.505770874023438,1.6387664794921877,8.561093139648438
11.812999999999974,7.050628662109376,0.10347900390625,6.830960083007813
11.823000000000086,6.7069946289062505,0.6491363525390625,5.523117065429688
11.833000000000077,7.967733764648438,1.0448089599609376,5.7912353515625
11.843000000000067,6.701461791992188,-0.2074066162109375,7.92720947265625
11.854000000000037,5.4707794189453125,-0.274249267578125,8.401687622070312
11.864000000000026,5.490518188476563,-0.264080810546875,9.2891845703125
11.874000000000017,5.601473999023438,-1.4150604248046876,7.135266113281251
11.884000000000007,6.538168334960938,-0.5761627197265625,5.9687347412109375
11.893999999999998,3.810180664062501,0.4436737060546875,4.238302612304688
11.90399999999999,6.761575317382813,0.2165283203125,6.415100097656251
11.913999999999971,14.564669799804689,0.4711883544921875,15.436016845703126
11.924000000000085,6.123654174804688,-0.0897216796875,7.495797729492188
11.934000000000076,1.8952209472656247,-1.6740570068359375,4.4983459472656255
11.944000000000068,3.8740325927734376,0.31641845703125,4.734164428710938
11.955000000000034,5.36356201171875,1.5293060302734376,5.89830322265625
11.965000000000025,10.877407836914063,0.8665618896484376,11.646920776367187
11.975000000000016,7.536471557617188,1.2392059326171876,11.248257446289063
11.985000000000008,4.445111083984376,-0.7397552490234376,7.453628540039063
11.994999999999996,5.2973175048828125,-2.2372100830078128,4.884747314453126
12.004999999999988,5.0042266845703125,1.039276123046875,3.547894287109376
12.01499999999998,10.17982177734375,0.0004486083984375,6.648526000976563
12.025000000000084,8.877810668945314,-1.0084716796875002,10.362405395507814
12.035000000000077,5.709439086914063,0.078057861328125,9.08701171875
12.047000000000018,4.083682250976563,-1.3576385498046877,8.416940307617189
12.055000000000057,3.975567626953125,-0.5295074462890625,5.2433349609375
12.065000000000047,7.29197998046875,2.111300659179688,5.28819580078125
12.075000000000038,8.839529418945313,0.03887939453125,7.377963256835938
12.08500000000003,7.837338256835938,0.3506622314453125,8.074502563476564
12.09500000000002,5.782113647460938,1.1892608642578126,9.372625732421875
12.105000000000013,4.44241943359375,-0.438739013671875,6.870138549804688
12.115000000000007,5.65665283203125,0.6234161376953126,7.112088012695313
12.12600000000009,6.362762451171876,0.9706390380859377,6.474017333984375
12.136000000000074,6.801950073242188,-0.8948242187500001,8.105755615234376
12.147000000000048,6.791183471679688,-0.1000396728515625,8.639749145507814
12.156000000000056,5.754898071289063,-0.255108642578125,8.154504394531251
12.166000000000048,7.1107421875000005,-1.4168548583984375,6.3585754394531255
12.176000000000036,7.360317993164063,-0.0483001708984375,6.116326904296876
12.186000000000028,6.589459228515626,0.331072998046875,6.344967651367188
12.19600000000002,6.647927856445313,-0.5793029785156251,8.220449829101563
12.206000000000005,4.830316162109376,0.6596038818359375,8.978298950195313
12.216000000000008,6.117971801757813,0.0653472900390625,8.08392333984375
12.226,6.263470458984376,-0.29129638671875,6.987075805664063
12.235999999999985,5.271746826171875,0.9410308837890624,4.7376037597656255
12.247000000000064,4.337594604492188,0.5950042724609376,4.659246826171875
12.257000000000057,10.47889404296875,0.6907073974609376,10.844061279296875
12.267000000000046,12.037957763671876,1.62635498046875,12.351684570312502
12.277000000000037,3.927716064453125,-0.318511962890625,6.525308227539063
12.287000000000027,1.9176513671875,-1.29378662109375,4.3024536132812505
12.297000000000018,2.83580322265625,-0.34034423828125,4.9035888671875005
12.30700000000001,8.828762817382813,-1.9649047851562504,8.226132202148438
12.317000000000007,11.006008911132811,-0.7098480224609376,12.516323852539063
12.326999999999998,6.662582397460938,1.20765380859375,9.1384521484375
12.336999999999982,4.18402099609375,-0.5401245117187501,6.137112426757813
12.348000000000065,4.5231689453125,-0.06041259765625,3.673056030273438
12.357000000000076,6.947299194335938,1.2122894287109376,4.5402160644531255
12.367000000000068,10.35926513671875,-0.0853851318359375,9.271389770507811
12.37700000000006,7.626342773437501,1.519287109375,10.335787963867189
12.387000000000056,4.170562744140625,1.3597320556640626,8.961849975585938
12.397000000000048,3.9082763671875,-1.2834686279296876,6.389230346679688
12.408000000000008,5.0535736083984375,0.2062103271484375,5.074508666992188
12.418,8.46494140625,0.013458251953125,5.891275024414063
12.42799999999999,8.980691528320314,-1.218569946289063,8.238394165039063
12.437999999999974,7.298858642578126,0.00538330078125,8.532980346679688
12.448000000000086,5.397955322265625,-0.7648773193359375,8.426660156250001
12.458000000000077,4.474569702148438,-1.490277099609375,6.448446655273438
12.468000000000067,5.500537109375,0.5416198730468751,6.596487426757813
12.478000000000058,6.590655517578125,0.5115631103515625,7.680923461914063
12.48800000000005,7.089508056640626,0.034393310546875,8.378659057617188
12.49800000000004,6.371734619140626,1.522576904296875,9.153555297851565
12.508000000000033,6.337640380859376,0.5184417724609376,6.798361206054688
12.518000000000022,6.779968261718751,0.2896514892578125,6.066232299804688
12.528000000000011,7.287942504882813,1.0573699951171875,5.694784545898438
12.538000000000004,6.586318969726563,-0.0533843994140625,7.40323486328125
12.549000000000085,6.12320556640625,-0.471337890625,8.729470825195314
12.559000000000076,5.274588012695313,0.1275543212890625,9.183163452148438
12.569000000000068,5.6064086914062505,-1.170718383789063,7.427758789062499
12.579000000000056,7.122256469726563,-0.960919189453125,6.700863647460938
12.589000000000048,4.854391479492188,0.4689453125,4.918991088867188
12.601,3.8342559814453128,0.115142822265625,3.8816589355468754
12.609000000000025,11.126385498046876,0.7123901367187501,11.273529052734377
12.61900000000002,13.34684753417969,0.96361083984375,13.166806030273438
12.629000000000012,4.04405517578125,-0.7787841796875,6.522167968750001
12.63900000000001,0.05084228515625,-0.7600921630859375,3.611148071289063
12.650000000000084,2.2028167724609378,0.962713623046875,4.214376831054688
12.660000000000077,9.050674438476562,0.0705810546875,8.842221069335938
12.670000000000066,11.80542907714844,0.5644989013671875,12.358413696289064
12.679000000000087,7.144088745117188,0.8375518798828125,10.556204223632813
12.690000000000047,3.850405883789063,-2.318109130859375,5.682073974609375
12.700000000000038,3.18990478515625,-0.8907867431640626,3.619970703125
12.71000000000003,7.272540283203125,0.511114501953125,3.7832641601562496
12.72000000000002,10.857968139648438,-0.7108947753906251,8.966934204101562
12.730000000000013,8.827267456054688,0.059515380859375,10.229766845703123
12.740000000000007,4.738201904296876,0.307147216796875,10.156643676757811
12.75,2.4405792236328128,-1.6266540527343751,6.278424072265626
12.759999999999984,4.50103759765625,1.253411865234375,4.960113525390625
12.770000000000088,8.387930297851563,1.5499420166015627,5.42816162109375
12.78000000000008,9.773532104492189,0.0299072265625,7.510302734375
12.79000000000007,7.996743774414063,0.9084320068359376,9.584219360351565
12.80000000000006,4.729977416992188,0.4589263916015625,8.223141479492188
12.810000000000052,3.6727569580078128,-0.8982635498046876,6.77159423828125
12.82000000000005,5.8091796875,1.0678375244140623,6.474166870117188
12.831000000000005,6.56583251953125,0.0590667724609375,7.0584045410156255
12.841000000000008,7.858871459960938,-1.00069580078125,8.671002197265626
12.851,6.068026733398438,0.088525390625,9.316848754882812
12.860999999999985,5.496649169921875,-0.576611328125,7.052273559570313
12.871000000000087,7.454226684570313,-1.19927978515625,6.349304199218751
12.881000000000078,7.065731811523438,0.9165069580078126,5.133575439453125
12.89100000000007,7.677185058593751,-0.2301361083984375,6.826324462890626
12.901000000000051,5.957968139648438,0.0910675048828125,9.117517089843751
12.911000000000053,4.504925537109376,0.9491058349609376,8.780462646484375
12.92100000000005,5.647381591796876,-0.21353759765625,8.470175170898438
12.935000000000052,6.113485717773438,-0.5467041015625,5.8187500000000005
12.941000000000024,4.2221527099609375,0.7448394775390625,3.8833038330078127
12.951000000000016,8.158541870117189,-0.2213134765625,7.320690917968751
12.961000000000006,11.154498291015626,1.1632415771484377,10.751348876953124
12.972000000000088,9.452478027343751,0.7835693359375001,10.713217163085938
12.982000000000076,3.35738525390625,-1.1669799804687502,5.857928466796875
12.992000000000068,-0.06160888671875,-0.7571014404296875,4.103121948242188
13.00200000000006,5.219708251953126,-0.107666015625,6.605908203125001
13.012000000000056,9.661828613281251,-1.064697265625,10.852584838867188
13.022000000000048,10.095333862304688,0.76383056640625,10.469622802734376
13.032000000000032,6.655853271484376,0.6485382080078126,8.489465332031251
13.042000000000025,3.57451171875,-0.21234130859375,3.601577758789063
13.052000000000014,5.482443237304688,1.0252197265625,4.245779418945313
13.064000000000078,8.322283935546876,0.72794189453125,6.526953125
13.071999999999996,9.35782165527344,0.1140960693359375,9.992303466796876
13.081999999999988,6.518728637695313,1.33804931640625,10.60869140625
13.092000000000091,3.1605957031250003,-0.255108642578125,7.504769897460938
13.10200000000009,4.114636230468751,-0.9405822753906252,5.6621856689453125
13.11300000000005,7.08262939453125,-0.157611083984375,5.446405029296876
13.12300000000004,8.598178100585939,-0.5205352783203125,6.335995483398438
13.133000000000033,9.39490661621094,-0.8365051269531251,8.725283813476564
13.143000000000022,5.765066528320313,0.1048248291015625,8.581729125976564
13.153000000000011,4.7111358642578125,-1.13826904296875,7.3021484375
13.163999999999971,4.831661987304688,-0.7955322265625001,7.027749633789063
13.172999999999996,5.407376098632813,0.94207763671875,6.691891479492188
13.182999999999986,7.479647827148438,0.4562347412109375,8.234506225585939
13.193000000000085,6.872830200195313,0.8106353759765625,9.00147705078125
13.203000000000088,6.340182495117188,1.1452972412109377,7.374822998046875
13.21300000000008,6.59873046875,0.07955322265625,7.009207153320313
13.223000000000065,6.785202026367188,0.4502532958984375,5.189950561523438
13.234000000000025,6.8550354003906255,0.8701507568359376,6.808828735351563
13.24400000000002,6.894363403320313,-0.7206146240234376,8.127438354492188
13.254000000000012,5.39227294921875,-0.21353759765625,9.131423950195312
13.26400000000001,5.3689453125,-0.5598632812500001,8.375369262695314
13.273999999999994,6.149075317382813,-1.2039154052734375,6.9941040039062505
13.283999999999985,5.995352172851563,-0.1419097900390625,5.3178039550781255
13.29400000000009,4.010110473632813,0.0488983154296875,3.49794921875
13.304000000000087,8.413201904296876,0.276641845703125,8.743228149414064
13.314000000000078,14.320327758789064,0.9393859863281252,14.337973022460938
13.324000000000062,5.291934204101563,-0.05921630859375,8.114428710937501
13.334000000000051,1.1452972412109377,-1.404144287109375,3.626699829101563
13.344000000000044,2.4105224609375,1.0887725830078123,4.603170776367188
13.354000000000037,6.908419799804688,1.340740966796875,6.735256958007813
13.364000000000026,11.372671508789065,0.8115325927734376,12.178671264648438
13.374000000000017,7.94993896484375,1.0887725830078123,11.136703491210938
13.384999999999984,4.516140747070313,-1.588970947265625,6.7147705078125
13.395000000000088,3.744833374023438,-1.863818359375,4.028353881835938
13.40500000000008,6.0281005859375005,0.6971374511718751,3.573165893554688
13.41500000000007,10.300347900390626,-0.5393768310546876,7.961303710937501
13.42500000000006,9.350643920898438,-1.0098175048828126,10.179522705078126
13.435000000000052,5.320794677734376,0.2483795166015625,10.11268005371094
13.44500000000005,3.071920776367188,-1.480706787109375,6.821987915039063
13.455000000000034,4.195834350585938,0.2415008544921875,5.339785766601563
13.465000000000025,7.819244384765626,1.961764526367188,5.141500854492188
13.475000000000016,9.316848754882812,0.204266357421875,7.371682739257813
13.485000000000008,8.131027221679688,0.7609893798828126,9.068768310546876
13.494999999999996,5.2325683593750005,1.239654541015625,8.580532836914063
13.504999999999988,3.858480834960938,-0.5872283935546876,7.103564453125
13.51499999999998,5.882901000976563,0.6201263427734376,6.616525268554688
13.525000000000084,5.953482055664063,0.748876953125,6.916345214843751
13.536000000000053,7.911956787109376,-1.1330352783203126,8.210430908203126
13.54600000000005,6.323883056640626,-0.20635986328125,9.068469238281253
13.556000000000031,5.731271362304688,-0.5535827636718751,7.361962890625
13.566000000000024,7.377365112304688,-1.6109527587890626,6.707443237304688
13.576000000000016,6.827969360351563,0.3701019287109375,5.345916748046875
13.586000000000006,7.375421142578125,0.1398162841796875,6.7004150390625
13.595999999999997,6.242236328125,-0.2824737548828125,8.76700439453125
13.605999999999987,4.769754028320313,0.7632324218750001,8.543746948242188
13.616000000000092,5.806488037109375,0.204864501953125,8.801547241210939
13.62600000000009,6.150421142578126,-0.3506622314453125,5.9134063720703125
13.636000000000074,4.881307983398438,0.8703002929687501,4.596890258789063
13.646000000000065,6.225936889648438,-0.0387298583984375,5.418890380859375
13.657000000000032,10.103857421875,0.726446533203125,10.329208374023438
13.667000000000025,11.55316162109375,1.4359954833984376,11.975900268554687
13.677000000000014,5.302102661132813,-0.517095947265625,7.873675537109375
13.687000000000005,-0.6144439697265626,-1.3205535888671875,3.588568115234376
13.696999999999996,2.78436279296875,-0.3581390380859375,4.978805541992188
13.706999999999988,8.331106567382813,-1.2498229980468751,8.844314575195312
13.717000000000091,12.248953247070313,-0.2899505615234375,11.40945739746094
13.72700000000009,8.117868041992189,1.1752044677734377,10.036416625976564
13.73700000000008,3.517987060546876,-0.1520782470703125,4.926617431640626
13.747000000000064,3.7110382080078126,0.25361328125,4.160394287109376
13.757000000000057,6.636413574218751,1.3271331787109375,4.742987060546875
13.767000000000046,10.293768310546875,0.212939453125,9.259875488281253
13.777000000000037,8.870782470703126,1.2060089111328125,11.099020385742188
13.787000000000027,3.6316345214843753,0.9263763427734376,8.347256469726563
13.797000000000018,3.1487823486328126,-0.8683563232421876,6.547140502929688
13.80700000000001,5.227633666992188,-0.3518585205078125,4.8512512207031255
13.817000000000007,8.125344848632814,0.069085693359375,5.879611206054688
13.826999999999998,10.76480712890625,-1.3017120361328125,8.168261718750001
13.83800000000008,6.861614990234376,-0.1048248291015625,8.815753173828126
13.848000000000065,5.225241088867188,-0.8765808105468751,7.613034057617188
13.858000000000054,4.070672607421876,-1.5906158447265626,7.170407104492188
13.868000000000045,4.785604858398438,0.196490478515625,5.899649047851563
13.878000000000036,7.722793579101563,0.6032287597656251,8.309872436523438
13.888000000000028,7.031936645507813,0.4095794677734375,8.804238891601564
13.898000000000016,6.232516479492188,1.5331939697265626,8.473464965820312
13.908000000000008,5.943612670898438,0.5015441894531251,7.496994018554688
13.918,6.600823974609376,0.276043701171875,5.087368774414063
13.92799999999999,7.5159851074218755,1.1722137451171877,6.192440795898438
13.937999999999974,7.431198120117188,0.128302001953125,7.097134399414063
13.948000000000086,5.8127685546875005,-0.2477813720703125,9.059048461914063
13.959000000000051,5.1971282958984375,-0.189312744140625,9.14383544921875
13.969000000000044,5.039068603515625,-1.248626708984375,7.558901977539063
13.979000000000037,6.910064697265626,-0.9411804199218752,6.5499816894531255
13.989000000000026,7.670605468750001,-0.2594451904296875,6.335995483398438
13.999000000000017,5.439376831054688,-0.3721954345703125,6.096588134765625
14.009000000000007,3.507220458984375,0.28890380859375,5.246774291992188
14.018999999999998,8.413052368164063,1.2652252197265623,9.685604858398438
14.02899999999999,13.814895629882814,0.186920166015625,11.811111450195312
14.038999999999971,6.176290893554688,-0.03887939453125,7.629931640625
14.049000000000085,0.2667724609375,-0.241949462890625,3.9046875
14.059000000000076,1.6815338134765627,0.7122406005859375,5.771945190429688
14.069000000000068,7.521069335937501,0.9455169677734376,8.638104248046876
14.080000000000034,11.526544189453126,0.584686279296875,10.908511352539064
14.089000000000048,9.070263671875,0.002691650390625,9.488366699218751
14.100000000000016,4.466195678710938,-1.3553955078125002,5.695980834960938
14.110000000000008,2.9472076416015627,-1.1357269287109375,4.409521484375
14.119999999999996,6.38040771484375,-0.273052978515625,5.290737915039063
14.129999999999988,9.596331787109376,-0.36546630859375,8.521017456054688
14.13999999999998,9.640594482421877,-0.4822540283203125,9.917086791992189
14.150000000000084,5.1388092041015625,-0.011065673828125,9.264959716796875
14.160000000000077,2.621368408203125,-0.4634124755859375,6.199319458007813
14.170000000000066,4.624554443359376,0.5942565917968751,5.685064697265625
14.180000000000057,8.087063598632813,1.4090789794921876,5.501882934570313
14.190000000000047,10.135110473632814,0.7014739990234375,7.493255615234376
14.200000000000038,8.08212890625,0.6709686279296876,9.012393188476564
14.21000000000003,4.499990844726563,0.514105224609375,7.999285888671875
14.22000000000002,3.183624267578125,-0.3552978515625,7.512097167968751
14.230000000000013,5.241091918945313,0.255108642578125,6.7593322753906255
14.241000000000092,6.911560058593751,0.183929443359375,7.486825561523438
14.25100000000009,8.538812255859376,-0.9413299560546876,8.314956665039062
14.261000000000074,6.492559814453125,-0.4161590576171875,8.294171142578126
14.271000000000065,5.697625732421876,-0.5803497314453125,7.030291748046875
14.281000000000056,6.645086669921875,-0.853253173828125,6.322836303710938
14.291000000000048,6.931149291992188,0.3554473876953125,5.796170043945313
14.301000000000036,7.835693359375001,0.1251617431640625,7.299606323242188
14.311000000000028,5.865255737304688,0.253314208984375,9.041104125976563
14.32100000000002,4.639508056640626,0.7107452392578125,8.496194458007814
14.331000000000005,5.195782470703126,0.297576904296875,8.417837524414063
14.341000000000008,6.008062744140625,-0.1173858642578125,5.175595092773438
14.351,5.262176513671875,0.6213226318359375,4.639208984375
14.360999999999985,8.262170410156251,0.5516387939453126,7.093096923828125
14.372000000000064,11.4748046875,1.1542694091796877,11.653350830078123
14.382000000000057,7.913153076171875,0.786260986328125,9.917236328125
14.392000000000046,2.229733276367188,-1.2212615966796876,5.227932739257813
14.402000000000037,1.7087493896484376,-1.454837036132813,4.483990478515626
14.412000000000027,6.53592529296875,-1.2139343261718751,7.082778930664063
14.422000000000018,9.47864685058594,-1.2907958984375,10.378405761718753
14.43200000000001,9.373522949218753,0.493768310546875,10.900137329101565
14.442000000000007,5.305392456054688,0.8372528076171876,7.746719360351563
14.451999999999998,4.183123779296875,-0.29010009765625,3.845620727539063
14.464000000000048,6.445755004882813,0.7977752685546876,4.523019409179688
14.472000000000088,8.422024536132813,1.09639892578125,6.5873657226562505
14.482000000000076,8.88782958984375,0.700726318359375,10.159933471679688
14.492000000000068,5.711682128906251,1.69454345703125,10.121203613281253
14.503000000000036,3.511407470703125,-0.1090118408203125,7.247119140625
14.512000000000056,4.872186279296876,-0.875982666015625,5.8142639160156255
14.523000000000016,7.236203002929688,-0.176153564453125,5.303448486328126
14.533000000000008,8.384790039062501,-0.536834716796875,6.906924438476563
14.543,8.764462280273438,-1.208251953125,8.775079345703126
14.55299999999999,5.517733764648438,-0.258099365234375,8.310919189453125
14.564000000000078,5.136566162109375,-1.3764801025390625,7.299307250976563
14.573000000000086,5.177838134765626,-0.7253997802734375,6.901840209960938
14.583000000000077,5.680429077148438,0.9136657714843752,6.818548583984375
14.593000000000067,7.297811889648438,0.495562744140625,8.439520263671875
14.603000000000058,6.381454467773438,1.018191528320313,8.717807006835939
14.61300000000005,6.478652954101563,1.4691925048828125,7.462152099609375
14.62300000000004,6.820642089843751,0.3010162353515625,6.9612060546875005
14.633000000000033,6.810174560546876,0.7585968017578125,5.140155029296875
14.643999999999998,6.928756713867188,0.7065582275390625,7.23216552734375
14.653000000000011,6.468933105468751,-0.5752655029296876,7.895507812500001
14.663999999999971,5.337692260742188,-0.23626708984375,9.096133422851564
14.674000000000085,5.916995239257813,-0.7557556152343751,8.280413818359376
14.684000000000076,6.17344970703125,-1.4675476074218752,6.749761962890625
14.694000000000068,5.723196411132813,-0.28531494140625,5.278176879882813
14.704000000000056,3.512603759765625,0.08912353515625,3.493612670898438
14.714000000000048,9.232958984375,0.4222900390625,9.377859497070313
14.72400000000004,15.315490722656252,0.6282012939453125,15.569403076171875
14.734000000000025,4.0255126953125,-0.19678955078125,7.06767578125
14.74400000000002,0.21712646484375,-1.5119598388671875,2.989825439453125
14.754000000000012,2.684173583984375,1.3540496826171875,4.149627685546875
14.76400000000001,7.751803588867188,1.4252288818359375,6.301901245117188
14.773999999999994,12.7560302734375,0.8694030761718751,13.174880981445314
14.783999999999985,7.072311401367188,1.2266448974609376,11.4879638671875
14.79400000000009,3.154464721679688,-1.6985809326171877,6.910961914062501
14.805000000000057,3.454733276367188,-2.069281005859376,4.120318603515625
14.815000000000047,6.098382568359376,1.0048828125,2.704510498046876
14.825000000000038,11.550918579101562,-0.487786865234375,7.79202880859375
14.83500000000003,10.040603637695312,-0.9742279052734376,10.660580444335938
14.84500000000002,4.471279907226563,0.3404937744140625,9.98706970214844
14.855000000000013,2.8220458984375,-1.7346191406250002,7.397103881835938
14.865000000000007,3.605764770507813,0.2023223876953125,4.993609619140625
14.875,8.076296997070314,2.2844635009765626,4.76123046875
14.884999999999984,10.136306762695312,-0.01016845703125,7.852142333984376
14.895000000000088,7.800552368164063,0.8794219970703125,8.807528686523439
14.90500000000008,5.135519409179688,1.0436126708984377,8.881549072265626
14.91500000000007,3.667074584960938,-0.7274932861328125,6.961654663085938
14.92500000000006,6.200515747070313,0.6919036865234376,6.20096435546875
14.935000000000052,6.502728271484376,0.7524658203125001,7.028347778320313
14.94600000000002,7.422674560546875,-1.3271331787109375,8.132672119140626
14.956000000000005,5.838937377929688,-0.04366455078125,9.517077636718753
14.966000000000008,5.6228576660156255,-0.6268554687500001,7.843319702148438
14.976,7.1873046875,-1.5152496337890626,6.183319091796876
14.985999999999985,7.737896728515626,0.4385894775390625,5.375674438476563
14.996000000000087,7.553817749023438,0.2609405517578125,6.3765197753906255
15.006000000000078,5.871237182617188,-0.2962310791015625,8.643338012695313
15.017000000000046,4.604217529296875,0.8320190429687501,8.920877075195314
15.026000000000051,5.549884033203125,0.175555419921875,8.900241088867189
15.036000000000053,6.810772705078126,-0.238958740234375,6.325827026367188
15.04600000000005,6.114682006835938,1.1662322998046877,5.867947387695313
15.056000000000031,4.5212249755859375,-0.22490234375,3.914556884765626
15.067000000000007,6.720602416992188,-0.064599609375,7.584921264648438
15.076000000000016,13.102804565429688,1.4925201416015623,12.830200195312502
15.086999999999982,8.57559814453125,0.2241546630859375,9.7007080078125
15.097000000000088,1.8898376464843751,-0.7070068359375,5.457171630859375
15.107000000000076,0.174359130859375,0.08194580078125,3.950445556640626
15.117000000000068,4.962655639648438,-1.56953125,6.561047363281251
15.12700000000006,12.304431152343753,-1.2730010986328126,10.868884277343753
15.137000000000056,10.027294921875,0.5860321044921876,10.87232360839844
15.147000000000048,5.901144409179688,0.162396240234375,6.949093627929688
15.157000000000032,2.8682525634765628,0.212640380859375,5.051629638671876
15.167000000000025,3.9052856445312494,0.9912750244140626,3.3452728271484378
15.177000000000014,9.548181152343751,0.0610107421875,8.144186401367188
15.187000000000005,9.812112426757814,0.7155303955078125,9.936077880859376
15.196999999999996,6.543252563476563,1.4712860107421877,9.707437133789064
15.206999999999988,3.587969970703125,-0.41630859375,7.612884521484376
15.217000000000091,3.320449829101563,-0.4149627685546875,4.9469543457031255
15.228000000000058,6.9958984375,-0.033197021484375,5.4299560546875005
15.23800000000005,9.85263671875,-1.11434326171875,7.01683349609375
15.24800000000004,8.288040161132812,-0.078656005859375,8.69403076171875
15.258000000000033,6.536224365234376,-0.268865966796875,9.095086669921876
15.268000000000022,3.3651611328125,-1.272402954101563,7.175640869140626
15.278000000000011,4.75225830078125,-0.2947357177734375,6.3525939941406255
15.288000000000004,6.628338623046876,0.4242340087890625,6.960458374023438
15.297999999999996,7.336093139648438,0.410626220703125,7.928555297851563
15.307999999999986,7.553070068359376,1.0374816894531251,9.021963500976565
15.318000000000085,5.520574951171875,0.9224884033203126,8.231216430664062
15.328000000000088,6.106158447265625,0.1362274169921875,5.776132202148438
15.33800000000008,6.889727783203125,0.8393463134765625,6.553271484375
15.348000000000065,7.209136962890626,0.3138763427734375,5.630932617187501
15.358000000000054,7.020721435546876,-0.4188507080078125,9.025103759765626
15.36900000000002,5.4598632812500005,-0.1903594970703125,8.608346557617189
15.379000000000012,4.922579956054688,-0.5450592041015625,8.589056396484375
15.38900000000001,6.53592529296875,-1.0675384521484377,6.896307373046875
15.398999999999994,6.392669677734376,-0.1218719482421875,5.794076538085938
15.408999999999985,3.8729858398437504,0.013458251953125,3.542959594726563
15.41900000000009,6.7533508300781255,0.4801605224609375,6.887783813476563
15.429000000000087,14.128472900390626,0.96241455078125,14.918023681640626
15.439000000000078,8.158242797851564,-0.0623565673828125,9.318194580078126
15.449000000000062,0.9434234619140626,-1.4536407470703123,4.574758911132813
15.459000000000051,1.6181304931640623,0.404046630859375,3.5975402832031254
15.469000000000044,5.576950073242188,1.0658935546875,6.335397338867188
15.480999999999987,11.429046630859377,0.931011962890625,11.000476074218753
15.490000000000007,9.522610473632811,1.0495941162109377,11.690884399414063
15.5,4.930206298828125,-0.9607696533203126,7.770196533203125
15.509999999999984,3.3988067626953127,-2.128347778320313,4.119869995117188
15.520000000000088,4.676892089843751,0.569134521484375,3.9658477783203128
15.53000000000008,9.836038208007814,-0.212042236328125,6.32657470703125
15.54000000000007,9.885235595703126,-0.5130584716796875,10.419528198242189
15.55000000000006,6.726434326171876,0.09031982421875,9.911404418945311
15.560000000000052,3.0007415771484376,-0.93250732421875,8.144335937500001
15.57000000000005,3.5039306640625,-0.5205352783203125,4.960861206054688
15.581000000000005,6.998739624023438,1.857687377929688,5.280569458007813
15.590000000000025,9.32447509765625,0.304754638671875,6.573010253906251
15.600000000000016,8.912203979492189,0.5067779541015626,8.84595947265625
15.610000000000008,5.665325927734376,1.0163970947265626,9.438720703125
15.619999999999996,3.6050170898437504,-0.3799713134765625,7.0225158691406255
15.629999999999988,5.051480102539063,0.18602294921875,7.137808227539063
15.63999999999998,6.507363891601563,0.934002685546875,6.015390014648438
15.651000000000051,7.593295288085938,-0.7777374267578125,8.178729248046876
15.661000000000053,7.349102783203126,-0.3539520263671875,8.644683837890625
15.67100000000005,5.2345123291015625,-0.1601531982421875,8.214318847656251
15.681000000000031,6.850698852539063,-1.4377899169921875,6.528747558593751
15.691000000000024,7.090554809570313,0.0035888671875,6.061447143554688
15.701000000000016,6.910662841796875,0.5061798095703125,5.784207153320313
15.711000000000006,7.168164062500001,-0.5025909423828125,8.759228515625
15.720999999999997,4.380361938476563,0.7736999511718751,8.730816650390626
15.730999999999987,5.726486206054688,0.203369140625,8.5905517578125
15.741000000000092,6.385342407226563,-0.3422882080078125,7.28958740234375
15.75200000000006,5.975015258789063,0.6670806884765625,4.67449951171875
15.762000000000056,4.843923950195313,0.041571044921875,4.799810791015625
15.772000000000048,7.745223999023438,0.0578704833984375,7.583575439453125
15.782000000000032,11.845504760742188,1.61678466796875,12.132763671875
15.792000000000025,8.873922729492188,0.420196533203125,10.384686279296876
15.802000000000014,1.533642578125,-0.79971923828125,5.001535034179688
15.812000000000005,0.20516357421875,-0.4918243408203125,4.148580932617188
15.821999999999996,5.875424194335938,-1.5004455566406252,6.670657348632813
15.831999999999988,10.963540649414064,-1.1243621826171877,10.776321411132812
15.842000000000091,10.910754394531253,0.7527648925781251,10.948138427734376
15.85200000000009,5.3306640625,0.533544921875,7.467086791992188
15.86200000000008,3.287103271484375,0.0213836669921875,4.031942749023438
15.872000000000064,4.71756591796875,0.7046142578125001,4.260583496093751
15.882000000000057,8.570663452148438,0.1864715576171875,6.761425781250001
15.892000000000046,10.22049560546875,0.73272705078125,10.816995239257814
15.903000000000011,6.165823364257813,1.5387268066406252,9.8586181640625
15.913000000000004,3.428115844726563,-0.26497802734375,7.283306884765626
15.922999999999996,3.9112670898437503,-0.4701416015625,5.597735595703125
15.932999999999986,6.6525634765625,-0.149835205078125,4.783660888671875
15.943000000000085,9.507058715820314,-0.68427734375,7.321139526367188
15.953000000000088,9.095086669921876,-0.38341064453125,8.74906005859375
15.96300000000008,5.4902191162109375,-0.0916656494140625,8.646029663085939
15.973000000000065,4.847064208984375,-1.4830993652343751,7.476806640625001
15.983000000000054,4.135272216796875,-0.49705810546875,6.359771728515626
15.993000000000045,6.297564697265625,0.4667022705078125,6.560897827148438
16.003000000000036,7.832702636718751,0.1718170166015625,8.6037109375
16.013000000000027,6.5155883789062505,1.1279510498046876,8.728872680664063
16.023000000000017,6.436035156250001,0.8873474121093751,8.177233886718751
16.03300000000001,5.9084716796875005,0.2397064208984375,6.580337524414063
16.043,6.8415771484375005,0.7405029296875001,4.970281982421875
16.054000000000087,7.541705322265625,0.5130584716796875,7.161734008789063
16.064000000000078,6.708489990234376,-0.3680084228515625,7.5982299804687505
16.074000000000062,5.462704467773438,0.1377227783203125,9.58631286621094
16.084000000000053,5.399151611328126,-0.72315673828125,8.213870239257814
16.094000000000044,5.747720336914063,-0.9664520263671876,6.8894287109375005
16.104000000000035,6.145336914062501,-0.4496551513671875,5.379861450195313
16.114000000000026,3.863265991210938,-0.399560546875,3.8462188720703128
16.124000000000017,10.218551635742188,0.23387451171875,10.599420166015626
16.134000000000007,12.588699340820314,0.46416015625,12.702496337890626
16.144,3.329122924804688,-0.8451782226562501,6.003277587890626
16.15399999999999,3.2265411376953126,-0.8040557861328126,4.435690307617188
16.163999999999973,3.6144378662109378,1.68916015625,5.0665832519531255
16.174000000000085,7.391571044921876,1.6943939208984375,7.5760986328125
16.184000000000076,9.906170654296876,1.3558441162109376,12.714907836914064
16.19500000000005,5.740841674804688,0.6717163085937501,9.716558837890624
16.205000000000034,5.266213989257813,-1.992718505859375,6.558505249023438
16.215000000000025,5.101724243164063,-0.7559051513671875,4.138562011718751
16.225000000000016,7.242184448242188,0.90858154296875,3.6663269042968754
16.235000000000007,10.277917480468751,-0.8469726562500001,8.852389526367189
16.247000000000064,7.4397216796875005,-0.6750061035156251,9.666763305664062
16.25499999999999,4.6000305175781255,-0.3648681640625,9.673193359375
16.26499999999998,3.781768798828125,-1.7401519775390626,6.952084350585938
16.275000000000084,4.857830810546876,0.8860015869140626,5.199819946289063
16.285000000000075,8.832501220703126,1.1653350830078126,5.872433471679688
16.295000000000066,8.632122802734376,0.08553466796875,7.502227783203126
16.305000000000057,7.318746948242188,1.2587951660156251,8.420529174804688
16.315000000000047,5.417694091796875,0.6153411865234375,8.146279907226564
16.32500000000004,4.482046508789063,-0.4062896728515625,7.087265014648438
16.33500000000003,5.990118408203125,0.8779266357421875,6.874774169921875
16.34500000000002,5.681027221679688,0.11484375,7.860665893554688
16.35500000000001,6.915298461914063,-0.6809875488281251,8.084072875976563
16.366000000000092,6.170758056640626,0.007476806640625,9.141741943359376
16.37600000000009,6.653311157226563,-1.1152404785156251,6.592449951171876
16.386000000000074,7.771542358398438,-0.9677978515625,6.420782470703125
16.396000000000065,7.118966674804688,0.4607208251953125,5.55137939453125
16.406000000000056,6.806735229492188,-0.1296478271484375,7.280764770507813
16.416000000000047,5.471676635742188,-0.077459716796875,8.536120605468751
16.426000000000037,5.264419555664063,0.4581787109375,8.950485229492188
16.43600000000003,5.859423828125,-0.0587677001953125,8.06239013671875
16.44600000000002,6.272592163085938,0.119927978515625,6.115878295898438
16.456000000000003,4.64818115234375,0.609808349609375,4.651022338867188
16.466000000000008,5.663830566406251,-0.194097900390625,5.009161376953125
16.476,12.811358642578126,1.3539001464843752,13.446588134765626
16.485999999999983,9.80777587890625,1.331170654296875,10.123297119140624
16.496000000000087,2.0712249755859378,-0.8973663330078125,5.601324462890625
16.507000000000055,1.4941650390625,-0.23626708984375,4.150225830078125
16.517000000000046,4.43883056640625,-0.8299255371093751,5.360720825195313
16.527000000000037,10.471417236328126,-1.7410491943359376,10.181167602539062
16.537000000000027,10.581475830078126,0.2693145751953125,11.838327026367187
16.54700000000002,4.716668701171876,1.015350341796875,8.280563354492188
16.55700000000001,4.4804016113281255,-0.7953826904296876,5.15899658203125
16.567000000000007,4.126599121093751,0.852056884765625,3.5722686767578127
16.576999999999998,8.880950927734375,0.4858428955078125,5.636166381835938
16.586999999999982,10.340573120117188,-0.1852752685546875,10.4089111328125
16.598000000000063,6.066830444335938,1.9610168457031247,9.9638916015625
16.607000000000077,4.127944946289063,0.1786956787109375,8.26336669921875
16.618000000000045,3.442770385742188,-1.0847351074218752,5.889031982421876
16.62700000000006,6.506765747070313,0.4101776123046875,4.467840576171875
