time,ax,ay,az
0.0,6.098233032226563,-0.106768798828125,7.445404052734376
0.0099999999999909,5.857330322265625,-0.5386291503906251,6.44261474609375
0.0199999999999747,6.643441772460938,-0.4062896728515625,6.804043579101563
0.0299999999999798,7.025057983398438,-0.101983642578125,11.032177734375
0.0399999999999707,3.936987304687501,-0.129498291015625,9.844412231445313
0.0499999999999545,2.6280975341796875,0.4006072998046875,8.161233520507814
0.0599999999999454,6.247769165039063,0.7734008789062501,7.13646240234375
0.0699999999999363,8.9781494140625,0.2735015869140625,5.935238647460938
0.0799999999999272,8.866744995117188,0.511114501953125,6.451138305664063
0.0899999999999181,6.6636291503906255,0.75186767578125,8.437725830078126
0.100999999999999,4.122561645507813,0.1601531982421875,8.312265014648439
0.11099999999999,3.506024169921876,0.15731201171875,8.386883544921876
0.1209999999999809,5.351300048828126,0.3656158447265625,7.790682983398438
0.1309999999999789,6.534429931640625,0.40972900390625,7.608847045898438
0.1409999999999698,6.467886352539063,0.5819946289062501,7.272540283203125
0.1509999999999536,5.661288452148438,0.387896728515625,8.146878051757813
0.1609999999999445,5.802749633789063,-0.5519378662109375,8.256488037109376
0.1709999999999354,5.520275878906251,-0.8454772949218751,7.135415649414063
0.1809999999999263,6.223992919921876,-0.9960601806640624,7.91165771484375
0.1909999999999172,6.430203247070313,-0.9953125,8.279067993164062
0.2009999999999081,5.857330322265625,-0.7167266845703125,8.464343261718751
0.2110000000000198,6.320443725585938,-0.28172607421875,8.330807495117188
0.2210000000000036,6.560598754882813,0.311932373046875,7.833749389648438
0.2319999999999709,6.724789428710938,0.992620849609375,7.232315063476563
0.2419999999999618,6.537121582031251,1.3927795410156252,6.732266235351563
0.2519999999999527,5.556912231445313,1.1889617919921875,7.521368408203125
0.2619999999999436,4.9777587890625,1.3728912353515623,8.057156372070313
0.2719999999999416,4.516140747070313,0.82962646484375,8.597131347656251
0.2819999999999254,5.132528686523438,0.2474822998046875,7.93199462890625
0.2919999999999163,5.594146728515625,-0.7285400390625001,7.1454345703125
0.3019999999999072,5.960211181640625,-1.250421142578125,6.727481079101563
0.3120000000000118,7.496096801757813,-0.7191192626953126,9.052618408203124
0.3220000000000027,5.79063720703125,-0.8178131103515626,9.04080505371094
0.3319999999999936,4.926318359375,-0.9975555419921877,7.918984985351563
0.3419999999999845,5.60281982421875,0.261090087890625,8.599822998046875
0.3519999999999754,6.142794799804688,0.26497802734375,7.783056640625
0.3619999999999663,5.957669067382813,0.8671600341796876,7.255194091796875
0.3719999999999572,6.053970336914063,1.3876953125,8.3166015625
0.3829999999999245,5.59683837890625,1.1360260009765626,7.42716064453125
0.3929999999999154,5.7338134765625,0.4837493896484375,7.330859375
0.4029999999999063,6.12200927734375,0.1936492919921875,7.207192993164063
0.4130000000000109,6.417791748046875,-0.4880859375,7.361215209960938
0.4229999999999947,6.046194458007813,-1.042117309570313,8.019174194335939
0.4329999999999927,5.970379638671876,-0.7699615478515626,8.023959350585939
0.4429999999999836,6.080587768554688,-0.9165069580078126,8.514288330078125
0.4529999999999816,6.062493896484376,-0.46954345703125,7.575201416015625
0.4629999999999654,5.884695434570313,0.4024017333984375,8.246020507812501
0.4729999999999563,6.046942138671875,0.805401611328125,8.051922607421876
0.4829999999999472,5.3062896728515625,1.113446044921875,7.928405761718751
0.4929999999999381,5.69852294921875,1.2981231689453123,7.7791687011718755
0.5029999999999291,6.029446411132813,1.0184906005859375,7.260876464843751
0.51299999999992,6.306536865234375,0.5685363769531251,7.2267822265625
0.5229999999999109,6.525009155273438,0.369952392578125,7.5877624511718755
0.5339999999999918,6.08970947265625,-0.34034423828125,7.889376831054688
0.5439999999999827,6.071017456054688,-0.5299560546875001,8.288787841796875
0.5539999999999807,5.913705444335938,-0.716278076171875,7.956817626953126
0.5639999999999716,5.744729614257813,-1.0154998779296875,8.100222778320314
0.5739999999999554,5.87138671875,-0.8758331298828126,7.841525268554688
0.5839999999999463,5.025909423828125,-0.2968292236328125,8.090951538085939
0.5939999999999372,5.9253692626953125,-0.2106964111328125,7.957864379882813
0.6039999999999281,5.686260986328126,0.2696136474609375,7.91763916015625
0.613999999999919,6.066979980468751,0.60352783203125,7.641744995117188
0.62399999999991,6.123504638671875,0.75784912109375,7.569369506835938
0.6340000000000217,5.924023437500001,1.0364349365234375,7.931546020507813
0.6440000000000055,5.91864013671875,1.1116516113281252,7.474713134765626
0.6539999999999964,5.663531494140625,0.8061492919921875,7.840777587890625
0.6639999999999873,4.977310180664063,0.668426513671875,5.973519897460938
0.6739999999999782,5.487377929687501,0.5520874023437501,8.682666015625001
0.6849999999999454,6.291583251953125,0.1553680419921875,10.01832275390625
0.6949999999999363,5.209988403320313,-0.39716796875,8.668310546875
0.7049999999999272,5.445507812500001,-0.5713775634765625,7.896255493164063
0.7149999999999181,6.881802368164063,-1.130792236328125,5.8797607421875
0.724999999999909,6.968832397460938,-0.5274139404296876,7.200613403320313
0.7350000000000207,7.262969970703126,-0.189312744140625,8.314358520507813
0.7450000000000045,5.098434448242188,-0.3940277099609375,9.557302856445313
0.7549999999999955,4.907028198242188,-0.00478515625,8.358621215820314
0.7649999999999864,4.751809692382813,0.6645385742187501,7.629483032226563
0.7749999999999773,6.248666381835938,0.9555358886718752,6.475363159179688
0.7849999999999682,6.812417602539063,1.7144317626953127,7.1541076660156255
0.7949999999999591,6.641049194335938,1.2511688232421876,7.314709472656251
0.80499999999995,6.513494873046875,1.0792022705078126,8.126242065429688
0.8159999999999172,5.7338134765625,0.032598876953125,7.497442626953125
0.8269999999999982,5.204006958007813,-0.497955322265625,7.507760620117188
0.8360000000000198,5.8474609375,-1.1934478759765623,8.216412353515626
0.8460000000000036,4.745678710937501,-1.1938964843750002,8.7269287109375
0.8559999999999945,5.675344848632813,-1.3247406005859377,8.827716064453126
0.8659999999999854,5.632427978515626,-1.0726226806640626,8.4888671875
0.8759999999999764,6.782958984375001,-0.5719757080078125,7.278671264648438
0.8859999999999673,7.357925415039063,0.10048828125,6.983187866210938
0.8959999999999582,7.510302734375,0.7632324218750001,7.303494262695313
0.9059999999999492,6.48209228515625,1.4766693115234375,7.630828857421876
0.91599999999994,4.758688354492188,1.621270751953125,8.507559204101563
0.9269999999999072,4.070672607421876,1.44691162109375,7.934088134765625
0.9359999999999148,4.442568969726563,1.239505004882813,8.19278564453125
0.9470000000000028,5.4498443603515625,0.76502685546875,7.622305297851563
0.9569999999999936,6.341827392578126,0.27335205078125,7.505966186523438
0.9669999999999844,7.012197875976563,-0.3503631591796875,7.912854003906251
0.9769999999999754,6.61368408203125,-0.7745971679687501,6.990814208984376
0.9869999999999663,6.115280151367188,-1.621868896484375,7.0105529785156255
0.9969999999999573,5.893817138671875,-1.98524169921875,6.122308349609376
1.0069999999999482,6.4611572265625,-1.2670196533203126,10.493997192382814
1.016999999999939,4.64219970703125,-0.277838134765625,10.001425170898438
1.0279999999999063,3.388787841796875,-0.1607513427734375,9.093591308593751
1.0369999999999209,5.1069580078125005,1.3244415283203126,8.410659790039062
1.0469999999999118,7.0856201171875,0.9894805908203126,6.7174621582031255
1.0570000000000164,7.392916870117188,1.5568206787109375,6.12320556640625
1.0670000000000073,7.605407714843751,1.9343994140625,7.2770263671875
1.0769999999999982,5.121163940429688,1.4198455810546875,7.640249633789063
1.086999999999989,5.288644409179688,0.51978759765625,7.985079956054688
1.0979999999999563,5.08482666015625,-0.00777587890625,7.797113037109375
1.1079999999999472,5.947650146484375,-1.0140045166015623,8.111886596679689
1.1179999999999382,6.092999267578126,-1.0956512451171876,8.150167846679688
1.127999999999929,5.644839477539063,-1.0654449462890625,8.240039062500001
1.13799999999992,6.620861816406251,-1.0827911376953123,7.7232421875
1.1479999999999109,6.372332763671875,-0.8987121582031251,6.750360107421876
1.1580000000000157,6.952233886718751,-0.504833984375,6.967935180664063
1.1680000000000064,6.856829833984375,-0.030206298828125,7.9451538085937505
1.1779999999999973,5.010357666015626,0.6455474853515626,8.908016967773438
1.1879999999999882,4.771697998046875,1.2208129882812502,9.021066284179687
1.197999999999979,3.9926147460937504,1.1159881591796876,8.737994384765626
1.20799999999997,5.508612060546875,1.0184906005859375,7.09459228515625
1.217999999999961,6.622506713867188,0.8897399902343751,7.021618652343751
1.228999999999928,7.163079833984376,0.402252197265625,6.90079345703125
1.238999999999919,7.106704711914063,0.331671142578125,7.610940551757813
1.24899999999991,6.439324951171876,-0.30325927734375,8.071661376953125
1.2590000000000217,5.643194580078125,-0.6658843994140625,7.725335693359375
1.2690000000000057,5.1388092041015625,-0.5639007568359375,8.506362915039062
1.2799999999999798,4.77020263671875,-0.5628540039062501,8.400042724609376
1.2889999999999873,5.4072265625,-0.187518310546875,8.49305419921875
1.2989999999999782,5.688055419921875,0.4625152587890625,8.18201904296875
1.308999999999969,6.5559631347656255,0.8540008544921875,7.306036376953125
1.31899999999996,6.76561279296875,0.6745574951171875,7.148574829101563
1.3289999999999509,6.390576171875001,0.6222198486328125,6.652713012695313
1.338999999999949,5.917144775390625,0.1906585693359375,7.5641357421875
1.3489999999999398,5.2834106445312505,0.351409912109375,7.433889770507813
1.3589999999999236,3.7431884765625,0.122021484375,6.920980834960938
1.3689999999999145,8.266806030273438,0.093609619140625,12.355572509765626
1.3789999999999054,5.113836669921875,-0.1822845458984375,8.328564453125
1.3899999999999864,3.402096557617188,-0.5804992675781251,6.696078491210938
1.3999999999999773,6.117373657226563,-0.104376220703125,6.820791625976563
1.4099999999999682,6.74766845703125,-0.3168670654296875,6.753948974609376
1.419999999999959,8.277273559570313,0.19439697265625,8.842221069335938
1.42999999999995,6.5918518066406255,0.1111053466796875,9.97391052246094
1.4399999999999409,3.939080810546875,0.2112945556640625,7.364804077148438
1.4499999999999318,5.4849853515625,-0.244342041015625,7.410861206054688
1.4599999999999227,5.033236694335938,0.4622161865234375,6.004473876953125
1.4699999999999136,7.606753540039063,0.6395660400390626,8.405725097656251
1.4799999999999045,6.395510864257813,0.072076416015625,8.2974609375
1.490000000000009,5.529995727539063,-0.0605621337890625,8.829360961914062
1.5,5.429058837890626,-0.3342132568359375,7.192987060546876
1.509999999999991,5.227185058593751,-0.5902191162109376,7.019674682617188
1.5199999999999747,7.214968872070313,0.291595458984375,6.462054443359375
1.530999999999949,7.027301025390625,-0.1598541259765625,8.524755859375
1.54099999999994,6.329266357421876,-0.3289794921875,7.684661865234376
1.5509999999999309,5.5585571289062505,0.05263671875,9.16177978515625
1.560999999999915,4.368997192382813,-0.3363067626953125,7.402487182617188
1.570999999999913,5.350701904296876,0.5704803466796875,8.14912109375
1.5810000000000173,5.6644287109375,0.8148223876953126,7.959808349609376
1.5910000000000082,5.935537719726563,0.9535919189453126,8.148074340820314
1.600999999999999,6.496597290039063,0.9902282714843752,8.04444580078125
1.61099999999999,5.63870849609375,1.2798797607421877,7.84287109375
1.620999999999981,6.498989868164063,0.628948974609375,6.653012084960938
1.630999999999979,6.170309448242188,0.7230072021484375,7.731018066406251
1.6409999999999698,5.838339233398438,0.182733154296875,7.176837158203125
1.6509999999999536,5.586520385742188,-0.3766815185546875,9.00147705078125
1.6619999999999209,5.118771362304688,-0.7433441162109375,8.172747802734376
1.6709999999999354,5.215371704101563,-0.9688446044921876,8.34052734375
1.6820000000000164,6.256442260742188,-1.24713134765625,7.595538330078125
1.6920000000000073,6.2314697265625005,-0.6555664062500001,7.091900634765626
1.7019999999999982,6.713574218750001,-0.4338043212890625,7.582379150390626
1.711999999999989,4.907925415039063,-0.3265869140625,7.155303955078126
1.72199999999998,4.195086669921875,0.2836700439453125,7.411309814453125
1.731999999999971,9.557452392578126,1.450799560546875,12.313552856445314
1.7439999999999145,5.841778564453126,1.4718841552734376,7.527349853515625
1.7519999999999527,3.498995971679688,0.5455078125,5.115780639648438
1.7619999999999436,5.08243408203125,1.0374816894531251,6.351248168945313
1.7719999999999416,5.861965942382813,0.657958984375,7.926910400390626
1.7819999999999254,7.97745361328125,0.5869293212890625,10.489212036132812
1.7919999999999163,5.79901123046875,-0.15013427734375,10.240682983398438
1.8019999999999072,4.667022705078125,-0.3443817138671875,6.2841064453125
1.812000000000012,5.814114379882813,-1.7757415771484375,6.395660400390626
1.822999999999979,5.916696166992188,-0.7880554199218751,5.41619873046875
1.83299999999997,7.841525268554688,-0.7168762207031251,9.228173828125
1.8439999999999368,6.309677124023438,-0.528759765625,9.534722900390626
1.8529999999999447,5.534182739257813,0.5873779296875,9.742877197265626
1.8629999999999427,4.579693603515626,0.4134674072265625,6.892419433593751
1.8729999999999407,5.4748168945312505,0.13218994140625,5.97366943359375
1.8829999999999243,7.132574462890625,1.454388427734375,5.734710693359375
1.892999999999916,7.129583740234375,0.7153808593750001,8.034426879882814
1.9029999999999063,6.771743774414063,0.7699615478515626,8.338433837890626
1.913000000000011,5.35997314453125,0.366961669921875,9.395355224609377
1.9229999999999947,4.1690673828125,-0.8438323974609375,7.274932861328126
1.9329999999999927,4.744482421875,-0.8254394531250001,7.854983520507813
1.94399999999996,5.108901977539063,-0.3772796630859375,8.425613403320312
1.9539999999999509,6.241339111328125,-0.7095489501953125,8.449090576171876
1.963999999999949,7.006365966796875,-0.284716796875,8.891268920898439
1.97399999999994,6.46414794921875,0.1553680419921875,7.054666137695313
1.983999999999924,6.559552001953126,0.1341339111328125,6.912606811523438
1.9939999999999145,6.027203369140626,0.9920227050781252,6.753799438476563
2.0039999999999054,5.4849853515625,1.705010986328125,8.046838378906251
2.01400000000001,5.897555541992188,0.9486572265625,8.903082275390625
2.024000000000001,4.6104980468750005,1.3000671386718752,8.567822265625
2.033999999999992,4.993908691406251,0.765325927734375,7.935733032226563
2.0439999999999827,5.990716552734376,0.1371246337890625,7.179678344726563
2.0539999999999807,6.476559448242188,0.0186920166015625,6.686657714843751
2.063999999999972,7.224987792968751,-0.3569427490234375,7.50133056640625
2.0739999999999554,6.097036743164063,-1.1772979736328126,7.128387451171876
2.0839999999999463,3.519183349609375,-0.689361572265625,6.853091430664063
2.0949999999999136,8.087811279296876,-1.2643280029296875,10.66775817871094
2.1049999999999045,6.976608276367188,-0.4400848388671875,11.402279663085938
2.115000000000009,3.2959259033203128,-0.2714080810546875,5.556463623046875
2.125,4.262677001953126,0.063104248046875,7.598379516601563
2.134999999999991,6.180328369140626,0.6353790283203126,5.785552978515625
2.1449999999999747,8.217010498046875,1.1390167236328126,9.14847106933594
2.15499999999998,7.335644531250001,0.725250244140625,9.28724060058594
2.1649999999999707,4.570272827148438,1.3731903076171876,8.291180419921876
2.1749999999999545,4.555319213867188,0.2271453857421875,6.808828735351563
2.184999999999945,5.453134155273438,0.309539794921875,6.141448974609376
2.1949999999999363,7.240689086914063,0.38819580078125,7.554266357421875
2.2049999999999272,6.988720703125001,-0.5007965087890626,9.039608764648438
2.214999999999918,5.909069824218751,-0.9543395996093752,8.650515747070314
2.224999999999909,4.695135498046875,-0.6757537841796876,8.369088745117189
2.2350000000000207,5.14464111328125,-1.2550567626953126,6.34093017578125
2.245999999999981,6.609048461914063,-0.105572509765625,6.936233520507813
2.255999999999979,7.631576538085938,0.133984375,7.568173217773438
2.26599999999997,6.7147705078125,0.18841552734375,8.331106567382813
2.2759999999999536,5.884396362304688,0.5127593994140626,8.823379516601562
2.2859999999999445,4.269107055664063,0.9453674316406252,7.850796508789063
2.2959999999999354,4.713528442382813,0.6412109375,7.437777709960938
2.3059999999999263,5.619866943359376,1.3986114501953126,7.771841430664063
2.315999999999917,5.664877319335938,0.7378112792968751,7.959808349609376
2.325999999999908,6.17943115234375,0.4012054443359375,8.497689819335939
2.33600000000002,5.888583374023438,0.09749755859375,8.048483276367188
2.346000000000004,6.115429687500001,-0.363671875,7.3096252441406255
2.3559999999999945,7.160687255859376,-0.813177490234375,6.983935546875
2.365999999999985,5.750262451171875,-0.393280029296875,7.248165893554688
2.3759999999999764,6.269302368164063,-0.8888427734375001,8.656796264648438
2.386999999999944,4.70440673828125,-0.4774688720703125,8.780462646484375
2.3969999999999416,5.131182861328125,-0.106170654296875,8.780612182617189
2.4069999999999254,6.02451171875,-0.020037841796875,7.527499389648438
2.4169999999999163,6.1895996093750005,0.4568328857421875,7.155752563476563
2.4269999999999072,6.628787231445313,1.1331848144531251,6.8729797363281255
2.437000000000012,5.98204345703125,0.6889129638671876,7.561444091796876
2.4470000000000027,3.937734985351563,0.4696929931640625,6.589907836914063
2.4569999999999936,4.367352294921876,0.606817626953125,7.306784057617188
2.4669999999999845,10.751199340820314,0.7077545166015625,12.96298828125
2.4769999999999754,6.751107788085938,0.30206298828125,7.564584350585938
2.4869999999999663,2.812176513671876,-1.4001068115234376,5.948248291015625
2.4969999999999573,3.5127532958984378,-0.5223297119140625,5.722598266601563
2.506999999999948,6.057708740234375,-0.1589569091796875,8.736349487304688
2.516999999999939,8.918484497070313,0.1392181396484375,10.513287353515626
2.5279999999999063,7.023861694335938,0.2944366455078125,10.534820556640623
2.538000000000011,4.028353881835938,0.43365478515625,6.462802124023438
2.5479999999999947,4.671209716796875,-0.7128387451171876,5.884396362304688
2.5579999999999927,5.8965087890625005,0.9541900634765624,5.02501220703125
2.567999999999984,8.351443481445314,0.8474212646484376,8.240188598632812
2.5779999999999816,7.5399108886718755,0.4079345703125,9.100320434570314
2.587999999999965,5.031591796875,0.926824951171875,9.970172119140626
2.5979999999999563,3.4227325439453127,-0.1236663818359375,7.253250122070313
2.6079999999999472,4.7734924316406255,-0.7508209228515625,6.3750244140625005
2.617999999999938,7.766906738281251,0.300567626953125,5.6542602539062505
2.627999999999929,8.283404541015626,-0.8833099365234376,7.974761962890626
2.63799999999992,7.067974853515626,-0.5967987060546875,8.791229248046875
2.647999999999911,3.997698974609375,0.0477020263671875,9.93323669433594
2.6580000000000155,3.168820190429688,-0.6551177978515625,8.163177490234375
2.6680000000000064,4.6842193603515625,0.0886749267578125,7.776776123046876
2.6789999999999807,6.053970336914063,1.1790924072265625,7.409664916992188
2.688999999999972,8.007809448242188,0.4616180419921875,7.537966918945313
2.6989999999999554,6.822286987304688,0.7434936523437501,7.911209106445313
2.7089999999999463,5.555117797851563,0.9410308837890624,7.441815185546876
2.718999999999937,5.7010650634765625,0.0524871826171875,7.354934692382813
2.728999999999928,5.8606201171875005,0.4583282470703125,7.358224487304688
2.738999999999919,5.929705810546875,0.4101776123046875,8.242880249023438
2.74899999999991,5.67938232421875,-0.7965789794921876,8.76820068359375
2.7590000000000217,4.757342529296875,-0.1556671142578125,8.613430786132813
2.769000000000005,5.199221801757813,-0.6162384033203125,8.080035400390626
2.7789999999999964,6.3917724609375,-0.7065582275390625,6.89481201171875
2.788999999999988,7.428207397460938,-0.0596649169921875,6.951336669921876
2.798999999999978,6.883148193359376,0.2141357421875,7.972369384765625
2.808999999999969,5.882302856445313,-0.0530853271484375,8.046688842773438
2.81899999999996,4.6094512939453125,0.9837982177734376,8.390322875976564
2.8299999999999272,3.561053466796875,0.9129180908203126,7.054067993164063
2.839999999999918,2.919992065429688,1.379022216796875,5.457919311523438
2.849999999999909,11.7296142578125,1.9321563720703123,12.1243896484375
2.8600000000000207,7.872927856445313,1.1402130126953125,8.997738647460938
2.8700000000000045,3.1655303955078127,-0.6951934814453126,6.557009887695313
2.8799999999999955,3.16298828125,-1.2538604736328125,5.83250732421875
2.8899999999999864,5.764468383789063,-1.7142822265625002,6.13157958984375
2.8999999999999773,9.42197265625,-1.4342010498046875,9.803738403320311
2.909999999999968,7.3694396972656255,-0.6721649169921875,10.932586669921877
2.919999999999959,4.472476196289063,-0.5576202392578126,8.922970581054688
2.92999999999995,4.3058929443359375,-1.3408905029296876,6.702209472656251
2.939999999999941,4.8068389892578125,-0.112750244140625,5.5675292968750005
2.950999999999908,7.69871826171875,1.3480682373046875,6.5173828125
2.96100000000002,7.525555419921876,1.29139404296875,8.54150390625
2.971000000000004,6.843222045898438,1.6314392089843752,8.622402954101563
2.9809999999999945,4.368399047851563,0.9954620361328126,8.2627685546875
2.990999999999985,4.716818237304688,0.1075164794921875,6.355734252929688
3.0009999999999764,5.9981933593750005,1.3280303955078123,6.904083251953126
3.010999999999968,6.772491455078126,0.3433349609375,7.837039184570313
3.020999999999958,6.626544189453125,-0.3841583251953125,8.847155761718751
3.030999999999949,4.775735473632813,-0.4595245361328125,9.696221923828126
3.04099999999994,3.817208862304688,-1.0383789062500002,7.945901489257813
3.050999999999931,5.608053588867188,-0.7672698974609375,7.5384155273437505
3.0609999999999147,6.73570556640625,-0.12381591796875,6.608898925781251
3.0709999999999127,8.040707397460938,-0.6497344970703125,7.45946044921875
3.0810000000000173,6.570169067382813,0.042767333984375,8.566177368164062
3.091000000000008,4.8905792236328125,0.9335540771484376,8.628384399414063
3.100999999999999,4.928561401367188,0.32957763671875,7.961602783203125
3.1119999999999663,5.747720336914063,0.7047637939453125,6.979748535156251
3.1219999999999573,5.923126220703125,1.0256683349609377,7.201062011718751
3.131999999999948,6.176889038085938,0.7672698974609375,8.168112182617188
3.1429999999999154,5.311373901367188,0.7150817871093751,8.572158813476562
3.15199999999993,5.601025390625001,0.4227386474609375,8.29566650390625
3.161999999999921,6.544598388671876,-0.9413299560546876,6.948046875
3.171999999999912,6.551327514648438,-0.3892425537109375,6.472372436523438
3.1820000000000164,5.91983642578125,-0.6928009033203125,7.032086181640626
3.192000000000008,3.244036865234375,-0.9595733642578126,6.978402709960938
3.201999999999998,7.852142333984376,-0.1568634033203125,11.938815307617189
3.211999999999989,8.420828247070313,0.11185302734375,11.65604248046875
3.22199999999998,3.004629516601563,-0.6838287353515625,4.563543701171875
3.231999999999971,4.240396118164063,0.3234466552734375,5.528799438476563
3.242999999999938,5.995053100585938,1.2946838378906251,6.619964599609376
3.252999999999929,8.419033813476563,1.1444000244140626,9.581826782226564
3.26299999999992,7.005020141601563,1.6235137939453126,11.241378784179688
3.272999999999911,3.82274169921875,1.024172973632813,8.58277587890625
3.2830000000000155,4.257891845703125,-0.03409423828125,5.496051025390625
3.2930000000000064,6.218609619140626,-0.07117919921875,5.678634643554688
3.3029999999999973,7.664474487304688,0.3419891357421875,6.0240631103515625
3.312999999999988,8.067474365234375,-1.080996704101563,10.415640258789065
3.322999999999979,5.1323791503906255,-0.282025146484375,9.195574951171876
3.33299999999997,4.1230102539062505,-0.6150421142578125,9.185107421875
3.342999999999961,4.773043823242188,-1.4914733886718752,5.618222045898438
3.3529999999999447,7.14244384765625,0.0207855224609375,5.774636840820313
3.3629999999999427,8.560943603515625,-0.1565643310546875,6.853839111328125
3.3729999999999407,7.295718383789063,-0.1517791748046875,8.416940307617189
3.3829999999999245,5.061648559570313,0.988134765625,9.82691650390625
3.3929999999999154,3.5948486328125004,0.6021820068359376,9.091647338867189
3.4039999999999964,3.5692779541015627,0.34991455078125,7.713821411132813
3.413999999999988,4.9095703125000005,1.8119293212890624,7.53123779296875
3.423999999999978,6.517681884765626,0.75306396484375,7.355233764648438
3.433999999999969,7.668212890625001,0.4224395751953125,7.685559082031251
3.44399999999996,6.883746337890625,0.325390625,7.973117065429688
3.453999999999951,5.7900390625,-0.65018310546875,7.007263183593751
3.463999999999949,6.399398803710938,-0.6537719726562501,7.414898681640626
3.47399999999994,5.1503234863281255,-0.1532745361328125,7.421029663085938
3.483999999999924,5.895611572265626,-1.233523559570313,9.27423095703125
3.495999999999981,5.228231811523438,-0.54251708984375,8.989663696289064
3.5039999999999054,4.543356323242188,-0.003887939453125,8.829510498046876
3.51400000000001,6.373529052734376,-0.2471832275390625,7.175640869140626
3.524000000000001,6.370388793945313,0.5812469482421876,6.535775756835938
3.534999999999968,7.3126159667968755,1.1028289794921875,6.84935302734375
3.544999999999959,6.651217651367188,0.6458465576171876,7.629483032226563
3.55499999999995,5.223147583007813,1.1112030029296875,7.92720947265625
3.564999999999941,3.095846557617188,0.6482391357421875,6.635366821289063
3.574999999999932,3.469985961914063,0.282623291015625,6.850399780273438
3.5849999999999227,11.702398681640624,0.8230468750000001,13.8972900390625
3.5949999999999136,6.095242309570313,0.0142059326171875,8.485278320312501
3.604999999999905,3.257196044921875,-1.8819122314453127,5.7997589111328125
3.615000000000009,3.4195922851562504,-0.438739013671875,5.188006591796875
3.625,7.168612670898438,-0.413616943359375,6.824978637695313
3.634999999999991,10.32218017578125,-0.3168670654296875,10.57340087890625
3.644999999999975,6.926214599609375,0.25540771484375,10.7630126953125
3.65499999999998,3.159698486328125,-0.0112152099609375,8.216412353515626
3.6649999999999694,3.370843505859375,-0.5788543701171875,6.2494140625000005
3.675999999999931,4.5925537109375005,1.314273071289063,5.3586273193359375
3.685999999999914,8.949588012695314,1.1639892578125002,7.1825195312500005
3.6959999999999127,8.575897216796875,0.461767578125,8.855081176757814
3.706000000000017,5.928509521484376,0.7210632324218751,8.669058227539063
3.716000000000008,3.9075286865234378,-0.44801025390625,7.971771240234376
3.725999999999999,4.560253906250001,-0.406439208984375,6.258386230468751
3.73599999999999,6.419436645507813,0.6817352294921876,6.479400634765626
3.745999999999981,8.166915893554688,-0.4433746337890625,8.707339477539064
3.755999999999979,6.251657104492188,-0.484796142578125,8.813809204101563
3.76599999999997,3.759487915039063,0.1149932861328125,9.984228515625
3.7759999999999536,3.4806030273437503,-0.75904541015625,7.453030395507813
3.785999999999945,5.604016113281251,0.1766021728515625,7.226483154296876
3.795999999999936,7.848703002929688,0.7189697265625,6.615478515625001
3.8059999999999263,7.83031005859375,0.164190673828125,7.446151733398438
3.815999999999917,6.450241088867188,0.5565734863281251,8.644534301757814
3.826999999999998,4.246377563476563,0.8571411132812501,8.230767822265626
3.836999999999989,4.890878295898438,-0.4103271484375,7.893264770507813
3.84699999999998,6.24283447265625,0.5884246826171875,6.9342895507812505
3.856999999999971,6.160140991210938,0.3539520263671875,8.144036865234376
3.866999999999962,6.2284790039062505,-0.12022705078125,8.010202026367189
3.8769999999999527,4.939028930664063,0.168377685546875,8.888577270507813
3.886999999999944,5.5201263427734375,-0.42049560546875,7.492657470703126
3.8969999999999416,6.863409423828125,-0.6956420898437501,7.127938842773438
3.906999999999925,6.84337158203125,0.2794830322265625,7.242184448242188
3.916999999999916,6.474914550781251,0.1215728759765625,7.911508178710938
3.9269999999999072,4.996749877929688,-0.2005279541015625,8.357125854492189
3.937000000000012,3.975418090820313,0.1568634033203125,7.031936645507813
3.9470000000000014,2.8329620361328125,-0.3847564697265625,5.6049133300781255
3.9589999999999455,9.669754028320312,0.81766357421875,9.951779174804688
3.967999999999961,11.821429443359376,2.0229248046875004,13.00784912109375
3.9779999999999447,2.718865966796875,-0.46954345703125,4.564291381835938
3.987999999999943,1.41640625,-0.5555267333984375,6.219058227539063
3.9979999999999407,3.038275146484376,0.763531494140625,6.073110961914063
4.0079999999999245,9.52664794921875,0.2720062255859375,10.655047607421876
4.017999999999915,10.053164672851564,0.1045257568359375,10.986270141601564
4.027999999999906,4.559655761718751,0.485394287109375,8.385537719726564
4.038000000000011,3.347067260742188,-1.4778656005859376,5.621063232421875
4.047999999999995,4.320697021484375,-0.4293182373046875,5.426815795898438
4.058999999999969,7.653707885742188,0.569732666015625,6.168515014648438
4.067999999999984,9.78863525390625,-0.2615386962890625,10.303936767578126
4.077999999999982,6.450988769531251,0.6972869873046875,9.994845581054689
4.088999999999949,2.866009521484376,0.9422271728515624,8.542999267578125
4.097999999999956,3.3970123291015626,-1.0364349365234375,6.163430786132813
4.108999999999924,6.270199584960938,0.83560791015625,4.725341796875
4.1189999999999145,9.420925903320311,0.1437042236328125,6.848156738281251
4.128999999999905,8.287890625000001,-0.2438934326171875,8.476754760742189
4.13900000000001,5.11473388671875,0.5760131835937501,10.232757568359377
4.149000000000001,2.6298919677734376,-0.0991424560546875,9.231463623046876
4.159999999999968,3.492864990234376,-0.9299652099609376,7.175042724609376
4.168999999999983,5.430255126953125,0.8634216308593751,7.56533203125
4.178999999999981,7.785897827148438,0.1990325927734375,7.205697631835938
4.188999999999972,7.485031127929688,-0.0022430419921875,8.4541748046875
4.198999999999955,6.023764038085938,0.664837646484375,7.941415405273438
4.208999999999946,5.066732788085938,-0.2069580078125,7.718756103515625
4.218999999999937,6.45218505859375,-0.1099090576171875,6.695330810546875
4.228999999999928,5.9144531250000005,0.929815673828125,7.438674926757813
4.238999999999919,6.231021118164063,-0.36666259765625,8.25379638671875
4.25,4.975515747070313,0.0791046142578125,9.272586059570314
4.259999999999991,4.040765380859376,0.3802703857421875,8.69403076171875
4.269999999999975,5.907125854492188,-0.4257293701171875,7.787991333007813
4.27999999999998,7.160687255859376,0.067889404296875,6.2643676757812505
4.289999999999971,7.29796142578125,0.4116729736328125,7.2064453125
4.2999999999999545,6.770098876953125,-0.3576904296875,7.4561706542968755
4.309999999999945,4.722052001953125,0.4332061767578125,8.777023315429688
4.319999999999936,4.937234497070313,0.240155029296875,7.237548828125001
4.329999999999927,2.0664398193359377,-0.2818756103515625,5.958267211914063
4.339999999999918,7.636062622070313,0.956732177734375,8.30523681640625
4.349999999999909,11.347100830078126,1.2691131591796876,14.133706665039064
4.360000000000021,4.374829101562501,-0.2032196044921875,6.2793212890625005
4.3700000000000045,2.6059661865234376,-0.7674194335937501,6.533233642578126
4.379999999999996,3.652120971679688,-0.4550384521484375,4.664181518554688
4.39099999999997,8.664721679687501,-0.2645294189453125,7.822384643554688
4.400999999999954,9.864450073242187,0.2546600341796875,11.2917724609375
4.4109999999999445,5.387637329101563,0.5286102294921875,9.728073120117188
4.420999999999935,3.1308380126953126,-0.581396484375,7.837338256835938
4.430999999999926,3.4375366210937504,-0.2603424072265625,5.3306640625
4.440999999999917,6.489718627929688,0.713287353515625,5.49156494140625
4.450999999999908,9.440664672851565,0.35111083984375,8.302096557617189
4.46100000000002,7.448843383789063,0.2859130859375,9.171649169921876
4.471000000000004,4.802651977539063,0.2675201416015625,9.6791748046875
4.4809999999999945,3.589614868164063,-0.5199371337890626,7.149472045898438
4.4909999999999854,4.845419311523438,0.3883453369140625,6.05740966796875
4.500999999999976,7.855880737304688,0.6335845947265626,6.356033325195313
4.510999999999967,7.762570190429688,-0.1457977294921875,8.036370849609376
4.520999999999958,6.190347290039063,0.0035888671875,9.1599853515625
4.530999999999949,3.937884521484375,0.1924530029296875,9.597528076171876
4.541999999999916,3.8604248046875,-0.5386291503906251,7.419683837890625
4.551999999999907,6.066979980468751,0.6407623291015625,7.572659301757813
4.562000000000012,6.748565673828126,0.1511810302734375,6.836343383789063
4.572000000000003,6.715817260742188,0.0037384033203125,7.917041015625
4.581999999999994,5.931948852539063,0.4433746337890625,8.818145751953125
4.5919999999999845,4.868298339843751,0.2364166259765625,8.165121459960938
4.601999999999975,6.682769775390626,-0.3336151123046875,7.213772583007813
4.611999999999966,6.073559570312501,0.465057373046875,6.642694091796876
4.621999999999957,6.478652954101563,0.0453094482421875,8.016482543945314
4.631999999999948,5.175296020507813,0.10587158203125,8.518176269531251
4.641999999999939,4.487579345703125,0.25181884765625,9.103460693359375
4.65199999999993,6.019726562500001,-0.2400054931640625,7.671353149414063
4.661999999999921,6.504821777343751,-0.206658935546875,7.167266845703126
4.671999999999912,6.795370483398438,0.3814666748046875,6.353192138671876
4.682999999999993,5.636166381835938,-0.319110107421875,7.250408935546876
4.692999999999984,2.5522827148437504,-0.369354248046875,6.147280883789063
4.702999999999982,7.889526367187501,0.390887451171875,10.770040893554688
4.712999999999965,10.999578857421875,0.8205047607421876,13.14646911621094
4.722999999999956,3.954183959960938,-0.363671875,4.282116699218751
4.732999999999947,1.726992797851563,-0.65018310546875,6.021371459960938
4.742999999999938,3.6144378662109378,0.59814453125,5.163333129882813
4.752999999999929,8.362658691406251,1.040771484375,11.234948730468751
4.76299999999992,9.8801513671875,1.170718383789063,11.417681884765626
4.772999999999911,5.0535736083984375,0.810186767578125,8.949139404296876
4.783000000000016,3.5565673828125,-0.4653564453125,5.107556152343751
4.793000000000006,4.138262939453125,-0.3799713134765625,4.831661987304688
4.802999999999997,7.165472412109375,0.5347412109375,5.764617919921875
4.812999999999988,9.948040771484376,-0.3512603759765625,10.563381958007811
4.822999999999979,6.5233642578125,0.0729736328125,9.769943237304688
4.833999999999946,3.8417327880859378,0.0477020263671875,9.59364013671875
4.843999999999937,2.816213989257813,-1.0567718505859376,5.806338500976563
4.853999999999928,5.295523071289063,-0.047552490234375,5.527304077148438
4.863999999999919,9.194378662109376,0.126507568359375,6.345266723632813
4.87399999999991,8.360714721679688,-0.374139404296875,8.377163696289063
4.884000000000022,6.7518554687500005,0.5818450927734375,9.911703491210938
4.8940000000000055,3.154464721679688,0.268865966796875,9.18092041015625
4.903999999999996,3.049639892578125,-0.296380615234375,7.252502441406251
4.913999999999987,5.266363525390625,1.084136962890625,7.486825561523438
4.923999999999978,6.1166259765625,0.7149322509765625,7.2770263671875
4.933999999999969,7.901937866210938,0.36307373046875,8.541952514648438
4.94399999999996,6.154159545898438,0.4677490234375,8.476306152343751
4.954999999999927,5.4479003906250005,-0.2693145751953125,7.208688354492188
4.964999999999918,6.544598388671876,-0.2788848876953125,6.756341552734376
4.974999999999909,5.942416381835938,0.361279296875,7.297213745117188
4.985000000000021,6.573309326171875,-0.42587890625,8.0641845703125
4.9950000000000045,5.034283447265626,-0.4705902099609375,9.543994140625
5.004999999999996,4.186563110351563,-0.0542816162109375,8.327816772460938
5.014999999999986,5.549435424804688,-0.4344024658203125,8.419781494140626
5.024999999999977,6.405230712890625,0.1399658203125,6.446951293945313
5.034999999999968,7.33983154296875,0.6540710449218751,7.072760009765625
5.044999999999959,7.007412719726563,0.2932403564453125,7.84287109375
5.05499999999995,5.275784301757813,0.7108947753906251,8.102764892578126
5.064999999999941,5.223446655273438,0.5695831298828126,8.358770751953125
5.074999999999932,5.439974975585938,0.082244873046875,7.242184448242188
5.084999999999923,4.0255126953125,0.6537719726562501,6.7907348632812505
5.094999999999914,3.210989379882813,0.9601715087890624,6.225787353515625
5.1049999999999045,10.174737548828126,0.386102294921875,11.676828002929687
5.1159999999999854,9.847103881835938,0.9903778076171876,11.431140136718753
5.125999999999976,3.545651245117188,-1.129296875,4.867251586914063
5.135999999999967,2.8443267822265628,-1.5746154785156252,5.2792236328125
5.145999999999958,5.182772827148438,-0.473431396484375,5.729177856445313
5.155999999999949,8.0928955078125,-1.329226684570313,10.043594360351562
5.16599999999994,8.621804809570314,-0.3345123291015625,12.091192626953124
5.175999999999931,4.2264892578125,1.009219360351563,9.625341796875
5.185999999999915,3.862966918945313,-0.69205322265625,6.00596923828125
5.195999999999913,5.654409790039063,0.289501953125,4.562945556640625
5.206000000000017,6.618768310546876,1.47442626953125,5.4945556640625
5.216000000000008,8.586514282226563,0.3046051025390625,8.646926879882812
5.225999999999999,6.476260375976563,0.8960205078125001,10.0763427734375
5.23599999999999,4.324136352539063,0.99710693359375,9.347354125976564
5.245999999999981,4.674200439453125,-0.7810272216796875,6.458016967773438
5.259000000000022,5.682373046875,0.3241943359375,6.084176635742188
5.266999999999939,7.038665771484376,0.5764617919921875,6.468185424804688
5.27699999999993,7.144537353515625,-1.1970367431640625,9.000131225585939
5.286999999999921,5.7553466796875,0.02691650390625,9.352438354492188
5.296999999999912,4.200769042968751,-0.124114990234375,9.502423095703126
5.307000000000016,4.8102783203125,-0.85654296875,7.007263183593751
5.317000000000007,5.766860961914063,0.8658142089843751,7.116424560546876
5.326999999999998,6.5365234375000005,0.1758544921875,7.078292846679688
5.336999999999989,6.986178588867188,-0.050543212890625,8.129830932617189
5.34699999999998,5.76072998046875,1.30933837890625,9.022262573242188
5.358999999999924,5.635269165039063,0.48868408203125,7.869338989257813
5.366999999999962,5.9253692626953125,-0.2349212646484375,6.76920166015625
5.376999999999953,5.751608276367188,0.935498046875,7.09219970703125
5.38799999999992,5.860769653320313,-0.230584716796875,8.023959350585939
5.397999999999911,5.4969482421875,-0.1481903076171875,8.920428466796876
5.408000000000016,5.504275512695313,0.4397857666015625,8.864501953125
5.418000000000006,5.990567016601563,-0.9826019287109377,7.475161743164063
5.427999999999997,6.7309204101562505,-0.448907470703125,6.540710449218751
5.437999999999988,5.860321044921875,0.31043701171875,6.522915649414063
5.447999999999979,4.162637329101563,-0.7195678710937501,6.5798889160156255
5.45799999999997,4.238751220703126,0.0773101806640625,7.253997802734376
5.467999999999961,11.807821655273438,1.5645965576171876,15.231301879882814
5.477999999999945,7.593743896484375,0.292791748046875,8.596832275390625
5.487999999999943,0.3892425537109375,-0.7277923583984376,3.677392578125
5.497999999999941,2.453439331054688,0.2253509521484375,4.799063110351563
5.5079999999999245,6.683666992187501,0.2906982421875,7.401141357421875
5.517999999999915,11.283099365234376,1.136773681640625,12.314151000976564
5.527999999999906,7.451235961914063,1.4371917724609375,11.750100708007814
5.538999999999987,2.4220367431640626,0.018841552734375,6.873129272460938
5.548999999999978,3.103472900390625,-1.2084014892578123,4.66612548828125
5.558999999999969,5.3222900390625005,0.1619476318359375,4.071270751953126
5.56899999999996,10.079483032226562,-0.3195587158203125,7.960556030273438
5.578999999999951,9.2461181640625,-0.0294586181640625,10.711123657226564
5.588999999999949,4.948300170898438,0.6027801513671875,10.812359619140626
5.59899999999994,2.4591217041015625,-0.8170654296875001,7.083526611328126
5.608999999999924,3.674700927734375,-0.9380401611328124,5.504873657226563
5.6189999999999145,7.635314941406251,0.9670501708984376,4.850653076171875
5.628999999999905,9.203201293945312,-0.18482666015625,8.016931152343751
5.63900000000001,7.376168823242188,0.4047943115234375,9.229071044921875
5.649000000000001,4.315313720703125,0.887646484375,10.845556640625
5.659999999999968,2.5338897705078125,-0.5330963134765625,7.634268188476563
5.668999999999983,4.457522583007813,0.4024017333984375,7.078442382812501
5.67999999999995,6.279171752929688,1.2164764404296875,6.801950073242188
5.689999999999941,7.937377929687501,-0.019140625,7.4666381835937505
5.699999999999932,6.940121459960938,0.31522216796875,8.924465942382813
5.71100000000002,5.118173217773438,0.1727142333984375,8.579187011718751
5.719999999999914,5.540164184570313,-0.8312713623046876,7.087265014648438
5.7299999999999045,6.278125,0.1782470703125,6.8475585937500005
5.740000000000009,6.410165405273438,0.0207855224609375,7.218707275390625
5.75,6.049932861328125,-0.6542205810546875,8.835342407226562
5.759999999999991,4.420138549804688,0.3850555419921875,9.18092041015625
5.769999999999975,4.678536987304688,-0.03050537109375,8.610140991210939
5.77999999999998,6.525308227539063,-0.3378021240234375,7.272390747070313
5.789999999999971,6.874325561523438,0.7716064453125001,6.150421142578126
5.7999999999999545,7.239941406250001,0.4598236083984375,7.680325317382813
5.809999999999945,5.820095825195313,0.331671142578125,7.808926391601563
5.819999999999936,4.582235717773438,0.8424865722656251,8.967083740234376
5.829999999999927,5.8097778320312505,-0.1457977294921875,7.374075317382813
5.841000000000008,4.9095703125000005,-0.0136077880859375,7.001730346679688
5.850999999999999,3.270803833007813,0.80689697265625,5.517285156250001
5.86099999999999,8.689843750000001,0.1072174072265625,10.77063903808594
5.870999999999981,9.760223388671877,0.5535827636718751,12.186895751953124
5.880999999999979,3.629541015625,-0.4122711181640625,5.80618896484375
5.89099999999997,3.2144287109375003,-1.6079620361328126,5.846264648437501
5.900999999999954,5.300906372070313,0.029010009765625,5.318551635742188
5.9109999999999445,8.28131103515625,-0.171966552734375,9.77771911621094
5.920999999999935,8.17962646484375,-0.3973175048828125,10.949783325195312
5.930999999999926,4.295724487304688,1.1783447265625,9.56134033203125
5.940999999999917,4.042410278320313,-0.2095001220703125,6.445455932617188
5.950999999999908,5.62554931640625,0.106768798828125,4.781716918945313
5.961999999999989,7.13048095703125,1.3235443115234375,6.056362915039063
5.97199999999998,8.044894409179689,0.0910675048828125,8.499334716796875
5.981999999999971,6.190646362304688,-0.06878662109375,9.9232177734375
5.991999999999962,4.219161987304688,0.6658843994140625,9.110787963867187
6.001999999999953,4.720855712890625,-0.8130279541015626,6.852194213867188
6.011999999999944,6.553421020507813,0.0584686279296875,5.925668334960938
6.021999999999942,7.0951904296875,0.5191894531250001,6.588861083984376
6.031999999999925,6.830361938476563,-0.938787841796875,8.291030883789062
6.041999999999916,5.753552246093751,0.0465057373046875,9.905871582031253
6.051999999999907,3.810629272460938,0.338848876953125,8.944952392578125
6.062000000000012,5.032489013671875,-0.3991119384765625,7.948294067382813
6.072000000000003,5.904135131835938,0.8949737548828126,6.578543090820313
6.081999999999994,6.123056030273438,0.6817352294921876,7.379757690429688
6.092999999999961,6.967486572265625,-0.0626556396484375,7.749710083007813
6.102999999999945,5.619866943359376,0.9407318115234377,8.993701171875001
6.112999999999943,6.246423339843751,0.2507720947265625,7.707540893554688
6.122999999999941,6.0807373046875,-0.4115234375,7.108648681640625
6.1329999999999245,5.730673217773438,0.492572021484375,7.171902465820313
6.142999999999915,5.7051025390625005,-0.142657470703125,8.136410522460938
6.152999999999906,5.066134643554688,-0.6147430419921875,8.851342773437501
6.163000000000011,5.532986450195313,0.3170166015625,8.460903930664063
6.1749999999999545,6.221600341796876,-0.5580688476562501,8.174990844726564
6.182999999999993,6.664675903320313,-0.3031097412109375,6.271844482421876
6.192999999999984,6.256741333007813,0.6974365234375001,7.409066772460938
6.202999999999982,5.855685424804688,-0.23267822265625,7.180874633789063
6.212999999999965,2.907281494140625,-0.18602294921875,6.241937255859376
6.222999999999956,4.8213439941406255,0.4750762939453125,7.615725708007813
6.232999999999947,13.227517700195314,1.109857177734375,15.1294677734375
6.242999999999938,6.02391357421875,0.3887939453125,6.684115600585938
6.252999999999929,0.89661865234375,-0.7763916015625001,5.154959106445313
6.26299999999992,2.2669677734375,0.1161895751953125,4.924972534179688
6.274000000000001,7.122854614257813,0.5869293212890625,9.0858154296875
6.283999999999992,10.77078857421875,0.8679077148437501,11.120254516601562
6.293999999999983,7.471124267578125,0.5905181884765626,10.963092041015626
6.303999999999981,2.8060455322265625,0.1311431884765625,5.73919677734375
6.313999999999972,3.227438354492188,-1.2269439697265625,5.619717407226563
6.323999999999955,5.7249908447265625,0.43245849609375,4.579693603515626
6.333999999999946,9.644631958007814,-0.0557769775390625,9.20230407714844
6.343999999999937,8.675787353515625,0.000897216796875,10.007107543945311
6.353999999999928,4.888485717773438,0.7858123779296876,10.118511962890626
6.363999999999919,2.5922088623046875,-0.6285003662109375,6.439773559570313
6.375,4.729827880859375,-0.6625946044921875,5.34561767578125
6.384000000000022,7.895059204101563,0.5706298828125,5.201763916015626
6.394999999999975,8.839529418945313,-0.289202880859375,8.763265991210938
6.40499999999998,6.453082275390625,0.260491943359375,9.425262451171877
6.414999999999971,3.613989257812501,0.677099609375,11.2965576171875
6.4249999999999545,2.584432983398438,-0.59515380859375,6.743032836914063
6.434999999999945,4.679135131835938,0.2184722900390625,7.727728271484375
6.444999999999936,7.400393676757813,1.185223388671875,5.853292846679688
6.454999999999927,8.260525512695313,0.0853851318359375,8.160635375976563
6.464999999999918,7.179229736328126,0.2453887939453125,8.07435302734375
6.474999999999909,4.547543334960938,0.5001983642578125,8.623150634765626
6.485000000000021,5.331561279296875,-0.7542602539062501,7.199566650390626
6.4950000000000045,5.868246459960938,0.33077392578125,7.212576293945313
6.504999999999996,6.012997436523438,0.063702392578125,7.80458984375
6.514999999999986,6.323733520507813,-0.52158203125,8.622103881835939
6.524999999999977,4.492514038085938,0.186322021484375,9.044842529296876
6.534999999999968,5.140603637695313,-0.0357391357421875,8.063137817382813
6.545999999999935,6.720004272460938,-0.3413909912109375,6.903335571289063
6.555999999999926,7.2154174804687505,0.5474517822265625,6.699218750000001
6.565999999999917,7.069171142578125,0.40673828125,7.458264160156251
6.575999999999908,5.22838134765625,0.144451904296875,8.552270507812501
6.58600000000002,4.436288452148438,1.0131072998046875,7.825225830078126
6.596000000000004,2.65037841796875,0.7071563720703126,7.178631591796876
6.6059999999999945,4.522421264648438,1.0860809326171876,5.518182373046876
6.6159999999999854,12.842163085937502,1.3126281738281251,12.843508911132814
6.625999999999976,8.171551513671876,0.8480194091796875,9.358868408203126
6.635999999999967,2.361175537109375,-1.3609283447265623,5.339337158203126
6.645999999999958,1.5971954345703123,-1.4324066162109377,5.561697387695313
6.655999999999949,6.044699096679688,-1.9655029296875,6.092251586914063
6.66599999999994,10.154400634765626,-1.55457763671875,11.487515258789063
6.676999999999907,8.105307006835938,0.0814971923828125,11.60938720703125
6.687000000000012,3.5441558837890628,-0.0025421142578125,8.824426269531251
6.697000000000003,3.644943237304688,-1.0830902099609376,5.702560424804688
6.706999999999994,4.86590576171875,0.45040283203125,4.415951538085938
6.7169999999999845,8.409463500976564,1.3896392822265626,6.369342041015625
6.726999999999975,8.791827392578126,1.29617919921875,8.952279663085939
6.736999999999966,6.190048217773438,1.691552734375,9.654650878906253
6.746999999999957,3.66124267578125,0.5414703369140625,8.586813354492188
6.756999999999948,3.94296875,-0.3138763427734375,5.899349975585938
6.766999999999939,6.054867553710938,1.1934478759765623,6.812567138671875
6.77699999999993,7.833001708984375,0.1490875244140625,7.135714721679688
6.786999999999921,7.066778564453125,-0.9039459228515626,9.1396484375
6.796999999999912,5.141201782226563,-0.293988037109375,9.367541503906253
6.807000000000016,3.05233154296875,-1.0789031982421875,8.441912841796876
6.817000000000007,5.289392089843751,-0.6096588134765626,7.194631958007813
6.826999999999998,6.712527465820313,0.447711181640625,7.17593994140625
6.837999999999965,7.724139404296875,-0.5776580810546875,7.307232666015626
6.847999999999956,6.812716674804688,0.381915283203125,8.694778442382812
6.857999999999947,4.621563720703126,1.2176727294921876,8.696273803710938
6.867999999999938,5.116378784179688,0.4520477294921875,7.326821899414063
6.877999999999929,6.201263427734376,0.4175048828125,6.848605346679688
6.88799999999992,6.175244140625001,0.9751251220703124,7.054516601562501
6.897999999999911,6.348855590820313,0.25361328125,8.630029296875001
6.908000000000016,4.6404052734375005,0.6117523193359375,9.12454528808594
6.918000000000006,5.336944580078125,0.1185821533203125,8.203103637695314
6.927999999999997,6.3047424316406255,-1.239056396484375,7.093994140625001
6.937999999999988,6.928457641601563,-0.267669677734375,6.283807373046876
6.947999999999979,6.581234741210938,-0.226397705078125,7.793823242187501
6.95799999999997,4.75943603515625,-0.7606903076171876,7.109097290039063
6.968999999999937,1.8095367431640623,-0.3620269775390625,5.727084350585938
6.978999999999928,9.537713623046876,0.1628448486328125,11.808120727539062
6.988999999999919,11.70374450683594,1.02821044921875,13.217947387695313
6.99899999999991,2.8592803955078128,0.4640106201171875,4.470681762695313
7.009000000000022,0.777288818359375,-0.4963104248046875,5.020825195312501
7.0190000000000055,3.343328857421876,0.7582977294921875,5.076602172851563
7.028999999999996,9.706539916992188,1.3754333496093751,11.30298767089844
7.038999999999987,10.56128845214844,0.8409912109375001,11.602957153320313
7.048999999999978,4.984039306640625,0.8273834228515625,9.133367919921875
7.058999999999969,2.5522827148437504,-0.8626739501953126,4.686611938476563
7.06899999999996,3.4421722412109377,-1.0020416259765623,4.777081298828126
7.078999999999951,7.912854003906251,0.4445709228515625,5.946453857421876
7.088999999999949,10.099819946289063,-0.4879364013671875,10.92615661621094
7.099999999999909,7.450787353515626,-0.0610107421875,10.33115234375
7.108999999999924,2.9705352783203125,0.4284210205078125,8.982785034179688
7.1200000000000045,2.4477569580078127,-1.251617431640625,5.690747070312501
7.129999999999996,5.842974853515625,0.301165771484375,5.03936767578125
7.139999999999986,8.819940185546876,0.5628540039062501,6.290835571289063
7.149999999999977,9.184658813476563,-0.160601806640625,8.89141845703125
7.159999999999968,5.9089202880859375,0.694744873046875,10.2390380859375
7.169999999999959,2.3638671875000004,0.5621063232421876,9.206640625
7.17999999999995,3.3926757812500004,-0.348419189453125,6.962850952148438
7.189999999999941,5.342776489257813,0.8837585449218751,7.037319946289063
7.199999999999932,7.5138916015625,0.7412506103515626,7.113134765625
7.209999999999923,7.65684814453125,-0.1638916015625,8.7269287109375
7.219999999999914,5.742037963867188,0.40673828125,8.645431518554688
7.229999999999904,5.0890136718750005,-0.3099884033203125,7.578192138671875
7.240000000000009,6.136065673828125,-0.64898681640625,6.649722290039063
7.25,6.621908569335938,0.4038970947265625,6.939822387695313
7.260999999999967,6.402090454101563,-0.3457275390625,8.527297973632812
7.270999999999958,5.047293090820313,-0.367559814453125,9.102264404296877
7.280999999999949,4.040765380859376,0.433953857421875,8.97216796875
7.29099999999994,5.614483642578126,-0.2749969482421875,7.91524658203125
7.300999999999931,6.884194946289063,0.156414794921875,6.127691650390625
7.310999999999915,7.3335510253906255,0.9694427490234376,7.352392578125
7.320999999999913,6.673797607421876,0.242547607421875,7.375869750976563
7.331000000000017,4.946505737304688,0.500347900390625,9.013888549804689
7.341000000000008,5.1739501953125,0.47672119140625,7.675241088867188
7.350999999999999,4.9897216796875,-0.1577606201171875,7.018927001953125
7.36099999999999,3.421685791015625,0.4873382568359375,5.305392456054688
7.370999999999981,7.592398071289063,0.711492919921875,9.654650878906253
7.380999999999979,10.767199707031253,0.1903594970703125,12.830648803710938
7.391999999999939,4.3761749267578125,0.103778076171875,7.550228881835938
7.40199999999993,2.0254669189453125,-1.6139434814453126,5.03458251953125
7.411999999999921,4.509710693359375,-0.7914947509765625,5.398104858398438
7.421999999999912,8.431744384765626,-0.1179840087890625,8.366397094726564
7.432000000000016,9.349746704101562,-0.2283416748046875,11.640042114257811
7.442000000000007,5.558258056640625,0.7707092285156251,9.9040771484375
7.451999999999998,3.0040313720703127,0.2074066162109375,7.176837158203125
7.461999999999989,4.524514770507813,-0.18004150390625,4.4119140625
7.47399999999994,6.752603149414063,1.0137054443359377,5.875872802734375
7.481999999999971,8.64019775390625,0.8103363037109376,8.21671142578125
7.491999999999962,6.904980468750001,-0.0034393310546875,10.192681884765626
7.501999999999953,4.550534057617188,0.404345703125,9.235501098632811
7.511999999999944,3.7114868164062496,-0.37025146484375,7.215118408203126
7.521999999999942,5.858526611328125,-0.285614013671875,5.648129272460938
7.531999999999925,7.624996948242188,0.6074157714843751,6.522467041015625
7.543000000000006,7.633221435546876,-0.5941070556640625,7.834197998046876
7.552999999999997,6.382202148437501,-0.480908203125,9.62952880859375
7.562999999999988,3.8130218505859377,0.248529052734375,8.892315673828126
7.573999999999955,4.11942138671875,-0.3715972900390625,8.250357055664063
7.58299999999997,5.7230468750000005,0.53055419921875,6.87926025390625
7.592999999999961,6.102719116210938,0.8731414794921876,7.648623657226563
7.602999999999945,6.961056518554688,0.143255615234375,7.686904907226563
7.612999999999943,5.588763427734375,0.8109344482421875,8.931793212890625
7.622999999999941,6.031838989257813,0.5945556640625,7.799804687500001
7.632999999999924,6.2284790039062505,-0.18482666015625,6.675292968750001
7.642999999999915,6.416146850585938,0.04366455078125,6.914999389648438
7.652999999999906,5.918939208984376,0.2779876708984375,7.963995361328125
7.663000000000011,4.960113525390625,-0.506927490234375,9.374719238281251
7.673999999999978,4.916299438476563,-0.0142059326171875,8.655001831054689
7.683999999999969,5.72723388671875,-0.4296173095703125,8.264712524414064
7.69399999999996,6.724789428710938,-0.5586669921875,6.41629638671875
7.703999999999951,6.743481445312501,0.3973175048828125,7.030889892578125
7.713999999999949,6.134869384765626,0.2558563232421875,7.846011352539063
7.72399999999994,5.841030883789063,0.1457977294921875,7.924368286132813
7.733999999999924,3.9090240478515614,0.31641845703125,7.5608459472656255
7.743999999999914,3.222952270507813,0.1822845458984375,5.396310424804688
7.753999999999905,10.646075439453126,0.942974853515625,12.003115844726564
7.76400000000001,9.55177001953125,1.260440063476563,10.568466186523438
7.774000000000001,1.7854614257812502,-1.22918701171875,4.767361450195313
7.783999999999992,1.7513671875,-0.6545196533203126,5.994903564453125
7.793999999999983,5.143444824218751,0.7303344726562501,6.996945190429688
7.803999999999981,10.34490966796875,0.052337646484375,10.678823852539065
7.813999999999972,9.3226806640625,0.6331359863281251,11.0261962890625
7.823999999999955,3.2712524414062503,0.4338043212890625,7.683914184570313
7.834999999999923,2.876177978515625,-1.2747955322265625,5.806338500976563
7.844999999999914,4.873980712890625,0.085235595703125,4.909719848632813
7.854999999999904,8.793621826171876,0.9365447998046876,7.199716186523438
7.865000000000009,9.988565063476564,-0.2349212646484375,9.652557373046877
7.875,5.297616577148438,1.01026611328125,9.99320068359375
7.884999999999991,2.727838134765625,0.30206298828125,8.572308349609376
7.894999999999975,2.8364013671875004,-0.9936676025390626,5.776431274414063
7.90499999999998,7.066329956054688,0.6290985107421876,5.65545654296875
7.914999999999971,9.66422119140625,0.090020751953125,6.80509033203125
7.925999999999931,8.241683959960938,-0.8227478027343751,8.666964721679689
7.934999999999945,5.236007690429688,0.5327972412109375,9.514385986328126
7.944999999999936,2.476766967773438,-0.5176940917968751,8.797360229492188
7.954999999999927,4.0207275390625,-0.7315307617187501,7.293624877929688
7.964999999999918,5.744131469726563,1.2498229980468751,8.116671752929689
7.975999999999999,6.834548950195313,0.32598876953125,7.499835205078125
7.98599999999999,7.241287231445313,0.2835205078125,8.42606201171875
7.995999999999981,5.205651855468751,0.9200958251953124,8.150616455078126
8.005999999999979,5.849554443359375,-0.176153564453125,6.86729736328125
8.01599999999997,6.890325927734375,0.09630126953125,7.099377441406251
8.025999999999954,6.357827758789063,0.9628631591796876,6.9941040039062505
8.035999999999945,6.251806640625,-0.5967987060546875,8.733358764648438
8.045999999999935,4.391876220703125,-0.0737213134765625,8.941363525390626
8.055999999999926,4.046148681640625,-0.06160888671875,8.877511596679689
8.065999999999917,6.0005859375,-0.7843170166015626,7.707241821289063
8.075999999999908,7.038217163085938,0.09869384765625,6.581085205078126
8.08600000000002,7.30753173828125,0.32479248046875,7.309774780273438
8.096000000000004,6.646731567382813,-0.239556884765625,7.784252929687501
8.105999999999995,4.896859741210938,0.6231170654296876,7.996743774414063
8.115999999999985,5.171408081054688,0.5603118896484376,7.484881591796875
8.126999999999953,2.62764892578125,0.3629241943359375,5.73680419921875
8.136999999999944,6.253152465820313,1.6259063720703126,8.025753784179688
8.146999999999942,12.13994140625,1.1300445556640626,13.850933837890626
8.156999999999925,4.703659057617188,0.408831787109375,7.619912719726563
8.166999999999916,2.21612548828125,-0.8783752441406251,5.658297729492188
8.176999999999907,3.1777923583984378,-1.2586456298828126,4.526309204101563
8.187000000000012,8.679675292968751,-1.1659332275390626,7.421328735351563
8.197000000000003,10.134362792968751,-0.5719757080078125,11.849392700195311
8.206999999999994,5.644390869140626,-0.177349853515625,10.751797485351563
8.216999999999985,3.105117797851563,-0.41451416015625,7.947396850585938
8.226999999999975,3.454583740234375,-0.9359466552734376,5.262774658203125
8.236999999999966,6.456671142578125,0.46416015625,4.649526977539063
8.246999999999957,9.211724853515626,1.37752685546875,8.021566772460938
8.257999999999925,7.696026611328126,0.7828216552734376,9.630276489257811
8.267999999999915,5.21043701171875,1.182830810546875,9.325372314453126
8.277999999999906,3.205157470703125,0.033795166015625,7.538864135742188
8.288000000000011,5.085275268554688,0.3351104736328125,5.4897705078125005
8.297999999999995,7.350747680664063,1.0268646240234376,6.874923706054688
8.307999999999993,7.527050781250001,0.003887939453125,7.47501220703125
8.317999999999984,6.512747192382813,-0.490478515625,9.679473876953123
8.327999999999982,3.8317138671875,-0.393878173828125,9.403131103515626
8.337999999999965,3.6667755126953128,-0.8342620849609376,7.811917114257813
8.347999999999956,5.922079467773438,-0.124713134765625,7.541107177734376
8.357999999999947,7.0539184570312505,0.1577606201171875,6.81107177734375
8.367999999999938,7.337139892578126,-0.3485687255859375,7.68077392578125
8.377999999999929,6.086270141601563,0.4777679443359375,8.906970214843751
8.38799999999992,4.790988159179688,0.8402435302734376,8.144186401367188
8.399000000000001,5.865255737304688,0.12979736328125,7.3224853515625
8.408999999999992,6.2793212890625005,0.5206848144531251,6.5320373535156255
8.418999999999983,6.09329833984375,0.7647277832031251,7.846160888671876
8.42899999999998,5.6572509765625005,0.302362060546875,8.873175048828125
8.438999999999972,4.470532226562501,0.4586273193359375,8.855380249023439
8.448999999999955,5.906826782226563,-0.150732421875,8.039361572265626
8.458999999999946,6.672302246093751,-0.7840179443359375,6.466690063476563
8.468999999999937,6.8176513671875005,0.0136077880859375,7.149472045898438
8.478999999999928,6.409567260742188,-0.1351806640625,7.785150146484375
8.490000000000009,5.10576171875,-0.439935302734375,8.617767333984375
8.49899999999991,5.1981750488281255,-0.1825836181640625,7.667764282226563
8.509000000000022,2.5150482177734377,-0.6705200195312501,5.661737060546876
8.519000000000005,6.515887451171875,0.1580596923828125,6.8595214843750005
8.528999999999996,13.411297607421876,2.0013916015625,14.885125732421876
8.538999999999987,5.5963897705078125,0.3668121337890625,6.997393798828125
8.549999999999955,0.7790832519531251,-0.9773681640625,5.80618896484375
8.558999999999969,1.226495361328125,0.87867431640625,5.3246826171875
8.569999999999936,7.522564697265626,0.8065979003906251,8.407070922851563
8.579999999999927,11.85208435058594,0.60113525390625,10.973410034179688
8.591000000000008,6.973916625976563,0.745587158203125,9.726577758789062
8.599999999999909,3.0127044677734376,-0.5947052001953126,6.496298217773438
8.61000000000002,3.087173461914063,-1.3123291015625,6.109747314453125
8.620000000000005,5.498294067382813,0.6159393310546876,4.581936645507813
8.629999999999995,10.18326110839844,-0.5603118896484376,9.572705078125
8.639999999999986,8.36624755859375,0.1571624755859375,9.511245727539062
8.649999999999977,4.1458892822265625,0.8339630126953126,10.319787597656251
8.659999999999968,2.573965454101563,-0.735418701171875,6.644039916992188
8.669999999999959,4.383950805664063,-0.1610504150390625,5.485882568359376
8.67999999999995,8.480044555664064,0.7974761962890625,5.388684082031251
8.690999999999917,9.440814208984376,-0.3680084228515625,8.134765625
8.700999999999908,6.627441406250001,0.5763122558593751,9.23355712890625
8.71100000000002,3.639859008789063,0.5794525146484375,10.561737060546877
8.721000000000004,2.309884643554688,-0.8531036376953126,6.974215698242188
8.730999999999995,5.203558349609375,0.3937286376953125,8.023211669921876
8.740999999999985,6.6980224609375005,0.94267578125,6.5754028320312505
8.750999999999976,7.701858520507813,-0.20037841796875,8.275030517578125
8.760999999999967,6.862213134765626,0.4868896484375,8.223141479492188
8.770999999999958,4.638760375976563,0.0838897705078125,8.254693603515626
8.780999999999949,6.272592163085938,-0.7905975341796876,6.792977905273438
8.79099999999994,6.197525024414063,0.6956420898437501,7.115078735351563
8.80099999999993,6.330911254882813,0.0252716064453125,7.716064453125001
8.810999999999915,5.935687255859375,-0.3946258544921875,8.780313110351564
8.820999999999913,3.790890502929688,0.3282318115234375,9.381149291992188
8.831000000000017,5.150473022460938,-0.0814971923828125,7.934088134765625
8.841999999999985,6.468484497070313,-0.22430419921875,7.332504272460938
8.851999999999975,7.277325439453126,0.7487274169921876,6.195431518554688
8.861999999999966,7.366748046875,0.030206298828125,7.818048095703125
8.871999999999957,5.30853271484375,0.195294189453125,8.081082153320313
8.881999999999948,4.85753173828125,0.6998291015625,8.443258666992188
8.891999999999939,5.522518920898438,-0.2893524169921875,7.987322998046875
8.90199999999993,4.606161499023438,0.43245849609375,6.356182861328126
8.91199999999992,3.1445953369140627,0.9606201171875,6.135018920898438
8.921999999999912,9.574200439453126,0.389093017578125,10.53870849609375
8.932000000000016,9.748260498046877,1.0424163818359375,11.839971923828124
8.942000000000007,3.6184753417968754,-0.5435638427734375,5.613287353515625
8.951999999999998,3.162838745117188,-1.8706970214843752,5.896807861328125
8.961999999999989,4.819100952148438,-0.4412811279296875,5.805291748046876
8.97199999999998,8.292077636718751,-0.4547393798828125,9.951031494140626
8.982999999999947,8.172598266601563,-0.2950347900390625,11.13565673828125
8.992999999999938,5.00706787109375,1.09400634765625,9.346456909179688
9.002999999999929,4.054074096679688,-0.7816253662109376,5.792282104492188
9.01299999999992,5.392422485351563,-0.122021484375,4.886691284179688
9.02299999999991,6.748117065429688,1.4019012451171875,6.34093017578125
9.033000000000015,7.821038818359375,0.4828521728515625,9.163873291015626
9.043000000000006,6.696228027343751,0.4701416015625,9.866842651367188
9.052999999999995,4.043157958984375,0.8061492919921875,8.4123046875
9.062999999999988,5.0401153564453125,-0.75784912109375,6.842025756835938
9.07299999999998,6.05322265625,0.460870361328125,5.646932983398438
9.08299999999997,6.893316650390625,0.4361968994140625,7.123303222656251
9.09299999999996,7.540060424804688,-0.8146728515625,8.456268310546875
9.102999999999945,5.295223999023438,-0.114544677734375,9.826766967773438
9.11399999999992,4.096841430664063,0.0315521240234375,8.791528320312501
9.12399999999991,4.705902099609375,-0.6192291259765625,7.700961303710938
9.134000000000022,5.7912353515625,0.5851348876953125,6.875521850585938
9.144000000000004,6.807333374023438,0.3817657470703125,7.120910644531251
9.153999999999996,6.704153442382813,-0.06759033203125,8.364154052734376
9.163999999999987,6.082531738281251,1.0993896484375,8.607000732421875
9.173999999999978,5.577099609375001,0.283819580078125,8.109793090820313
9.183999999999967,5.97965087890625,-0.14415283203125,6.283209228515625
9.19399999999996,6.009707641601563,0.715679931640625,7.63052978515625
9.20399999999995,5.675344848632813,0.0109161376953125,8.087362670898438
9.213999999999947,5.294476318359376,-0.2074066162109375,8.871829223632814
9.22399999999994,5.3287200927734375,0.21593017578125,8.681619262695314
9.233999999999924,6.163281250000001,-0.6990814208984375,7.482788085937501
9.243999999999916,6.604861450195313,-0.3452789306640625,6.893914794921876
9.253999999999904,6.408221435546875,0.5417694091796875,7.124798583984376
9.264999999999986,5.958267211914063,-0.4969085693359375,7.455422973632813
9.274999999999975,3.306393432617188,-0.39417724609375,6.715219116210938
9.284999999999968,3.993511962890625,0.0100189208984375,6.9223266601562505
9.29499999999996,12.439761352539064,0.9111236572265624,14.1006591796875
9.30499999999995,8.295516967773438,1.035687255859375,8.905325317382813
9.31499999999994,0.201873779296875,-0.737213134765625,3.9534362792968754
9.324999999999932,1.9566802978515627,-0.003289794921875,5.616726684570313
9.334999999999924,5.694784545898438,1.256402587890625,8.049978637695313
9.344999999999914,11.454168701171875,0.9559844970703124,11.431140136718753
9.354999999999905,8.435781860351563,0.673809814453125,10.395602416992189
9.365000000000007,3.0134521484375,0.4269256591796875,6.53233642578125
9.375,3.073715209960938,-1.3853027343750002,5.529547119140625
9.384999999999993,4.884747314453126,0.0982452392578125,4.623507690429688
9.395999999999958,9.4423095703125,0.0608612060546875,8.488269042968751
9.40499999999998,9.597677612304688,-0.4909271240234375,10.230364990234376
9.41599999999994,4.912261962890625,0.34871826171875,10.351638793945312
9.42599999999993,2.235565185546875,-0.10108642578125,7.277774047851563
9.435999999999916,3.2702056884765627,-1.07247314453125,5.908322143554688
9.445999999999913,7.6236511230468755,0.8812164306640625,5.0890136718750005
9.456000000000016,9.486273193359375,-0.0536834716796875,7.968930053710938
9.466000000000008,8.076596069335938,0.21353759765625,8.927606201171876
9.476,4.712033081054688,0.7804290771484376,10.009649658203124
9.48599999999999,2.415606689453125,-0.2600433349609375,7.368991088867188
9.49599999999998,4.5297485351562505,-0.215631103515625,7.287643432617188
9.50599999999998,5.941519165039063,1.2955810546875002,7.53123779296875
9.51599999999997,7.205398559570313,0.1126007080078125,8.256637573242188
9.525999999999954,6.647927856445313,0.3034088134765625,8.838482666015626
9.535999999999945,5.166473388671875,0.22908935546875,8.173046875
9.545999999999935,5.863461303710938,-0.7032684326171875,6.550131225585938
9.557000000000016,6.845764160156251,0.0100189208984375,6.756790161132813
9.567000000000007,6.59813232421875,0.58319091796875,7.168911743164063
9.576999999999998,6.221749877929688,-0.6948944091796876,9.091946411132811
9.586999999999987,4.234414672851563,0.155517578125,9.312661743164064
9.59699999999998,4.150225830078125,-0.0312530517578125,8.484530639648439
9.606999999999973,6.134719848632813,-0.303558349609375,7.524359130859375
9.616999999999962,6.923223876953125,0.5016937255859375,5.995651245117188
9.626999999999953,7.228726196289063,0.5911163330078125,7.888778686523438
9.636999999999944,6.44022216796875,0.052337646484375,7.593594360351563
9.646999999999942,4.79412841796875,0.8785247802734376,8.76221923828125
9.656999999999924,5.617922973632813,0.006280517578125,6.967935180664063
9.666999999999916,2.645742797851563,0.1323394775390625,6.192739868164063
9.676999999999907,5.973818969726563,0.9286193847656252,7.232763671875
9.687999999999988,11.357418823242188,0.6477905273437501,13.337725830078126
9.69799999999998,6.3259765625,0.2213134765625,9.0523193359375
9.70799999999997,2.023672485351563,-1.008770751953125,5.283261108398438
9.71799999999996,2.9412261962890627,-1.380517578125,5.2135772705078125
9.727999999999945,7.811468505859375,-0.2205657958984375,6.50601806640625
9.737999999999944,10.06497802734375,-0.370849609375,11.617611694335938
9.74799999999994,6.804193115234376,0.4855438232421875,10.371078491210938
9.757999999999925,3.111398315429688,0.2595947265625,8.761172485351564
9.767999999999915,3.0654907226562504,-0.7197174072265625,4.783810424804688
9.777999999999906,6.276779174804688,0.730633544921875,5.205651855468751
9.788000000000013,8.756088256835938,1.117034912109375,7.177136230468751
9.797999999999996,8.233010864257814,0.3515594482421875,9.59962158203125
9.807999999999993,5.232418823242188,0.562255859375,9.745269775390623
9.817999999999984,3.068331909179688,-0.144451904296875,7.94993896484375
9.827999999999982,4.813568115234375,-0.4951141357421875,6.036773681640625
9.837999999999964,7.230969238281251,0.7451385498046875,6.354388427734375
9.84899999999994,8.072857666015626,0.05323486328125,7.356280517578125
9.858999999999924,6.941915893554688,-0.7141845703125,9.040505981445314
9.868999999999916,4.315014648437501,0.2205657958984375,9.689642333984375
9.878999999999904,3.438583374023438,-0.403448486328125,8.084222412109376
9.88900000000001,5.405133056640626,-0.1158905029296875,7.508657836914063
9.899,6.584973144531251,0.7678680419921876,6.782510375976563
9.908999999999992,6.973468017578125,0.14833984375,7.724588012695313
9.918999999999984,6.292929077148438,0.41630859375,8.60430908203125
9.92899999999998,4.987478637695313,0.934002685546875,8.604757690429688
9.938999999999972,6.151318359375001,-0.19320068359375,7.213174438476563
9.948999999999955,6.291134643554688,0.140863037109375,6.372930908203125
9.958999999999946,6.421231079101563,0.4242340087890625,7.882498168945313
9.968999999999935,5.512799072265626,-0.1042266845703125,8.47271728515625
9.978999999999928,4.513299560546876,0.0083740234375,9.34107360839844
9.990999999999984,5.569921875,-0.100787353515625,7.963845825195313
10.0,6.441418457031251,-0.79971923828125,7.335943603515625
10.009999999999993,6.920532226562501,0.2328277587890625,6.660488891601563
10.019999999999976,6.277227783203125,0.3578399658203125,7.892965698242188
10.02999999999998,5.6337738037109375,-0.210247802734375,7.970724487304688
10.03999999999997,5.4706298828125,0.3994110107421875,8.12818603515625
10.049999999999956,3.647634887695313,-0.0240753173828125,7.000683593750001
10.059999999999944,3.4305084228515628,0.0713287353515625,4.8931213378906255
10.069999999999936,12.015676879882813,1.4546875,13.010540771484376
10.079999999999927,8.961102294921876,1.1092590332031251,9.571658325195314
10.091000000000008,2.0435607910156253,-1.10596923828125,5.612988281250001
10.099999999999907,1.630841064453125,-0.0656463623046875,6.299957275390626
10.11099999999999,4.846765136718751,-0.0168975830078125,7.1062561035156255
10.120000000000005,10.490109252929688,-0.2184722900390625,10.17129821777344
10.13099999999998,8.49783935546875,0.481805419921875,10.688543701171875
10.14099999999997,3.990371704101563,0.1774993896484375,7.229324340820313
10.150999999999954,3.800311279296875,-1.38470458984375,6.6788818359375
10.160999999999945,4.519430541992188,0.4414306640625,4.341931152343751
10.170999999999935,8.65814208984375,0.3289794921875,8.09827880859375
10.180999999999926,8.938522338867188,0.37503662109375,8.959008789062501
10.190999999999915,5.455078125,1.3941253662109376,10.207785034179688
10.200999999999908,3.3878906250000003,0.06280517578125,7.55875244140625
10.21100000000002,3.806292724609375,-0.8013641357421876,5.967538452148438
10.221000000000004,7.230072021484376,0.7152313232421875,5.800955200195313
10.230999999999996,8.459408569335938,-0.3306243896484375,7.580734252929688
10.240999999999984,7.0643859863281255,-0.217724609375,9.306381225585938
10.250999999999976,4.67569580078125,0.3488677978515625,10.044790649414065
10.260999999999967,2.56185302734375,-0.8695526123046876,8.149420166015625
10.271999999999942,5.0423583984375,-0.25301513671875,7.263568115234375
10.281999999999924,6.475811767578126,1.075164794921875,7.187753295898438
10.291999999999916,7.725634765625,-0.05562744140625,7.142294311523438
10.301999999999907,7.145584106445313,0.6329864501953125,8.477951049804688
10.312000000000012,4.776483154296876,0.6477905273437501,8.433090209960938
10.322000000000005,5.522817993164063,-0.1463958740234375,7.280166625976563
10.331999999999994,5.977557373046875,0.3983642578125,7.180276489257813
10.341999999999985,6.182571411132813,0.5493957519531251,7.322335815429688
10.351999999999975,6.333453369140625,-0.5139556884765626,8.804837036132813
10.361999999999966,4.293032836914063,0.3505126953125,8.858221435546875
10.371999999999955,5.208941650390625,-0.1447509765625,8.338583374023438
10.381999999999948,6.34691162109375,-0.7512695312500001,7.3129150390625
10.392999999999915,7.083078002929688,0.2026214599609375,6.306237792968751
10.40199999999993,7.103265380859376,0.045458984375,7.9227233886718755
10.413000000000013,5.68297119140625,-0.09749755859375,8.075250244140626
10.422999999999996,4.595095825195313,0.6162384033203125,8.532830810546876
10.432999999999993,5.545697021484376,0.0695343017578125,7.763616943359375
10.442999999999984,4.0531768798828125,0.246734619140625,6.337640380859376
10.452999999999982,4.4681396484375,1.2999176025390626,6.557308959960938
10.462999999999964,10.656393432617188,0.7935882568359376,11.421868896484376
10.472999999999956,8.114129638671876,1.0105651855468751,10.115670776367187
10.482999999999947,2.9261230468750004,-0.34871826171875,6.0251098632812505
10.492999999999938,2.389886474609375,-1.52227783203125,5.171109008789063
10.502999999999927,6.4156982421875,-0.3886444091796875,6.912307739257813
10.51299999999992,8.9901123046875,-0.6898101806640625,9.929348754882811
10.52299999999991,7.675241088867188,-0.2583984375,11.2104248046875
10.533000000000015,4.366006469726563,0.480908203125,8.685507202148438
10.543000000000006,3.171212768554688,-0.7702606201171875,5.62076416015625
10.552999999999995,6.378613281250001,-0.0968994140625,5.02142333984375
10.563999999999972,7.52525634765625,1.269561767578125,6.809277343750001
10.573999999999955,8.119064331054688,0.2476318359375,9.242379760742187
10.583999999999946,5.941070556640625,0.8190093994140626,9.850543212890626
10.593999999999935,3.398507690429688,0.5636016845703126,8.350845336914062
10.603999999999928,4.78575439453125,-0.217425537109375,6.184664916992188
10.61399999999992,6.755743408203125,0.5351898193359376,6.199468994140625
10.62399999999991,7.56832275390625,0.6425567626953126,6.82542724609375
10.634000000000022,7.472021484375,-0.8028594970703126,8.88543701171875
10.644000000000004,4.7604827880859375,-0.1036285400390625,9.390719604492189
10.653999999999996,3.8708923339843753,-0.2597442626953125,8.807977294921876
10.663999999999987,4.765716552734375,-0.7262969970703126,7.513143920898438
10.674999999999956,6.085821533203125,0.5042358398437501,7.099526977539063
10.683999999999967,6.837838745117188,0.1078155517578125,7.578192138671875
10.69399999999996,6.545495605468751,-0.0133087158203125,8.545541381835939
10.704999999999927,5.546743774414063,1.0047332763671877,8.365200805664063
10.714999999999918,5.929705810546875,0.2746978759765625,7.66103515625
10.724999999999907,6.347958374023438,-0.033197021484375,6.124401855468751
10.73500000000002,6.146234130859376,0.910076904296875,7.657147216796876
10.745000000000005,5.684765625000001,0.02572021484375,8.357125854492189
10.754999999999995,4.725341796875,0.1066192626953125,9.022711181640624
10.764999999999986,5.371487426757813,0.2214630126953125,8.769696044921876
10.774999999999975,6.043502807617188,-0.678594970703125,7.024310302734375
10.784999999999968,6.948794555664063,-0.2675201416015625,7.049581909179688
10.79499999999996,6.432296752929688,0.2851654052734375,6.722546386718751
10.80499999999995,5.44371337890625,-0.6391174316406251,7.518228149414063
10.81499999999994,2.4665985107421875,-0.4103271484375,5.560052490234376
10.824999999999932,6.608450317382813,0.2444915771484375,9.247463989257811
10.83600000000002,13.94559020996094,1.453790283203125,15.6247314453125
10.846000000000004,4.487728881835938,0.7865600585937501,5.885144042968751
10.855999999999996,-0.4765716552734375,-0.7765411376953125,4.814166259765625
10.865999999999984,1.9484558105468752,0.3593353271484375,4.243536376953125
10.875999999999976,8.378509521484375,0.7218109130859376,9.69397888183594
10.885999999999967,12.64103698730469,0.5311523437500001,11.374017333984376
10.895999999999958,6.739443969726563,0.913067626953125,10.951577758789064
10.905999999999947,2.0712249755859378,-0.454290771484375,5.229129028320313
10.91599999999994,2.5476470947265626,-1.4318084716796875,5.564987182617188
10.92599999999993,5.618820190429688,0.1843780517578125,3.963455200195313
10.935999999999916,10.93692321777344,-0.233575439453125,10.256085205078126
10.945999999999913,8.982485961914064,-0.0252716064453125,10.301992797851565
10.956000000000016,4.03807373046875,1.0077239990234377,10.378256225585938
10.966000000000008,1.8991088867187504,-0.8429351806640626,6.127542114257813
10.976999999999975,4.116281127929688,-0.2567535400390625,5.295523071289063
10.98599999999999,8.24183349609375,1.0316497802734377,5.133425903320313
10.996999999999955,9.50137634277344,-0.0644500732421875,8.802593994140626
11.007999999999925,7.403982543945313,0.4296173095703125,9.691586303710938
11.01699999999994,3.3062438964843754,0.6057708740234375,10.08770751953125
11.02699999999993,2.648284912109375,-0.921142578125,6.817352294921876
11.03699999999992,4.973721313476563,0.4012054443359375,7.189697265625001
11.046999999999912,6.919934082031251,0.9654052734375,7.132275390625001
11.057000000000016,7.799057006835938,-0.2080047607421875,8.308825683593751
11.067000000000007,6.180328369140626,0.334063720703125,9.037814331054689
11.076999999999998,4.817605590820313,0.100787353515625,8.257086181640625
11.086999999999987,5.775234985351563,-0.8160186767578126,6.3570800781250005
11.09699999999998,6.80150146484375,0.59814453125,6.816604614257813
11.107999999999947,6.718658447265626,0.179443359375,7.222146606445313
11.116999999999962,5.837890625,-0.4367950439453125,9.633566284179688
11.127999999999927,3.894369506835938,0.6567626953125001,8.925662231445314
11.13799999999992,4.654013061523438,-0.1936492919921875,8.962896728515625
11.14799999999991,6.693685913085938,-0.335260009765625,5.9706787109375
11.158000000000015,7.115676879882813,0.7674194335937501,6.87686767578125
11.168000000000006,7.3021484375,0.1224700927734375,7.2991577148437505
11.177999999999995,5.5092102050781255,0.2619873046875,8.836090087890625
11.187999999999988,4.710089111328125,0.624462890625,8.53253173828125
11.19799999999998,5.739495849609376,-0.36905517578125,7.695278930664063
11.20799999999997,5.922528076171876,-0.101983642578125,6.702059936523438
11.21799999999996,3.032891845703125,0.886151123046875,5.891873168945313
11.227999999999945,5.309878540039063,0.0240753173828125,7.580883789062501
11.237999999999944,12.141436767578126,0.8507110595703126,14.319580078125002
11.24799999999994,6.048287963867188,0.39178466796875,8.087362670898438
11.257999999999925,2.7396514892578128,-1.795330810546875,4.9992919921875005
11.267999999999915,3.3736846923828128,-0.0647491455078125,5.006320190429688
11.278999999999996,6.370089721679688,0.2699127197265625,7.256240844726563
11.288999999999987,9.751849365234376,-0.8266357421875,11.4568603515625
11.298999999999978,6.446054077148438,1.1171844482421875,10.873968505859375
11.308999999999967,3.814666748046875,0.140264892578125,7.990313720703125
11.31899999999996,4.52855224609375,-0.8106353759765625,4.540365600585938
11.32899999999995,5.607006835937501,1.2353179931640623,5.3118225097656255
11.338999999999947,8.208337402343751,0.5725738525390626,7.163079833984376
11.34899999999994,7.812814331054688,-0.605322265625,9.996640014648438
11.358999999999924,5.336944580078125,0.9541900634765624,9.724185180664064
11.368999999999916,4.01654052734375,-0.6000885009765625,8.052072143554689
11.378999999999904,5.269354248046875,-0.6271545410156251,5.870639038085938
11.38900000000001,6.458016967773438,1.34761962890625,5.851647949218751
11.399,7.424169921875,-0.5319000244140626,7.80040283203125
11.409999999999968,6.913055419921876,-0.4221405029296875,8.874819946289064
11.41999999999996,4.303350830078125,0.8779266357421875,10.58057861328125
11.42999999999995,4.2504150390625,-0.7840179443359375,7.700662231445313
11.43999999999994,5.306439208984376,0.369354248046875,7.11552734375
11.449999999999932,6.248367309570313,1.1041748046875002,6.5544677734375005
11.459999999999924,7.1334716796875,-0.322100830078125,7.486676025390626
11.469999999999914,6.148626708984375,0.433355712890625,9.01089782714844
11.479999999999905,5.458218383789063,0.858038330078125,8.708535766601564
11.490000000000007,5.923126220703125,-0.9284698486328126,7.440768432617188
11.5,6.081634521484375,0.505133056640625,6.511251831054688
11.509999999999993,5.950939941406251,0.27694091796875,7.506265258789063
11.519999999999976,5.767907714843751,-0.6447998046875001,8.335293579101563
11.52999999999998,5.079443359375,0.402252197265625,9.098825073242187
11.53999999999997,5.414553833007813,0.0306549072265625,8.669207763671876
11.55099999999993,6.768154907226563,-0.7233062744140626,7.035675048828126
11.560999999999916,6.239993286132813,0.6775482177734375,6.642544555664063
11.570999999999913,6.389678955078126,0.18841552734375,7.009954833984375
11.581000000000016,4.980001831054688,-0.381317138671875,7.311569213867188
11.591000000000008,1.8125274658203123,0.4038970947265625,6.336892700195313
11.601,9.2891845703125,0.50064697265625,11.39285888671875
11.61099999999999,11.927899169921876,1.1340820312500002,13.179217529296876
11.62099999999998,2.4226348876953128,-0.06160888671875,3.507070922851563
11.63099999999998,1.0905670166015626,-1.2342712402343752,5.427413940429688
11.64099999999997,4.093551635742188,0.26378173828125,5.615979003906251
11.650999999999954,9.551620483398438,0.5818450927734375,10.888174438476565
11.660999999999945,10.699758911132813,0.4557861328125,12.432135009765624
11.670999999999935,4.239797973632813,1.12869873046875,8.528344726562501
11.680999999999926,2.227041625976563,-0.7819244384765626,5.525210571289063
11.690999999999915,4.240396118164063,-0.9296661376953126,4.267312622070313
11.701999999999998,7.411907958984376,0.85953369140625,5.547491455078125
11.711999999999987,10.814602661132811,-0.2193695068359375,10.303338623046876
11.72199999999998,7.026852416992188,0.4834503173828125,10.259823608398438
11.731999999999973,3.200820922851563,0.70281982421875,9.666314697265626
11.741999999999962,2.3175109863281254,-1.1868682861328126,5.58128662109375
11.751999999999953,5.493508911132813,-0.0222808837890625,5.499490356445313
11.761999999999944,8.942858886718751,0.7412506103515626,6.18900146484375
11.771999999999942,8.751153564453126,-0.558966064453125,8.919082641601562
11.781999999999924,6.439923095703126,0.388494873046875,9.7150634765625
11.791999999999916,2.8915802001953126,0.28172607421875,9.421524047851562
11.801999999999907,3.157156372070313,-1.06051025390625,6.824829101562501
11.812000000000012,5.718112182617188,1.17236328125,7.545294189453125
11.822000000000005,6.548336791992188,0.7732513427734375,7.176089477539063
11.83299999999997,7.918536376953125,-0.109161376953125,8.5355224609375
11.84299999999996,5.553622436523438,0.7983734130859376,8.713320922851564
11.852999999999945,4.9503936767578125,0.020635986328125,7.65684814453125
11.862999999999944,6.624301147460938,-0.6572113037109375,6.436035156250001
11.87299999999994,6.243283081054688,0.9582275390625,7.039712524414063
11.882999999999925,6.792828369140626,-0.3611297607421875,7.944256591796876
11.892999999999915,5.0774993896484375,-0.3162689208984375,9.522012329101564
11.902999999999906,4.000241088867188,0.31402587890625,8.840277099609375
11.913000000000013,5.371786499023438,-0.623565673828125,8.025604248046875
11.922999999999996,6.834548950195313,-0.342138671875,6.411660766601563
11.932999999999993,7.216763305664063,0.8456268310546876,6.880157470703126
11.942999999999984,6.930999755859376,-0.076861572265625,8.236300659179689
11.952999999999982,5.068975830078125,0.5401245117187501,8.113980102539063
11.962999999999964,5.106060791015626,0.6446502685546875,8.464343261718751
11.972999999999956,5.502331542968751,-0.209649658203125,6.649722290039063
11.982999999999947,2.8286254882812503,0.7068572998046876,5.728729248046875
11.993999999999916,6.314761352539063,1.2867584228515625,7.77647705078125
12.003999999999904,11.707333374023438,0.385504150390625,13.451971435546875
12.01400000000001,6.144439697265626,0.6047241210937501,8.944204711914063
12.024,2.0689819335937503,-1.8310699462890627,5.063592529296876
12.033999999999992,2.7133331298828125,-1.32130126953125,5.036376953125
12.043999999999984,7.61318359375,-0.0506927490234375,6.974813842773438
12.05399999999998,9.799850463867188,-0.7397552490234376,11.90008544921875
12.063999999999972,7.278970336914063,0.3727935791015625,10.496090698242188
12.073999999999955,2.942721557617188,0.4981048583984375,8.373873901367189
12.083999999999946,3.772946166992188,-0.78297119140625,4.556964111328125
12.093999999999935,6.0236145019531255,1.2797302246093751,5.235409545898438
12.103999999999928,8.256637573242188,1.24593505859375,7.082778930664063
12.11399999999992,8.290283203125,0.256304931640625,9.779513549804689
12.125,5.183071899414063,0.68487548828125,9.599472045898438
12.134999999999993,3.343927001953125,-0.0154022216796875,7.843618774414063
12.144999999999976,5.433096313476563,-0.6075653076171875,6.079989624023438
12.15499999999998,6.52635498046875,0.8004669189453125,6.174496459960938
12.16499999999997,7.943359375000001,-0.3180633544921875,7.722344970703125
12.174999999999956,6.586318969726563,-0.9200958251953124,9.48597412109375
12.184999999999944,4.116281127929688,0.197088623046875,9.68081970214844
12.194999999999936,3.827078247070313,-0.5932098388671876,8.006912231445312
12.204999999999927,5.6991210937500005,-0.182135009765625,7.041656494140626
12.214999999999918,6.813763427734376,0.9691436767578124,6.484634399414063
12.224999999999907,7.221997070312501,0.053533935546875,8.032183837890626
12.23500000000002,5.9986419677734375,0.6343322753906251,8.531036376953125
12.245000000000005,5.064340209960938,1.1421569824218751,8.977401733398438
12.254999999999995,5.686709594726563,-0.2954833984375,6.861465454101563
12.264999999999986,6.256292724609375,0.314923095703125,6.527700805664063
12.275999999999954,6.343771362304688,0.5498443603515626,7.933041381835938
12.285999999999945,5.49156494140625,-0.313427734375,8.321536254882814
12.295999999999935,4.922579956054688,0.0228790283203125,9.4518798828125
12.305999999999926,5.6861114501953125,-0.15611572265625,7.963845825195313
12.315999999999915,6.438577270507813,-1.04974365234375,7.274932861328126
12.325999999999908,6.950140380859375,0.2250518798828125,6.436483764648438
12.33600000000002,5.979501342773438,0.1471435546875,7.757785034179688
12.346000000000004,5.8805084228515625,-0.3481201171875,8.077493286132814
12.355999999999996,3.748272705078125,0.395672607421875,7.802944946289063
12.366999999999962,1.9895782470703127,0.0360382080078125,5.082284545898438
12.375999999999976,11.796008300781253,0.96959228515625,11.73380126953125
12.385999999999967,10.705441284179688,2.028607177734376,11.161227416992189
12.395999999999958,2.3263336181640626,-0.6371734619140625,4.805792236328125
12.406999999999924,0.9287689208984377,-0.710296630859375,6.2817138671875
12.416999999999916,3.3017578125000004,0.4653564453125,6.827371215820313
12.426999999999907,10.475753784179688,-0.1407135009765625,10.363003540039063
12.437000000000012,10.163821411132814,-0.136676025390625,10.788433837890626
12.447000000000005,4.847811889648438,0.8779266357421875,7.462600708007813
12.456999999999994,3.0293029785156254,-1.7450866699218752,6.297415161132813
12.466999999999985,3.6648315429687504,-0.1000396728515625,4.5949462890625
12.476999999999975,7.712625122070313,0.8679077148437501,7.57669677734375
12.486999999999966,9.949087524414065,-0.119329833984375,9.620706176757814
12.496999999999955,6.589309692382813,1.1758026123046876,9.90332946777344
12.509000000000022,2.967095947265625,0.9488067626953126,8.275030517578125
12.51699999999994,3.2981689453125003,-1.2078033447265626,6.020474243164063
12.52699999999993,6.00836181640625,0.8140747070312501,5.116827392578125
12.538000000000013,9.089404296875,0.0133087158203125,7.528994750976563
12.547999999999996,8.276376342773439,-0.5223297119140625,8.382846069335939
12.557999999999993,5.308084106445313,0.36905517578125,10.737591552734376
12.567999999999984,2.376577758789063,-0.2702117919921875,7.999285888671875
12.577999999999982,3.6696166992187504,-1.0699310302734375,7.9708740234375
12.587999999999964,6.188851928710938,1.12750244140625,6.736154174804688
12.597999999999956,7.656997680664063,0.1580596923828125,7.788589477539063
12.608999999999924,7.995248413085938,0.0608612060546875,7.907919311523438
12.617999999999938,5.170809936523438,1.0643981933593751,8.514437866210939
12.627999999999927,4.847512817382813,-0.1556671142578125,7.381851196289063
12.63799999999992,6.244180297851563,0.093310546875,6.9148498535156255
12.64799999999991,5.963201904296875,1.02462158203125,7.521966552734375
12.658000000000015,6.794473266601563,-0.4598236083984375,8.262170410156251
12.668000000000006,4.668966674804688,-0.0133087158203125,9.175537109375
12.677999999999995,4.346566772460938,0.29368896484375,8.430398559570314
12.687999999999988,6.019876098632813,-0.8335144042968751,7.633969116210938
12.69799999999998,7.055114746093751,-0.1072174072265625,6.39476318359375
12.708999999999946,7.5010314941406255,0.5190399169921875,7.395309448242188
12.718999999999935,6.377716064453126,-0.5283111572265625,7.836441040039063
12.728999999999928,4.383053588867188,0.736614990234375,7.821786499023438
12.73899999999992,1.8203033447265624,0.4436737060546875,6.485382080078126
12.74899999999991,6.052774047851563,0.298773193359375,8.144485473632812
12.759000000000022,12.546829223632814,1.45289306640625,13.344155883789064
12.769000000000004,5.264419555664063,0.8299255371093751,7.214968872070313
12.778999999999996,2.459420776367188,-1.426873779296875,4.9469543457031255
12.788999999999987,3.129791259765625,0.12261962890625,5.631829833984376
12.798999999999978,7.690792846679688,-0.4161590576171875,7.863507080078126
12.808999999999967,10.202999877929688,-0.89542236328125,11.631668090820312
12.81899999999996,6.114831542968751,0.7775878906250001,10.194476318359376
12.829999999999927,2.8453735351562504,-0.6687255859375001,7.256539916992188
12.839999999999918,4.239947509765625,-1.1541198730468751,5.350701904296876
12.849999999999907,5.6467834472656255,1.1565124511718752,5.296719360351563
12.86000000000002,9.407168579101564,0.3600830078125,8.065829467773439
12.870000000000005,8.256936645507814,0.0480010986328125,9.761270141601564
12.879999999999995,4.722650146484376,1.0883239746093751,8.9542236328125
12.889999999999986,3.52666015625,-0.523077392578125,7.854385375976563
12.899999999999975,4.678387451171876,0.2172760009765625,5.315859985351563
12.909999999999968,6.921429443359376,1.4771179199218751,7.12210693359375
12.91999999999996,8.257983398437501,-0.205462646484375,7.628436279296875
12.92999999999995,6.156402587890626,-0.1706207275390625,9.635809326171875
12.93999999999994,4.442568969726563,0.3560455322265625,9.09119873046875
12.949999999999932,3.622064208984375,-1.04017333984375,7.869189453125
12.959999999999924,5.802450561523438,0.2986236572265625,6.808978271484375
12.971000000000004,6.861614990234376,0.5461059570312501,7.494451904296875
12.980999999999996,7.225436401367188,-0.8052520751953126,7.628585815429688
12.990999999999984,5.955426025390626,0.6639404296875,9.068170166015626
13.000999999999976,4.788595581054688,0.4146636962890625,8.330209350585939
13.010999999999967,5.945407104492188,-0.5135070800781251,6.966439819335938
13.020999999999958,6.41031494140625,0.68607177734375,6.75723876953125
13.030999999999947,6.0950927734375,0.389691162109375,7.666268920898438
13.04099999999994,6.043203735351563,-0.156414794921875,8.662777709960938
13.05099999999993,4.380212402343751,0.7871582031250001,9.193182373046875
13.060999999999916,5.687457275390625,-0.0958526611328125,7.919433593750001
13.070999999999913,6.5568603515625,-0.6126495361328126,6.891522216796876
13.081000000000016,6.623553466796875,0.7225585937500001,6.502578735351563
13.091000000000008,5.746524047851563,-0.5136566162109375,6.926962280273438
13.101,2.0039337158203128,-0.9500030517578124,5.25589599609375
13.111999999999966,7.041207885742188,0.2367156982421875,9.79521484375
13.12099999999998,13.63709716796875,1.1581573486328125,16.323663330078126
13.131999999999948,5.190548706054688,-0.31163330078125,5.543753051757813
13.14199999999994,-0.3084930419921875,-0.8261871337890626,4.344323730468751
13.15199999999993,1.414910888671875,0.232977294921875,3.8909301757812496
13.16199999999992,8.351742553710938,0.9494049072265626,9.79102783203125
13.171999999999912,12.220989990234376,1.3568908691406252,12.881790161132814
13.182000000000016,6.751107788085938,1.270458984375,10.244869995117188
13.192000000000007,2.3475677490234377,-0.1900604248046875,5.7758331298828125
13.201999999999998,2.463607788085937,-0.5585174560546875,4.215872192382813
13.211999999999987,5.585324096679688,0.5686859130859375,4.38858642578125
13.22199999999998,11.160629272460938,-0.2558563232421875,9.945498657226564
13.232999999999947,8.784500122070312,-0.0028411865234375,10.660879516601565
13.241999999999962,4.284957885742188,0.3058013916015625,10.389471435546875
13.251999999999953,1.872491455078125,-1.2472808837890623,6.163580322265625
13.261999999999944,3.698028564453125,-0.6721649169921875,5.056564331054688
13.271999999999942,8.762069702148438,0.2038177490234375,5.519827270507813
13.283000000000015,9.378158569335938,-0.4714874267578125,8.5379150390625
13.293000000000006,7.412655639648438,0.3518585205078125,10.0906982421875
13.302999999999995,3.409722900390625,0.7618865966796875,10.251150512695313
13.312999999999988,2.1648345947265626,-0.5250213623046875,6.701760864257813
13.32299999999998,5.231072998046876,0.8750854492187501,7.018179321289063
13.33299999999997,6.576898193359376,1.275543212890625,6.495700073242188
13.34299999999996,8.145083618164064,0.5522369384765625,8.626589965820314
13.352999999999945,6.405828857421875,0.602630615234375,9.014187622070311
13.362999999999944,4.402792358398438,0.070880126953125,8.237945556640625
13.37299999999994,6.063092041015626,-0.7971771240234375,6.295620727539063
13.382999999999925,6.292630004882813,0.3431854248046875,6.930401611328126
13.392999999999915,7.055413818359376,-0.3946258544921875,7.408468627929688
13.402999999999906,5.6766906738281255,-0.7034179687500001,9.525601196289063
13.413000000000013,4.056167602539063,-0.1347320556640625,9.170004272460938
13.42599999999993,4.83719482421875,-0.3431854248046875,8.478399658203125
13.433999999999967,6.48209228515625,-0.319708251953125,6.725985717773438
13.44399999999996,7.282559204101563,0.8620758056640626,6.067877197265625
13.45399999999995,7.414898681640626,0.341839599609375,7.92900390625
13.463999999999947,5.229876708984375,0.72794189453125,7.9660888671875005
13.47399999999994,4.763323974609375,1.06649169921875,8.796463012695312
13.483999999999924,4.0018859863281255,0.2310333251953125,6.5499816894531255
13.493999999999916,3.148333740234375,0.2884552001953125,5.137911987304688
13.503999999999904,10.63919677734375,0.9885833740234377,11.073001098632814
13.51400000000001,10.059295654296877,0.659454345703125,11.747409057617189
13.525999999999954,3.4544342041015628,-0.6832305908203126,7.438375854492188
13.533999999999992,0.881964111328125,-1.5062774658203126,4.528103637695313
13.54499999999996,4.296621704101563,-1.030303955078125,5.737252807617188
13.55499999999995,10.512539672851563,-0.4789642333984375,9.285894775390624
13.56499999999994,9.57315368652344,0.1003387451171875,11.64393005371094
13.574999999999932,5.224044799804688,0.639715576171875,9.178677368164063
13.584999999999924,2.356539916992188,-0.4015045166015625,6.612936401367188
13.594999999999914,3.664981079101562,0.11962890625,4.470831298828125
13.604999999999905,7.875320434570313,1.3896392822265626,6.433493041992188
13.615000000000007,8.901736450195314,0.6706695556640625,8.442959594726563
13.625999999999976,7.038665771484376,0.7089508056640625,10.194625854492188
13.634999999999993,3.766665649414063,0.093310546875,8.870333862304689
13.644999999999976,3.0925567626953128,-0.6446502685546875,6.636264038085938
13.65499999999998,6.55087890625,0.2528656005859375,5.9552764892578125
13.66499999999997,7.661633300781251,0.3712982177734375,6.815856933593751
13.67599999999993,8.353387451171876,-0.6304443359375,8.357873535156251
13.685999999999916,5.407675170898438,-0.0145050048828125,9.870132446289062
13.695999999999913,3.1082580566406253,-0.2983245849609375,8.824874877929688
13.704999999999927,4.334454345703126,-0.3835601806640625,7.350747680664063
13.716000000000008,5.995950317382813,0.5461059570312501,7.222445678710938
13.726,7.457217407226563,0.4012054443359375,6.731967163085938
13.73599999999999,6.916793823242188,0.1834808349609375,8.922372436523439
13.74599999999998,5.170809936523438,0.9356475830078126,8.300900268554688
13.75599999999998,5.399600219726563,0.2974273681640625,8.379855346679689
13.76599999999997,6.130981445312501,-0.14415283203125,6.280517578125001
13.775999999999954,6.400146484375001,0.5854339599609375,6.872381591796875
13.785999999999945,6.451138305664063,-0.1280029296875,8.386584472656251
13.795999999999935,4.682574462890625,0.0883758544921875,8.765060424804688
13.805999999999926,4.84556884765625,-0.046356201171875,9.2652587890625
13.815999999999915,6.028399658203125,-0.57421875,7.419235229492188
13.825999999999908,6.800454711914063,-0.28411865234375,6.902288818359375
13.83600000000002,6.927560424804688,0.395074462890625,6.814810180664063
13.84699999999998,5.7877960205078125,-0.287408447265625,7.6957275390625
13.856999999999973,3.122613525390625,-0.116937255859375,6.8864379882812505
13.866999999999962,2.967095947265625,-0.078656005859375,5.994754028320313
13.876999999999953,12.6914306640625,0.8544494628906251,13.991497802734376
13.886999999999944,9.791476440429689,1.6958892822265623,9.644183349609376
13.896999999999942,1.0371826171875,-0.8273834228515625,4.958020019531251
13.906999999999924,0.4194488525390625,-0.1987335205078125,4.855288696289063
13.916999999999916,4.499542236328125,0.6482391357421875,7.709634399414063
13.926999999999907,11.1936767578125,0.393280029296875,10.530633544921876
13.937000000000012,10.495941162109377,0.593359375,11.376409912109375
13.947000000000005,4.058560180664063,0.5480499267578125,6.590206909179688
13.956999999999994,2.556021118164063,-1.57491455078125,6.175393676757813
13.966999999999985,3.3540954589843754,0.0587677001953125,4.120916748046875
13.976999999999975,8.452230834960938,0.1383209228515625,8.548382568359376
13.987999999999944,10.297805786132812,-0.2325286865234375,9.451132202148438
13.99799999999994,6.330612182617188,0.8661132812500001,10.8252197265625
14.007999999999925,2.759390258789063,0.100189208984375,7.278521728515625
14.017999999999915,2.8138214111328126,-1.0065277099609375,6.088064575195313
14.027999999999906,6.440521240234376,0.745587158203125,4.886392211914063
14.038000000000013,9.342718505859375,0.0632537841796875,7.575949096679688
14.047999999999996,8.590850830078125,-0.1960418701171875,9.10794677734375
14.057999999999993,5.046395874023438,0.8124298095703125,10.192532348632811
14.067999999999984,2.2336212158203126,-0.42528076171875,8.298208618164063
14.077999999999982,3.6936920166015614,-0.462066650390625,6.926364135742188
14.087999999999964,5.959912109375001,1.2342712402343752,7.301251220703126
14.097999999999956,8.026351928710938,0.13338623046875,7.607052612304688
14.107999999999947,7.454824829101563,0.2432952880859375,8.641094970703126
14.117999999999938,5.206997680664063,0.5603118896484376,8.516531372070313
14.128999999999904,4.952188110351563,-0.5280120849609375,6.960009765625
14.13900000000001,6.210235595703126,-0.041571044921875,6.973468017578125
14.149,6.563739013671875,0.76981201171875,6.996047973632813
14.158999999999992,6.770098876953125,-0.68726806640625,8.933438110351563
14.168999999999984,4.566683959960938,0.261688232421875,8.9446533203125
14.17899999999998,4.0805419921875,0.0491973876953125,8.956167602539063
14.188999999999972,5.756243896484375,-0.5118621826171875,7.221997070312501
14.198999999999955,7.188351440429688,0.2687164306640625,6.339434814453125
14.208999999999946,7.408917236328126,0.5265167236328125,7.295867919921876
14.218999999999935,6.686956787109375,-0.0596649169921875,7.909863281250001
14.228999999999928,4.48309326171875,0.7499237060546875,8.536419677734376
14.23899999999992,4.494158935546875,0.282025146484375,7.335195922851563
14.24899999999991,2.036981201171875,-0.003289794921875,5.34501953125
14.259000000000022,9.018972778320313,1.2716552734375002,10.001724243164062
14.269000000000004,11.058795166015626,1.09998779296875,12.79954528808594
14.27999999999998,3.6277465820312496,-0.4272247314453125,6.063092041015626
14.28999999999997,2.5144500732421875,-1.0048828125,5.701214599609376
14.299999999999956,4.375875854492188,-1.0029388427734376,5.231820678710938
14.309999999999944,9.413449096679688,-0.6181823730468751,8.840875244140626
14.319999999999936,9.073703002929689,0.02452392578125,11.64527587890625
14.329999999999927,4.4564758300781255,0.34632568359375,9.559396362304687
14.339999999999918,3.423629760742188,-0.7596435546875,7.226333618164063
14.349999999999907,3.7976196289062494,-0.0686370849609375,4.812969970703126
14.36000000000002,7.54140625,0.9849945068359376,5.723794555664063
14.370000000000005,9.230267333984376,0.7428955078125,8.567672729492188
14.379999999999995,6.949990844726563,0.6424072265625,9.476403808593751
14.389999999999986,4.236807250976563,0.59814453125,9.12469482421875
14.399999999999975,3.540118408203125,-0.5431152343750001,7.098629760742188
14.409999999999968,5.663980102539063,0.7251007080078126,5.636914062500001
14.420999999999935,7.77049560546875,0.4744781494140625,7.201660156250001
14.430999999999926,7.4800964355468755,-0.414215087890625,7.787542724609375
14.440999999999915,5.7713470458984375,-0.1009368896484375,10.123147583007814
14.450999999999908,3.525164794921875,-0.31043701171875,8.644683837890625
14.46100000000002,4.268209838867188,-0.66334228515625,7.808178710937501
14.471000000000004,6.391921997070313,0.3961212158203125,7.039263916015625
14.480999999999996,7.109695434570313,0.0043365478515625,7.032235717773438
14.490999999999984,6.927560424804688,-0.0384307861328125,8.0869140625
14.500999999999976,5.476910400390626,0.8990112304687501,8.951681518554688
14.510999999999967,4.992562866210938,0.2618377685546875,7.919284057617188
14.520999999999958,6.3319580078125,0.1054229736328125,6.992758178710938
14.530999999999947,6.133972167968751,0.5347412109375,6.809725952148438
14.54099999999994,6.259881591796876,0.282025146484375,8.1311767578125
14.55099999999993,5.150921630859376,0.1362274169921875,8.760125732421876
14.562000000000012,4.701416015625,0.265875244140625,8.854632568359376
14.572000000000005,6.415548706054688,-0.5298065185546875,7.751055908203125
14.581999999999994,6.400296020507813,-0.2932403564453125,6.644488525390625
14.591999999999985,6.868344116210938,0.2092010498046875,7.090405273437501
14.601999999999975,5.661288452148438,-0.4873382568359375,7.218856811523438
14.611999999999966,1.8650146484375,-0.7032684326171875,5.69254150390625
14.621999999999955,5.850003051757813,-0.2130889892578125,8.172747802734376
14.631999999999948,13.428942871093753,1.1892608642578126,15.634451293945313
14.64199999999994,7.124349975585938,0.8424865722656251,7.451235961914063
14.65199999999993,0.0198883056640625,-0.96600341796875,4.3283233642578125
14.66199999999992,0.8795715332031251,0.25780029296875,4.123907470703125
14.671999999999912,6.898849487304688,1.3752838134765626,8.941961669921875
14.682000000000016,12.116314697265626,0.9347503662109377,12.157586669921876
14.692000000000007,8.10186767578125,0.9290679931640624,10.362106323242188
14.701999999999998,2.810531616210937,0.1009368896484375,6.397305297851563
14.711999999999987,2.2832672119140627,-1.2907958984375,4.678836059570313
14.722999999999956,5.045797729492188,0.6507812500000001,4.80609130859375
14.732999999999947,10.068118286132814,-0.2044158935546875,9.269595336914064
14.742999999999938,9.578836059570314,-0.2859130859375,10.19656982421875
14.752999999999927,4.9743194580078125,0.57960205078125,10.550521850585938
14.76299999999992,1.9100250244140624,-0.7122406005859375,6.350201416015626
14.77299999999991,3.670513916015625,-0.8985626220703126,5.4419189453125005
14.783000000000015,7.9445556640625,0.6476409912109375,5.265914916992188
14.793000000000006,9.3777099609375,-0.536236572265625,8.201608276367189
14.802999999999995,7.71427001953125,0.3345123291015625,10.147073364257814
14.812999999999988,3.440826416015625,0.9117218017578126,10.457211303710938
14.82299999999998,2.008868408203125,-0.466253662109375,7.137808227539063
14.83299999999997,5.031292724609376,0.2175750732421875,6.827520751953125
14.843999999999935,6.637310791015626,1.3836578369140626,6.429306030273438
14.853999999999928,8.689395141601564,0.1864715576171875,8.400042724609376
14.86399999999992,6.560000610351563,0.4978057861328125,8.797061157226564
14.87399999999991,4.5581604003906255,0.2480804443359375,8.347705078125001
14.884000000000022,5.45029296875,-0.8508605957031251,6.854437255859375
14.894000000000004,6.083279418945313,0.18961181640625,6.802398681640626
14.903999999999996,6.930850219726563,0.173162841796875,7.605407714843751
14.913999999999987,6.084027099609376,-0.8239440917968751,9.007907104492189
14.92599999999993,4.2623779296875,0.083740234375,9.212322998046876
14.933999999999967,4.7305755615234375,-0.052337646484375,8.421426391601564
14.94399999999996,6.283508300781251,-0.4218414306640625,7.072460937500001
14.95399999999995,7.434188842773438,0.757550048828125,5.909368896484375
14.963999999999947,7.246820068359375,0.425579833984375,7.928405761718751
14.97399999999994,5.583828735351563,0.285015869140625,7.80399169921875
14.983999999999924,4.500140380859375,0.9464141845703126,9.22622985839844
14.993999999999916,4.972824096679688,0.1466949462890625,6.913653564453125
15.003999999999904,2.8787200927734378,-0.0551788330078125,5.200418090820313
15.014999999999986,6.988571166992188,0.9271240234375,7.498638916015626
15.025999999999954,12.15713806152344,0.7153808593750001,13.745660400390626
15.034999999999968,6.202758789062501,0.1176849365234375,9.418084716796876
15.04499999999996,1.1864196777343752,-1.317263793945313,4.870989990234375
15.05499999999995,2.020681762695313,-1.3358062744140626,4.840484619140625
15.06499999999994,7.982986450195313,-0.1045257568359375,7.001431274414063
15.074999999999932,10.57340087890625,-0.203369140625,11.903674316406253
15.084999999999924,7.444656372070313,0.560760498046875,10.58656005859375
15.094999999999914,2.97576904296875,0.2654266357421875,8.231515502929689
15.104999999999905,2.651724243164063,-0.3751861572265625,4.4539337158203125
15.115000000000007,6.139205932617188,1.0340423583984375,5.289392089843751
15.125999999999976,8.9661865234375,0.934002685546875,7.101919555664063
15.135999999999967,8.513839721679688,0.40135498046875,10.211972045898438
15.145999999999958,5.1069580078125005,0.4640106201171875,9.780709838867187
15.155999999999947,2.53194580078125,-0.3934295654296875,7.833001708984375
15.16599999999994,5.015740966796876,-0.4115234375,5.67998046875
15.17599999999993,7.0883117675781255,0.4762725830078125,6.131729125976563
15.185999999999916,8.615075683593751,-0.3061004638671875,7.416094970703125
15.197000000000005,6.993505859375,-0.4486083984375,9.569564819335938
15.206000000000016,4.0980377197265625,0.1244140625,9.561788940429688
15.216000000000008,3.540716552734376,-0.421392822265625,7.978948974609375
15.226,5.088714599609375,0.0695343017578125,7.317550659179688
15.23599999999999,6.541009521484376,0.9739288330078124,6.61368408203125
15.24599999999998,7.267306518554688,0.098992919921875,8.103961181640626
15.25599999999998,6.051129150390626,0.6299957275390625,8.545092773437501
15.26599999999997,5.282962036132813,0.7923919677734376,8.730816650390626
15.27699999999993,5.9567718505859375,-0.2077056884765625,7.083526611328126
15.285999999999945,6.3558837890625,0.265576171875,6.248666381835938
15.296999999999912,6.388931274414063,0.2905487060546875,7.766159057617188
15.307000000000016,5.468835449218751,-0.308343505859375,8.40692138671875
15.317000000000007,4.49625244140625,-0.079852294921875,9.505862426757814
15.326999999999998,5.5739593505859375,-0.2435943603515625,8.368490600585938
15.336999999999987,6.3056396484375,-0.740203857421875,7.131826782226563
15.34699999999998,7.05272216796875,0.2835205078125,6.648226928710938
15.356999999999973,6.358425903320313,0.1828826904296875,7.390673828125
15.366999999999962,5.645437622070313,-0.0083740234375,7.903732299804688
15.376999999999953,4.335202026367188,0.2573516845703125,7.309326171875001
15.386999999999944,1.9731292724609373,-0.2763427734375,4.771099853515626
15.396999999999942,10.673291015625,0.9449188232421876,11.285491943359377
15.406999999999924,12.482229614257813,2.237957763671876,14.176174926757811
15.416999999999916,2.0529815673828127,-0.7479797363281251,4.5088134765625005
15.427999999999995,-0.6125,-1.54500732421875,4.620367431640625
15.437999999999988,2.7193145751953125,0.4556365966796875,5.381207275390626
15.44799999999998,11.13087158203125,0.1591064453125,11.0333740234375
15.45799999999997,12.096127319335938,0.380120849609375,12.375161743164064
15.46799999999996,4.739996337890625,1.0962493896484375,8.74906005859375
15.477999999999945,1.4826507568359375,-1.1533721923828126,5.276681518554688
15.487999999999944,2.9096740722656254,-0.5822937011718751,4.670910644531251
15.49799999999994,7.462002563476563,1.2583465576171875,5.256643676757813
15.507999999999925,11.517422485351563,-0.2423980712890625,10.687945556640626
15.517999999999915,7.6119873046875,0.926824951171875,10.143634033203126
15.527999999999906,2.490225219726563,1.11553955078125,9.725680541992189
15.538000000000013,1.9219879150390624,-1.317413330078125,5.644091796875
15.547999999999996,5.140902709960938,0.2859130859375,4.901943969726563
15.558999999999967,9.798654174804687,0.2355194091796875,6.4079223632812505
15.567999999999984,9.5332275390625,-0.768316650390625,8.601766967773438
15.57899999999995,5.96051025390625,0.31043701171875,10.41728515625
15.588999999999947,2.4607666015625003,-0.02093505859375,8.934185791015626
15.59899999999994,2.757745361328125,-1.4431732177734375,6.976757812500001
15.608999999999924,5.994903564453125,0.837103271484375,7.233511352539063
15.618999999999916,7.336392211914063,0.7850646972656251,7.710382080078125
15.628999999999904,7.691690063476563,0.13577880859375,8.479296875000001
15.63900000000001,5.49156494140625,1.1560638427734375,8.746817016601563
15.649,4.433447265625,-0.02452392578125,7.35777587890625
15.658999999999992,6.729873657226563,-0.2112945556640625,6.375473022460938
15.668999999999984,6.587515258789063,1.1626434326171875,6.883297729492188
15.67899999999998,6.936981201171876,-0.1194793701171875,8.147476196289062
15.688999999999972,5.094097900390626,-0.356195068359375,9.407766723632813
15.698999999999955,3.3273284912109378,0.3058013916015625,9.186752319335938
15.709999999999924,5.5081634521484375,-0.9296661376953126,7.844366455078125
15.719999999999914,6.816305541992188,-0.331671142578125,6.471176147460938
15.728999999999928,7.730270385742188,0.4933197021484375,6.709536743164063
15.740000000000007,6.945654296875,-0.4251312255859375,7.98642578125
15.75,4.964749145507813,0.403448486328125,8.664273071289063
15.759999999999993,4.84556884765625,0.708502197265625,8.323928833007812
15.769999999999976,5.825778198242188,-0.253314208984375,7.23336181640625
15.77999999999998,5.049386596679688,0.5897705078125001,5.626446533203126
15.78999999999997,3.1116973876953127,0.9900787353515624,6.320144653320313
15.799999999999956,9.331802368164062,0.4200469970703125,11.566619873046877
15.809999999999944,9.427655029296876,1.56055908203125,12.808218383789065
15.819999999999936,3.6563079833984378,-0.404345703125,6.066531372070313
15.829999999999927,2.319454956054688,-1.7166748046875002,3.743637084960938
15.841999999999985,5.548837280273438,0.0873291015625,5.886190795898438
15.851,8.690740966796875,-0.676800537109375,9.073403930664064
15.86099999999999,8.982934570312501,-0.6298461914062501,12.6603271484375
15.87099999999998,4.572216796875001,1.1025299072265626,9.615472412109376
15.88099999999998,2.902047729492188,-1.011163330078125,6.16806640625
15.89099999999997,5.452386474609376,-0.3375030517578125,4.1010284423828125
15.900999999999954,6.791931152343751,1.5357360839843752,6.149374389648438
15.910999999999945,8.751153564453126,-0.15850830078125,8.911456298828126
15.920999999999935,6.835745239257813,0.59515380859375,10.394107055664064
15.930999999999926,3.816610717773438,0.9055908203125,9.075796508789065
15.942999999999984,4.6607421875,-0.68726806640625,6.382949829101563
15.950999999999908,5.83489990234375,0.446514892578125,5.468835449218751
15.96100000000002,7.146182250976563,1.047052001953125,6.554318237304688
15.971000000000004,7.638156127929688,-0.8360565185546875,8.835192871093751
15.980999999999996,5.33006591796875,0.196490478515625,9.719699096679689
15.990999999999984,4.2994628906250005,0.110357666015625,9.362307739257814
16.001999999999953,4.524514770507813,-1.1171844482421875,7.165771484375001
16.011999999999944,5.6739990234375,0.7047637939453125,6.674993896484375
16.02199999999994,6.696676635742188,0.265576171875,7.236352539062499
16.031999999999925,6.825726318359376,-0.435748291015625,8.477053833007814
16.041999999999916,5.9874267578125,1.093109130859375,8.991159057617189
16.051999999999907,5.481396484375001,0.1443023681640625,8.1790283203125
16.062000000000012,6.271694946289063,-0.435748291015625,6.0938964843750005
16.072000000000003,5.800656127929688,1.0488464355468752,7.180426025390625
16.081999999999994,5.954379272460938,-0.041571044921875,7.968331909179688
16.091999999999985,5.320346069335938,-0.03409423828125,8.998934936523439
16.101999999999975,5.216268920898438,0.6578094482421876,9.302044677734376
16.111999999999966,5.9652954101562505,-0.5336944580078126,7.40084228515625
16.121999999999957,6.658395385742188,-0.347821044921875,7.011300659179688
16.132999999999925,6.17105712890625,0.6018829345703125,6.4826904296875005
16.142999999999915,6.191244506835938,-0.4861419677734375,8.08392333984375
16.152999999999906,5.911312866210938,0.0333465576171875,8.10186767578125
16.16300000000001,3.982595825195313,0.1804901123046875,7.858123779296876
16.172999999999995,2.34652099609375,-0.8094390869140625,4.415203857421876
16.182999999999993,10.731011962890626,1.052734375,11.239285278320311
16.192999999999984,11.738885498046876,1.856640625,12.793862915039064
16.20299999999998,2.929562377929688,-1.0863800048828125,5.077947998046875
16.212999999999965,-0.3069976806640625,-0.8152709960937501,5.7638702392578125
16.222999999999956,3.1863159179687504,0.7261474609375,5.807086181640625
16.233999999999924,10.483978271484377,0.0650482177734375,10.813705444335938
16.242999999999938,10.970419311523438,0.6996795654296876,10.822079467773438
16.25299999999993,4.9693847656250005,0.997705078125,8.361611938476564
16.26299999999992,2.66533203125,-1.3968170166015623,5.831311035156251
16.27299999999991,3.2519622802734376,0.1090118408203125,4.758837890625
16.283000000000015,7.362411499023438,0.8172149658203126,6.576000976562501
16.293999999999983,10.52734375,-0.243145751953125,9.906768798828123
16.30399999999998,6.863259887695313,1.1481384277343751,10.1696533203125
16.31399999999997,2.980703735351563,0.5073760986328125,8.829211425781251
16.323999999999955,2.9416748046875,-1.2667205810546875,5.863610839843751
16.333999999999946,5.654110717773438,0.3955230712890625,5.283859252929688
16.343999999999937,9.327615356445314,-0.232977294921875,6.6636291503906255
16.353999999999928,8.47271728515625,-0.6567626953125001,8.694927978515626
16.36399999999992,5.756842041015625,0.5304046630859376,10.5835693359375
16.37399999999991,2.57381591796875,-0.334063720703125,8.591299438476563
16.38400000000002,3.4646026611328127,-1.0017425537109377,7.3942626953125
16.394000000000005,5.97366943359375,1.1037261962890623,6.768453979492188
16.403999999999996,7.431646728515625,0.5148529052734375,7.677334594726563
16.413999999999987,7.646978759765625,0.457281494140625,8.13416748046875
16.423999999999978,5.23436279296875,1.184326171875,8.845062255859375
16.434999999999945,5.126995849609376,-0.2797821044921875,7.404879760742188
16.444999999999936,6.217114257812501,0.1375732421875,6.590206909179688
16.454999999999927,6.303396606445313,0.8623748779296876,7.310971069335938
16.464999999999918,6.805538940429688,-0.426776123046875,8.028594970703125
16.47499999999991,4.7136779785156255,-0.2739501953125,9.494348144531251
16.48500000000002,4.166973876953126,0.0279632568359375,8.349948120117189
16.495000000000005,5.836843872070313,-1.015200805664063,8.252151489257812
16.504999999999995,7.037170410156251,-0.002392578125,6.213824462890625
16.514999999999986,7.259231567382813,0.3327178955078125,7.295718383789063
16.524999999999977,6.620712280273438,-0.28172607421875,7.748214721679688
16.534999999999968,4.84197998046875,0.7108947753906251,8.310021972656251
16.54499999999996,4.7675109863281255,0.5299560546875001,7.738644409179688
16.55499999999995,3.079248046875,0.0022430419921875,5.715719604492188
16.565999999999917,6.626843261718751,1.137969970703125,8.451632690429689
16.575999999999908,11.092739868164063,1.3186096191406251,12.382937622070314
16.58600000000002,5.248120117187501,0.5550781250000001,8.358770751953125
16.596000000000004,2.262481689453125,-0.494964599609375,5.145986938476563
16.605999999999995,4.105065917968751,-0.8942260742187501,5.749365234375
16.615999999999985,8.079437255859375,-0.7917938232421876,7.222894287109375
16.625999999999976,9.599322509765626,-0.2859130859375,11.703445434570312
16.635999999999967,5.3222900390625005,0.0203369140625,9.617864990234375
16.645999999999958,3.3225433349609377,-0.221612548828125,8.217309570312501
