time,ax,ay,az
0.0,6.276928710937501,-0.2980255126953125,7.141845703125001
0.0099999999999909,6.5712158203125,-0.3624755859375,7.594940185546876
0.0199999999999818,6.6950317382812505,-0.391485595703125,8.001678466796875
0.0299999999999656,5.790188598632813,-0.415411376953125,7.295269775390626
0.0399999999999707,6.1133361816406255,-0.319110107421875,7.5641357421875
0.0510000000000516,6.579739379882813,0.302362060546875,7.20584716796875
0.0610000000000425,6.813314819335938,0.5505920410156251,7.221997070312501
0.0710000000000263,6.942514038085938,0.5489471435546875,7.138406372070313
0.0810000000000172,6.468634033203125,0.6814361572265626,7.974163818359376
0.0910000000000081,5.72125244140625,0.599639892578125,7.489666748046876
0.100999999999999,5.646035766601563,0.5807983398437501,7.8030944824218755
0.11099999999999,6.1345703125,0.620574951171875,7.426263427734375
0.1209999999999809,6.747518920898438,0.3707000732421875,7.590454101562501
0.1309999999999718,6.545495605468751,0.119329833984375,7.1825195312500005
0.1409999999999698,6.64359130859375,0.215032958984375,7.458264160156251
0.1510000000000673,6.3286682128906255,-0.0336456298828125,7.534378051757813
0.1620000000000416,6.051876831054688,-0.048150634765625,7.306335449218751
0.1710000000000491,6.460409545898438,0.043365478515625,7.470376586914063
0.1820000000000163,6.507064819335938,-0.047552490234375,7.758981323242188
0.1920000000000072,6.184216308593751,-0.024822998046875,7.482040405273438
0.2019999999999981,6.195281982421876,0.20994873046875,7.617669677734375
0.211999999999989,6.456222534179688,0.076263427734375,7.295269775390626
0.22199999999998,6.5245605468750005,0.386102294921875,7.427011108398438
0.2319999999999709,6.553121948242188,0.4248321533203125,7.215118408203126
0.2419999999999618,6.4886718750000005,0.4018035888671875,7.597183227539063
0.2520000000000664,6.252105712890626,0.194696044921875,7.504171752929688
0.2620000000000573,6.079690551757813,0.222808837890625,7.651165771484376
0.2720000000000482,6.320443725585938,0.134881591796875,7.475610351562499
0.2820000000000391,6.386239624023438,0.1658355712890625,7.470227050781251
0.29200000000003,6.3525939941406255,-0.11304931640625,7.411459350585938
0.3020000000000209,6.560150146484376,-0.1329376220703125,7.504769897460938
0.3120000000000118,6.346313476562501,-0.049346923828125,7.405477905273438
0.3229999999999791,6.473269653320313,0.011663818359375,7.447647094726563
0.33299999999997,6.377716064453126,0.0465057373046875,7.563388061523438
0.3429999999999609,6.155654907226563,0.3105865478515625,7.411758422851563
0.3530000000000655,6.269302368164063,0.2465850830078125,7.678680419921876
0.3630000000000564,6.192739868164063,0.50543212890625,7.502078247070313
0.375,6.476858520507813,0.3808685302734375,7.522265625
0.3830000000000382,6.47850341796875,0.3476715087890625,7.342822265625
0.3930000000000291,6.3525939941406255,0.1763031005859375,7.432992553710938
0.40300000000002,6.34093017578125,0.1146942138671875,7.466787719726563
0.4130000000000109,6.232067871093751,-0.0465057373046875,7.529443359375
0.4230000000000018,6.350799560546876,-0.087030029296875,7.454525756835938
0.4329999999999856,6.420782470703125,-0.16688232421875,7.715017700195313
0.4440000000000736,6.211282348632813,-0.0805999755859375,7.265512084960938
0.4540000000000646,6.405380249023438,0.054730224609375,7.629782104492188
0.4640000000000555,6.417193603515625,0.0803009033203125,7.284951782226563
0.4750000000000156,6.523812866210938,0.2337249755859375,7.484432983398438
0.4840000000000373,6.495849609375001,0.384906005859375,7.240390014648438
0.4940000000000282,6.219207763671876,0.383709716796875,7.290484619140625
0.5040000000000191,6.5798889160156255,0.423486328125,7.678231811523438
0.51400000000001,6.399398803710938,0.3158203125,8.06298828125
0.5240000000000009,5.570968627929688,-0.0031402587890625,7.104611206054688
0.5339999999999918,6.267657470703125,0.1096099853515625,7.500881958007813
0.5439999999999827,6.881802368164063,0.1208251953125,7.299008178710938
0.5539999999999736,6.6815734863281255,0.1888641357421875,7.395608520507813
0.5639999999999716,6.378314208984375,0.1454986572265625,7.439871215820313
0.5750000000000526,6.028997802734375,0.2367156982421875,7.843170166015626
0.5850000000000364,5.8773681640625,0.0662445068359375,7.470825195312501
0.5950000000000273,6.173300170898438,0.4553375244140625,7.504769897460938
0.6050000000000182,6.717163085937501,0.5265167236328125,7.629931640625
0.6150000000000091,6.540411376953125,0.5665924072265626,7.4681335449218755
0.625,6.174945068359375,0.413616943359375,7.197622680664063
0.6349999999999909,6.633871459960938,0.266473388671875,7.479797363281251
0.6449999999999818,6.570468139648438,-0.1688262939453125,7.359570312500001
0.6549999999999656,6.353341674804688,-0.133685302734375,7.227978515625001
0.6649999999999707,6.553570556640626,-0.311334228515625,7.7283264160156255
0.6750000000000682,6.159393310546876,-0.3596343994140625,7.730569458007813
0.6850000000000591,6.02630615234375,-0.4248321533203125,7.462750244140626
0.69500000000005,6.524859619140625,-0.27933349609375,7.562939453125001
0.7050000000000409,6.6322265625000005,-0.0910675048828125,7.307382202148438
0.7160000000000082,6.609197998046875,0.2522674560546875,7.351345825195313
0.7259999999999991,6.389230346679688,0.411224365234375,7.410263061523438
0.73599999999999,6.393716430664063,0.55447998046875,7.439871215820313
0.7459999999999809,6.314163208007813,0.4927215576171875,7.603912353515626
0.7559999999999718,6.244628906250001,0.585882568359375,7.394113159179688
0.7659999999999698,6.434689331054688,0.449505615234375,7.705746459960938
0.7760000000000673,6.199020385742188,0.2782867431640625,7.358523559570313
0.7860000000000582,6.237002563476563,0.0155517578125,7.503125000000001
0.7960000000000491,6.46055908203125,-0.0459075927734375,7.460507202148438
0.80600000000004,6.484036254882813,-0.216229248046875,7.363607788085938
0.8160000000000309,6.542056274414063,-0.1326385498046875,7.396505737304688
0.8260000000000218,6.3585754394531255,-0.083740234375,7.60062255859375
0.8360000000000198,6.024362182617188,-0.0171966552734375,7.438076782226563
0.8460000000000107,6.160440063476563,0.203668212890625,7.621408081054688
0.8569999999999709,6.194235229492188,0.37982177734375,7.5757995605468755
0.8669999999999618,6.388333129882813,0.5082733154296876,7.569818115234375
0.8770000000000664,6.318200683593751,0.6092102050781251,7.443310546875001
0.8870000000000573,6.236703491210938,0.5812469482421876,7.118069458007813
0.8970000000000482,5.882153320312501,0.4314117431640625,6.2165161132812505
0.9070000000000392,7.124050903320313,0.4433746337890625,7.508657836914063
0.91700000000003,7.777374267578126,0.1858734130859375,9.239987182617188
0.9270000000000208,3.9525390625,-0.489581298828125,7.597332763671876
0.9370000000000118,4.248770141601563,-0.6317901611328125,7.638455200195313
0.9470000000000028,7.462600708007813,-0.52457275390625,7.744027709960938
0.9569999999999936,8.147027587890626,-0.6990814208984375,6.999188232421876
0.9669999999999844,7.932891845703126,-0.1317413330078125,7.217062377929688
0.9769999999999754,5.8725830078125005,0.231182861328125,7.380804443359375
0.9869999999999663,5.2699523925781255,0.2471832275390625,7.4890686035156255
0.9980000000000472,5.986828613281251,0.624761962890625,7.714419555664063
1.0080000000000382,6.8320068359375,1.3748352050781252,7.502078247070313
1.018000000000029,7.280615234375,0.9760223388671876,7.772140502929688
1.0289999999999964,6.004473876953125,0.8984130859375,7.284503173828125
1.038000000000011,5.9283599853515625,0.9461151123046876,7.334597778320313
1.0480000000000018,6.530392456054688,0.3069976806640625,7.198220825195313
1.0579999999999856,6.880755615234375,0.0432159423828125,6.7745849609375
1.0679999999999836,7.403982543945313,-0.0133087158203125,7.548733520507813
1.0779999999999743,5.988772583007813,-0.8463745117187501,7.827618408203126
1.0879999999999723,5.079443359375,-0.6507812500000001,7.983135986328126
1.09800000000007,5.661737060546876,-0.6652862548828126,7.937677001953125
1.108000000000061,5.9697814941406255,-0.5194885253906251,7.568023681640626
1.1180000000000518,7.174295043945313,-0.08074951171875,7.260128784179688
1.12800000000005,7.0210205078125005,0.4361968994140625,7.289736938476563
1.1380000000000408,6.484036254882813,0.5743682861328125,7.092050170898438
1.149000000000001,6.1919921875,1.0431640625,7.610940551757813
1.1589999999999918,6.015240478515626,0.93131103515625,7.1932861328125
1.1689999999999827,6.620114135742188,0.8788238525390626,7.643240356445313
1.1789999999999736,6.032437133789063,0.774298095703125,7.674044799804688
1.1889999999999716,5.392572021484376,0.55567626953125,7.161135864257813
1.1990000000000691,5.4493957519531255,0.332269287109375,6.477755737304688
1.20900000000006,7.238446044921876,0.0453094482421875,9.023907470703126
1.219000000000051,6.736752319335938,-0.6808380126953125,7.882797241210938
1.2290000000000418,5.373580932617188,-0.8119812011718751,7.352542114257813
1.2390000000000327,6.9985900878906255,-1.03419189453125,7.202557373046876
1.2490000000000236,7.956668090820313,-1.035687255859375,7.332653808593751
1.2590000000000146,7.016983032226563,-0.713287353515625,6.834848022460938
1.2690000000000126,6.019726562500001,0.5770599365234376,7.776028442382813
1.2799999999999656,5.285055541992188,0.8641693115234376,8.04803466796875
1.2899999999999707,5.58367919921875,1.1909057617187502,7.882797241210938
1.3000000000000682,6.979000854492188,1.4566314697265623,7.556509399414063
1.3100000000000591,6.910064697265626,1.5541290283203126,7.009356689453125
1.32000000000005,6.960458374023438,0.6311920166015625,7.095489501953126
1.330000000000041,6.272891235351563,0.7183715820312501,7.4307495117187505
1.3400000000000318,6.254647827148438,-0.157611083984375,7.159939575195313
1.3500000000000156,6.43663330078125,-0.745587158203125,7.448245239257813
1.36099999999999,6.8744750976562505,-0.8403930664062501,7.1899963378906255
1.3700000000000117,6.2972656250000005,-0.954937744140625,7.736700439453125
1.3799999999999957,5.651119995117188,-1.2656738281250002,7.624847412109376
1.3899999999999864,5.734860229492188,-0.58319091796875,8.112634277343751
1.4010000000000673,6.199618530273438,-0.1742095947265625,7.51090087890625
1.4110000000000582,6.650619506835938,0.365765380859375,7.3933654785156255
1.4210000000000491,6.9342895507812505,0.9166564941406252,7.170407104492188
1.43100000000004,6.597982788085938,1.1376708984375,7.352093505859376
1.441000000000031,5.900097656250001,1.2332244873046876,7.417141723632813
1.4510000000000218,5.931201171875,1.2909454345703126,7.549630737304688
1.4610000000000198,6.387286376953125,0.6760528564453125,7.778271484375001
1.4710000000000107,6.527850341796875,0.2971282958984375,7.481442260742188
1.4809999999999943,6.250161743164063,-0.0521881103515625,7.5318359375
1.4909999999999854,6.089859008789063,-0.437542724609375,7.397103881835938
1.5009999999999764,6.34691162109375,-0.69384765625,7.530938720703125
1.5109999999999673,5.924172973632813,-0.7418487548828125,7.162631225585938
1.521000000000072,5.431900024414063,-1.0024902343750002,6.637460327148438
1.5310000000000628,5.519827270507813,-0.5749664306640625,6.887185668945313
1.5410000000000537,8.163327026367188,0.232080078125,7.994201660156251
1.5510000000000517,9.195724487304688,0.8385986328125,8.446099853515626
1.5620000000000118,7.2856994628906255,1.27344970703125,8.391070556640626
1.5720000000000027,3.815863037109376,1.038677978515625,7.01683349609375
1.5819999999999936,3.0746124267578128,0.2926422119140625,7.050778198242188
1.5919999999999843,6.414352416992188,0.0752166748046875,7.965191650390626
1.6019999999999754,8.813809204101563,0.0596649169921875,8.421127319335938
1.6119999999999663,8.768499755859375,0.232080078125,7.537667846679688
1.622000000000071,6.277975463867188,0.6458465576171876,6.900942993164063
1.6320000000000618,4.4026428222656255,-0.0061309814453125,6.0568115234375
1.6420000000000456,5.715719604492188,-0.297576904296875,7.566079711914063
1.6520000000000508,7.131378173828126,-0.0261688232421875,7.931246948242188
1.6620000000000417,7.6239501953125,0.0384307861328125,8.467184448242188
1.6720000000000257,6.472970581054688,-0.0155517578125,7.703652954101563
1.6820000000000164,5.026058959960938,0.2316314697265625,7.073059082031251
1.6929999999999836,5.4543304443359375,-0.200677490234375,6.432446289062501
1.7029999999999743,6.735107421875001,0.115142822265625,7.006365966796875
1.7129999999999723,7.984930419921875,0.5031890869140625,7.462451171875
1.72300000000007,7.364804077148438,0.4302154541015625,8.252151489257812
1.733000000000061,5.27264404296875,0.174658203125,7.45946044921875
1.7430000000000518,4.766613769531251,0.1792938232421875,7.677633666992188
1.75300000000005,5.442666625976563,-0.071478271484375,7.229324340820313
1.7630000000000408,6.836791992187501,0.380419921875,7.665521240234375
1.7749999999999773,7.670306396484375,0.2776885986328125,7.704101562500001
1.7830000000000157,6.740042114257813,0.2247528076171875,7.763467407226563
1.7930000000000064,5.8446197509765625,0.141461181640625,6.99888916015625
1.8029999999999973,5.6886535644531255,0.1819854736328125,7.088012695312501
1.812999999999988,6.603366088867188,-0.153424072265625,7.012496948242188
1.822999999999979,7.023562622070313,0.283819580078125,7.883395385742188
1.83400000000006,5.103668212890625,0.242547607421875,7.179229736328126
1.844000000000051,3.3497589111328128,0.4390380859375,6.529495239257813
1.8540000000000416,7.320541381835938,0.3273345947265625,8.353686523437501
1.8640000000000327,10.639944458007813,0.362176513671875,9.231463623046876
1.874000000000024,9.249557495117188,-0.233575439453125,8.250955200195314
1.8840000000000143,4.378118896484375,-0.2767913818359375,5.91983642578125
1.8940000000000128,1.5931579589843752,0.2603424072265625,4.960711669921875
1.9039999999999964,5.561248779296875,0.600836181640625,8.075848388671876
1.9139999999999875,8.430548095703125,0.3348114013671875,9.767550659179689
1.9239999999999784,8.522213745117188,0.6610992431640625,9.5978271484375
1.933999999999969,6.182870483398438,-0.6902587890625,7.339532470703125
1.9440000000000737,4.4131103515625005,-0.7382598876953126,5.430105590820313
1.9540000000000648,6.110494995117188,-0.1308441162109375,5.495901489257813
1.964000000000056,8.179776000976563,-0.101983642578125,7.241885375976563
1.975999999999999,8.857174682617188,0.0701324462890625,8.949288940429689
1.9850000000000136,6.316854858398438,0.2008270263671875,8.98353271484375
1.995000000000012,3.295477294921876,-0.5208343505859375,7.6356140136718755
2.0049999999999955,4.045999145507813,0.538031005859375,6.841128540039063
2.0149999999999864,6.43065185546875,0.8444305419921876,6.744229125976563
2.0249999999999773,9.11856384277344,0.70401611328125,7.4531799316406255
2.034999999999968,8.811416625976562,0.6226684570312501,8.0103515625
2.0450000000000657,5.575753784179688,0.5957519531250001,6.84337158203125
2.055000000000064,5.004376220703126,0.035888671875,7.001281738281251
2.0650000000000546,5.15660400390625,0.4972076416015625,6.877914428710938
2.0750000000000526,6.775332641601563,0.0478515625,7.554266357421875
2.0850000000000364,7.548733520507813,-0.3695037841796875,8.875418090820313
2.095000000000028,5.532687377929688,-0.195892333984375,8.255291748046876
2.105000000000018,5.202212524414063,-0.274847412109375,7.706195068359375
2.115999999999985,5.864208984375001,-0.3357086181640625,6.714620971679688
2.1259999999999764,7.259231567382813,0.3698028564453125,6.026904296875
2.135999999999968,8.461502075195312,0.261688232421875,7.593444824218751
2.146000000000072,6.441717529296875,0.4366455078125,7.697671508789063
2.1560000000000628,5.301205444335938,0.5595642089843751,8.331854248046875
2.1660000000000537,5.023068237304688,0.0551788330078125,7.572509765625001
2.176000000000052,5.384197998046876,0.0731231689453125,6.851446533203125
2.1860000000000426,4.98673095703125,-0.0216827392578125,5.525808715820313
2.1960000000000264,5.827871704101563,0.1601531982421875,6.705947875976563
2.2060000000000173,10.4495849609375,0.9102264404296876,9.875665283203126
2.216000000000008,10.252795410156253,0.566741943359375,9.792523193359376
2.225999999999999,6.142794799804688,-0.2069580078125,7.412057495117188
2.2369999999999663,1.8318176269531248,-0.5508911132812501,4.879962158203125
2.247000000000071,3.1067626953125003,-0.4852447509765625,6.562393188476563
2.257000000000062,7.542303466796875,-0.322698974609375,9.182266235351562
2.2670000000000456,9.2652587890625,0.3170166015625,10.136007690429688
2.2770000000000508,7.997042846679688,0.6896606445312501,8.313461303710938
2.2870000000000417,4.9059814453125,0.49107666015625,5.574258422851563
2.297000000000025,4.528851318359376,0.6431549072265625,4.7600341796875005
2.3070000000000164,7.0736572265625,1.0114624023437502,6.911859130859376
2.317000000000008,8.332751464843751,0.9272735595703124,9.060394287109377
2.326999999999998,7.551275634765625,0.7330261230468751,9.52051696777344
2.336999999999989,4.588665771484376,0.072076416015625,7.864703369140625
2.34699999999998,3.8118255615234378,-0.459375,6.286349487304688
2.356999999999971,6.074755859375,-0.441131591796875,6.338088989257813
2.366999999999962,8.139550781250001,-0.276043701171875,6.880606079101563
2.37800000000005,8.791528320312501,-0.421990966796875,8.171401977539062
2.3880000000000408,6.667068481445313,-0.4290191650390625,8.002426147460938
2.398000000000025,4.766912841796875,-0.6216217041015626,7.183715820312501
2.4080000000000155,4.980899047851563,-0.38221435546875,6.937130737304688
2.4180000000000064,5.7936279296875,0.3428863525390625,7.2632690429687505
2.4279999999999973,7.130630493164063,0.8246917724609376,8.138055419921876
2.437999999999988,6.869839477539063,0.9766204833984377,8.556307983398439
2.447999999999979,5.886190795898438,0.988134765625,7.757635498046875
2.45799999999997,6.101522827148438,0.6383697509765626,6.852044677734376
2.467999999999961,6.401940917968751,0.684576416015625,6.055017089843751
2.478000000000065,7.416244506835938,0.4897308349609375,6.84935302734375
2.4880000000000564,6.951336669921876,0.01495361328125,8.173794555664063
2.498000000000048,5.673849487304688,-0.3159698486328125,8.486026000976564
2.508000000000038,5.359823608398438,-0.54251708984375,8.053866577148439
2.519000000000013,5.184417724609375,-0.5970977783203125,7.146929931640625
2.5289999999999964,4.3283233642578125,-0.20875244140625,5.23675537109375
2.538999999999988,6.570468139648438,0.12381591796875,6.484634399414063
2.548999999999978,11.686398315429688,0.36187744140625,10.476052856445314
2.558999999999969,8.967831420898438,0.5944061279296875,9.039459228515623
2.5690000000000737,4.222601318359375,-0.21832275390625,5.943911743164063
2.579000000000065,2.7776336669921875,0.512908935546875,5.58128662109375
2.5890000000000555,4.476364135742188,0.8994598388671876,6.63402099609375
2.5990000000000464,7.855880737304688,0.8508605957031251,9.901535034179688
2.6090000000000373,8.017828369140625,0.9679473876953124,10.204345703125
2.619000000000028,6.237750244140625,-0.1054229736328125,8.180972290039064
2.629000000000019,5.338739013671876,-1.4999969482421875,5.7399444580078125
2.63900000000001,6.026754760742188,-0.0586181640625,4.86590576171875
2.649000000000001,8.083624267578125,-0.189312744140625,6.287994384765626
2.659999999999968,8.572009277343751,-0.5030395507812501,9.014935302734376
2.6700000000000657,6.539962768554688,-0.1915557861328125,9.38294372558594
2.680000000000064,3.977212524414063,-0.6240142822265625,8.095138549804688
2.692000000000008,4.105065917968751,-0.290997314453125,6.617422485351563
2.7000000000000526,6.406875610351563,1.311431884765625,6.367248535156251
2.7100000000000364,8.43204345703125,0.7976257324218751,7.006665039062501
2.720000000000028,8.526699829101563,0.9356475830078126,7.9212280273437505
2.730000000000018,6.32298583984375,1.0972961425781251,7.588360595703126
2.740000000000009,4.899850463867188,0.2930908203125,6.978253173828126
2.75,5.394665527343751,0.423785400390625,6.939373779296876
2.759999999999991,5.977706909179688,0.6585571289062501,7.503125000000001
2.769999999999982,6.733013916015626,-0.5429656982421875,8.523858642578126
2.7799999999999656,5.866452026367188,-0.151629638671875,8.816500854492189
2.7910000000000537,5.574258422851563,-0.4018035888671875,7.631277465820313
2.801000000000052,6.701461791992188,-0.935498046875,6.854437255859375
2.8110000000000426,7.371981811523438,-0.133984375,5.962454223632813
2.8210000000000264,7.643688964843751,0.2839691162109375,6.5329345703125
2.8310000000000173,6.83739013671875,-0.0997406005859375,7.9206298828125
2.841000000000008,5.195184326171876,0.496160888671875,8.245123291015625
2.850999999999999,4.108953857421875,0.093310546875,7.552471923828126
2.86099999999999,4.2411437988281255,0.0417205810546875,6.791033935546875
2.870999999999981,7.42357177734375,1.39547119140625,7.963546752929688
2.880999999999972,9.856375122070313,1.3618255615234376,8.675338745117188
2.8920000000000456,8.072109985351563,0.7499237060546875,7.6475769042968755
2.901000000000068,5.457919311523438,0.1299468994140625,6.0609985351562505
2.9120000000000417,3.9733245849609378,-0.9090301513671876,6.124551391601563
2.921000000000049,5.575604248046876,-0.9002075195312501,7.724887084960938
2.9320000000000164,7.193585205078126,-0.3333160400390625,9.803887939453126
2.942000000000008,6.765911865234376,-0.2603424072265625,9.280810546875
2.951999999999998,5.925668334960938,-0.0913665771484375,7.663128662109376
2.961999999999989,5.5724639892578125,0.2262481689453125,5.706747436523438
2.97199999999998,7.2531005859375,0.5028900146484375,5.749813842773438
2.981999999999971,8.255291748046876,1.0507904052734376,7.227978515625001
2.991999999999962,7.569818115234375,1.3275817871093751,8.26456298828125
3.0020000000000664,5.7040557861328125,0.7654754638671876,8.612982177734375
3.0120000000000573,4.043157958984375,0.429168701171875,7.594491577148438
3.022000000000048,4.979104614257813,0.1143951416015625,7.113433837890626
3.032000000000039,6.887185668945313,-0.1184326171875,7.238595581054688
3.04200000000003,7.761822509765626,-0.073870849609375,7.316802978515626
3.052000000000021,7.675540161132813,-0.4347015380859375,7.653408813476563
3.062000000000012,6.341079711914063,-0.8584869384765625,6.953579711914063
3.072999999999979,5.773141479492188,-0.6048736572265625,6.87926025390625
3.08299999999997,6.037820434570313,-0.5187408447265626,7.191192626953126
3.092999999999961,6.0569610595703125,0.015850830078125,7.907919311523438
3.103000000000065,6.257937622070313,0.48330078125,8.375518798828125
3.1130000000000564,5.674896240234375,0.6255096435546875,8.283255004882813
3.123000000000048,5.8869384765625,0.677099609375,7.3942626953125
3.133000000000038,6.73331298828125,1.015200805664063,6.8625122070312505
3.143000000000029,7.044647216796876,0.8270843505859375,6.493307495117188
3.15300000000002,7.239044189453126,0.7855133056640625,7.261624145507813
3.163000000000011,6.349154663085938,0.43963623046875,7.772290039062501
3.173000000000002,5.746224975585938,-0.0346923828125,7.85543212890625
3.1829999999999856,5.613436889648438,-0.3336151123046875,7.739242553710938
3.1940000000000737,4.297070312500001,-0.146844482421875,6.174945068359375
3.204000000000065,4.213180541992188,-0.100189208984375,5.6955322265625
3.2140000000000555,9.587509155273438,0.0441131591796875,9.357073974609376
3.2240000000000464,11.561087036132813,0.1837799072265625,10.965335083007814
3.2340000000000373,6.944308471679688,-0.46116943359375,7.263867187500001
3.245000000000012,2.626751708984376,-0.7445404052734376,4.432400512695313
3.254000000000019,2.917898559570313,0.36307373046875,5.093350219726563
3.26400000000001,6.844119262695313,0.40733642578125,8.485726928710939
3.274000000000001,8.82562255859375,1.11195068359375,11.107095336914064
3.283999999999992,7.1496215820312505,1.1772979736328126,10.061538696289062
3.2939999999999827,4.675546264648438,-0.7620361328125,6.635067749023438
3.3039999999999736,4.9100189208984375,-0.409130859375,4.71636962890625
3.313999999999972,7.125845336914063,0.4753753662109375,4.943066406250001
3.324000000000069,9.287539672851564,-0.1885650634765625,8.051324462890626
3.33400000000006,8.441165161132814,0.0270660400390625,9.763513183593751
3.344000000000051,4.8437744140625005,-0.357989501953125,8.928802490234375
3.355000000000018,3.110202026367188,-1.1461944580078125,6.96658935546875
3.365000000000009,4.91495361328125,0.4888336181640625,6.314910888671876
3.375,7.602117919921875,0.815869140625,6.600076293945313
3.384999999999991,9.24432373046875,0.3348114013671875,8.125942993164063
3.394999999999982,7.555014038085938,0.684576416015625,8.071212768554688
3.4049999999999656,5.151220703125,0.4215423583984375,7.087115478515625
3.4149999999999707,4.95921630859375,0.098394775390625,6.463250732421876
3.425000000000068,5.732019042968751,1.0503417968750002,6.673648071289063
3.435000000000059,7.2767272949218755,0.2074066162109375,7.821636962890626
3.44500000000005,6.877166748046876,-0.0844879150390625,9.20828552246094
3.455000000000041,5.050881958007813,0.2953338623046875,8.312115478515626
3.465000000000032,5.254251098632813,-0.3862518310546875,7.485778808593751
3.475000000000016,6.591552734375001,-0.4122711181640625,6.255245971679688
3.48599999999999,7.797412109375,0.478814697265625,6.161038208007813
3.495999999999981,7.842572021484376,-0.2103973388671875,7.386038208007813
3.505999999999972,6.154159545898438,0.2385101318359375,8.168411254882812
3.51599999999997,5.08123779296875,0.225799560546875,8.26875
3.526000000000068,4.607806396484375,-0.6434539794921875,7.100424194335938
3.536000000000058,4.908224487304688,0.046356201171875,6.192291259765626
3.546000000000049,7.307382202148438,1.04974365234375,7.294821166992188
3.55600000000004,9.25733337402344,0.688763427734375,8.637057495117189
3.566000000000031,8.101718139648439,0.9981536865234376,8.095736694335939
3.576000000000022,5.8909759521484375,0.334661865234375,7.427758789062499
3.58600000000002,3.798217773437501,-0.3624755859375,6.320742797851563
3.5960000000000107,4.668817138671876,-0.0801513671875,7.13646240234375
3.6059999999999945,7.129135131835938,-0.23985595703125,8.944802856445314
3.616999999999962,7.894909667968751,-0.5674896240234375,9.112432861328124
3.6270000000000655,6.543402099609375,0.11783447265625,7.703652954101563
3.637000000000057,5.57530517578125,-0.0596649169921875,6.253302001953125
3.647000000000048,6.114981079101563,0.275146484375,6.10167236328125
3.657000000000039,7.272839355468751,0.7841674804687501,7.093395996093751
3.66700000000003,7.677035522460938,0.7771392822265626,8.437875366210939
3.677000000000021,6.528448486328125,0.7191192626953126,8.640795898437501
3.687000000000012,4.677191162109375,0.6335845947265626,7.521069335937501
3.6970000000000014,5.11234130859375,0.0669921875,6.923223876953125
3.7069999999999936,6.449942016601563,0.1206756591796875,6.8430725097656255
3.716999999999985,7.659689331054688,0.101983642578125,7.349551391601563
3.726999999999976,7.769000244140625,-0.2935394287109375,7.846310424804688
3.7369999999999663,6.196926879882813,-0.472235107421875,7.283306884765626
3.747000000000071,5.62554931640625,-0.5609100341796875,6.978103637695313
3.758000000000038,5.972921752929688,-0.503936767578125,7.284503173828125
3.768000000000029,6.132028198242188,0.130096435546875,7.484133911132813
3.77800000000002,6.601272583007813,0.3361572265625,8.083175659179688
3.788000000000011,6.032736206054688,0.3440826416015625,8.238543701171876
3.798000000000002,5.834301757812501,0.6066680908203126,7.502825927734375
3.8079999999999856,6.183917236328125,0.7122406005859375,7.075750732421875
3.817999999999984,6.912457275390626,0.7152313232421875,6.660339355468751
3.827999999999975,7.1899963378906255,0.8142242431640626,7.354635620117188
3.837999999999973,6.464596557617188,0.2675201416015625,7.669259643554688
3.84800000000007,5.721551513671876,0.0797027587890625,7.903881835937501
3.858000000000061,5.816357421875001,-0.094207763671875,7.682717895507813
3.868000000000052,5.8251800537109375,-0.247332763671875,7.165771484375001
3.87800000000005,4.527505493164063,0.1556671142578125,5.802001953125
3.8880000000000408,5.197576904296875,0.326885986328125,6.330462646484375
3.899000000000001,10.962344360351564,0.177349853515625,10.89624938964844
3.908999999999992,9.353933715820313,0.42049560546875,8.962149047851563
3.918999999999983,5.1074066162109375,-0.4335052490234375,6.024810791015625
3.9289999999999736,3.580642700195313,-0.37982177734375,5.531939697265625
3.938999999999972,4.092803955078125,0.2286407470703125,6.325677490234376
3.949000000000069,7.694979858398438,0.331671142578125,9.65091247558594
3.95900000000006,7.865451049804688,0.64599609375,10.455865478515626
3.969000000000051,6.3654541015625,0.3194091796875,8.242282104492189
3.979000000000042,5.514443969726563,-1.158306884765625,6.014642333984376
3.9890000000000327,5.498443603515625,-0.0394775390625,4.656704711914063
3.999000000000024,7.814758300781251,0.334661865234375,6.400296020507813
4.009000000000015,8.600421142578126,-0.173162841796875,8.937026977539062
4.019999999999982,6.816754150390626,0.3126800537109375,9.13486328125
4.029999999999966,4.461859130859375,-0.2965301513671875,8.237646484375
4.039999999999971,4.013101196289063,-0.438739013671875,6.6705078125
4.050000000000068,6.0360260009765625,1.15860595703125,6.372781372070313
4.060000000000059,8.098876953125,0.5493957519531251,7.1095458984375
4.07000000000005,8.474212646484375,0.3686065673828125,7.918984985351563
4.080000000000041,6.867745971679688,0.6241638183593751,7.823431396484375
4.0919999999999845,4.873532104492188,0.0871795654296875,6.637908935546876
4.100000000000016,5.414703369140625,0.1613494873046875,7.059600830078126
4.110000000000014,6.089859008789063,0.6388183593750001,7.338784790039063
4.120000000000012,6.713125610351563,-0.201275634765625,8.424118041992188
4.129999999999996,6.330911254882813,0.0267669677734375,8.611785888671875
4.139999999999986,5.346514892578125,0.2100982666015625,7.986126708984376
4.149999999999977,6.356781005859376,-0.5016937255859375,6.718807983398438
4.159999999999968,7.107901000976563,0.10108642578125,6.282760620117188
4.170000000000066,7.445852661132813,0.38699951171875,6.4396240234375
4.18100000000004,7.174145507812501,0.0183929443359375,8.0761474609375
4.192000000000007,5.2221008300781255,0.2708099365234375,7.856927490234375
4.201000000000022,4.031045532226563,-0.280230712890625,7.408020019531251
4.21100000000002,4.602871704101563,-0.4906280517578125,6.914700317382813
4.221000000000011,8.238095092773438,0.8840576171875001,8.479595947265626
4.2309999999999945,9.720895385742187,1.0059295654296876,8.631674194335938
4.2409999999999854,7.186557006835938,0.375335693359375,7.302597045898438
4.250999999999976,4.57939453125,0.0321502685546875,5.730673217773438
4.260999999999967,4.3821563720703125,-0.4664031982421875,6.233413696289063
4.271000000000072,6.294274902343751,-0.2432952880859375,8.221795654296876
4.281000000000063,7.721148681640625,0.6033782958984375,9.950433349609376
4.29200000000003,6.323284912109376,0.190509033203125,8.921774291992188
4.302000000000021,5.145687866210938,0.14415283203125,7.021170043945313
4.312000000000012,5.560052490234376,0.459375,5.88873291015625
4.322000000000003,7.461703491210938,0.4765716552734375,6.173300170898438
4.331999999999994,8.711376953125,0.6826324462890625,7.609146118164063
4.3419999999999845,7.396954345703126,0.8692535400390625,8.348901367187501
4.351999999999975,5.303598022460938,0.06759033203125,8.239291381835939
4.361999999999966,4.109701538085938,-0.118731689453125,7.406674194335938
4.372000000000071,5.3092803955078125,-0.1399658203125,6.886138916015626
4.382000000000062,7.344168090820313,-0.202471923828125,7.541256713867188
4.392000000000046,7.871731567382813,-0.0940582275390625,7.690792846679688
4.402000000000051,7.1191162109375,0.0584686279296875,7.60361328125
4.412000000000042,5.884396362304688,-0.4916748046875,6.756640625
4.4220000000000255,5.713327026367188,-0.221014404296875,6.673648071289063
4.432000000000016,6.564187622070313,0.11304931640625,7.13048095703125
4.442999999999984,6.609646606445313,0.3596343994140625,8.006314086914063
4.452999999999975,6.050680541992188,0.616986083984375,8.592047119140625
4.4629999999999725,5.379562377929688,0.463861083984375,8.18680419921875
4.47300000000007,5.5963897705078125,0.1638916015625,7.333251953125001
4.483000000000061,6.603067016601563,0.6181823730468751,6.591253662109375
4.493000000000052,7.488470458984375,0.432159423828125,6.996197509765626
4.50300000000005,7.359719848632813,0.301763916015625,7.2291748046875
4.513000000000041,6.234460449218751,0.191705322265625,7.824777221679688
4.523000000000025,5.529397583007813,-0.2235565185546875,7.747915649414063
4.533000000000016,5.710934448242188,-0.306549072265625,7.5743041992187505
4.543000000000006,4.24503173828125,0.0227294921875,6.135467529296876
4.552999999999997,4.307687377929688,-0.1347320556640625,5.764617919921875
4.562999999999988,10.4986328125,0.308343505859375,10.918829345703124
4.572999999999979,10.519866943359377,0.636724853515625,9.75379333496094
4.58299999999997,5.8857421875,-0.213238525390625,6.310574340820313
4.594000000000051,3.381011962890625,-0.01495361328125,4.543206787109376
4.604000000000042,3.5867736816406253,0.817364501953125,5.218511962890625
4.614000000000033,7.5847717285156255,0.4592254638671875,9.510049438476564
4.624000000000024,8.053717041015625,0.7572509765625001,11.1099365234375
4.634000000000015,6.078494262695313,0.499151611328125,9.522012329101564
4.644000000000013,4.946505737304688,-1.3672088623046876,6.3585754394531255
4.653999999999996,5.2445312500000005,-0.2591461181640625,4.485485839843751
4.663999999999987,8.072109985351563,0.302362060546875,5.388684082031251
4.673999999999978,9.197967529296877,-0.4723846435546875,8.284451293945313
4.683999999999969,7.660586547851563,0.1903594970703125,9.509600830078126
4.694000000000074,4.528103637695313,-0.19619140625,8.672048950195313
4.704000000000065,3.241195678710938,-0.7289886474609375,6.934887695312501
4.715000000000032,5.527752685546876,1.1844757080078123,6.388931274414063
4.725000000000016,7.604360961914063,0.9034973144531252,6.841427612304688
4.735000000000014,8.819940185546876,0.5193389892578125,8.172897338867188
4.745000000000012,7.401440429687501,1.024172973632813,8.126242065429688
4.754999999999996,4.99271240234375,0.1897613525390625,6.619964599609376
4.764999999999986,5.5799407958984375,-0.129498291015625,6.464297485351563
4.774999999999977,5.9866790771484375,0.675604248046875,6.985729980468751
4.784999999999968,6.938177490234375,-0.47073974609375,8.0928955078125
4.795000000000066,6.384146118164063,-0.285614013671875,9.266305541992187
4.805000000000064,4.860372924804688,0.0270660400390625,8.201608276367189
4.815000000000055,5.96051025390625,-0.6821838378906251,7.341326904296875
4.825000000000053,6.9492431640625005,-0.101385498046875,6.139953613281251
4.835000000000036,7.5847717285156255,0.6413604736328126,6.125448608398438
4.845000000000027,7.71068115234375,0.042169189453125,7.657745361328126
4.855000000000018,5.6811767578125005,0.6522766113281251,8.1060546875
4.8659999999999854,5.327374267578126,0.4819549560546875,8.053118896484376
4.875999999999976,4.7316223144531255,-0.545806884765625,7.090704345703125
4.885999999999967,4.229330444335938,0.24404296875,5.649176025390625
4.896000000000072,7.773037719726563,0.9308624267578126,8.16766357421875
4.906000000000063,9.780111694335938,0.4007568359375,9.291278076171876
4.916000000000054,8.379257202148438,0.713287353515625,8.518026733398438
4.926000000000052,5.611343383789063,-0.3013153076171875,6.6516662597656255
4.936000000000043,2.7665679931640628,-0.91875,5.126995849609376
4.946000000000026,5.2696533203125,-0.0378326416015625,7.383346557617188
4.956000000000017,7.509704589843751,-0.2356689453125,9.6289306640625
4.966000000000008,7.949191284179688,0.1060211181640625,9.645230102539063
4.975999999999999,6.324780273437501,0.6166870117187501,7.910610961914063
4.98599999999999,4.674649047851563,0.26617431640625,5.527603149414063
4.997000000000071,6.500186157226563,0.7901489257812501,5.55496826171875
5.007000000000062,7.792178344726563,1.1470916748046875,6.958813476562501
5.017000000000046,8.116970825195313,0.83082275390625,8.625543212890626
5.027000000000051,6.616525268554688,0.7213623046875001,9.216360473632813
5.037000000000042,3.639111328125,0.1583587646484375,7.401440429687501
5.0470000000000255,4.875027465820313,-0.5366851806640626,6.70340576171875
5.057000000000016,6.493307495117188,-0.2681182861328125,7.024310302734375
5.067000000000007,7.922872924804688,-0.1861724853515625,7.131378173828126
5.076999999999998,8.456118774414064,-0.5860321044921876,8.486026000976564
5.086999999999989,5.870938110351563,-0.47432861328125,6.931597900390625
5.09699999999998,5.558706665039063,-0.5752655029296876,6.928756713867188
5.109000000000037,5.824282836914063,-0.349017333984375,6.941168212890625
5.116999999999962,6.109149169921875,0.6657348632812501,7.2531005859375
5.12800000000005,7.1541076660156255,0.7227081298828125,8.708685302734375
5.138000000000041,5.720654296875001,0.701025390625,8.408267211914064
5.148000000000025,5.5125,0.8583374023437501,7.572360229492188
5.158000000000016,6.108102416992188,0.5718261718750001,6.896755981445313
5.168000000000006,6.759033203125001,0.6597534179687501,6.384594726562501
5.177999999999997,7.920779418945313,0.6102569580078125,7.238595581054688
5.187999999999988,6.499288940429688,-0.1114044189453125,7.605557250976563
5.197999999999979,5.830413818359375,-0.23028564453125,8.09708251953125
5.20900000000006,4.549188232421876,-0.2296875,7.0284973144531255
5.217999999999961,3.508865356445313,-0.293988037109375,5.704354858398438
5.2280000000000655,8.1766357421875,0.11424560546875,8.558999633789064
5.238000000000056,10.47889404296875,0.3946258544921875,10.439715576171876
5.248000000000047,7.790682983398438,0.0551788330078125,8.444454956054688
5.258000000000038,4.156954956054688,-0.2890533447265625,5.218212890625001
5.268000000000029,3.411517333984375,0.12381591796875,4.3006591796875
5.278999999999996,7.105209350585938,0.350811767578125,6.927410888671876
5.288999999999987,8.052969360351563,0.5683868408203125,10.150363159179689
5.298999999999978,6.511251831054688,1.021182250976563,10.791574096679687
5.308999999999969,4.619918823242188,-0.20576171875,8.534176635742188
5.319000000000074,4.331314086914063,-0.7020721435546875,5.5032287597656255
5.329000000000065,7.748812866210938,0.23746337890625,4.870840454101563
5.339000000000056,9.04932861328125,0.115740966796875,6.6047119140625
5.349000000000046,8.465240478515625,-0.1469940185546875,8.375668334960938
5.359000000000037,6.087765502929688,-0.2023223876953125,9.54444274902344
5.369000000000028,3.2685607910156254,-0.9677978515625,7.536471557617188
5.379000000000019,4.830316162109376,-0.021832275390625,6.943411254882813
5.38900000000001,6.6549560546875,0.7322784423828126,6.736752319335938
5.399000000000001,7.995547485351563,0.41630859375,7.508358764648438
5.409999999999968,7.850497436523438,0.53773193359375,8.491708374023439
5.420000000000066,5.655905151367188,0.6616973876953125,7.190744018554688
5.430000000000064,5.95452880859375,0.28770751953125,6.4252685546875
5.440000000000055,6.400595092773438,0.8073455810546876,6.445904541015626
5.450000000000053,6.604412841796876,0.5094696044921876,6.986029052734375
5.46100000000002,6.715219116210938,-0.0898712158203125,9.0451416015625
5.470000000000027,4.963104248046875,0.159405517578125,8.755938720703126
5.480000000000018,5.103070068359376,-0.096002197265625,8.123101806640626
5.490000000000009,6.411810302734375,-0.6029296875000001,6.83798828125
5.5,7.247268676757813,0.1257598876953125,6.113485717773438
5.509999999999991,8.057904052734376,-0.0629547119140625,6.877914428710938
5.519999999999982,6.448147583007813,0.0825439453125,7.890274047851563
5.531000000000063,5.689999389648438,0.392681884765625,7.860665893554688
5.541000000000054,5.803048706054688,-0.00538330078125,8.0761474609375
5.551000000000052,5.918490600585938,0.0118133544921875,6.953579711914063
5.561000000000043,5.389132690429688,0.5001983642578125,6.775033569335938
5.571000000000026,3.9447631835937504,0.117236328125,6.133822631835938
5.581000000000017,7.735504150390626,0.80091552734375,8.867343139648439
5.591000000000008,10.208682250976564,0.831121826171875,8.696572875976564
5.600999999999999,9.103610229492189,0.3554473876953125,7.90208740234375
5.61099999999999,5.5663330078125,0.174957275390625,6.409118652343751
5.620999999999981,1.0712768554687502,-0.481207275390625,5.588464355468751
5.630999999999972,4.567132568359376,-1.2179718017578125,8.427108764648438
5.64099999999997,7.912255859375,-0.3345123291015625,10.060342407226564
5.651000000000067,8.719003295898439,0.1060211181640625,8.93927001953125
5.661000000000058,7.759130859375,0.352008056640625,7.350897216796875
5.671000000000049,4.261480712890625,0.7049133300781251,4.825979614257813
5.68100000000004,5.584576416015626,0.5284606933593751,5.5380706787109375
5.692000000000007,7.856329345703125,0.7318298339843751,8.122055053710938
5.701999999999998,7.98642578125,1.5701293945312502,8.75623779296875
5.711999999999989,7.055264282226563,0.5027404785156251,9.144732666015626
5.72199999999998,3.4812011718750004,0.0441131591796875,7.221099853515626
5.731999999999971,4.127047729492188,0.0155517578125,6.357379150390625
5.741999999999962,6.704901123046875,-0.3910369873046875,7.13406982421875
5.752000000000066,8.641992187500001,-0.216827392578125,7.136761474609376
5.762000000000057,9.074749755859376,-0.239556884765625,8.286843872070314
5.772000000000048,5.7481689453125,-0.9630126953125,6.991561889648438
5.782000000000039,4.587170410156251,-0.5109649658203126,6.8954101562500005
5.79200000000003,5.235409545898438,-0.1769012451171875,7.210931396484375
5.802000000000021,6.257040405273438,0.0491973876953125,7.588958740234376
5.812999999999988,7.768701171875,0.7529144287109375,8.673394775390626
5.822000000000003,5.971276855468751,0.9347503662109377,8.253646850585938
5.83299999999997,5.351748657226563,0.6449493408203125,7.479498291015625
5.842999999999961,5.836544799804688,1.074566650390625,6.699368286132813
5.8530000000000655,6.810174560546876,0.70521240234375,6.137112426757813
5.863000000000056,8.390621948242188,0.3778778076171875,7.4205810546875
5.873000000000047,6.608898925781251,0.313427734375,8.063735961914062
5.883000000000038,5.261129760742188,-0.15372314453125,8.026950073242189
5.893000000000029,5.285055541992188,-0.7077545166015625,7.949789428710938
5.90300000000002,5.247222900390625,-0.388494873046875,6.854586791992188
5.913000000000011,5.3541412353515625,-0.362176513671875,5.959313964843751
5.923000000000002,6.061447143554688,-0.0862823486328125,6.847259521484376
5.933999999999969,10.695123291015626,0.39178466796875,10.582821655273438
5.942999999999984,8.287142944335939,0.349615478515625,8.427108764648438
5.954000000000065,4.86112060546875,-0.11903076171875,5.629437255859376
5.964000000000056,4.237106323242188,0.7868591308593751,5.44730224609375
5.974000000000046,4.943963623046876,0.7405029296875001,6.8954101562500005
5.984000000000037,7.126892089843751,0.8768798828125001,9.9543212890625
5.994000000000028,7.010702514648438,0.9335540771484376,10.634860229492189
6.004000000000019,5.755795288085938,-0.2591461181640625,8.029791259765625
6.01400000000001,6.210833740234375,-1.067987060546875,5.689401245117188
6.024000000000001,6.5440002441406255,0.000897216796875,4.5255615234375
6.033999999999992,8.205645751953126,-0.3608306884765625,6.382949829101563
6.043999999999983,8.139849853515626,-0.5803497314453125,9.20828552246094
6.053999999999974,5.887387084960938,-0.2184722900390625,9.099423217773438
6.063999999999972,4.4684387207031255,-0.8264862060546876,8.240338134765626
6.074000000000069,4.542160034179688,-0.1446014404296875,6.693984985351563
6.08400000000006,6.315957641601563,1.1182312011718751,6.401193237304688
6.094000000000051,8.056109619140626,0.7168762207031251,7.350149536132813
6.105000000000018,7.929302978515626,0.9869384765625,7.810122680664063
6.115000000000009,6.852194213867188,1.05452880859375,7.540957641601563
6.125,5.520724487304688,0.3231475830078125,6.664227294921876
6.134999999999991,5.554220581054688,0.6717163085937501,6.652114868164063
6.144999999999982,5.9467529296875,0.480908203125,7.572509765625001
6.154999999999966,6.177188110351563,-0.375933837890625,8.652609252929688
6.164999999999971,5.8031982421875,-0.0497955322265625,8.94525146484375
6.175000000000068,5.576800537109375,-0.4544403076171875,7.9795471191406255
6.185000000000059,6.582879638671876,-0.838299560546875,6.641049194335938
6.19500000000005,7.518078613281251,-0.0243743896484375,6.064886474609375
6.205000000000041,7.4531799316406255,0.0162994384765625,6.46953125
6.215000000000032,6.923074340820313,-0.04246826171875,7.909713745117188
6.225999999999999,5.580239868164063,0.5414703369140625,8.365200805664063
6.235000000000014,5.204904174804688,0.2791839599609375,8.045193481445313
6.245999999999981,5.846563720703125,0.3530548095703125,7.456918334960938
6.255999999999972,5.88394775390625,0.8668609619140626,6.970776367187501
6.26599999999997,5.068377685546875,0.234173583984375,6.281863403320313
6.276000000000067,6.0699707031250005,0.2971282958984375,7.517630004882813
6.286000000000058,9.192584228515626,0.6208740234375001,8.722592163085938
6.296000000000049,9.1599853515625,0.130694580078125,8.092446899414064
6.30600000000004,6.848455810546875,0.194097900390625,6.848754882812501
6.316000000000031,3.3295715332031253,-0.31163330078125,5.788095092773438
6.326000000000022,3.6522705078125,-1.1580078125000002,7.476358032226563
6.33600000000002,6.248965454101563,-0.57362060546875,9.554162597656251
6.346000000000011,7.870236206054688,0.1614990234375,9.784298706054688
6.3559999999999945,7.584024047851563,0.288006591796875,7.721597290039063
6.3659999999999854,6.058755493164063,0.820654296875,5.863461303710938
6.377000000000066,5.900247192382813,1.0075744628906251,5.1862121582031255
6.387000000000057,7.195230102539063,0.8348602294921875,6.970477294921875
6.397000000000048,7.674493408203125,1.21961669921875,8.471969604492188
6.407000000000039,6.943112182617188,0.868206787109375,8.986373901367188
6.41700000000003,4.841381835937501,0.04725341796875,8.040856933593751
6.427000000000021,4.207049560546875,-0.0279632568359375,6.898550415039063
6.437000000000012,5.929705810546875,-0.402850341796875,7.031338500976563
6.447000000000003,7.763018798828125,-0.605322265625,7.035525512695313
6.456999999999994,8.634814453125001,-0.3880462646484375,7.567724609375
6.4669999999999845,7.174594116210938,-0.647491455078125,7.286746215820313
6.476999999999975,5.449545288085938,-0.5956024169921875,6.897354125976563
6.486999999999966,5.2943267822265625,-0.1475921630859375,7.0712646484375
6.497000000000071,5.66143798828125,0.0118133544921875,7.545593261718751
6.509000000000015,6.529495239257813,0.555975341796875,8.523410034179689
6.518000000000029,6.252853393554688,1.0262664794921876,8.509652709960939
6.52800000000002,5.7249908447265625,0.8448791503906251,7.730419921875001
6.538000000000011,6.246273803710938,0.8842071533203125,6.952383422851563
6.548000000000002,6.598431396484376,0.9079833984375,6.230422973632813
6.557999999999986,7.701858520507813,0.4086822509765625,6.844418334960938
6.567999999999984,7.117919921875001,0.23865966796875,7.737298583984375
6.577999999999975,5.8390869140625,-0.180340576171875,8.058053588867189
6.5879999999999725,5.376272583007813,-0.6374725341796875,8.255142211914062
6.59800000000007,5.24393310546875,-0.5722747802734376,7.288241577148438
6.609000000000037,6.621160888671875,-0.5598632812500001,7.299905395507813
6.618000000000052,6.316107177734375,-0.2890533447265625,6.789987182617188
6.62800000000005,3.8936218261718754,0.3204559326171875,5.097537231445313
6.638000000000041,8.208187866210938,0.7449890136718751,8.712872314453126
6.649000000000001,11.178424072265626,0.6957916259765625,10.76181640625
6.658999999999992,6.279470825195313,0.40853271484375,6.806137084960938
6.668999999999983,4.3881378173828125,-0.35948486328125,6.364108276367188
6.678999999999974,2.76402587890625,0.5432647705078125,5.71885986328125
6.688999999999972,6.136514282226563,0.9257781982421877,8.228973388671875
6.699000000000069,8.494998168945314,0.8783752441406251,10.1887939453125
6.70900000000006,7.152163696289063,0.5067779541015626,8.829959106445314
6.719000000000051,6.470877075195313,-0.9740783691406252,7.076049804687501
6.729000000000042,5.0435546875,-1.2075042724609375,5.205352783203125
6.739000000000033,6.399249267578125,0.118731689453125,5.531192016601563
6.749000000000024,8.488717651367189,-0.3333160400390625,8.2508056640625
6.759000000000015,7.506863403320313,-0.085235595703125,8.938671875
6.769000000000013,5.873928833007813,0.0695343017578125,8.746218872070314
6.778999999999996,3.815115356445313,-0.485693359375,7.267904663085938
6.788999999999987,5.157052612304688,0.7259979248046875,6.251806640625
6.800000000000068,7.447796630859376,1.245037841796875,6.798809814453126
6.810000000000059,8.312265014648439,0.7041656494140626,7.341775512695313
6.82000000000005,7.92601318359375,0.7968780517578126,8.172897338867188
6.830000000000041,5.320046997070313,0.3817657470703125,7.142294311523438
6.840000000000032,4.791586303710938,-0.0838897705078125,6.880307006835938
6.850000000000016,5.825479125976563,0.403448486328125,7.517630004882813
6.860000000000014,6.173898315429688,-0.02452392578125,7.8703857421875005
6.870000000000012,7.1047607421875005,-0.389691162109375,8.484231567382814
6.879999999999996,5.824581909179688,-0.1143951416015625,8.295068359375001
6.889999999999986,5.858975219726563,-0.5181427001953125,6.908120727539063
6.899999999999977,7.0703674316406255,-0.4350006103515625,6.7533508300781255
6.909999999999968,7.023562622070313,0.494964599609375,6.051577758789063
6.920000000000066,7.509704589843751,0.271856689453125,7.709036254882813
6.93100000000004,6.017034912109375,0.3889434814453125,8.233160400390625
6.941000000000031,4.973870849609376,0.6482391357421875,8.182318115234375
6.951000000000022,5.725140380859376,0.0910675048828125,7.841226196289063
6.96100000000002,5.894265747070313,0.413916015625,6.929055786132813
6.971000000000011,5.879611206054688,0.4723846435546875,6.158346557617188
6.9809999999999945,5.4902191162109375,0.091217041015625,6.812417602539063
6.9909999999999854,8.06239013671875,0.4215423583984375,8.28250732421875
7.000999999999976,9.790579223632813,0.61907958984375,8.905175781250001
7.010999999999967,7.718008422851563,0.188714599609375,7.914947509765626
7.021000000000072,3.4945098876953127,-0.1975372314453125,5.705700683593751
7.031000000000063,2.942123413085937,-0.9513488769531252,6.729275512695313
7.041000000000054,5.559454345703125,-1.062603759765625,8.453427124023438
7.051000000000052,8.4123046875,-0.2256500244140625,9.88538513183594
7.061000000000043,8.0593994140625,0.6762023925781251,8.732162475585938
7.072000000000003,6.253451538085938,0.7505218505859376,6.53233642578125
7.081999999999994,5.269204711914063,0.7419982910156251,5.239147949218751
7.0919999999999845,6.40074462890625,0.6987823486328125,6.064587402343751
7.101999999999975,8.064932250976563,0.9606201171875,8.121456909179688
7.111999999999966,7.697671508789063,1.0280609130859375,9.1623779296875
7.122000000000071,5.493807983398438,0.3835601806640625,8.367294311523438
7.132000000000062,4.055270385742188,-0.2459869384765625,7.15799560546875
7.142000000000046,5.055816650390625,-0.46475830078125,6.621908569335938
7.152000000000051,7.375271606445313,-0.37025146484375,6.978701782226563
7.162000000000042,8.68326416015625,-0.415411376953125,7.56533203125
7.1720000000000255,7.723989868164063,-0.467449951171875,7.687503051757813
7.182000000000016,5.717364501953125,-0.5514892578125,7.0688720703125005
7.192000000000007,4.970281982421875,-0.3117828369140625,6.891671752929688
7.201999999999998,5.619866943359376,0.1269561767578125,7.151565551757813
7.212999999999971,6.7054992675781255,0.47672119140625,8.105606079101562
7.22300000000007,6.582431030273438,0.8889923095703126,8.496194458007814
7.233000000000061,5.804394531250001,0.9643585205078126,8.269946289062501
7.243000000000052,5.596987915039063,0.7734008789062501,7.340579223632813
7.25300000000005,6.351995849609375,0.784466552734375,6.362762451171876
7.263000000000041,7.492657470703126,0.4400848388671875,6.504373168945313
7.273000000000025,7.520022583007813,0.250323486328125,7.462152099609375
7.283000000000015,6.34691162109375,-0.100189208984375,8.065380859375
7.293000000000006,5.317056274414063,-0.362774658203125,8.13297119140625
7.302999999999997,5.358328247070313,-0.7032684326171875,7.56473388671875
7.312999999999988,6.1806274414062505,-0.499749755859375,7.2148193359375
7.324000000000069,5.582781982421875,-0.11783447265625,6.237002563476563
7.33400000000006,4.100729370117188,0.299969482421875,5.242138671875001
7.344000000000051,9.918881225585938,0.744390869140625,10.633364868164064
7.354000000000042,10.581027221679689,0.8913848876953125,10.508651733398438
7.364000000000033,5.409020996093751,0.208154296875,6.398501586914063
7.374000000000024,3.5561187744140628,-0.0800018310546875,4.7316223144531255
7.3840000000000146,3.679635620117188,0.696240234375,5.046395874023438
7.394000000000013,7.341476440429688,0.627752685546875,8.566775512695314
7.403999999999996,8.612832641601564,0.6820343017578125,11.753091430664064
7.413999999999987,5.927313232421875,0.31163330078125,9.684408569335938
7.425000000000068,4.880709838867188,-1.5613067626953123,6.73271484375
7.433999999999969,5.22838134765625,-1.0244720458984375,4.379763793945313
7.444000000000074,7.96549072265625,0.1451995849609375,5.087667846679688
7.454000000000065,9.595733642578123,-0.473431396484375,8.212973022460938
7.464000000000055,7.574902343750001,0.078656005859375,9.452178955078123
7.475000000000016,4.803997802734376,-0.0097198486328125,8.770443725585938
7.485000000000014,3.266766357421876,-0.593359375,7.078292846679688
7.495000000000012,5.24871826171875,1.1683258056640626,6.143841552734376
7.5049999999999955,7.749859619140626,1.3694519042968751,6.884494018554688
7.514999999999986,8.499334716796875,0.5839385986328125,7.96190185546875
7.524999999999977,7.562640380859375,0.9209930419921876,8.250357055664063
7.534999999999968,5.162435913085938,0.2782867431640625,6.882400512695313
7.545000000000066,5.367599487304688,-0.210845947265625,6.304592895507813
7.555000000000064,6.209786987304688,0.6219207763671876,6.984234619140626
7.565000000000055,6.441717529296875,-0.236566162109375,7.921078491210938
7.575000000000053,6.549383544921875,-0.5130584716796875,9.365896606445313
7.585000000000036,4.999142456054688,-0.0387298583984375,8.662628173828125
7.595000000000027,5.705401611328125,-0.6639404296875,7.084423828125001
7.605000000000018,7.365701293945313,-0.2920440673828125,6.263021850585938
7.6159999999999854,7.604809570312501,0.6473419189453126,5.783459472656251
7.625999999999976,7.664324951171875,0.234771728515625,7.4744140625
7.635999999999967,5.864059448242188,0.5804992675781251,8.361013793945313
7.646000000000072,4.927365112304688,0.7268951416015625,8.233010864257814
7.656000000000063,5.714822387695313,-0.0844879150390625,7.998687744140626
7.666000000000054,6.114083862304688,0.47791748046875,6.768005371093751
7.676000000000052,6.09808349609375,0.3098388671875,6.225637817382813
7.686000000000043,4.708743286132813,-0.6990814208984375,6.031091308593751
7.696000000000026,6.779669189453125,0.0234771728515625,8.138653564453126
7.706000000000017,10.278216552734376,0.1562652587890625,9.589303588867187
7.716000000000008,9.0642822265625,0.184228515625,8.653656005859375
7.725999999999999,5.664877319335938,0.4581787109375,6.676638793945313
7.73599999999999,1.514651489257813,-0.4619171142578125,5.3118225097656255
7.747000000000071,3.5649414062500004,-0.417803955078125,7.417141723632813
7.757000000000062,8.113681030273439,0.47911376953125,10.230364990234376
7.767000000000046,9.20843505859375,0.47672119140625,9.615472412109376
7.777000000000051,7.807431030273438,0.768316650390625,7.288540649414063
7.787000000000042,4.63621826171875,0.9305633544921876,4.935888671875
7.7970000000000255,5.156005859375,0.5969482421875001,5.262326049804688
7.807000000000016,7.567425537109376,0.6896606445312501,7.821337890625
7.817000000000007,8.054165649414063,0.7083526611328126,9.085665893554689
7.826999999999998,7.059899902343751,0.0521881103515625,9.3155029296875
7.836999999999989,3.9034912109375,-0.232080078125,7.433590698242188
7.84699999999998,3.987380981445313,-0.381317138671875,6.247769165039063
7.856999999999971,6.748864746093751,-0.5151519775390625,6.827969360351563
7.866999999999962,8.411407470703125,-0.206060791015625,7.040011596679688
7.877000000000066,9.081329345703123,-0.0055328369140625,8.218804931640626
7.887000000000057,6.15849609375,-0.3279327392578125,7.407870483398438
7.897000000000048,4.33355712890625,-0.184527587890625,6.686209106445313
7.908000000000015,5.341131591796875,-0.013458251953125,7.2617736816406255
7.918000000000006,6.004922485351563,0.329278564453125,7.481741333007813
7.927999999999997,7.386486816406251,0.8006164550781251,8.3943603515625
7.937999999999988,6.516186523437501,0.7511199951171875,8.593243408203126
7.947999999999979,5.5092102050781255,0.4290191650390625,7.402786254882813
7.95799999999997,6.080288696289063,0.5127593994140626,6.807931518554688
7.967999999999961,6.630880737304688,0.2654266357421875,6.133374023437501
7.9780000000000655,7.8990966796875,0.2337249755859375,7.144537353515625
7.988000000000056,6.912158203125,-0.0838897705078125,8.136859130859376
7.998000000000047,5.451040649414063,-0.2409027099609375,8.203103637695314
8.008000000000038,5.34442138671875,-0.375335693359375,8.137606811523439
8.018000000000029,5.396759033203125,-0.1706207275390625,7.060498046875001
8.028999999999996,7.104013061523438,-0.1052734375,7.066329956054688
8.038000000000011,7.383795166015625,0.1457977294921875,7.26566162109375
8.048999999999978,6.23685302734375,0.3766815185546875,7.558004760742188
8.058999999999969,3.278579711914063,0.9136657714843752,5.294924926757813
8.069000000000074,5.248120117187501,1.2103454589843752,6.2090393066406255
8.079000000000065,12.372021484375,0.8004669189453125,11.055505371093751
8.089000000000055,8.303890991210938,0.2899505615234375,9.247015380859375
8.099000000000046,3.60740966796875,-0.7629333496093751,7.144985961914063
8.109000000000037,1.9898773193359376,-0.31163330078125,6.220104980468751
8.119000000000028,5.240194702148438,-0.0490478515625,6.772940063476563
8.129000000000019,10.05286560058594,0.395672607421875,8.070614624023438
8.13900000000001,9.61756591796875,0.1830322265625,8.774481201171875
8.149000000000001,6.386688232421876,-0.5058807373046875,7.417889404296876
8.158999999999992,3.6217651367187504,-1.5098663330078126,6.878213500976563
8.168999999999983,3.9997924804687504,-0.04725341796875,6.122607421875
8.180000000000064,7.951284790039063,0.3297271728515625,7.638754272460938
8.190000000000055,8.9087646484375,0.3781768798828125,8.503970336914064
8.200000000000053,7.286148071289063,0.628948974609375,8.336489868164064
8.210000000000036,4.386642456054688,0.166583251953125,7.458413696289063
8.220000000000027,4.280172729492188,0.264080810546875,6.342724609375001
8.230000000000018,6.811370849609376,1.3486663818359377,6.3415283203125
8.240000000000009,8.53671875,0.68487548828125,7.226034545898438
8.25,7.981491088867188,0.318511962890625,8.057904052734376
8.259999999999991,5.447451782226563,0.134283447265625,8.403781127929689
8.269999999999982,3.7983673095703128,-0.2540618896484375,7.348355102539063
8.279999999999966,5.415301513671875,-0.055328369140625,7.374224853515625
8.28999999999997,7.0419555664062505,0.17764892578125,7.123452758789063
8.301000000000052,7.9092651367187505,-0.3539520263671875,7.769149780273438
8.31000000000006,6.800604248046875,-0.2109954833984375,7.96190185546875
8.321000000000026,5.238400268554688,0.0695343017578125,7.563537597656251
8.331000000000017,5.953930664062501,-0.1960418701171875,6.9821411132812505
8.341000000000008,6.754098510742188,0.4041961669921875,6.839782714843751
8.350999999999999,7.353289794921875,0.7083526611328126,7.017730712890626
8.36099999999999,6.794323730468751,0.3994110107421875,8.291778564453125
8.370999999999981,4.992861938476563,0.5748168945312501,7.874273681640625
8.380999999999972,4.705902099609375,-0.118133544921875,7.343569946289063
8.39099999999997,4.111346435546875,-0.54730224609375,5.565286254882813
8.401000000000067,7.828515625,0.6065185546875,7.290185546875
8.411000000000058,11.434280395507812,0.8285797119140625,9.856973266601564
8.42100000000005,8.281610107421876,0.3576904296875,8.665170288085939
8.43100000000004,4.196432495117188,-0.33555908203125,6.61607666015625
8.442000000000007,1.9305114746093752,-1.018191528320313,5.251409912109375
8.451999999999998,5.092602539062501,-0.4438232421875,6.737350463867188
8.461999999999989,8.989364624023438,0.2008270263671875,9.704147338867188
8.47199999999998,8.421875,0.6646881103515625,10.113726806640626
8.481999999999971,5.837741088867188,0.863720703125,7.984631347656251
8.491999999999962,3.9610626220703127,0.477618408203125,5.587716674804688
8.502000000000066,6.142346191406251,0.7363159179687501,5.101126098632813
8.512000000000057,8.919232177734376,0.8942260742187501,7.011001586914063
8.522000000000048,8.511895751953126,0.6883148193359375,8.754592895507812
8.532000000000039,6.36246337890625,0.3626251220703125,9.36395263671875
8.543000000000006,3.19588623046875,-0.23626708984375,7.777224731445313
8.552000000000021,4.248171997070313,-0.6388183593750001,6.402239990234375
8.562000000000012,7.294073486328125,-0.2968292236328125,6.839334106445313
8.572000000000003,8.547335815429689,-0.2583984375,7.222296142578125
8.58299999999997,8.376715087890625,-0.1939483642578125,8.363854980468751
8.592999999999961,5.652017211914063,-0.241650390625,7.426861572265626
8.603000000000065,4.811624145507813,-0.477020263671875,6.4886718750000005
8.613000000000056,6.0774475097656255,-0.04246826171875,6.897653198242188
8.623000000000047,6.656451416015625,0.6972869873046875,7.110592651367188
8.633000000000038,7.2507080078125,0.9453674316406252,8.605206298828126
8.643000000000029,5.7738891601562505,0.8402435302734376,8.744873046875
8.65300000000002,4.894317626953125,0.562255859375,7.698568725585938
8.663000000000011,5.989669799804688,0.338848876953125,6.825277709960938
8.673000000000002,6.948345947265626,0.3473724365234375,6.350949096679688
8.682999999999986,7.9445556640625,0.35948486328125,7.178781127929688
8.692999999999984,6.880307006835938,-0.165386962890625,7.965042114257813
8.702999999999975,5.41380615234375,-0.265875244140625,8.01214599609375
8.712999999999973,5.604165649414063,-0.4948150634765625,7.921826171875001
8.724000000000046,5.91265869140625,-0.5395263671875,6.922027587890626
8.734000000000037,7.095040893554688,-0.0330474853515625,7.032534790039063
8.744000000000028,6.6441894531250005,0.262884521484375,7.486077880859375
8.754000000000019,3.8055450439453127,0.8755340576171876,6.340032958984375
8.76400000000001,4.449298095703125,1.411920166015625,6.448446655273438
8.774000000000001,10.238589477539064,1.1955413818359375,9.050375366210938
8.783999999999992,11.613873291015626,1.0851837158203126,10.310516357421877
8.793999999999983,6.1417480468750005,-0.12919921875,7.215716552734375
8.803999999999974,0.8324676513671876,-0.6859222412109376,5.089910888671875
8.813999999999972,2.698678588867188,-0.5284606933593751,5.837890625
8.82400000000007,8.041006469726563,-0.724951171875,9.037216186523438
8.83400000000006,10.454818725585938,-0.2651275634765625,9.964190673828126
8.845000000000027,7.727728271484375,0.2241546630859375,8.963494873046876
8.854000000000042,3.8489105224609377,-1.4440704345703126,6.292031860351563
8.865000000000009,4.220208740234376,-0.7826721191406251,5.524911499023438
8.875,6.842025756835938,0.198883056640625,5.842376708984375
8.884999999999991,9.494348144531251,0.7295867919921876,8.049081420898439
8.894999999999982,8.93328857421875,0.8990112304687501,9.640744018554688
8.904999999999966,4.104019165039063,0.79373779296875,8.241534423828126
8.91499999999997,3.0937530517578127,-0.0925628662109375,6.949392700195313
8.926000000000052,5.001385498046876,1.016845703125,6.601571655273438
8.93500000000006,8.160336303710938,0.945965576171875,6.327322387695313
8.94500000000005,9.818243408203124,0.38101806640625,8.26336669921875
8.955000000000041,6.965393066406251,-0.109161376953125,7.734906005859376
8.965000000000032,4.48907470703125,-0.3410919189453125,7.487423706054688
8.975000000000016,4.629638671875,-0.6993804931640626,6.806137084960938
8.985000000000014,5.9383789062500005,0.24464111328125,6.783407592773438
8.995000000000012,8.1718505859375,-0.266473388671875,7.871731567382813
9.005999999999972,6.84696044921875,-0.1284515380859375,8.824276733398438
9.01599999999997,5.054470825195313,0.4194488525390625,8.17484130859375
9.026000000000067,4.955776977539063,0.243145751953125,7.487423706054688
9.036000000000058,6.327322387695313,0.3174652099609375,6.136065673828125
9.04600000000005,8.524008178710938,1.0427154541015626,6.557308959960938
9.05600000000004,7.604510498046875,0.5644989013671875,7.44510498046875
9.066000000000033,5.720056152343751,0.6913055419921875,8.133419799804688
9.076000000000022,4.81925048828125,0.34393310546875,8.430697631835939
9.08600000000002,5.163034057617188,-0.4891326904296875,7.305587768554688
9.09600000000001,6.511550903320313,-0.468048095703125,6.8251281738281255
9.105999999999996,5.302252197265625,-0.317913818359375,5.778076171875
9.115999999999984,6.7892395019531255,-0.2642303466796875,7.528546142578126
9.127000000000066,9.185406494140626,0.4583282470703125,9.088955688476563
9.137000000000056,8.496343994140625,0.150433349609375,8.140447998046875
9.147000000000048,7.222445678710938,0.2681182861328125,8.069119262695313
9.15700000000004,2.292388916015625,0.191705322265625,5.399151611328126
9.16700000000003,3.112445068359375,-0.14774169921875,7.123153686523438
9.17700000000002,7.165472412109375,-0.085235595703125,9.314007568359376
9.187000000000012,8.265161132812501,0.5333953857421876,9.166116333007814
9.197000000000005,8.660235595703126,0.6539215087890625,7.920181274414063
9.206999999999994,5.553173828125001,0.6851745605468751,6.026007080078125
9.216999999999985,4.9634033203125005,0.4486083984375,5.1835205078125
9.226999999999975,6.914550781250001,0.1818359375,7.374523925781251
9.236999999999966,7.444656372070313,0.4909271240234375,8.385537719726564
9.247000000000073,7.881002807617188,0.3923828125,9.3489990234375
9.257000000000062,4.853494262695313,-0.3123809814453125,7.856030273437501
9.268000000000027,4.0437561035156255,-0.0991424560546875,6.392669677734376
9.27800000000002,6.213375854492188,-0.2776885986328125,7.101919555664063
9.288000000000013,7.30753173828125,-0.0061309814453125,6.742434692382813
9.298000000000002,9.041403198242188,0.368157958984375,8.05640869140625
9.307999999999986,6.903036499023438,-0.1867706298828125,7.542602539062501
9.317999999999984,4.958767700195313,-0.3222503662109375,6.952084350585938
9.327999999999976,5.262774658203125,0.141461181640625,7.235455322265626
9.337999999999973,5.631829833984376,0.161798095703125,7.103115844726563
9.34800000000007,7.294223022460938,0.4021026611328125,8.183065795898438
9.35800000000006,6.717312622070313,0.5993408203125,8.42606201171875
9.368000000000052,5.5687255859375,0.2083038330078125,7.627688598632813
9.37800000000005,6.0687744140625,0.34752197265625,7.368243408203125
9.38800000000004,5.89591064453125,0.4370941162109375,6.383099365234376
9.399,7.701260375976563,0.19439697265625,6.896456909179688
9.408000000000015,7.391421508789063,0.06878662109375,7.899844360351563
9.418999999999984,5.635568237304688,0.12740478515625,7.777523803710938
9.428999999999974,5.702410888671875,-0.210546875,8.21671142578125
9.438999999999972,5.405731201171875,-0.019439697265625,7.1167236328125005
9.44900000000007,6.094644165039063,0.17525634765625,6.629385375976563
9.45900000000006,4.643994140625001,0.450103759765625,5.669363403320313
9.469000000000053,6.991561889648438,0.7596435546875,8.103512573242188
9.479000000000042,11.136404418945313,0.480010986328125,11.18470458984375
9.489000000000033,6.830062866210938,-0.08194580078125,7.813861083984375
9.499000000000024,4.482943725585938,-0.5656951904296875,5.220755004882813
9.509000000000016,4.183721923828125,0.2106964111328125,5.244232177734375
9.519000000000013,5.44371337890625,0.37144775390625,6.860867309570313
9.528999999999996,8.345013427734376,0.5238250732421875,10.694525146484375
9.538999999999987,6.579141235351563,0.449505615234375,10.420126342773438
9.550000000000068,5.431301879882813,-0.6358276367187501,7.536022949218751
9.56000000000006,5.695831298828125,-0.7888031005859376,5.7218505859375
9.57000000000005,6.343472290039063,0.4804595947265625,4.4001007080078125
9.58000000000004,8.970971679687501,0.1685272216796875,7.2291748046875
9.590000000000032,7.9810424804687505,-0.10946044921875,8.977700805664064
9.600000000000016,6.0065673828125,-0.002093505859375,9.108245849609377
9.610000000000014,4.261630249023438,-0.6361267089843751,7.878909301757813
9.620000000000012,4.2205078125,0.2800811767578125,6.222647094726563
9.629999999999995,6.995001220703125,1.00906982421875,6.7099853515625005
9.639999999999986,8.0809326171875,0.23267822265625,7.673446655273438
9.649999999999975,7.869638061523438,0.487786865234375,7.96190185546875
9.659999999999968,6.447549438476563,0.5223297119140625,7.653109741210938
9.670000000000066,4.975067138671875,-0.039178466796875,6.385940551757813
9.680000000000064,6.094943237304688,0.7511199951171875,6.78116455078125
9.691000000000033,6.27872314453125,0.3309234619140625,7.281362915039063
9.701000000000022,6.480596923828125,-0.167779541015625,8.712573242187501
9.71100000000002,6.061447143554688,0.18961181640625,9.13905029296875
9.72100000000001,5.062844848632813,-0.1769012451171875,7.7298217773437505
9.730999999999996,6.552523803710938,-0.432159423828125,6.523812866210938
9.740999999999984,7.198220825195313,0.36845703125,6.324929809570313
9.750999999999976,7.648324584960938,0.13458251953125,6.461306762695313
9.760999999999967,7.0180297851562505,0.24105224609375,8.243927001953125
9.771000000000072,5.290289306640625,0.327484130859375,7.9466491699218755
9.781000000000065,5.559454345703125,-0.090020751953125,8.118017578125
9.791000000000054,4.343276977539063,-0.1449005126953125,6.2329650878906255
9.801000000000052,4.542309570312501,0.856243896484375,6.20634765625
9.811000000000044,9.097479248046875,0.7150817871093751,9.139947509765626
9.821000000000026,9.383541870117188,0.8813659667968751,8.473165893554688
9.831999999999994,8.493353271484375,0.41690673828125,8.430996704101563
9.84299999999996,4.572515869140625,-0.7907470703125,5.7768798828125005
9.851999999999975,2.053131103515625,-0.8065979003906251,5.118472290039063
9.861999999999966,5.9612579345703125,-0.4678985595703125,8.158990478515626
9.872000000000073,7.916592407226563,-0.496759033203125,10.343713378906251
9.882000000000062,8.058502197265625,0.7428955078125,9.625491333007814
9.892000000000046,5.865106201171876,0.449505615234375,7.386038208007813
9.90200000000005,4.539617919921875,0.1643402099609375,4.827474975585938
9.912000000000042,7.217660522460938,0.7430450439453126,5.786001586914063
9.922000000000024,7.958312988281251,0.9018524169921877,7.195080566406251
9.932000000000016,8.478250122070314,0.8453277587890625,9.157443237304689
9.942999999999984,5.86600341796875,0.74468994140625,8.963943481445312
9.951999999999998,3.195138549804688,-0.26019287109375,7.1191162109375
9.962999999999973,5.2255401611328125,-0.262884521484375,6.830361938476563
9.97300000000007,6.4647460937500005,0.079852294921875,6.919186401367188
9.98300000000006,8.627487182617188,-0.154620361328125,7.423123168945313
9.993000000000052,8.355630493164064,-0.3505126953125,8.523260498046875
10.00300000000005,5.385992431640625,-0.4361968994140625,6.525756835937501
10.01300000000004,5.73082275390625,-0.7143341064453126,7.034030151367188
10.023000000000025,5.576351928710938,0.0031402587890625,6.7482666015625
10.033000000000015,6.589459228515626,0.5085723876953125,7.4905639648437505
10.043000000000006,7.08861083984375,0.436944580078125,8.898147583007812
10.052999999999995,5.2337646484375,0.727642822265625,8.292825317382814
10.062999999999988,5.7728424072265625,0.6610992431640625,7.666567993164063
10.07299999999998,6.011502075195313,0.5263671875,6.743481445312501
10.08299999999997,7.047787475585938,0.8231964111328126,6.115280151367188
10.09299999999996,8.144784545898439,0.46116943359375,7.69931640625
10.103000000000064,6.139205932617188,0.064300537109375,7.603314208984376
10.114000000000033,5.772991943359376,-0.026617431640625,8.161233520507814
10.124000000000024,5.414703369140625,-0.5909667968750001,7.73221435546875
10.134000000000016,5.975015258789063,-0.5169464111328126,6.843521118164063
10.144000000000013,6.699069213867188,0.0746185302734375,7.084872436523438
10.153999999999996,3.604568481445313,0.4798614501953125,5.348159790039063
10.163999999999987,6.123504638671875,0.8925811767578126,7.212725830078125
10.173999999999978,11.394503784179689,0.9407318115234377,11.21924743652344
10.183999999999967,9.539657592773438,0.5324981689453125,9.479244995117188
10.194000000000074,4.9992919921875005,-0.5585174560546875,6.195880126953125
10.204000000000065,1.2176727294921876,-0.152227783203125,4.428213500976563
10.214000000000055,4.068728637695313,-0.103179931640625,5.7900390625
10.224000000000046,8.972766113281251,-0.122021484375,10.552166748046876
10.235000000000014,9.154901123046876,0.5145538330078125,10.307077026367187
10.245000000000012,6.794024658203125,-0.0441131591796875,8.556607055664063
10.254999999999995,3.976614379882813,-1.523623657226563,5.324383544921876
10.264999999999986,4.896710205078126,-0.20576171875,4.665078735351563
10.274999999999975,8.032781982421875,0.0719268798828125,6.528149414062501
10.284999999999968,8.945550537109376,0.2872589111328125,8.820687866210939
10.295000000000066,7.826422119140625,0.5314514160156251,9.912899780273438
10.305000000000064,3.737057495117188,-0.12022705078125,8.033978271484376
10.315000000000056,3.4195922851562504,-0.1622467041015625,6.206497192382813
10.325000000000053,6.008810424804688,1.239654541015625,6.3825012207031255
10.335000000000036,8.275030517578125,0.702520751953125,6.580636596679688
10.345000000000027,9.384738159179689,0.49466552734375,8.737246704101564
10.355000000000018,6.440670776367188,0.398663330078125,7.838235473632813
10.365999999999984,4.297219848632813,-0.157611083984375,6.9779541015625
10.375999999999976,5.206698608398438,0.107965087890625,6.744229125976563
10.385999999999967,6.006118774414063,0.5954528808593751,6.7841552734375
10.396000000000072,7.7890380859375,-0.2809783935546875,8.277871704101564
10.406000000000065,6.514691162109376,-0.03828125,9.117517089843751
10.416000000000054,4.948898315429688,0.13577880859375,8.017379760742188
10.426000000000052,5.922976684570313,-0.420794677734375,7.0404602050781255
10.436000000000044,6.69383544921875,0.1626953125,5.863909912109375
10.446000000000026,8.183963012695314,0.5090209960937501,6.502279663085938
10.456000000000016,7.263418579101563,0.19140625,7.93558349609375
10.466000000000008,5.222698974609376,0.6631927490234375,8.291329956054689
10.476,5.3306640625,0.13099365234375,8.422772216796876
10.48599999999999,5.17095947265625,-0.32838134765625,7.129434204101563
10.49599999999998,4.955477905273438,0.1185821533203125,5.344570922851563
10.505999999999972,6.078195190429688,0.3228485107421875,6.516036987304688
10.51599999999997,9.690240478515626,0.73212890625,9.566574096679688
10.52700000000005,9.829608154296876,1.06708984375,9.23355712890625
10.537000000000042,6.517532348632813,0.02332763671875,7.808926391601563
10.547000000000024,2.416204833984376,-0.53653564453125,4.7863525390625
10.557000000000016,3.348861694335938,-0.5489471435546875,6.337341308593751
10.567000000000007,6.912905883789063,-0.85654296875,9.069515991210938
10.576999999999998,8.980242919921876,-0.1215728759765625,10.481585693359376
10.586999999999987,7.4172912597656255,0.7585968017578125,8.72034912109375
10.59699999999998,5.269204711914063,0.4222900390625,5.906079101562501
10.606999999999973,5.36356201171875,0.4466644287109375,4.8078857421875005
10.616999999999962,7.110443115234376,0.7393066406250001,6.133224487304688
10.62800000000005,8.497091674804688,0.586181640625,8.618066406250001
10.637000000000056,7.396505737304688,1.0035369873046875,9.692034912109376
10.648000000000025,4.5511322021484375,0.4248321533203125,8.211328125000001
10.65700000000004,3.976016235351562,-0.3712982177734375,6.761126708984375
10.668000000000006,5.646185302734375,-0.260791015625,6.2494140625000005
10.677999999999995,7.802795410156251,0.01435546875,6.939822387695313
10.687999999999988,8.925961303710938,-0.273651123046875,8.140447998046875
10.69799999999998,7.088461303710938,-0.079254150390625,7.899844360351563
10.70799999999997,5.232269287109375,-0.6615478515625001,6.8320068359375
10.71799999999996,5.1956329345703125,-0.5254699707031251,6.792379760742188
10.728000000000064,5.8546386718750005,0.275146484375,7.075750732421875
10.738000000000056,6.910064697265626,0.49765625,8.104110717773438
10.748000000000047,6.498840332031251,0.48868408203125,8.824874877929688
10.758000000000038,5.6751953125000005,0.8526550292968751,8.089605712890625
10.768000000000027,5.7421875,0.4149627685546875,7.301101684570313
10.77800000000002,6.393417358398438,0.6784454345703126,6.002679443359376
10.788000000000013,7.656997680664063,0.6581085205078125,6.734509277343751
10.798999999999978,7.416992187500001,0.1912567138671875,7.571163940429688
10.808999999999967,5.969631958007813,0.0394775390625,8.286245727539063
10.819000000000074,5.302252197265625,-0.0557769775390625,8.080035400390626
10.829000000000065,5.56094970703125,-0.61309814453125,7.472470092773438
10.839000000000055,5.725289916992188,-0.1873687744140625,6.387136840820313
10.849000000000046,4.328921508789063,0.261688232421875,4.86351318359375
10.859000000000036,8.183215332031251,0.322698974609375,9.27423095703125
10.869000000000028,10.569662475585938,0.3170166015625,10.747760009765626
10.87900000000002,6.280517578125001,-0.09510498046875,7.616024780273438
10.88900000000001,4.916748046875,-0.8571411132812501,5.6422973632812505
10.899,3.997549438476563,0.628948974609375,5.137014770507813
10.908999999999992,6.046343994140625,1.0012939453125,7.341177368164063
10.918999999999984,8.016482543945314,1.2019714355468751,10.487417602539065
10.930000000000064,6.226235961914063,0.7460357666015626,10.00576171875
10.940000000000056,5.936734008789063,-0.737213134765625,7.484432983398438
10.950000000000053,5.554071044921876,-0.9159088134765626,5.4730224609375
10.960000000000036,6.724490356445313,0.5790039062500001,4.727734375000001
10.970000000000027,8.908914184570314,-0.316717529296875,7.759878540039063
10.980000000000018,7.433590698242188,-0.2615386962890625,8.89381103515625
10.990000000000007,5.943014526367188,-0.343634033203125,8.82681884765625
11.0,4.066336059570313,-0.8617767333984375,7.628286743164063
11.009999999999993,4.9817962646484375,0.337353515625,6.27274169921875
11.019999999999982,6.967636108398438,1.1236145019531252,6.907522583007813
11.029999999999966,7.928704833984375,0.2513702392578125,7.442413330078126
11.03999999999997,7.775131225585938,0.8931793212890625,8.197869873046876
11.050000000000068,5.896658325195313,0.6467437744140625,7.3096252441406255
11.061000000000044,5.312570190429688,0.1715179443359375,6.609197998046875
11.071000000000026,6.115280151367188,0.8508605957031251,7.1376586914062505
11.081000000000016,5.938528442382813,0.306549072265625,7.428207397460938
11.091000000000008,6.713574218750001,-0.1942474365234375,8.723788452148439
11.101,5.742636108398438,0.0862823486328125,8.61029052734375
11.11099999999999,5.655157470703125,-0.5223297119140625,7.4786010742187505
11.12099999999998,7.007861328125,-0.6646881103515625,6.722097778320313
11.130999999999972,7.044647216796876,0.293389892578125,6.068475341796876
11.14099999999997,7.484432983398438,-0.00418701171875,7.158743286132813
11.151000000000067,6.406277465820313,0.0394775390625,8.126242065429688
11.161000000000058,5.337393188476563,0.3805694580078125,7.937078857421875
11.17100000000005,5.773141479492188,-0.21593017578125,7.931546020507813
11.18100000000004,4.234414672851563,-0.0910675048828125,6.0221191406250005
11.191000000000033,4.94725341796875,0.8632720947265625,6.060400390625
11.201999999999998,9.27064208984375,0.8777770996093751,9.350942993164065
11.211999999999987,9.958209228515626,1.11793212890625,8.949887084960938
11.22199999999998,7.723092651367188,0.6181823730468751,8.166168212890625
11.231999999999973,3.4656494140625003,-0.46715087890625,5.125500488281251
11.241999999999962,2.5793487548828127,-0.558966064453125,5.5799407958984375
11.252000000000066,6.3929687500000005,-0.6485382080078126,8.864053344726564
11.262000000000056,8.258132934570312,-0.5979949951171876,10.483380126953126
11.272000000000048,7.847805786132813,0.5419189453125001,9.397448730468753
11.28200000000004,5.5346313476562505,0.2109954833984375,6.471176147460938
11.29200000000003,5.082583618164063,0.0964508056640625,4.6299377441406255
11.30200000000002,7.403384399414063,0.8010650634765626,5.747570800781251
11.312000000000012,8.202505493164063,0.8372528076171876,7.952481079101563
11.322000000000005,8.091549682617188,0.8605804443359376,9.680520629882814
11.331999999999994,4.811773681640625,0.880169677734375,8.644235229492189
11.344000000000053,3.3057952880859376,-0.189910888671875,6.763369750976563
11.353000000000064,5.635867309570313,-0.0246734619140625,6.755145263671875
11.363000000000056,7.061544799804688,0.188116455078125,6.824081420898438
11.373000000000047,8.984579467773438,-0.1562652587890625,7.844665527343751
11.383000000000038,7.706793212890625,-0.3864013671875,8.077044677734376
11.393000000000027,5.24931640625,-0.5921630859375,6.631478881835938
11.40300000000002,5.6177734375,-0.8735900878906251,6.961056518554688
11.413000000000013,5.599081420898438,0.002093505859375,6.756790161132813
11.423000000000002,6.705947875976563,0.2842681884765625,7.890573120117188
11.432999999999986,6.818399047851563,0.2953338623046875,9.008505249023438
11.444000000000074,5.3306640625,0.7358673095703125,8.195925903320314
11.452999999999976,5.870489501953125,0.6006866455078126,7.401589965820313
11.464000000000055,6.177935791015625,0.5045349121093751,6.398052978515626
11.47300000000007,7.399795532226563,1.0310516357421875,6.23984375
11.484000000000036,7.858273315429688,0.4222900390625,7.61856689453125
11.494000000000028,5.9612579345703125,0.2308837890625,8.047586059570314
11.50400000000002,5.624053955078125,0.0880767822265625,8.151364135742188
11.51400000000001,5.313317871093751,-0.4146636962890625,7.609445190429688
11.524,6.053073120117188,-0.3626251220703125,6.740341186523438
11.533999999999992,5.133425903320313,0.368157958984375,5.871087646484376
11.543999999999984,5.411563110351563,0.4167572021484375,6.529495239257813
11.553999999999974,10.51298828125,0.3605316162109375,11.164816284179688
11.563999999999972,7.690942382812499,-0.0557769775390625,8.410360717773438
11.57400000000007,5.463302612304688,-0.95404052734375,6.32059326171875
11.58400000000006,5.2270355224609375,-0.533245849609375,5.788394165039063
11.594000000000053,4.360174560546875,0.579901123046875,5.9149017333984375
11.604000000000042,7.626791381835938,0.9734802246093752,9.60380859375
11.614000000000033,6.581384277343751,1.2212615966796876,10.065725708007813
11.625,5.782412719726563,0.10347900390625,8.228375244140626
11.634999999999993,6.429605102539063,-1.0353881835937502,6.592898559570313
11.644999999999982,5.802151489257813,0.2618377685546875,4.979254150390625
11.654999999999966,8.079437255859375,0.4780670166015625,6.505718994140626
11.66499999999997,7.97685546875,-0.2331268310546875,8.73231201171875
11.675000000000068,6.309826660156251,0.0007476806640625,8.319293212890626
11.68500000000006,5.46405029296875,-0.898114013671875,8.534475708007813
11.69500000000005,4.214077758789063,-0.439337158203125,6.517681884765626
11.70500000000004,6.386837768554688,0.9890319824218752,6.881652832031251
11.715000000000032,7.40562744140625,0.174957275390625,7.369888305664063
11.725000000000016,7.717410278320313,0.4173553466796875,7.608248901367188
11.735000000000014,7.1137329101562505,0.5887237548828126,7.777374267578126
11.74599999999998,5.1518188476562505,0.1662841796875,6.739144897460938
11.754999999999995,6.055316162109375,0.6264068603515626,6.9576171875
11.76599999999997,6.000436401367188,0.8623748779296876,7.387832641601563
11.776000000000067,6.168814086914063,-0.098992919921875,7.901788330078125
11.786000000000058,6.498541259765625,0.3464752197265625,9.12529296875
11.79600000000005,5.216567993164063,-0.040673828125,7.620211791992188
11.80600000000004,6.405679321289063,-0.551788330078125,7.097134399414063
11.816000000000033,7.111190795898438,0.00418701171875,6.533084106445313
11.826000000000022,7.156051635742188,0.2980255126953125,6.582281494140625
11.83600000000002,7.356430053710938,-0.1583587646484375,7.8189453125
11.84600000000001,5.528500366210938,0.2468841552734375,7.789337158203126
11.855999999999996,5.684167480468751,-0.2720062255859375,7.892218017578125
11.865999999999984,4.742987060546875,-0.4918243408203125,6.75963134765625
11.875999999999976,4.088018798828125,0.4822540283203125,6.162683105468751
11.887000000000056,8.859567260742189,0.98095703125,9.11856384277344
11.896000000000072,9.518572998046876,0.8511596679687501,9.140994262695314
11.90700000000004,7.901489257812501,0.9654052734375,7.611239624023438
11.91700000000003,4.598385620117188,-0.45877685546875,5.3656555175781255
11.92700000000002,2.9727783203125,-0.384307861328125,5.218063354492188
11.937000000000012,6.505868530273438,-0.1691253662109375,8.30643310546875
11.947000000000005,7.539761352539063,-0.4317108154296875,10.733255004882814
11.956999999999994,7.030590820312501,0.408831787109375,9.79566345214844
11.966999999999985,5.4012451171875,0.411224365234375,7.323831176757813
11.976999999999975,5.1039672851562505,-0.333465576171875,4.616629028320313
11.986999999999966,7.922424316406251,0.6847259521484376,5.583529663085938
11.997000000000073,8.482586669921876,0.6290985107421876,7.395159912109375
12.007000000000062,7.926611328125,0.6981842041015626,9.213818359375
12.017000000000046,5.4139556884765625,0.754559326171875,8.940615844726564
12.02700000000005,3.091510009765625,-0.0171966552734375,7.031188964843751
12.037000000000042,5.5226684570312505,-0.2289398193359375,6.937579345703125
12.048000000000002,6.792230224609376,0.442926025390625,7.029693603515626
12.057999999999986,8.350994873046876,0.0354400634765625,7.712924194335938
12.067999999999984,8.087661743164062,-0.1614990234375,8.176187133789064
12.077999999999976,5.569772338867188,-0.3533538818359375,6.562991333007813
12.087999999999973,6.001483154296875,-0.7789337158203126,6.5425048828125005
12.09800000000007,5.7414398193359375,-0.1864715576171875,6.901092529296876
12.10800000000006,6.330911254882813,0.400457763671875,7.5728088378906255
12.118000000000052,6.920532226562501,0.19678955078125,9.160134887695314
12.12800000000005,5.179034423828125,0.4960113525390625,8.385537719726564
12.13800000000004,5.73919677734375,0.5271148681640625,7.602416992187501
12.148000000000025,6.1167755126953125,0.3503631591796875,6.567327880859375
12.158000000000015,7.039413452148438,0.810186767578125,6.052923583984375
12.168999999999984,8.037417602539064,0.620574951171875,7.664474487304688
12.178999999999974,6.493905639648438,0.121722412109375,7.748663330078125
12.188999999999972,5.765216064453125,0.253314208984375,8.004968261718751
12.19900000000007,5.50950927734375,-0.3650177001953125,7.6939331054687505
12.20900000000006,5.7040557861328125,-0.4071868896484375,6.947299194335938
12.219000000000053,6.173748779296876,0.1858734130859375,6.814959716796875
12.229000000000042,3.6392608642578126,0.24583740234375,5.253054809570313
12.239000000000033,7.791879272460938,0.5495452880859375,8.680123901367189
12.249000000000024,11.512786865234377,0.4837493896484375,11.39749450683594
12.259000000000016,7.060198974609375,-0.2056121826171875,7.457217407226563
12.269000000000013,4.306192016601563,-0.79373779296875,5.514294433593751
12.279999999999966,2.716024780273438,0.398663330078125,4.859774780273438
12.288999999999987,5.721551513671876,0.6060699462890625,7.324728393554688
12.298999999999978,9.124844360351563,0.9082824707031252,11.372970581054688
12.308999999999967,6.846511840820313,0.730633544921875,9.7318115234375
12.32000000000005,5.931201171875,-0.713287353515625,7.537368774414063
12.33000000000004,4.749267578125,-0.9474609375,4.874578857421875
12.340000000000032,6.399249267578125,0.539227294921875,4.822540283203125
12.350000000000016,9.359466552734377,-0.22071533203125,7.829711914062501
12.36099999999999,7.94754638671875,-0.0031402587890625,9.097479248046875
12.370000000000012,6.116177368164063,-0.210247802734375,9.109890747070311
12.379999999999995,3.356338500976563,-0.8288787841796875,7.4771057128906255
12.389999999999986,4.255648803710938,0.273052978515625,6.143841552734376
12.399999999999975,7.466787719726563,1.122866821289063,6.806735229492188
12.409999999999968,8.325274658203126,0.208453369140625,7.512695312500001
12.420000000000066,8.383892822265626,0.7977752685546876,8.226281738281251
12.430000000000064,5.652017211914063,0.3976165771484375,7.391720581054688
12.440000000000056,4.5690765380859375,0.09749755859375,6.299508666992188
12.451000000000022,6.155654907226563,0.9256286621093752,7.230819702148438
12.461999999999987,6.051876831054688,0.5172454833984376,7.311419677734375
12.47100000000001,7.200015258789063,-0.169573974609375,8.840127563476564
12.480999999999996,5.729776000976563,0.1963409423828125,8.877511596679689
12.490999999999984,5.128192138671875,-0.5299560546875001,7.313662719726563
12.500999999999976,6.899896240234376,-0.495263671875,6.704751586914063
12.510999999999967,7.1526123046875005,0.2603424072265625,5.908621215820313
12.521000000000072,7.922872924804688,0.042767333984375,7.090704345703125
12.531000000000065,6.641049194335938,-0.02811279296875,8.271142578125001
12.541000000000054,4.843923950195313,0.431561279296875,8.041006469726563
12.55200000000002,5.7997589111328125,-0.223406982421875,8.201309204101562
12.561000000000044,5.528948974609375,0.1449005126953125,6.985281372070313
12.571000000000026,5.399151611328126,0.472235107421875,5.7858520507812505
12.581000000000016,5.618222045898438,0.12022705078125,6.81944580078125
12.591999999999985,8.526699829101563,0.859234619140625,8.94525146484375
12.601999999999975,9.735250854492188,0.7686157226562501,8.650665283203125
12.611999999999966,7.694082641601563,0.1586578369140625,7.952182006835938
12.622000000000073,4.131832885742188,0.2358184814453125,5.775234985351563
12.632000000000062,2.3598297119140628,-0.5791534423828125,6.08372802734375
12.642000000000046,5.2579895019531255,-0.868206787109375,8.359967041015626
12.65200000000005,8.326919555664062,0.0103179931640625,10.177877807617188
12.662000000000042,8.362808227539062,0.15970458984375,9.158190917968753
12.672000000000024,6.404632568359376,0.3385498046875,6.619366455078126
12.682000000000016,5.016787719726563,0.5498443603515626,5.02860107421875
12.692000000000007,6.404183959960938,0.402850341796875,5.903088378906251
12.701999999999998,8.049829101562501,0.66693115234375,7.975808715820313
12.712999999999973,7.895358276367188,1.0415191650390625,9.315652465820314
12.72300000000007,5.692990112304688,0.2420989990234375,8.585916137695314
12.73300000000006,3.733468627929688,0.14415283203125,7.30693359375
12.743000000000052,4.9638519287109375,0.0777587890625,6.345864868164063
12.75300000000005,7.25010986328125,-0.109759521484375,7.117620849609375
12.76300000000004,8.731265258789064,0.0777587890625,7.457965087890625
12.773000000000025,7.906274414062499,-0.098095703125,8.026351928710938
12.783000000000015,5.637661743164063,-0.6844268798828126,6.9875244140625
12.793000000000006,4.857830810546876,-0.376531982421875,6.740939331054688
12.802999999999995,5.759234619140625,-0.2322296142578125,7.021768188476563
12.813999999999972,7.049133300781251,0.0402252197265625,7.829711914062501
12.82299999999998,6.841726684570313,0.499749755859375,8.392266845703126
12.83299999999997,5.727084350585938,0.560162353515625,8.455520629882812
12.84299999999996,5.403787231445313,0.34453125,7.420132446289063
12.854000000000042,5.8730316162109375,0.8753845214843751,6.673648071289063
12.864000000000033,7.338037109375,0.5779571533203125,6.465194702148438
12.874000000000024,7.887582397460938,0.4888336181640625,7.543499755859376
12.884000000000016,6.503176879882813,0.34453125,7.723541259765626
12.894000000000013,5.358926391601563,-0.045758056640625,8.15689697265625
12.903999999999996,5.35458984375,-0.384906005859375,7.5976318359375
12.913999999999987,6.190945434570313,-0.1443023681640625,7.154705810546876
12.923999999999978,7.091152954101563,-0.4873382568359375,7.128536987304688
12.933999999999967,5.2016143798828125,-0.1435546875,6.325228881835938
12.944000000000074,3.958819580078125,-0.0297576904296875,5.6943359375
12.954000000000065,9.686651611328124,0.34632568359375,10.869931030273438
12.964000000000055,9.862506103515626,0.2346221923828125,8.830856323242188
12.974000000000046,6.219955444335938,-0.0586181640625,6.977804565429688
12.984000000000036,4.263275146484375,0.121124267578125,5.725888061523438
12.995000000000012,2.828176879882813,1.395172119140625,5.881106567382813
13.004999999999995,6.950289916992188,1.3017120361328125,9.309072875976565
13.014999999999986,8.007809448242188,1.0204345703125002,9.854879760742188
13.024999999999975,7.241586303710938,0.0028411865234375,8.512643432617189
13.034999999999968,6.089859008789063,-1.0283599853515626,6.344369506835938
13.045000000000066,4.9290100097656255,-0.6652862548828126,5.361618041992188
13.055000000000064,7.111938476562501,0.168377685546875,6.357678222656251
13.065000000000056,8.312265014648439,-0.5845367431640626,8.465838623046876
13.075000000000053,7.37572021484375,-0.2262481689453125,8.731414794921875
13.085000000000036,5.689251708984376,-0.5067779541015626,8.569467163085939
13.095000000000027,3.4478546142578126,-0.4242340087890625,6.731069946289063
13.105000000000018,5.930752563476563,0.8731414794921876,6.526953125
13.115000000000007,7.556509399414063,0.8309722900390626,7.261923217773438
13.125,8.457464599609375,0.8465240478515625,7.396804809570313
13.135999999999967,7.558004760742188,1.088922119140625,8.076895141601563
13.146000000000072,4.6707611083984375,0.4870391845703125,6.701910400390625
13.156000000000065,5.324383544921876,0.2811279296875,7.068722534179688
13.166000000000054,5.958267211914063,0.5854339599609375,7.387234497070313
13.176000000000052,6.646731567382813,-0.2226593017578125,7.688101196289063
13.186000000000044,7.095938110351563,-0.3970184326171875,9.01044921875
13.196000000000026,5.264120483398438,-0.4355987548828125,7.902236938476563
13.206000000000016,5.723196411132813,-0.7898498535156251,7.093994140625001
13.216000000000008,6.713873291015625,-0.402252197265625,6.668713378906251
13.226,7.428057861328125,0.3291290283203125,6.455026245117188
13.23599999999999,7.879656982421875,0.0488983154296875,7.63052978515625
13.24599999999998,5.770449829101563,0.521881103515625,8.001977539062501
13.255999999999972,5.143444824218751,0.4753753662109375,7.924069213867188
13.26599999999997,5.646185302734375,0.35589599609375,7.8001037597656255
13.27700000000005,5.017385864257813,0.494964599609375,6.037969970703125
13.287000000000042,5.535079956054688,0.4670013427734375,6.205300903320313
13.297000000000024,7.687353515625,0.5535827636718751,8.505166625976564
13.307000000000016,9.616818237304688,0.7630828857421875,8.8585205078125
13.317000000000007,8.376715087890625,0.1694244384765625,8.854931640625
13.326999999999998,4.9040374755859375,-0.313726806640625,6.122457885742188
13.336999999999987,2.57261962890625,-0.8294769287109376,5.245428466796875
13.34699999999998,4.7530059814453125,-0.8269348144531251,7.572659301757813
13.356999999999973,7.846310424804688,-0.4170562744140625,9.801345825195312
13.366999999999962,8.655300903320313,0.4843475341796875,10.245318603515626
13.377000000000066,6.468185424804688,0.4725341796875,7.276577758789063
13.38800000000004,4.940823364257813,0.48330078125,5.236904907226563
13.397000000000048,6.190347290039063,0.7804290771484376,5.414852905273438
13.408000000000015,7.542901611328125,0.944769287109375,7.204052734375001
13.418000000000006,8.461651611328126,0.9909759521484376,9.366644287109375
13.427999999999995,6.217712402343751,0.73990478515625,8.946148681640626
13.437999999999988,3.869546508789063,-0.100787353515625,7.483685302734376
13.44799999999998,4.751510620117188,-0.1236663818359375,6.4707275390625005
13.45799999999997,6.43424072265625,-0.0856842041015625,6.678582763671876
13.46799999999996,8.617617797851564,-0.20635986328125,7.5521728515625
13.478000000000064,8.252001953125001,-0.286212158203125,8.245123291015625
13.488000000000056,5.960061645507813,-0.454290771484375,7.096237182617188
13.498000000000047,5.1746978759765625,-0.7418487548828125,6.8894287109375005
13.508000000000038,5.396160888671876,-0.182733154296875,6.691293334960938
13.518000000000027,6.788491821289063,0.2830718994140625,7.456619262695313
13.52800000000002,7.130929565429688,0.41929931640625,8.42008056640625
13.538000000000013,5.910565185546876,0.6948944091796876,8.492156982421875
13.548000000000002,5.488873291015626,0.627752685546875,7.772738647460938
13.558999999999967,5.65306396484375,0.461468505859375,6.764566040039063
13.569000000000074,6.804193115234376,0.8372528076171876,6.379211425781251
13.579000000000065,7.904031372070313,0.54132080078125,7.386337280273438
13.589000000000055,6.723892211914063,0.193499755859375,7.825973510742188
13.599000000000046,5.819497680664063,-0.01375732421875,8.106503295898438
13.609000000000036,5.2804199218750005,-0.445318603515625,7.691839599609375
13.619000000000028,5.993408203125,-0.4517486572265625,7.070217895507813
13.62900000000002,6.98154296875,-0.2471832275390625,7.241586303710938
13.63900000000001,6.221151733398438,-0.18482666015625,7.041357421875
13.649,3.4242279052734377,0.0107666015625,5.284457397460938
13.658999999999992,6.910214233398438,0.576910400390625,8.439370727539064
13.668999999999984,11.611181640625,0.4792633056640625,10.62005615234375
13.680000000000064,7.839581298828126,0.26856689453125,7.957864379882813
13.690000000000056,3.9383331298828126,-0.2280426025390625,5.653662109375
13.700000000000053,2.4206909179687504,0.7388580322265625,5.543453979492188
13.710000000000036,5.389730834960938,0.95164794921875,7.851544189453126
13.720000000000027,8.904876708984375,0.9479095458984376,10.215261840820313
13.730000000000018,8.025006103515626,0.4975067138671875,9.368438720703123
13.740000000000007,6.2195068359375005,-0.57720947265625,7.057507324218751
13.75,4.605712890625,-1.1799896240234375,5.472723388671875
13.759999999999993,5.912359619140625,0.0154022216796875,5.432797241210938
13.769999999999982,8.567971801757814,-0.471038818359375,7.614080810546875
13.779999999999966,8.429202270507814,-0.3255401611328125,9.1109375
13.78999999999997,6.271545410156251,-0.14833984375,8.927905273437501
13.801000000000052,3.3899841308593754,-0.5102172851562501,7.442562866210938
13.81000000000006,4.428363037109375,0.2878570556640625,6.272592163085938
13.821000000000026,7.199417114257813,1.244439697265625,6.738845825195313
13.831000000000016,8.890969848632814,0.7364654541015625,7.316204833984376
13.841000000000008,8.269049072265625,1.0412200927734376,8.138055419921876
13.851,5.3391876220703125,0.702520751953125,7.32188720703125
13.861999999999966,4.405783081054688,0.1589569091796875,6.937130737304688
13.87099999999998,5.66263427734375,0.5344421386718751,7.175491333007813
13.880999999999972,6.492559814453125,0.309539794921875,7.52884521484375
13.89099999999997,7.440020751953125,-0.473431396484375,8.693283081054688
13.901000000000067,5.857180786132813,-0.266473388671875,8.480642700195313
13.911000000000058,5.182174682617188,-0.6412109375,7.165921020507813
13.92100000000005,6.678283691406251,-0.7636810302734376,6.809277343750001
13.93100000000004,7.373178100585938,0.1399658203125,6.140850830078126
13.941000000000033,7.866049194335938,0.1757049560546875,7.095339965820313
13.951000000000022,6.439773559570313,0.15133056640625,8.158990478515626
13.961999999999987,4.8700927734375,0.638519287109375,8.150466918945312
13.97199999999998,5.018881225585938,0.1514801025390625,7.889376831054688
13.981999999999973,4.249368286132813,0.1167877197265625,5.956622314453125
13.991999999999962,6.152963256835938,1.0383789062500002,6.430053710937501
14.002000000000066,10.340872192382813,1.1222686767578125,9.768597412109376
14.012000000000056,9.034524536132814,0.8115325927734376,8.2747314453125
14.022000000000048,6.130532836914063,0.1637420654296875,7.1346679687500005
14.03200000000004,3.2746917724609377,-0.8694030761718751,5.078097534179688
14.04200000000003,4.079196166992188,-0.8602813720703125,6.348706054687501
14.05200000000002,7.305737304687501,-0.6766510009765625,9.501824951171876
14.062000000000012,7.566827392578125,-0.261090087890625,10.557699584960938
14.072000000000005,6.46953125,0.4559356689453125,8.971270751953126
14.081999999999994,5.171856689453126,0.2284912109375,6.021969604492188
14.091999999999985,6.151916503906251,0.369354248046875,4.599581909179688
14.103000000000064,8.512942504882814,0.9386383056640626,6.102420043945313
14.113000000000056,8.284899902343751,0.9084320068359376,8.215963745117188
14.123000000000047,6.923971557617188,0.965704345703125,9.437225341796877
14.133000000000038,3.962408447265626,0.530255126953125,8.357574462890625
14.143000000000027,3.738851928710938,-0.1945465087890625,6.910513305664063
14.15300000000002,6.37681884765625,0.0082244873046875,6.911410522460938
14.163000000000013,7.550976562500001,0.025421142578125,7.021469116210938
14.173000000000002,8.654403686523438,-0.3004180908203125,8.096484375000001
14.182999999999986,7.007562255859376,-0.420196533203125,7.520022583007813
14.192999999999984,5.361618041992188,-0.6919036865234376,6.514242553710938
14.202999999999976,5.959014892578125,-0.561956787109375,6.662881469726563
14.212999999999973,5.949594116210938,0.105572509765625,7.153060913085938
14.22300000000007,6.900045776367188,0.4342529296875,8.174691772460939
14.23300000000006,6.2150207519531255,0.5357879638671875,9.074002075195311
14.243000000000052,5.046694946289063,0.6794921875000001,7.89072265625
14.25300000000005,5.980548095703125,0.5836395263671875,7.374822998046875
14.26400000000001,6.436035156250001,0.6383697509765626,6.098532104492188
14.274,7.61258544921875,0.8629730224609375,6.830212402343751
14.283999999999992,7.547985839843751,0.287109375,7.631875610351563
14.293999999999984,5.865106201171876,0.2334259033203125,8.016931152343751
14.303999999999974,5.656951904296875,-0.1614990234375,7.875469970703126
14.315000000000056,5.4957519531250005,-0.6081634521484376,7.518377685546875
14.32400000000007,6.436483764648438,-0.34632568359375,6.83140869140625
14.33400000000006,6.022268676757813,0.0761138916015625,6.970477294921875
14.344000000000053,3.4768646240234378,0.390887451171875,5.209539794921875
14.354000000000042,8.55885009765625,0.8172149658203126,9.67618408203125
14.364000000000033,10.8012939453125,0.415411376953125,10.491455078125
14.375,6.500186157226563,0.119329833984375,6.914700317382813
14.384999999999993,4.470980834960938,-0.4984039306640625,5.6771392822265625
14.394999999999982,3.014349365234376,0.404644775390625,5.2337646484375
14.404999999999966,6.38040771484375,0.2690155029296875,8.164971923828126
14.41499999999997,8.585018920898438,0.691754150390625,10.917633056640623
14.425000000000068,6.798062133789063,0.28651123046875,9.276025390625
14.43500000000006,6.098980712890626,-0.8496643066406251,6.969729614257813
14.44500000000005,4.847213745117188,-0.9224884033203126,4.882205200195313
14.45500000000004,6.810922241210938,0.3050537109375,5.376721191406251
14.465000000000032,8.8226318359375,-0.33197021484375,8.287591552734376
14.475000000000016,7.350598144531251,0.14893798828125,8.866296386718751
14.485000000000014,6.088214111328125,-0.1999298095703125,9.079983520507811
14.495000000000012,3.4269195556640626,-0.5019927978515626,7.064236450195313
14.504999999999995,5.040414428710938,0.6930999755859375,6.199917602539063
14.514999999999986,7.392468261718751,1.1411102294921875,7.122256469726563
14.524999999999975,8.1670654296875,0.38221435546875,7.368243408203125
14.536000000000058,8.154205322265625,0.8134765625000001,8.323031616210939
14.54600000000005,5.418142700195313,0.29608154296875,7.011749267578126
14.55600000000004,4.996450805664063,0.1586578369140625,6.563140869140626
14.566000000000033,6.035427856445313,0.6899597167968751,7.432843017578126
14.576000000000022,6.006716918945313,0.142059326171875,7.2737365722656255
14.58600000000002,7.175192260742188,-0.2675201416015625,9.178079223632814
14.59600000000001,5.537472534179688,0.0657958984375,8.313162231445313
14.605999999999996,5.563491821289063,-0.411822509765625,7.371682739257813
14.615999999999984,6.972271728515626,-0.34512939453125,6.426165771484375
14.625999999999976,7.051525878906251,0.3267364501953125,6.228329467773438
14.635999999999967,7.85423583984375,0.1137969970703125,7.269400024414063
14.646000000000072,6.183917236328125,0.2809783935546875,8.2603759765625
14.656000000000065,5.0441528320312505,0.375335693359375,7.893115234375
14.666000000000054,5.912957763671876,-0.1344329833984375,8.154354858398438
14.67700000000002,4.98912353515625,0.042767333984375,6.390875244140625
14.687000000000012,5.027255249023438,0.3925323486328125,5.7469726562500005
14.697000000000005,7.051226806640625,0.2720062255859375,7.70828857421875
14.706999999999994,9.83155212402344,0.90260009765625,9.116171264648438
14.716999999999985,9.271240234375,0.8249908447265626,8.882147216796875
14.726999999999975,5.416497802734376,0.0429168701171875,6.773388671875001
14.736999999999966,2.15032958984375,-0.219219970703125,5.310476684570313
14.747000000000073,4.066784667968751,-0.667828369140625,7.421926879882813
14.757000000000062,7.506115722656251,-0.8708984375000001,9.634463500976564
14.767000000000046,9.027645874023438,0.1419097900390625,10.101763916015626
14.778999999999996,7.050180053710938,0.38699951171875,7.556509399414063
14.787000000000042,5.069723510742188,0.3407928466796875,5.223745727539063
14.798000000000002,5.973968505859375,0.5292083740234376,5.3306640625
14.807999999999986,7.32607421875,0.7408020019531251,7.019375610351563
14.817999999999984,8.471670532226563,0.8330657958984375,9.305633544921877
14.827999999999976,6.4348388671875005,0.9909759521484376,9.088357543945314
14.837999999999973,3.9060333251953128,0.13099365234375,7.625595092773438
14.84800000000007,4.599880981445313,-0.0466552734375,6.745126342773438
14.85800000000006,6.196926879882813,0.05682373046875,6.436184692382813
14.868000000000052,8.467333984375001,-0.045458984375,7.244277954101563
14.87900000000002,8.656048583984376,-0.2811279296875,8.211328125000001
14.88800000000004,6.166122436523438,-0.393878173828125,7.195529174804688
14.898000000000025,5.186810302734376,-0.893927001953125,7.034329223632813
14.908000000000015,5.21402587890625,-0.3389984130859375,6.78116455078125
14.918000000000006,6.350350952148438,0.1203765869140625,7.5010314941406255
14.927999999999995,7.019226074218751,0.28531494140625,8.402285766601564
14.938999999999972,5.964398193359376,0.6488372802734376,8.465390014648438
14.94900000000007,5.881854248046875,0.7134368896484375,7.830010986328125
14.95900000000006,5.879312133789063,0.5372833251953125,6.824380493164063
14.969000000000053,6.722546386718751,0.9171051025390624,6.1208129882812505
14.979000000000042,7.902984619140626,0.5441619873046876,7.278671264648438
14.989000000000033,6.5873657226562505,0.220416259765625,7.751354980468751
14.999000000000024,5.7937774658203125,0.19798583984375,8.260824584960938
15.009000000000016,5.241540527343751,-0.25301513671875,7.918685913085938
15.019000000000013,5.881405639648438,-0.48150634765625,7.1421447753906255
15.028999999999996,6.9148498535156255,-0.2047149658203125,7.223342895507813
15.038999999999987,5.11832275390625,-0.0339447021484375,6.0233154296875
15.048999999999978,4.39755859375,0.387896728515625,5.8456665039062505
15.058999999999967,9.968377685546876,0.4586273193359375,10.596728515625
15.07000000000005,9.7365966796875,0.1000396728515625,9.284100341796876
15.08000000000004,5.822039794921875,-0.4496551513671875,6.55985107421875
15.090000000000032,3.626251220703125,-0.18602294921875,5.719308471679688
15.100000000000016,3.3748809814453127,0.8572906494140625,5.921032714843751
15.110000000000014,7.311718750000001,0.9884338378906252,9.248660278320314
15.120000000000012,8.169158935546875,0.9912750244140626,10.139297485351562
15.129999999999995,7.057357788085938,0.2947357177734375,8.734405517578125
15.139999999999986,5.660241699218751,-1.0615570068359377,6.284405517578126
15.149999999999975,5.0834808349609375,-0.2083038330078125,5.020526123046875
15.159999999999968,7.453030395507813,0.1155914306640625,6.209487915039063
15.170000000000066,8.509503173828126,-0.4951141357421875,8.519671630859376
15.180000000000064,7.453927612304688,-0.324493408203125,8.918185424804689
15.190000000000056,5.134472656250001,-0.6581085205078125,8.689993286132813
15.200000000000053,3.54580078125,-0.641510009765625,6.648526000976563
15.210000000000036,5.7534027099609375,1.0101165771484375,6.476409912109376
15.22100000000001,7.790383911132813,0.656463623046875,6.891522216796876
15.230999999999996,8.685656738281251,0.7150817871093751,7.793374633789063
15.240999999999984,7.260876464843751,0.9363952636718752,8.0115478515625
15.250999999999976,4.69603271484375,0.5263671875,6.851895141601563
15.260999999999967,5.391226196289063,0.4320098876953125,7.066479492187501
15.271000000000072,5.887536621093751,0.9017028808593752,7.208987426757813
15.281000000000065,6.705050659179688,-0.1052734375,7.845114135742188
15.291000000000054,6.820941162109375,-0.125909423828125,8.991607666015625
15.301000000000052,5.186810302734376,-0.255108642578125,8.013940429687501
15.311000000000044,6.015390014648438,-0.7077545166015625,7.092498779296876
15.321000000000026,6.9148498535156255,-0.341839599609375,6.372930908203125
15.331000000000016,7.6101928710937505,0.2621368408203125,6.312069702148438
15.341000000000008,7.546490478515626,-0.1619476318359375,7.829263305664063
15.351999999999975,5.5066680908203125,0.3784759521484375,7.774981689453125
15.361999999999966,5.326177978515625,0.1891632080078125,8.323779296875001
15.372000000000073,4.44481201171875,-0.260491943359375,6.695181274414063
15.382000000000062,4.223348999023438,0.5730224609375001,5.780468750000001
15.392000000000046,8.627188110351563,1.3171142578125,8.560494995117189
15.40200000000005,10.092044067382814,1.0413696289062502,9.509002685546877
15.412000000000042,8.111737060546876,0.9503021240234376,8.381649780273438
15.422000000000024,4.354342651367188,-0.5621063232421876,5.4782562255859375
15.432000000000016,2.606414794921875,-0.9654052734375,5.130734252929688
15.442000000000007,6.175244140625001,-0.5307037353515626,7.956817626953126
15.451999999999998,7.873825073242188,-0.52158203125,10.474108886718753
15.461999999999987,7.689147949218751,0.078955078125,9.889871215820314
15.47199999999998,5.68536376953125,0.3793731689453125,7.488619995117188
15.48300000000006,4.885494995117188,-0.233575439453125,4.739846801757813
15.491999999999962,7.329513549804688,0.766522216796875,5.282662963867188
15.50300000000005,8.363107299804689,1.0633514404296875,7.278671264648438
15.51300000000004,8.154205322265625,0.9751251220703124,9.352587890625
15.523000000000025,5.532388305664063,0.9842468261718752,9.116619873046876
15.533000000000015,3.0787994384765627,0.2839691162109375,7.126892089843751
15.543000000000006,5.236904907226563,-0.1591064453125,6.774435424804688
15.552999999999995,6.757388305664063,0.2857635498046875,6.816604614257813
15.562999999999988,8.46314697265625,-0.0753662109375,7.520022583007813
15.57299999999998,8.215963745117188,-0.51739501953125,8.3919677734375
15.58299999999997,5.643344116210938,-0.66693115234375,6.807781982421876
15.59299999999996,5.7279815673828125,-0.9093292236328124,6.694882202148438
15.603000000000064,5.878115844726563,-0.5147033691406251,6.693984985351563
15.613000000000056,6.2030578613281255,0.3165679931640625,7.609893798828126
15.623000000000047,6.830810546875001,0.301763916015625,8.860763549804688
15.634000000000016,5.373281860351563,0.6717163085937501,8.639599609375
15.644000000000013,5.801702880859375,0.8393463134765625,7.530191040039063
15.653999999999996,6.266162109375,0.6750061035156251,6.777127075195313
15.663999999999987,7.078292846679688,1.0442108154296876,5.986380004882813
15.673999999999978,7.842721557617188,0.8824127197265625,7.3485046386718755
15.683999999999967,6.357229614257813,0.1978363037109375,7.862310791015625
15.694000000000074,5.737850952148438,0.0994415283203125,8.282955932617188
15.704000000000065,5.505322265625001,-0.4511505126953125,7.793075561523438
15.714000000000055,5.721401977539063,-0.6907073974609376,6.976309204101563
15.724000000000046,6.973318481445313,-0.3473724365234375,7.302746582031251
15.734000000000036,4.399053955078125,-0.0363372802734375,5.828320312500001
15.745000000000012,4.54649658203125,0.33555908203125,5.588763427734375
15.75400000000002,11.486169433593751,0.566143798828125,11.73245544433594
15.764999999999986,9.7138671875,0.3698028564453125,9.372027587890626
15.774,4.905233764648438,-0.390887451171875,6.030642700195313
15.784999999999968,2.6212188720703127,0.03768310546875,5.219857788085938
15.795000000000066,3.4544342041015628,0.7255493164062501,5.55975341796875
15.805000000000064,8.570663452148438,0.7810272216796875,10.12942810058594
15.815000000000056,8.456866455078126,1.1129974365234376,10.358966064453126
15.825000000000053,6.726434326171876,0.193499755859375,8.996392822265626
15.835000000000036,4.8258300781250005,-1.4211914062500002,5.69493408203125
15.845000000000027,4.7241455078125005,-0.11185302734375,4.491467285156251
15.855000000000018,8.273834228515625,-0.1036285400390625,6.200067138671876
15.865000000000007,9.07744140625,-0.6003875732421875,9.088955688476563
15.875,7.426263427734375,-0.115142822265625,9.376364135742188
15.885999999999967,4.264172363281251,-0.6824829101562501,8.404528808593751
15.894999999999982,3.0835845947265628,-0.6605010986328126,6.345266723632813
15.906000000000065,6.248965454101563,1.4084808349609377,6.375622558593751
15.916000000000054,8.175439453125001,0.66094970703125,6.860717773437501
15.926000000000052,9.008355712890626,0.8553466796875001,8.134017944335938
15.936000000000044,7.011749267578126,0.9854431152343752,8.159289550781251
15.946000000000026,4.143496704101563,0.399560546875,6.728976440429688
15.956000000000016,5.425320434570313,0.421990966796875,6.582281494140625
15.966000000000008,6.01793212890625,0.9752746582031252,7.209884643554688
15.976,7.311419677734375,-0.3811676025390625,7.909414672851563
15.98599999999999,6.709237670898438,-0.1069183349609375,9.415542602539062
15.99599999999998,4.7769317626953125,-0.3695037841796875,7.871432495117188
16.005999999999972,5.960360717773438,-0.8130279541015626,7.254296875
16.01599999999997,6.86729736328125,-0.343035888671875,5.947351074218751
16.026000000000067,7.863656616210938,0.3638214111328125,6.238647460937501
16.036000000000058,7.751654052734375,-0.2189208984375,8.039810180664062
16.047000000000025,5.244680786132813,0.6685760498046875,8.1048583984375
16.05600000000004,5.194586181640625,0.325091552734375,8.232861328125
16.067000000000007,5.4064788818359375,-0.0363372802734375,7.489816284179688
16.076999999999998,4.796072387695313,0.49945068359375,5.6891021728515625
16.08699999999999,5.972921752929688,0.677099609375,6.55386962890625
16.09699999999998,8.832501220703126,0.6706695556640625,8.923867797851564
16.10699999999997,9.916339111328126,0.9419281005859376,9.116021728515626
16.116999999999962,7.094143676757813,-0.26497802734375,7.431945800781251
16.127000000000066,3.5764556884765626,-0.352606201171875,5.580239868164063
16.137000000000057,3.0740142822265626,-0.2289398193359375,6.261825561523438
16.147000000000048,5.776431274414063,-0.6591552734375,8.992953491210939
16.15700000000004,8.482586669921876,-0.235369873046875,10.450332641601562
16.16700000000003,7.655651855468751,0.4490570068359375,8.712423706054688
16.180000000000064,5.97008056640625,-0.0779083251953125,6.100177001953125
16.187999999999988,5.6476806640625,0.6742584228515626,4.9219818115234375
16.19799999999998,6.782360839843751,0.8608795166015626,6.015838623046875
16.20799999999997,8.192337036132812,0.5993408203125,8.53372802734375
16.21799999999996,7.383047485351563,0.9915740966796877,9.646575927734377
16.228000000000065,4.696481323242188,0.5145538330078125,8.083624267578125
16.238000000000056,4.170712280273438,-0.256304931640625,7.067526245117188
16.248000000000047,5.5029296875,0.3066986083984375,6.376669311523438
16.258000000000038,7.635015869140625,-0.0133087158203125,7.095489501953126
16.26800000000003,8.745919799804689,-0.2404541015625,7.771990966796875
16.278999999999996,7.2004638671875005,-0.159405517578125,7.704998779296876
16.28800000000001,5.561248779296875,-0.775494384765625,6.972271728515626
16.298999999999978,5.133874511718751,-0.6634918212890626,6.870587158203126
16.307999999999986,5.774636840820313,0.183331298828125,7.011898803710938
16.319000000000074,6.941915893554688,0.112152099609375,8.318246459960939
16.329000000000065,6.431100463867188,0.393280029296875,8.442510986328125
16.339000000000055,5.806039428710938,0.7795318603515625,8.153756713867189
16.349000000000046,5.756094360351563,0.3267364501953125,7.098031616210938
16.359000000000037,6.456820678710938,0.85355224609375,6.481942749023438
16.369000000000028,7.42357177734375,0.9651062011718752,6.647329711914063
16.37900000000002,7.304241943359376,0.2633331298828125,7.667166137695313
16.38900000000001,6.083578491210938,0.2417999267578125,8.170803833007813
16.399,5.327374267578126,-0.043963623046875,8.043847656250001
16.408999999999992,5.519229125976563,-0.5812469482421876,7.389178466796875
16.418999999999983,6.581533813476563,-0.151031494140625,7.051226806640625
16.428999999999974,6.564935302734376,-0.1855743408203125,6.928009033203126
16.43899999999997,3.9905212402343753,0.1543212890625,5.3127197265625
16.44900000000007,6.082531738281251,0.7995697021484376,7.246670532226563
16.45900000000006,11.734698486328126,0.643902587890625,11.73963317871094
16.470000000000027,8.8369873046875,0.3449798583984375,9.139797973632811
16.480000000000018,3.560006713867188,-0.4631134033203125,5.289392089843751
16.49000000000001,2.1528717041015626,-0.0315521240234375,4.733416748046875
16.5,4.981048583984375,0.369952392578125,6.275881958007813
16.50999999999999,9.343017578125,0.5806488037109375,10.525250244140626
16.519999999999982,8.643487548828126,0.78895263671875,10.5213623046875
16.529999999999966,5.505621337890625,-0.2621368408203125,8.353836059570312
16.53999999999997,4.105364990234375,-1.3609283447265623,5.350701904296876
16.550000000000068,5.522518920898438,-0.03648681640625,4.797567749023438
16.56000000000006,8.772088623046876,-0.011663818359375,6.498690795898438
16.57000000000005,9.465786743164063,-0.03050537109375,9.350793457031251
16.581000000000017,6.78953857421875,0.09749755859375,9.287689208984377
16.591000000000008,3.3342071533203126,-0.456683349609375,7.872927856445313
16.601,3.637765502929688,-0.1951446533203125,6.367398071289063
16.61099999999999,6.546093750000001,1.262982177734375,6.417642211914063
16.62099999999998,8.807977294921876,0.5782562255859376,7.205548095703126
16.630999999999972,8.695526123046875,0.5528350830078126,8.453427124023438
16.64099999999997,6.0449981689453125,0.5004974365234376,7.739392089843751
16.651000000000067,4.38798828125,-0.0061309814453125,6.6669189453125
16.661000000000058,5.550482177734375,0.438140869140625,6.439175415039063
16.67100000000005,6.791183471679688,0.6936981201171876,7.222744750976563
16.68100000000004,7.272540283203125,-0.285015869140625,8.388677978515625
16.69100000000003,5.8857421875,0.0755157470703125,9.056506347656253
16.701000000000022,4.85693359375,-0.101385498046875,8.098129272460938
