time,ax,ay,az
0.0,7.817898559570313,0.2044158935546875,6.00955810546875
0.0120000000000004,7.4397216796875005,0.10587158203125,6.1405517578125
0.019999999999996,6.578991699218751,0.214434814453125,6.821240234375001
0.0300000000000011,6.623104858398438,0.7524658203125001,6.541458129882813
0.0399999999999991,7.381103515625001,0.2035186767578125,6.294573974609375
0.0499999999999971,7.884591674804688,0.0514404296875,5.876470947265625
0.0609999999999999,6.712228393554688,-0.0180938720703125,4.785305786132813
0.0709999999999979,7.258932495117188,-0.0321502685546875,3.0177886962890628
0.0820000000000007,12.173138427734376,0.5973968505859375,7.433590698242188
0.091000000000001,6.829315185546876,-0.669921875,9.2748291015625
0.100999999999999,3.6322326660156254,-0.22908935546875,6.504971313476563
0.1120000000000018,8.530587768554689,0.714483642578125,10.982083129882811
0.1210000000000022,6.780117797851563,-1.152923583984375,11.544189453125
0.1310000000000002,7.46962890625,1.2731506347656252,4.342230224609375
0.1409999999999982,6.962551879882813,1.2553558349609375,2.559011840820313
0.1509999999999962,9.919030761718751,1.1165863037109376,3.78206787109375
0.1610000000000013,10.443603515625,0.558966064453125,7.205996704101563
0.1709999999999993,3.554473876953125,1.2318786621093751,5.798114013671875
0.1820000000000021,1.5796997070312502,1.0029388427734376,2.711090087890625
0.1920000000000001,14.43741455078125,-0.1591064453125,7.236203002929688
0.2019999999999981,12.161624145507814,-0.0940582275390625,9.2006591796875
0.2119999999999962,1.9022491455078123,0.5028900146484375,1.2761413574218752
0.2220000000000013,9.328662109375,0.0886749267578125,8.467782592773439
0.2319999999999993,5.38988037109375,-1.19210205078125,10.62125244140625
0.2419999999999973,4.183572387695313,-0.86551513671875,6.166122436523438
0.2519999999999953,8.109793090820313,0.3805694580078125,4.239199829101563
0.2620000000000004,10.471417236328126,-0.5166473388671875,5.170211791992188
0.2719999999999984,11.036813354492187,-0.33914794921875,7.318597412109375
0.2819999999999965,4.512551879882813,1.7636291503906252,8.426510620117188
0.2920000000000016,5.466143798828125,0.7582977294921875,2.147637939453125
0.3019999999999996,11.67578125,1.9614654541015624,11.301043701171876
0.3119999999999976,4.140954589843751,0.8646179199218751,5.35458984375
0.3219999999999956,7.390673828125,1.29019775390625,3.5244171142578127
0.3329999999999984,8.600869750976564,0.784765625,6.555813598632813
0.3429999999999964,6.103466796875001,-0.3168670654296875,9.681268310546876
0.3530000000000015,7.498638916015626,-0.5740692138671876,5.004974365234375
0.3629999999999995,8.812313842773438,-0.4505523681640625,4.39696044921875
0.3729999999999975,9.097479248046875,-0.7093994140625001,6.736004638671876
0.3840000000000003,5.9567718505859375,-0.7253997802734375,7.822833251953125
0.3930000000000007,6.925466918945313,0.07177734375,5.584725952148438
0.4029999999999987,6.271246337890625,-0.117535400390625,6.6232543945312505
0.4140000000000015,5.475415039062501,-1.1417083740234375,5.915798950195313
0.4230000000000018,8.705545043945314,0.239556884765625,4.741940307617188
0.4329999999999998,10.95501708984375,1.66224365234375,6.506317138671876
0.4429999999999978,5.290289306640625,0.5184417724609376,7.8479553222656255
0.4529999999999958,6.511550903320313,1.783816528320313,5.818450927734375
0.4630000000000009,8.129830932617189,1.4660522460937502,10.40711669921875
0.472999999999999,7.0105529785156255,1.041070556640625,8.280413818359376
0.4840000000000017,8.215664672851563,1.6692718505859376,3.671560668945313
0.4939999999999998,8.92132568359375,-0.913067626953125,3.777581787109375
0.5039999999999978,10.199859619140623,-0.7158294677734376,8.936279296875
0.5139999999999958,3.786254882812501,1.0854827880859377,8.255441284179689
0.5240000000000009,5.175445556640625,1.24832763671875,2.0129058837890628
0.5339999999999989,11.041748046875,-0.1064697265625,5.323934936523438
0.5439999999999969,9.26346435546875,-2.0141021728515627,8.01812744140625
0.554000000000002,4.859475708007813,-0.2773895263671875,3.897808837890625
0.5640000000000001,8.651113891601563,0.7938873291015626,3.2506164550781254
0.5739999999999981,9.54444274902344,-1.26806640625,5.963052368164063
0.5839999999999961,6.989318847656251,-0.7524658203125001,14.10649108886719
0.5940000000000012,1.6018310546875,-0.06998291015625,4.006222534179688
0.6039999999999992,9.485525512695313,0.6184814453125,5.894265747070313
0.615000000000002,9.188247680664062,0.2564544677734375,11.688342285156253
0.625,5.012899780273438,0.075067138671875,6.387435913085938
0.634999999999998,7.581332397460938,1.6614959716796875,3.199325561523438
0.644999999999996,7.850048828125001,1.3821624755859376,3.2634765625
0.6550000000000011,9.989163208007811,2.086029052734375,7.745971679687501
0.6649999999999991,4.9474029541015625,0.960919189453125,5.191296386718751
0.6749999999999972,5.378964233398438,0.7445404052734376,2.5847320556640625
0.6850000000000023,3.9957550048828128,0.26138916015625,2.935543823242188
0.6950000000000003,11.241677856445314,-0.9534423828125,11.58546142578125
0.7049999999999983,11.75638122558594,-1.2110931396484377,7.695278930664063
0.7149999999999963,12.68485107421875,-0.483001708984375,7.406674194335938
0.7250000000000014,7.60421142578125,-1.2596923828125002,9.303091430664065
0.7349999999999994,2.4039428710937503,-2.113543701171875,12.142483520507811
0.7449999999999974,2.823092651367188,0.509619140625,6.298013305664063
0.7549999999999955,4.231274414062501,0.8190093994140626,2.1767974853515626
0.7659999999999982,6.268405151367188,0.7678680419921876,2.4757202148437503
0.7759999999999962,15.243115234375,1.5333435058593752,7.000534057617188
0.7860000000000014,9.974957275390626,1.5699798583984377,5.7664123535156255
0.7959999999999994,7.81236572265625,1.1711669921875,2.6122467041015627
0.8059999999999974,11.932684326171875,0.145947265625,7.652661132812501
0.8159999999999954,6.299658203125,0.7850646972656251,20.558526611328126
0.8260000000000005,-1.3731903076171876,0.13577880859375,0.487188720703125
0.8359999999999985,3.601876831054688,0.21533203125,-0.2663238525390625
0.8459999999999965,13.154544067382814,0.17286376953125,5.131033325195313
0.8560000000000016,8.401388549804688,0.0578704833984375,6.5873657226562505
0.8659999999999997,5.439227294921875,-0.8194580078125001,3.02840576171875
0.8759999999999977,10.537811279296877,-1.7226562500000002,7.174444580078125
0.8859999999999957,11.862701416015623,-0.3781768798828125,6.673049926757813
0.8960000000000008,11.931787109375,0.373541259765625,5.2684570312500005
0.9069999999999964,2.0121582031250003,1.30216064453125,10.790826416015626
0.9170000000000016,1.4180511474609376,-0.486590576171875,0.4964599609375
0.9269999999999996,12.191232299804687,1.2744964599609376,9.1839111328125
0.9369999999999976,7.431796264648438,0.9351989746093752,5.035778808593751
0.9480000000000004,4.003231811523438,0.368756103515625,2.912664794921876
0.9570000000000008,7.5025268554687505,1.7772369384765627,9.213818359375
0.9669999999999987,11.013186645507814,0.3650177001953125,7.817749023437501
0.9769999999999968,7.714120483398438,-0.1519287109375,7.772140502929688
0.987000000000002,4.6931915283203125,-0.0829925537109375,6.728677368164063
0.997,2.577703857421876,-0.5434143066406251,3.78685302734375
1.006999999999998,5.068527221679688,-1.4315093994140626,4.578048706054688
1.016999999999996,14.432330322265626,-0.624462890625,6.737350463867188
1.0289999999999964,13.895794677734376,0.8537017822265626,5.57769775390625
1.036999999999999,9.335690307617188,0.3856536865234375,6.206796264648438
1.0480000000000018,3.439031982421876,-0.8936279296875,15.927542114257813
1.0570000000000022,1.5460540771484377,1.020135498046875,11.4712158203125
1.0679999999999978,5.147482299804688,1.225,5.0949951171875005
1.077999999999996,6.554916381835938,0.4314117431640625,1.8659118652343751
1.088000000000001,11.458804321289064,0.2364166259765625,3.7904418945312495
1.0989999999999966,10.575942993164062,1.0074249267578126,7.366149902343751
1.107999999999997,6.168515014648438,1.063201904296875,3.0729675292968754
1.118000000000002,8.836688232421876,0.749176025390625,3.653915405273438
1.1289999999999978,13.560534667968753,-0.3530548095703125,9.295614624023438
1.137999999999998,7.486676025390626,0.6904083251953126,11.076589965820313
1.147999999999996,-0.0764129638671875,-0.078955078125,1.40264892578125
1.1580000000000013,8.229272460937501,-0.0805999755859375,1.744488525390625
1.1679999999999993,10.411004638671876,0.18602294921875,5.344570922851563
1.1779999999999973,6.625198364257813,-0.4355987548828125,7.034329223632813
1.1879999999999953,4.544851684570313,-0.9006561279296875,4.378268432617188
1.1980000000000004,11.136703491210938,-0.6709686279296876,5.586520385742188
1.208999999999996,7.3200927734375005,0.1993316650390625,15.508990478515626
1.2190000000000012,5.013198852539063,-0.165985107421875,3.08702392578125
1.2289999999999992,10.60390625,1.1662322998046877,7.20943603515625
1.2389999999999972,7.514639282226563,1.101483154296875,5.875723266601563
1.2489999999999952,4.780670166015625,1.407135009765625,11.61895751953125
1.2590000000000003,2.7257446289062504,0.56644287109375,1.27225341796875
1.2689999999999984,10.414294433593753,0.9823028564453126,3.149978637695313
1.2789999999999964,11.288781738281251,0.3554473876953125,6.9821411132812505
1.2890000000000017,8.784649658203126,-0.6721649169921875,5.774188232421875
1.2989999999999997,3.311328125,0.793438720703125,7.876217651367188
1.3089999999999975,0.96480712890625,-0.45877685546875,0.9712371826171876
1.3189999999999955,9.729269409179688,-1.3838073730468752,9.381597900390624
1.330999999999996,14.04667663574219,-1.185223388671875,9.052618408203124
1.3399999999999963,11.737091064453123,0.347821044921875,5.708392333984375
1.3500000000000014,8.136859130859376,-0.4964599609375,6.040362548828125
1.3599999999999994,3.035882568359375,-0.9386383056640626,13.677023315429688
1.3699999999999974,2.6274993896484378,0.7313812255859375,8.411856079101563
1.3799999999999957,6.209188842773438,1.296478271484375,3.4764160156250004
1.3900000000000006,7.526153564453126,1.125857543945313,2.515646362304688
1.3999999999999986,12.439013671875,1.6247100830078127,5.593698120117188
1.4099999999999966,11.274127197265626,1.5811950683593752,6.810174560546876
1.4200000000000017,6.713574218750001,1.3210021972656252,4.940374755859375
1.4299999999999995,3.937734985351563,1.52467041015625,9.753494262695312
1.4399999999999975,9.119461059570312,-0.727642822265625,7.550079345703126
1.4510000000000003,7.579837036132813,-0.0432159423828125,4.113739013671875
1.4600000000000009,6.056063842773438,0.3835601806640625,1.6559631347656252
1.4699999999999989,9.252249145507813,-0.608013916015625,4.53453369140625
1.4799999999999969,8.39794921875,-0.8290283203125001,5.786151123046875
1.4909999999999997,6.293527221679688,-0.7307830810546876,4.610198974609375
1.5009999999999977,7.486825561523438,-0.8477203369140626,9.20843505859375
1.5109999999999957,3.835302734375,-0.6135467529296875,10.704693603515626
1.5210000000000008,10.502520751953126,0.0641510009765625,9.757531738281251
1.5309999999999988,8.589056396484375,0.8466735839843751,5.800057983398438
1.5409999999999968,6.870587158203126,1.274945068359375,3.519183349609375
1.551000000000002,5.518182373046876,1.366162109375,9.64014587402344
1.561,5.5679779052734375,0.8782257080078125,2.883355712890625
1.570999999999998,8.157794189453126,1.4775665283203123,3.529949951171876
1.580999999999996,10.122848510742188,1.087127685546875,4.2027130126953125
1.591000000000001,8.53372802734375,-0.3297271728515625,8.128335571289064
1.600999999999999,7.790832519531251,0.173760986328125,7.718157958984375
1.610999999999997,5.819348144531251,-0.411224365234375,7.698568725585938
1.6210000000000022,3.274093627929688,-1.0492950439453126,5.420535278320313
1.6310000000000002,2.857635498046875,-0.9036468505859376,3.398507690429688
1.6409999999999982,10.1840087890625,-1.6139434814453126,5.167520141601563
1.652000000000001,16.019506835937502,-0.314923095703125,7.00845947265625
1.6610000000000014,12.08551025390625,1.725946044921875,6.783108520507813
1.671999999999997,5.205352783203125,0.5387786865234375,11.522058105468751
1.6820000000000022,1.48758544921875,1.36915283203125,12.890612792968753
1.6920000000000002,4.386791992187501,1.8508087158203128,8.937774658203125
1.7019999999999982,6.689199829101563,1.1028289794921875,2.2811737060546875
1.7119999999999962,7.894610595703125,0.1347320556640625,2.24005126953125
1.7220000000000013,11.982629394531251,-0.3530548095703125,5.6861114501953125
1.731999999999999,8.0761474609375,1.24713134765625,6.169561767578125
1.741999999999997,8.329461669921876,1.2402526855468752,2.943768310546876
1.7519999999999951,10.282254028320311,0.09271240234375,6.720153808593751
1.7620000000000005,5.2579895019531255,-0.529058837890625,10.442556762695313
1.772999999999996,6.491064453125,-0.619976806640625,3.885696411132813
1.7830000000000013,9.006710815429688,-0.47373046875,4.998843383789063
1.7929999999999993,5.490069580078125,-0.917852783203125,2.5542266845703128
1.8029999999999973,8.699264526367188,-0.6805389404296875,6.491363525390626
1.8129999999999955,5.7414398193359375,-0.5987426757812501,3.8716400146484378
1.8230000000000004,10.088006591796876,-0.8710479736328126,5.791085815429688
1.8329999999999984,11.13685302734375,0.93131103515625,11.896347045898438
1.8429999999999964,1.792788696289063,1.6942443847656252,13.841812133789064
1.853000000000001,3.17794189453125,-0.051141357421875,-0.7512695312500001
1.8629999999999995,14.015573120117187,1.0394256591796875,8.78076171875
1.8729999999999976,7.291082763671875,1.386050415039063,6.894961547851563
1.882999999999996,2.5041320800781253,1.6565612792968751,5.809628295898438
1.893000000000001,7.402038574218751,0.552685546875,0.8626739501953126
1.9029999999999987,11.212518310546876,-0.02213134765625,5.663830566406251
1.9129999999999967,9.582275390625,-0.6942962646484375,6.2867980957031255
1.9230000000000016,8.558102416992188,-0.5031890869140625,4.786801147460938
1.933,3.0589111328125003,0.7310821533203126,9.070413208007814
1.9429999999999976,0.41331787109375,-0.4414306640625,1.37872314453125
1.9540000000000008,7.508209228515626,-1.140362548828125,6.2568908691406255
1.9639999999999984,17.7876220703125,-1.767816162109375,9.663473510742188
1.9739999999999969,14.986660766601563,1.1653350830078126,9.034375
1.984000000000001,6.6908447265625,1.4425750732421876,7.871432495117188
1.994,0.6569122314453125,-0.317315673828125,12.319235229492188
2.003999999999998,-0.217425537109375,1.125408935546875,9.826467895507813
2.013999999999996,5.013198852539063,1.2715057373046876,3.911865234375
2.024000000000001,5.76671142578125,0.6211730957031251,1.849313354492188
2.033999999999999,10.903726196289064,1.0488464355468752,3.1075103759765628
2.043999999999997,14.836975097656252,0.6174346923828126,8.001080322265626
2.055,8.275628662109376,-0.377130126953125,6.77159423828125
2.0649999999999977,7.413403320312501,-1.155316162109375,3.3406372070312504
2.074999999999996,13.703939819335938,-1.448855590820313,8.720797729492189
2.085000000000001,11.3228759765625,-0.7938873291015626,8.072558593750001
2.094999999999999,4.081289672851563,-0.1099090576171875,1.5008941650390626
2.104999999999997,1.948306274414063,0.0901702880859375,1.9047912597656247
2.115000000000002,4.495355224609376,1.1304931640625,5.237203979492188
2.125,7.160836791992188,1.347021484375,7.9900146484375005
2.134999999999998,6.163131713867188,0.3144744873046875,1.5462036132812502
2.144999999999996,12.104202270507812,1.82254638671875,6.926513671875001
2.155000000000001,12.704739379882811,1.73043212890625,12.4258544921875
2.164999999999999,4.211386108398438,0.2124908447265625,6.25479736328125
2.174999999999997,6.286648559570313,0.744390869140625,6.309826660156251
2.1850000000000023,3.845620727539063,0.7182220458984375,9.291427612304688
2.1950000000000003,6.488821411132813,-0.41690673828125,7.312017822265625
2.205999999999996,7.175192260742188,-0.8326171875,3.2851593017578127
2.216000000000001,8.432791137695313,0.6896606445312501,3.254953002929688
2.225999999999999,10.736544799804689,-0.9316101074218752,5.140155029296875
2.235999999999997,10.259823608398438,-1.4964080810546876,7.318298339843751
2.246000000000002,5.556463623046875,0.8795715332031251,12.489855957031253
2.256,1.1267547607421875,0.229986572265625,1.7138336181640623
2.2659999999999982,7.644137573242188,0.1389190673828125,4.7051544189453125
2.275999999999996,10.208831787109377,0.5275634765625,7.835693359375001
2.2860000000000014,9.8801513671875,1.774395751953125,5.196380615234375
2.296,9.701605224609375,2.4196441650390628,6.002529907226563
2.3059999999999974,5.41021728515625,0.1185821533203125,10.659832763671876
2.3159999999999954,3.505426025390625,-0.457281494140625,12.58974609375
2.3260000000000005,6.3884826660156255,0.708203125,6.752752685546875
2.3359999999999985,8.14971923828125,-0.1446014404296875,2.5960968017578128
2.3470000000000013,10.22169189453125,-1.2287384033203126,4.358828735351563
2.357,11.126535034179687,-1.0472015380859376,6.753948974609376
2.3669999999999973,6.574655151367188,-0.1973876953125,5.184567260742188
2.376999999999996,4.887887573242188,0.6465942382812501,6.682321166992188
2.3870000000000005,7.509106445312501,-0.327484130859375,6.463101196289063
2.3969999999999985,10.559494018554688,-0.0653472900390625,8.662030029296876
2.4069999999999965,6.901242065429688,1.4476593017578123,2.3867462158203128
2.4170000000000016,8.34710693359375,0.8222991943359376,3.392227172851563
2.429000000000002,8.158392333984375,-0.4658050537109375,5.059405517578125
2.4369999999999976,7.706643676757813,0.7550079345703126,9.697119140625
2.446999999999996,0.316119384765625,0.7466339111328125,5.465097045898438
2.4570000000000007,8.318994140625001,0.2986236572265625,3.311178588867188
2.4669999999999987,13.505654907226564,1.0853332519531251,13.475897216796875
2.4769999999999968,4.1922454833984375,0.365167236328125,5.294625854492188
2.487000000000002,6.929953002929688,0.6412109375,6.522317504882813
2.4979999999999976,6.738098144531251,-0.439935302734375,9.238790893554688
2.507999999999996,7.211679077148438,-0.2872589111328125,5.385394287109375
2.5180000000000007,7.937377929687501,0.3282318115234375,3.1208190917968754
2.5289999999999964,8.370135498046876,0.0653472900390625,3.534735107421876
2.5379999999999967,9.529788208007814,-0.37862548828125,6.2613769531250005
2.548000000000002,5.4239746093750005,0.088226318359375,9.161032104492188
2.558,7.582528686523438,0.5027404785156251,5.671755981445313
2.567999999999998,7.999734497070313,0.253314208984375,8.0474365234375
2.577999999999996,5.193838500976563,0.6066680908203126,6.139654541015625
2.588000000000001,2.97158203125,1.2764404296875,3.551931762695313
2.597999999999999,4.247872924804688,0.6285003662109375,2.639312744140625
2.607999999999997,14.545529174804688,-0.416009521484375,8.061941528320313
2.618000000000002,16.650100708007812,0.9375915527343752,9.065777587890626
2.628999999999998,9.243875122070314,0.4580291748046875,5.90667724609375
2.637999999999998,3.670065307617188,-0.490777587890625,11.365194702148438
2.649000000000001,-0.1921539306640625,-0.064898681640625,11.5836669921875
2.658999999999999,4.714126586914063,0.6246124267578126,5.890078735351563
2.668999999999997,4.892822265625,0.3132781982421875,1.9161560058593752
2.679000000000002,10.511642456054688,-0.216229248046875,2.8081390380859377
2.689,14.146417236328126,-1.2261962890625,8.725433349609375
2.698999999999998,8.477951049804688,0.3361572265625,5.812469482421875
2.708999999999996,6.535626220703126,0.313128662109375,2.1077117919921875
2.719000000000001,12.36589050292969,-1.7673675537109377,8.7388916015625
2.728999999999999,10.707385253906253,0.925030517578125,13.587002563476563
2.738999999999997,-0.3321197509765625,1.15023193359375,6.220703125000001
2.7489999999999952,0.30206298828125,-0.43006591796875,-1.56055908203125
2.7590000000000003,11.573348999023438,0.5045349121093751,2.020831298828125
2.7689999999999984,7.9690795898437505,0.50244140625,3.194390869140625
2.7789999999999964,7.44510498046875,0.461468505859375,7.301699829101563
2.789000000000001,10.856622314453126,1.083987426757813,10.206887817382814
2.799999999999997,13.553955078125002,0.0094207763671875,3.928164672851562
2.8100000000000023,10.286441040039064,0.3515594482421875,5.3880859375000005
2.8200000000000003,0.542816162109375,1.3553955078125002,9.19288330078125
2.8299999999999983,2.5325439453125003,-0.253314208984375,4.109402465820313
2.8399999999999963,11.058047485351564,-0.01375732421875,11.472262573242189
2.8500000000000014,4.565338134765625,-0.241351318359375,1.771405029296875
2.8599999999999994,7.680923461914063,0.2851654052734375,2.961862182617188
2.869999999999997,11.762213134765624,0.1335357666015625,7.387084960937501
2.8799999999999955,7.999734497070313,-0.436944580078125,10.44165954589844
2.890000000000001,3.949697875976563,0.7777374267578125,7.320242309570313
2.8999999999999986,7.756289672851563,0.2271453857421875,8.016632080078125
2.9099999999999966,2.5667877197265625,-0.8845062255859376,5.340982055664063
2.9200000000000017,5.289990234375001,-0.2558563232421875,3.658401489257813
2.9309999999999974,13.076037597656253,0.8468231201171875,5.507565307617188
2.9409999999999954,13.469915771484375,1.1324371337890626,5.704953002929688
2.9510000000000005,8.289984130859375,0.7979248046875,6.059353637695313
2.9609999999999985,3.793731689453125,-0.081048583984375,11.94913330078125
2.9709999999999965,2.8525512695312503,0.7858123779296876,11.774176025390624
2.9810000000000016,6.238198852539063,1.1659332275390626,5.396310424804688
2.991,7.625146484375,-0.4254302978515625,2.763427734375
3.0009999999999977,11.041299438476564,-1.2692626953125,4.630535888671876
3.010999999999996,11.518020629882812,-0.26617431640625,7.48936767578125
3.021000000000001,6.246722412109375,1.2221588134765626,4.295126342773438
3.030999999999999,5.365206909179688,2.057318115234376,8.267105102539062
3.040999999999997,6.571664428710938,-0.145947265625,6.231021118164063
3.051000000000002,11.904571533203123,-0.401953125,6.931597900390625
3.061,6.321789550781251,1.1563629150390626,2.2497711181640625
3.070999999999998,7.320242309570313,0.39178466796875,3.052481079101563
3.0820000000000007,9.167462158203126,-0.48509521484375,5.576501464843751
3.0919999999999987,6.655404663085938,-0.8463745117187501,7.515386962890625
3.1019999999999968,2.7430908203125,0.3120819091796875,7.792926025390625
3.112000000000002,6.878363037109375,-0.014654541015625,4.094747924804688
3.122,14.831143188476563,-0.6192291259765625,14.688336181640626
3.131999999999998,4.07635498046875,0.0285614013671875,4.8995513916015625
3.141999999999996,4.608105468750001,1.3290771484375,5.833255004882813
3.152000000000001,7.478900146484375,0.8036071777343751,8.909063720703125
3.161999999999999,6.566879272460938,0.5924621582031251,5.308383178710938
3.173000000000002,8.510400390625001,0.8821136474609376,2.9570770263671875
3.182000000000002,8.750106811523438,0.7304840087890625,3.193045043945313
3.192,10.2294677734375,-0.4055419921875,5.885144042968751
3.201999999999998,8.321685791015625,0.61429443359375,9.173443603515626
3.211999999999996,1.810284423828125,0.327484130859375,6.222348022460938
3.222999999999999,9.642837524414062,-0.5570220947265625,7.078143310546875
3.232999999999997,6.4841857910156255,-0.6830810546875,7.60361328125
3.243000000000002,1.5746154785156252,-0.9658538818359376,2.792587280273437
3.253,7.2154174804687505,-0.41810302734375,3.72823486328125
3.262999999999998,15.433624267578129,0.290997314453125,10.104904174804688
3.272999999999996,12.28828125,-0.8237945556640626,5.239447021484375
3.2830000000000013,7.997042846679688,0.5926116943359375,6.473269653320313
3.293,2.936141967773437,0.8895904541015626,13.73623962402344
3.3029999999999973,3.4448638916015626,1.8001159667968751,10.336535644531253
3.312999999999996,5.610595703125,1.2070556640625,3.801956176757813
3.3230000000000004,6.501382446289063,1.1928497314453126,1.7643768310546877
3.3329999999999984,11.831448364257811,1.65865478515625,4.91435546875
3.3429999999999964,11.435028076171877,0.9413299560546876,6.837539672851563
3.353000000000001,7.136611938476563,0.93011474609375,3.5751098632812504
3.363999999999997,5.216867065429688,0.244940185546875,8.764462280273438
3.3739999999999952,8.707339477539064,-1.1521759033203125,8.109942626953126
3.3840000000000003,8.928353881835939,-0.6280517578125,6.025857543945313
3.3939999999999984,5.780319213867188,-0.1897613525390625,2.13118896484375
3.4039999999999964,8.66651611328125,-0.251220703125,3.7684600830078128
3.414000000000001,8.772686767578126,-0.8045043945312501,6.05621337890625
3.4239999999999995,6.598431396484376,-1.2092987060546876,6.121710205078125
3.433999999999997,2.8568878173828125,-0.0183929443359375,8.397500610351564
3.445999999999998,8.064782714843751,0.8451782226562501,9.056805419921876
3.4540000000000006,9.47760009765625,-0.016448974609375,10.618710327148438
3.463999999999998,6.755593872070313,1.137969970703125,5.804394531250001
3.4739999999999966,7.468881225585938,1.5125579833984375,5.299261474609375
3.4840000000000018,7.388131713867188,1.473828125,7.0658813476562505
3.494,6.527401733398438,0.6582580566406251,4.3700439453125
3.503999999999998,7.095339965820313,1.0304534912109375,3.200820922851563
3.515000000000001,8.763864135742189,-0.079852294921875,4.806240844726563
3.5249999999999986,8.224038696289064,-0.7677185058593751,8.317648315429688
3.5349999999999966,7.991061401367188,0.0776092529296875,6.552822875976563
3.546,6.603067016601563,-0.880169677734375,6.632675170898438
3.555,3.997998046875,-1.0762115478515626,6.546691894531251
3.5649999999999977,5.3167572021484375,-1.0503417968750002,6.756042480468751
3.574999999999996,10.533175659179689,0.3046051025390625,7.20943603515625
3.585000000000001,11.5812744140625,0.9820037841796876,4.582684326171876
3.594999999999999,9.047384643554688,0.357391357421875,3.940875244140625
3.604999999999997,6.990066528320313,0.4197479248046875,11.550021362304689
3.615000000000002,1.7380584716796876,1.0095184326171875,9.466085815429688
3.625,6.811968994140625,1.6734588623046875,6.515289306640626
3.634999999999998,7.885787963867188,0.8388977050781251,3.444564819335938
3.646000000000001,12.668850708007811,-0.0186920166015625,5.604016113281251
3.655999999999999,8.406771850585939,1.2990203857421876,9.389224243164064
3.665999999999997,3.779376220703125,1.1424560546875,2.477813720703125
3.676000000000002,8.509353637695312,0.6422576904296875,7.748812866210938
3.686,6.259283447265625,-1.4173034667968751,8.507409667968751
3.695999999999998,8.68446044921875,-0.22789306640625,5.52984619140625
3.705999999999996,8.337387084960938,0.7255493164062501,2.692547607421876
3.716000000000001,9.385336303710938,-0.8632720947265625,3.296524047851563
3.725999999999999,8.905325317382813,-0.9718353271484376,6.268255615234375
3.735999999999997,6.518429565429688,-0.9796112060546877,5.2449798583984375
3.746000000000002,4.8485595703125,-0.01256103515625,8.464642333984376
3.756,5.098434448242188,0.1727142333984375,6.373678588867188
3.7659999999999982,11.396298217773438,0.3055023193359375,11.235546875
3.775999999999996,5.519378662109375,0.9621154785156252,5.012899780273438
3.786000000000002,6.958065795898438,1.618878173828125,7.630679321289063
3.796999999999997,6.1261962890625,1.6824310302734375,8.160485839843751
3.807000000000002,6.814810180664063,1.3151702880859375,5.189202880859376
3.817,7.988668823242188,0.554779052734375,3.522772216796876
3.826999999999998,9.788336181640624,0.18123779296875,3.7784790039062495
3.836999999999996,9.4088134765625,-0.212640380859375,7.260427856445313
3.847000000000001,5.435040283203126,-0.5677886962890626,6.370239257812501
3.8569999999999993,4.634573364257813,-0.3979156494140625,5.131631469726563
3.866999999999997,2.454486083984375,-0.8222991943359376,4.674649047851563
3.8769999999999953,8.130728149414063,-1.9480072021484376,7.034179687500001
3.887000000000001,17.794949340820313,-0.6615478515625001,9.755587768554689
3.897,11.485122680664062,0.80869140625,5.295523071289063
3.906999999999997,6.56583251953125,-0.5498443603515626,5.583230590820313
3.9170000000000016,1.7099456787109375,0.5419189453125001,16.863040161132815
3.927,0.8901885986328125,0.9532928466796876,5.8621154785156255
3.9369999999999976,6.228927612304688,1.0567718505859376,4.2264892578125
3.948,6.768753051757813,0.7029693603515625,2.0973937988281253
3.9579999999999984,15.284686279296876,2.162591552734375,4.647134399414063
3.967999999999997,12.417330932617189,1.6085601806640626,9.085964965820311
3.9780000000000015,5.587716674804688,0.7408020019531251,3.674102783203125
3.988,7.155902099609375,0.207257080078125,3.971380615234376
3.9979999999999976,10.72159118652344,-0.0429168701171875,19.424893188476563
4.007999999999996,0.1709197998046875,-0.5283111572265625,4.402194213867188
4.018000000000001,6.443661499023438,-0.07476806640625,-1.5604095458984375
4.027999999999999,8.598776245117188,0.2035186767578125,2.415457153320313
4.037999999999997,8.24542236328125,-0.0928619384765625,3.732272338867188
4.048000000000002,9.60904235839844,-0.3138763427734375,7.338784790039063
4.058,6.38878173828125,-1.259991455078125,6.289041137695313
4.067999999999998,12.576885986328126,-1.278533935546875,7.101171875
4.077999999999996,12.704290771484375,-0.5384796142578125,7.546041870117188
4.088999999999999,5.559454345703125,0.334661865234375,2.407830810546875
4.098999999999997,5.967987060546875,2.918646240234376,10.99927978515625
4.109000000000002,-1.0965484619140626,1.52347412109375,6.9779541015625
4.119,5.904733276367188,0.048748779296875,1.9221374511718752
4.128999999999998,12.77442321777344,1.4204437255859377,7.733859252929688
4.138999999999996,7.866946411132813,1.1511291503906251,2.9368896484375
4.149000000000001,11.144927978515623,-0.3195587158203125,6.0113525390625
4.158999999999999,9.061590576171875,-1.3972656250000002,6.945654296875
4.168999999999997,4.9203369140625,0.31402587890625,12.550119018554687
4.179000000000002,2.7097442626953128,-0.8450286865234375,3.0780517578125
4.189,9.0451416015625,-1.25430908203125,8.099475097656251
4.198999999999998,2.126702880859375,-0.2691650390625,0.50064697265625
4.208999999999996,6.510504150390625,-0.6147430419921875,2.3095855712890625
4.219000000000001,15.51871032714844,0.20576171875,9.94534912109375
4.228999999999999,11.882589721679688,2.3906341552734376,9.902581787109376
4.238999999999997,7.483834838867188,1.8409393310546875,7.353289794921875
4.25,3.869247436523438,1.060061645507813,12.949679565429689
4.259999999999998,3.7019165039062494,1.3180114746093752,10.926754760742188
4.269999999999996,5.156454467773438,0.6880157470703125,3.320001220703125
4.280000000000001,6.23685302734375,-0.40733642578125,1.565045166015625
4.289999999999999,10.505661010742188,-0.626556396484375,4.649078369140625
4.299999999999997,11.085711669921876,0.3527557373046875,7.267156982421875
4.310000000000002,7.398001098632813,0.60233154296875,2.376727294921875
4.32,9.9591064453125,-0.884954833984375,5.1260986328125
4.329999999999998,12.46219177246094,-0.7708587646484376,11.47525329589844
4.339999999999996,2.6762481689453126,0.1040771484375,7.687203979492188
4.350000000000001,3.886593627929688,0.0312530517578125,0.7059600830078125
4.359999999999999,9.5308349609375,-0.0136077880859375,5.1657257080078125
4.369999999999997,7.304541015625,-0.5102172851562501,4.896261596679688
4.381,6.378164672851563,-0.1879669189453125,3.9120147705078128
4.390999999999998,8.405575561523438,0.7185211181640625,4.719509887695313
4.400999999999996,11.378952026367188,0.4260284423828125,8.054464721679688
4.411000000000001,4.346865844726563,1.7238525390625,20.372354125976564
4.420999999999999,1.2822723388671875,-0.0686370849609375,-0.5764617919921875
4.430999999999997,13.063626098632811,0.2803802490234375,7.156051635742188
4.440999999999995,9.111984252929688,1.3343109130859376,8.735452270507814
4.4510000000000005,3.15281982421875,0.05443115234375,4.851400756835938
4.460999999999999,6.782958984375001,0.7083526611328126,0.426776123046875
4.4709999999999965,9.178976440429688,0.158807373046875,4.727584838867188
4.481000000000002,10.249505615234376,-1.1778961181640626,6.139205932617188
4.491,8.730667114257812,-0.317315673828125,5.4912658691406255
4.500999999999998,4.2109375,0.722259521484375,8.572009277343751
4.510999999999996,5.758187866210938,-0.3964202880859375,5.7338134765625
4.521000000000001,3.5437072753906254,0.1715179443359375,3.4800048828125
4.5319999999999965,6.975860595703126,-0.3572418212890625,4.6475830078125
4.542000000000002,18.08265686035156,0.01734619140625,11.503515625
4.552,13.011587524414065,2.080645751953125,7.8368896484375
4.561999999999998,4.288098144531251,0.0991424560546875,8.06837158203125
4.571999999999996,-0.666632080078125,-0.4233367919921875,12.384133911132814
4.582000000000001,3.0189849853515627,1.4032470703125002,10.542446899414063
4.591999999999999,5.194586181640625,0.7068572998046876,2.656658935546876
4.601999999999997,8.626290893554689,0.7475311279296876,1.4572296142578125
4.612000000000002,13.153347778320311,0.505133056640625,4.739996337890625
4.622,12.451126098632814,-0.49107666015625,10.110287475585938
4.631999999999998,5.74876708984375,-0.160302734375,3.5514831542968754
4.641999999999996,8.6910400390625,-1.1832794189453126,2.9316558837890625
4.652999999999999,14.314196777343753,-1.5005950927734375,9.889273071289065
4.662999999999997,7.366000366210938,0.0465057373046875,5.313467407226563
4.673000000000002,3.834854125976563,0.6317901611328125,0.1454986572265625
4.683,3.050985717773438,0.4957122802734375,1.4676971435546875
4.692999999999998,8.389575195312501,1.6303924560546876,10.104754638671876
4.702999999999996,5.101275634765625,0.3075958251953125,4.609002685546876
4.713000000000001,7.804739379882813,0.7986724853515625,4.510906982421876
4.722999999999999,11.1027587890625,1.4062377929687502,12.92470703125
4.732999999999997,7.580435180664063,-0.006878662109375,8.61029052734375
4.743000000000002,6.9582153320312505,0.2956329345703125,6.305191040039063
4.753,6.048736572265625,0.475823974609375,6.466839599609376
4.762999999999998,5.462255859375,-0.1475921630859375,9.25867919921875
4.772999999999996,6.31461181640625,0.2370147705078125,3.0949493408203126
4.783000000000001,8.2017578125,0.3312225341796875,2.832662963867188
4.792999999999999,9.582275390625,0.081646728515625,3.829321289062501
4.802999999999997,11.027392578125,-0.7591949462890626,7.491909790039063
4.812999999999995,6.1178222656250005,0.279034423828125,12.25822448730469
4.823999999999998,4.720706176757813,0.2791839599609375,3.4692382812500004
4.833999999999996,9.240884399414064,0.11424560546875,9.328213500976563
4.844000000000001,2.4088775634765627,-0.1203765869140625,5.1380615234375
4.853999999999999,3.041864013671875,0.6078643798828125,1.519586181640625
4.863999999999997,7.864852905273438,0.7472320556640626,2.5210296630859377
4.873999999999995,15.813446044921877,0.2065093994140625,7.191790771484375
4.884,14.1736328125,2.4181488037109378,10.2462158203125
4.893999999999998,6.066979980468751,1.7078521728515623,9.223239135742189
4.903999999999996,3.5752593994140627,-0.27933349609375,12.494790649414064
4.9140000000000015,3.00567626953125,-0.2056121826171875,9.905722045898438
4.924,4.83001708984375,-0.3686065673828125,3.8430786132812496
4.9339999999999975,7.351046752929688,-0.7415496826171876,2.4057373046875004
4.945999999999998,11.1302734375,-1.170718383789063,4.164880371093751
4.954999999999998,10.39515380859375,-0.7179229736328125,6.754397583007813
4.964999999999996,7.507760620117188,-0.299371337890625,3.792086791992188
4.975000000000001,9.906918334960938,-0.4804595947265625,5.4263671875
4.984999999999999,11.947189331054688,-0.533544921875,11.577536010742188
4.994999999999997,3.0758087158203127,1.523773193359375,10.23724365234375
5.004999999999996,1.672113037109375,-0.1745086669921875,-1.5382781982421876
5.015000000000001,10.424462890625,1.15980224609375,2.434298706054688
5.024999999999999,7.700363159179688,0.4673004150390625,4.032241821289063
5.034999999999997,6.983935546875,0.448907470703125,6.340481567382813
5.045999999999999,7.8359924316406255,1.0286590576171877,8.090054321289063
5.055,11.725128173828123,0.9651062011718752,5.156753540039063
5.065999999999995,10.313955688476565,1.7580963134765626,13.62393798828125
5.074999999999996,-0.9950134277343752,0.0485992431640625,4.197479248046875
5.085000000000001,7.961453247070313,-0.49705810546875,3.895864868164063
5.0959999999999965,12.011190795898438,-0.012860107421875,9.02540283203125
5.106000000000002,5.1313323974609375,-0.44501953125,7.057208251953125
5.116,3.265570068359376,-0.6403137207031251,2.059710693359375
5.125999999999998,10.977746582031251,-0.5489471435546875,4.059906005859375
5.135999999999996,10.6840576171875,-0.1146942138671875,7.308279418945313
5.146000000000001,6.0520263671875005,0.6258087158203125,9.446496582031251
5.155999999999999,5.168865966796876,1.03359375,7.114031982421875
5.165999999999997,6.738995361328126,0.4370941162109375,7.701409912109375
5.176000000000002,1.3758819580078123,0.7879058837890626,2.1666290283203127
5.186,8.359967041015626,0.5507415771484375,2.602377319335938
5.195999999999998,16.746252441406252,0.403448486328125,8.18680419921875
5.205999999999996,10.78140563964844,0.6989318847656251,8.330209350585939
5.216000000000001,6.828567504882813,-0.6113037109375,7.482339477539063
5.225999999999999,2.3708953857421875,-0.9196472167968752,12.219943237304689
5.235999999999997,3.617727661132813,0.1830322265625,11.293716430664062
5.247,6.137860107421876,1.02462158203125,4.165328979492188
5.256999999999998,7.791281127929688,0.629248046875,2.6134429931640626
5.266999999999996,11.967376708984377,-0.459674072265625,4.888934326171875
5.277000000000001,10.093240356445314,0.049945068359375,7.350598144531251
5.286999999999999,6.788641357421875,0.7591949462890626,2.794232177734376
5.296999999999997,9.076544189453124,0.1638916015625,4.726388549804688
5.307000000000002,9.035421752929688,1.0105651855468751,14.535211181640626
5.317,2.3682037353515626,0.3291290283203125,2.8114288330078128
5.326999999999998,8.274282836914063,0.9790130615234376,2.807241821289063
5.336999999999996,7.840179443359376,0.745587158203125,4.449148559570313
5.347000000000001,7.954873657226563,-0.0985443115234375,4.876821899414063
5.356999999999999,7.612734985351563,-0.6119018554687501,6.266610717773438
5.366999999999997,7.548135375976563,-0.9679473876953124,3.886294555664063
5.376999999999995,12.409255981445314,-0.494964599609375,6.859371948242188
5.3870000000000005,6.433941650390626,1.3773773193359375,15.4524658203125
5.397999999999996,-0.105572509765625,-0.20635986328125,2.101580810546875
5.408000000000001,9.96807861328125,-0.1308441162109375,5.675942993164063
5.417999999999999,10.694525146484375,-0.040673828125,10.739236450195314
5.427999999999997,3.2088958740234377,-0.015252685546875,5.777926635742188
5.437999999999995,6.193188476562501,0.9820037841796876,1.1601013183593751
5.448,11.025149536132814,1.367657470703125,5.274588012695313
5.457999999999998,9.551620483398438,0.0506927490234375,6.067129516601563
5.467999999999996,6.764266967773438,0.3775787353515625,11.392410278320312
5.4780000000000015,3.8556396484375,0.551190185546875,4.507467651367188
5.488,10.544091796875,0.08314208984375,7.467684936523438
5.4979999999999976,3.187362670898438,-0.7008758544921876,4.537374877929688
5.507999999999996,3.105117797851563,0.035888671875,2.0994873046875
5.518000000000001,11.754138183593753,0.158209228515625,6.166720581054688
5.528999999999996,12.246261596679688,0.071478271484375,10.038659667968751
5.5390000000000015,10.669253540039064,1.373638916015625,6.350350952148438
5.549,6.403585815429688,0.330474853515625,8.869287109375001
5.5589999999999975,2.748773193359375,0.011962890625,12.826312255859376
5.568999999999996,4.4120635986328125,1.26387939453125,7.571612548828125
5.579000000000001,6.710583496093751,0.15970458984375,2.684173583984375
5.588999999999999,9.707586669921875,-1.4207427978515623,3.5046783447265626
5.600000000000001,12.369479370117189,-0.6422576904296875,6.703256225585938
5.609000000000002,8.055361938476564,1.2282897949218752,5.180828857421876
5.619,7.612136840820313,1.2774871826171876,3.730328369140625
5.628999999999998,4.515393066406251,-0.0031402587890625,9.455319213867188
5.638999999999996,9.6528564453125,-0.1643402099609375,8.858670043945313
5.649000000000001,6.857427978515625,1.0048828125,3.0828369140625003
5.658999999999999,7.1585937500000005,0.430364990234375,2.440130615234376
5.670000000000002,8.757135009765626,-0.9078338623046877,5.007815551757813
5.68,7.943807983398438,-0.935498046875,6.334350585937501
5.689999999999998,6.323583984375,0.243743896484375,5.318402099609376
5.699999999999996,3.460565185546875,1.4324066162109377,9.2676513671875
5.710000000000001,10.0165283203125,0.3258392333984375,10.372872924804687
5.719999999999999,8.681918334960939,-0.2289398193359375,7.036721801757813
5.729999999999997,6.655703735351563,0.947760009765625,5.143145751953125
5.740000000000002,7.009356689453125,0.4741790771484375,8.27652587890625
5.75,6.105111694335938,0.5103668212890625,6.4901672363281255
5.759999999999998,7.245773315429688,0.5552276611328125,2.6058166503906253
5.769999999999996,8.325125122070313,0.4035980224609375,2.902496337890625
5.780000000000001,10.134362792968751,-0.4352996826171875,6.957168579101563
5.789999999999999,6.547589111328126,0.03828125,9.268399047851563
5.799999999999997,7.554266357421875,0.5802001953125,5.082882690429688
5.810000000000002,6.976608276367188,-0.1437042236328125,8.672796630859375
5.820999999999998,4.48907470703125,-0.234771728515625,7.081283569335938
5.830999999999996,3.0219757080078127,0.065496826171875,3.2551025390625004
5.841000000000001,7.295120239257813,0.442626953125,1.975521850585937
5.850999999999999,14.63001708984375,0.0973480224609375,6.6561523437500005
5.860999999999997,11.80542907714844,-0.4556365966796875,8.476306152343751
5.872,8.435632324218751,0.3407928466796875,7.299606323242188
5.881,3.632830810546875,-0.6311920166015625,12.875509643554688
5.890999999999998,3.626849365234375,0.4801605224609375,11.901431274414064
5.900999999999996,6.151019287109375,1.4830993652343751,5.0920043945312505
5.911000000000001,6.757089233398438,1.0966979980468752,2.3040527343750004
5.920999999999999,11.356671142578126,1.0283599853515626,4.57879638671875
5.930999999999997,9.8466552734375,0.8122802734375001,5.822488403320313
5.940999999999995,7.131976318359375,0.5094696044921876,2.6850708007812503
5.9510000000000005,7.7196533203125,0.7864105224609376,8.127886962890626
5.963000000000001,5.707196044921876,-0.443524169921875,8.270095825195312
5.9709999999999965,10.499978637695314,-0.0734222412109375,6.506317138671876
5.981999999999999,6.728826904296875,0.6608001708984376,2.91954345703125
5.991999999999997,7.580883789062501,-0.150732421875,2.527609252929688
6.001999999999995,8.903082275390625,-1.1488861083984376,6.7662109375
6.0120000000000005,5.998342895507813,-0.662445068359375,5.658895874023438
6.021999999999999,3.224447631835938,0.0127105712890625,9.169256591796875
6.0319999999999965,7.191491699218751,-0.376531982421875,6.55028076171875
6.042000000000002,11.844607543945314,-0.03768310546875,12.19437255859375
6.052,5.5081634521484375,0.6000885009765625,5.213427734375
6.062999999999995,7.427609252929688,1.821798706054688,6.278872680664063
6.071999999999996,6.954776000976563,0.5606109619140626,7.038516235351563
6.082000000000001,7.000982666015625,0.6066680908203126,3.8843505859375
6.091999999999999,7.942611694335938,1.3253387451171876,3.0294525146484377
6.101999999999997,8.836090087890625,0.5636016845703126,4.870690917968751
6.113,7.679278564453125,0.0823944091796875,8.01453857421875
6.1229999999999976,7.108200073242188,0.2181732177734375,7.0868164062500005
6.132999999999996,7.266110229492188,-0.6107055664062501,8.228524780273439
6.143000000000001,6.423025512695313,-1.0068267822265626,7.689596557617188
6.152999999999999,4.422531127929688,-0.8991607666015625,5.160043334960938
6.162999999999997,3.080892944335938,-0.5788543701171875,1.8563415527343752
6.173000000000002,10.05899658203125,0.279034423828125,3.6202697753906254
6.1839999999999975,15.55699157714844,0.549993896484375,9.972265625
6.192999999999998,11.091094970703123,1.809835815429688,6.720303344726563
6.202999999999996,6.877017211914063,0.9962097167968752,8.648272705078126
6.213000000000001,2.2286865234375,0.1751068115234375,14.254083251953126
6.222999999999999,3.708944702148438,1.3806671142578126,9.1779296875
6.232999999999997,5.508312988281251,0.7074554443359375,2.631088256835937
6.243000000000002,7.957415771484375,-0.61728515625,2.521478271484375
6.253,12.648663330078126,-0.787457275390625,5.625399780273438
6.263999999999996,9.34840087890625,1.0507904052734376,6.635366821289063
6.274000000000001,7.307681274414063,0.7867095947265625,1.8330139160156247
6.283999999999999,10.253991699218751,0.017047119140625,6.432296752929688
6.293999999999997,6.875222778320313,0.0011962890625,12.975399780273438
6.304000000000002,2.943170166015625,-0.2284912109375,2.519683837890625
6.314,8.566476440429689,0.5319000244140626,4.643246459960938
6.323999999999998,8.093493652343751,-0.5848358154296875,4.811923217773438
6.333999999999996,8.432940673828126,-0.7765411376953125,5.092453002929688
6.344000000000001,5.934341430664063,-0.6181823730468751,4.128842163085938
6.353999999999999,9.514984130859377,-0.356793212890625,5.3477111816406255
6.363999999999997,11.717950439453126,1.4742767333984377,9.761419677734375
6.373999999999995,2.8598785400390625,2.3071929931640627,14.529528808593753
6.384,0.630743408203125,-0.6590057373046876,-0.184228515625
6.393999999999998,13.446289062500002,0.26258544921875,8.330807495117188
6.403999999999996,10.264608764648438,0.7245025634765625,6.882400512695313
6.414999999999999,4.714425659179688,0.6198272705078125,1.02821044921875
6.424999999999997,7.92003173828125,0.4092803955078125,3.4903228759765628
6.435000000000002,6.544448852539063,-0.2277435302734375,9.156396484375
6.445,8.466287231445314,-0.3840087890625,7.346261596679688
6.454999999999998,8.489465332031251,-0.35888671875,7.770196533203125
6.464999999999996,6.549533081054688,-0.196490478515625,7.362261962890625
6.475000000000001,5.353094482421875,0.0107666015625,6.661236572265626
6.484999999999999,2.196237182617188,0.103778076171875,4.478756713867188
6.494999999999997,4.586422729492188,0.232080078125,2.008868408203125
6.504999999999996,15.623983764648438,0.01136474609375,6.303845214843751
6.515000000000001,15.271078491210938,0.7002777099609375,7.331906127929688
6.524999999999999,9.575247192382813,0.2908477783203125,7.583575439453125
6.536000000000001,3.0596588134765628,0.25062255859375,13.866934204101565
6.545000000000002,0.7117919921875,1.0851837158203126,12.137997436523438
6.555999999999997,4.799511718750001,1.4081817626953126,5.6707092285156255
6.565999999999995,5.8749755859375,0.69085693359375,2.310931396484375
6.5760000000000005,11.365792846679687,0.6041259765625,3.737954711914063
6.585999999999999,11.593386840820314,-0.73511962890625,5.883200073242188
6.5959999999999965,7.51748046875,0.1882659912109375,4.288098144531251
6.606000000000002,7.756289672851563,-0.6847259521484376,3.658102416992188
6.616,12.7512451171875,-1.3223480224609376,9.528591918945311
6.625999999999998,6.683666992187501,1.182681274414063,11.161676025390626
6.635999999999996,0.19798583984375,0.09989013671875,1.2940856933593752
6.646000000000001,8.993252563476563,0.1472930908203125,1.9904754638671875
6.655999999999999,10.169354248046876,0.5935089111328126,5.290289306640625
6.665999999999997,4.870541381835938,-0.117535400390625,3.1680725097656253
6.676000000000002,8.206243896484375,-0.3742889404296875,8.59354248046875
6.686999999999998,10.373919677734376,-0.0171966552734375,7.691839599609375
6.696999999999996,9.88074951171875,1.629345703125,12.097921752929688
6.705999999999996,0.6105560302734375,1.1481384277343751,7.47142333984375
6.716999999999999,6.485531616210938,0.1592559814453125,1.9829986572265623
6.726999999999997,13.333090209960938,0.7008758544921876,8.075698852539062
6.737000000000002,4.84556884765625,-0.1460968017578125,4.021325683593751
6.747,7.548583984375001,-0.02093505859375,3.082687377929688
6.756999999999998,7.653857421875,0.353204345703125,6.834249877929688
6.766999999999996,7.767803955078126,-0.1526763916015625,5.478704833984375
6.777000000000001,9.587808227539064,-0.2346221923828125,8.703302001953126
6.786999999999999,5.666970825195313,-0.01734619140625,7.917190551757813
6.796999999999997,4.5077667236328125,-0.734222412109375,7.033581542968751
6.807000000000002,3.2474761962890626,-0.19200439453125,5.5331359863281255
6.817,7.752850341796876,0.6462951660156251,3.0859771728515626
6.826999999999998,14.299990844726564,1.3812652587890626,5.49156494140625
6.838000000000001,11.135806274414064,1.9110717773437504,6.912606811523438
6.847999999999999,7.143191528320313,1.239056396484375,7.2856994628906255
6.857999999999997,4.015942382812501,0.243145751953125,13.51731872558594
6.868000000000002,3.4644531250000004,0.2510711669921875,11.339175415039064
6.878,6.845465087890625,0.32598876953125,4.6957336425781255
6.887999999999998,7.41160888671875,-0.9589752197265624,2.8929260253906253
6.897999999999996,12.184054565429689,-1.6134948730468752,5.108602905273438
6.908000000000001,9.015533447265623,-0.286212158203125,6.59215087890625
6.917999999999999,5.9969970703125,0.7717559814453125,2.73651123046875
6.927999999999997,9.3633544921875,0.3497650146484375,4.3223419189453125
6.937999999999995,7.730120849609375,0.2672210693359375,11.056253051757814
6.948,4.454232788085938,0.2809783935546875,4.650872802734376
6.957999999999998,10.169204711914062,1.351806640625,5.622708129882813
6.967999999999996,6.8969055175781255,0.1051239013671875,3.151324462890625
6.9780000000000015,8.919830322265625,-1.035687255859375,6.679180908203126
6.988999999999997,6.302499389648438,-0.477618408203125,5.0172363281250005
6.998999999999995,7.79801025390625,0.4619171142578125,3.638961791992188
7.009,9.596331787109376,2.524169921875,11.485421752929687
7.018999999999998,2.1259552001953126,0.7897003173828125,6.760379028320313
7.028999999999996,9.84964599609375,0.162396240234375,5.3466644287109375
7.0390000000000015,8.431893920898439,-0.4143646240234375,9.247164916992189
7.049,3.706851196289063,0.143853759765625,9.892562866210938
7.0589999999999975,6.844119262695313,0.0862823486328125,3.1934936523437503
7.068999999999996,9.107647705078126,-0.23865966796875,4.278976440429688
7.079000000000001,9.099572753906251,0.244940185546875,3.250167846679688
7.088999999999999,9.839627075195311,-0.6630432128906251,5.970828247070313
7.098999999999997,8.343817138671875,0.442327880859375,7.183117675781251
7.109000000000002,1.873239135742188,0.77100830078125,7.772738647460938
7.119,5.3868896484375,0.16748046875,4.816409301757813
7.129999999999996,5.304495239257813,0.0459075927734375,5.4434143066406255
7.140000000000001,9.669155883789063,0.3234466552734375,5.157800292968751
7.149999999999999,14.304177856445314,0.6279022216796876,7.889376831054688
7.159999999999997,10.23963623046875,0.143255615234375,6.4782043457031255
7.170000000000002,5.027853393554688,-1.0762115478515626,10.060043334960938
7.18,2.818157958984376,-0.7415496826171876,12.399386596679689
7.189999999999998,5.852246093750001,1.5249694824218751,8.335592651367188
7.199999999999996,6.768603515625,1.514501953125,2.8323638916015628
7.210000000000001,9.219500732421876,0.8477203369140626,3.0327423095703128
7.219999999999999,11.75234375,-0.0130096435546875,6.191693115234376
7.229999999999997,7.736251831054688,0.740203857421875,5.223895263671875
7.240000000000002,7.511199951171876,0.8418884277343751,3.4435180664062504
7.25,5.671157836914063,0.538330078125,10.102960205078126
7.259999999999998,8.943008422851562,-0.2404541015625,6.038717651367188
7.271000000000001,9.121554565429689,0.7059600830078125,5.565435791015625
7.280999999999999,5.426217651367188,0.3309234619140625,1.3449279785156252
7.290999999999997,9.352737426757812,-0.6434539794921875,5.501882934570313
7.301000000000002,7.734906005859376,-0.8548980712890626,6.788342285156251
7.311,4.372885131835938,-0.3342132568359375,8.842669677734376
7.320999999999998,3.277084350585938,-0.2406036376953125,4.053326416015626
7.330999999999996,13.483673095703129,0.02332763671875,14.372515869140626
7.341000000000001,5.882901000976563,-0.21712646484375,6.327621459960938
7.350999999999999,6.404034423828126,1.2261962890625,5.601773071289063
7.360999999999997,7.934536743164063,1.0495941162109377,6.72733154296875
7.371000000000002,6.7243408203125,0.296380615234375,5.118621826171875
7.381,7.756887817382813,1.0202850341796876,2.9065338134765626
7.390999999999998,8.222244262695312,1.2501220703125,3.971530151367188
7.400999999999996,8.123699951171876,-0.0483001708984375,7.906723022460938
7.411999999999999,7.156051635742188,0.3934295654296875,7.251455688476563
7.421999999999997,7.932891845703126,0.095404052734375,7.820889282226563
7.432000000000002,7.1735473632812505,-0.5493957519531251,7.085769653320313
7.442,5.337692260742188,-0.8952728271484376,6.688003540039063
7.451999999999998,3.149679565429688,-0.4801605224609375,3.7772827148437504
7.463000000000001,6.493008422851563,-0.0683380126953125,2.340838623046875
7.472000000000001,13.596423339843753,0.3620269775390625,7.989117431640626
7.481999999999999,11.389120483398438,0.6883148193359375,7.351345825195313
7.491999999999997,9.278118896484376,2.0576171875,6.349603271484376
7.501999999999995,4.4744201660156255,0.8984130859375,13.596423339843753
7.512,3.517987060546876,0.7953826904296876,11.872720336914064
7.5219999999999985,5.741589355468751,1.3091888427734375,4.568777465820313
7.5319999999999965,7.083377075195313,-0.7897003173828125,2.5355346679687503
7.542000000000002,11.373419189453124,-1.5856811523437502,4.565936279296875
7.552,9.539956665039064,-0.0234771728515625,6.570318603515625
7.564,6.556112670898438,1.143951416015625,2.1729095458984378
7.573,9.359616088867188,0.585882568359375,4.260882568359375
7.582999999999998,7.425515747070313,-0.4236358642578125,12.087005615234377
7.592999999999996,4.490420532226563,-0.366064453125,4.978207397460938
7.6030000000000015,10.529138183593751,0.368756103515625,5.979351806640626
7.612999999999999,6.358276367187501,-0.7373626708984375,1.9040435791015624
7.622999999999997,9.900338745117187,-0.939984130859375,7.138854980468751
7.632999999999996,5.78226318359375,0.1136474609375,4.4564758300781255
7.643000000000001,6.7653137207031255,1.13468017578125,3.4269195556640626
7.652999999999999,6.963897705078126,2.808737182617188,16.901171875000003
7.6640000000000015,2.7792785644531253,0.3201568603515625,3.538623046875
7.673000000000002,12.814947509765624,0.2328277587890625,9.086413574218753
7.683,7.246221923828125,0.1341339111328125,4.499542236328125
7.692999999999998,6.928756713867188,0.9534423828125,10.403677368164065
7.702999999999996,4.64578857421875,0.12022705078125,2.864962768554688
7.713999999999999,8.698815917968751,-0.3046051025390625,3.3639648437500003
7.723999999999997,9.390719604492189,-0.241949462890625,4.1798339843750005
7.734000000000002,7.9804443359375,-0.8254394531250001,7.761373901367188
7.744,6.991860961914063,0.2121917724609375,5.8773681640625
7.753999999999998,5.454180908203125,0.093011474609375,7.430300903320313
7.763999999999996,2.3269317626953128,-0.376531982421875,5.645587158203125
7.774000000000001,8.594888305664064,0.095703125,5.678634643554688
7.783999999999999,14.10649108886719,0.394476318359375,8.409164428710938
7.793999999999997,10.898641967773438,0.7185211181640625,4.52855224609375
7.804000000000002,8.190243530273438,-0.023626708984375,6.3600708007812505
7.814,2.087823486328125,-0.21593017578125,13.117309570312502
7.823999999999998,2.9768157958984376,0.9509002685546876,10.194476318359376
7.833999999999996,6.744229125976563,1.5370819091796877,4.554571533203125
7.844999999999999,8.226281738281251,1.244439697265625,2.9303100585937503
7.854999999999997,13.665509033203126,0.5659942626953125,5.27384033203125
7.865000000000002,9.146975708007814,0.3733917236328125,6.474465942382813
7.875,6.380258178710938,0.4858428955078125,2.9050384521484376
7.884999999999998,6.846511840820313,0.72674560546875,11.449533081054687
7.894999999999996,3.3161132812500003,-0.6329864501953125,6.2389465332031255
7.905000000000001,11.8612060546875,-0.0275146484375,5.39825439453125
7.914999999999999,6.720901489257813,0.129498291015625,3.1894561767578127
7.924999999999997,7.553518676757813,-0.4194488525390625,2.4577758789062503
7.935000000000002,9.55520935058594,-0.50782470703125,7.739541625976563
7.945999999999998,5.894863891601563,-0.771307373046875,4.17923583984375
7.954999999999998,7.91165771484375,-0.3078948974609375,5.189501953125
7.966000000000001,6.081036376953126,1.3984619140625,12.996783447265626
7.975000000000001,6.555065917968751,-0.032598876953125,4.151571655273438
7.984999999999999,11.4927490234375,0.5984436035156251,9.535919189453123
7.996000000000002,4.338940429687501,0.8722442626953125,6.776977539062501
8.006,4.23785400390625,0.6495849609375001,7.879956054687501
8.015999999999998,8.431744384765626,0.618780517578125,4.790838623046875
8.025999999999996,7.544696044921875,0.71119384765625,2.31182861328125
8.036000000000001,10.75149841308594,0.5209838867187501,4.511505126953125
8.046,8.269796752929688,-0.320904541015625,8.296862792968751
8.055999999999997,6.665274047851563,0.3192596435546875,6.5978332519531255
8.065999999999995,5.8356475830078125,-0.3201568603515625,8.0103515625
8.076,4.111645507812501,-1.22200927734375,5.599530029296876
8.085999999999999,3.07027587890625,-1.1237640380859375,3.116183471679688
8.095999999999997,10.98731689453125,0.081646728515625,5.3390380859375
8.106000000000002,15.265545654296876,1.302459716796875,8.484979248046876
8.116,10.605850219726562,1.30335693359375,5.671755981445313
8.125999999999998,5.8860412597656255,0.8194580078125001,9.92740478515625
8.135999999999996,1.1744567871093752,0.8360565185546875,13.565768432617189
8.146999999999998,4.1451416015625,1.375732421875,8.657095336914063
8.156999999999996,6.684414672851563,0.8943756103515625,2.690902709960937
8.167000000000002,7.883395385742188,-0.2340240478515625,2.77000732421875
8.177,13.920617675781251,-1.423883056640625,6.324630737304688
8.186999999999998,7.975210571289063,0.5957519531250001,6.665124511718751
8.196999999999996,6.682171630859376,1.030303955078125,2.176199340820313
8.207,11.274127197265626,-0.244342041015625,6.560748291015625
8.216999999999999,9.6361083984375,0.0121124267578125,10.969073486328126
8.226999999999997,1.05572509765625,-0.1565643310546875,3.2026153564453126
8.237000000000002,6.904980468750001,0.3557464599609375,1.7263946533203127
8.247,9.0714599609375,0.3829620361328125,5.239297485351563
8.256999999999998,8.694479370117188,-0.9532928466796876,7.023114013671876
8.266999999999996,5.050582885742188,-0.6569122314453125,4.809231567382813
8.277999999999999,9.96792907714844,-0.52576904296875,4.309481811523438
8.287999999999997,13.43193359375,0.0130096435546875,8.535073852539064
8.298000000000002,5.910565185546876,2.6988281250000004,18.22531433105469
8.308,-1.574465942382813,0.14295654296875,1.9206420898437504
8.317999999999998,5.129986572265626,0.0085235595703125,1.2707580566406251
8.327999999999996,15.590936279296876,0.5659942626953125,9.82093505859375
8.338000000000001,5.946453857421876,0.516796875,6.929953002929688
8.347999999999999,3.850704956054688,0.7315307617187501,1.5841857910156252
8.357999999999997,11.556451416015626,0.2095001220703125,3.4672943115234376
8.368000000000002,10.327413940429688,-0.22550048828125,9.310418701171876
8.378,3.462060546875,-0.0611602783203125,7.023263549804688
8.387999999999998,7.456918334960938,-0.0767120361328125,6.696826171875
8.397999999999996,4.826428222656251,-0.6113037109375,6.446502685546876
8.408000000000001,2.2922393798828127,0.2035186767578125,3.127996826171876
8.418999999999997,11.339175415039064,0.2391082763671875,4.196133422851563
8.429000000000002,15.459494018554688,0.129498291015625,8.333499145507814
8.439,10.169802856445314,0.4595245361328125,8.71197509765625
8.448999999999998,4.778875732421875,-0.6690246582031251,9.304736328125
8.458999999999996,2.04027099609375,0.2286407470703125,13.680612182617187
8.469000000000001,5.238848876953125,1.4982025146484377,8.689694213867188
8.479999999999997,6.373678588867188,1.4216400146484376,2.6403594970703126
8.488999999999997,9.170004272460938,1.245635986328125,2.403643798828125
8.498999999999995,11.775970458984377,0.1927520751953125,5.236157226562501
8.509,8.014389038085938,-0.2779876708984375,6.63162841796875
8.518999999999998,7.6239501953125,0.2103973388671875,2.650079345703125
8.528999999999996,10.382891845703126,0.1547698974609375,6.219357299804688
8.539000000000001,5.927761840820313,0.1326385498046875,10.431491088867189
8.549,5.371786499023438,0.3126800537109375,2.982199096679688
8.558999999999997,8.404080200195313,0.4056915283203125,5.213278198242188
8.57,7.283905029296876,-1.0669403076171875,4.078448486328125
8.580999999999996,8.607897949218751,-1.1076141357421876,6.531588745117188
8.589999999999996,5.9623046875000005,-0.5525360107421875,3.5764556884765626
8.600000000000001,10.2438232421875,0.4996002197265625,6.163729858398438
8.61,6.790286254882813,1.8952209472656247,15.12049560546875
8.619999999999997,2.351007080078125,0.2296875,3.9007995605468753
8.629999999999995,11.662472534179688,0.7880554199218751,7.705746459960938
8.64,7.6957275390625,0.5091705322265625,6.963897705078126
8.649999999999999,4.134075927734376,0.29129638671875,7.942910766601563
8.659999999999997,7.102966308593751,0.8928802490234375,2.201620483398438
8.670000000000002,8.898895263671875,0.7463348388671875,3.6355224609375
8.680999999999997,9.402084350585938,-0.2356689453125,4.231124877929688
8.689999999999998,9.82392578125,-0.8402435302734376,7.693185424804688
8.699999999999996,4.834951782226563,0.295184326171875,10.985073852539063
8.71,6.376220703125001,-0.1184326171875,4.454531860351563
8.720999999999997,7.11253662109375,-0.63941650390625,7.688848876953125
8.731000000000002,1.242495727539063,-0.3841583251953125,2.8387939453125
8.741,7.003973388671875,0.38341064453125,2.85673828125
8.750999999999998,15.020156860351564,0.7527648925781251,8.130130004882814
8.760999999999996,11.00870056152344,1.5364837646484375,7.625595092773438
8.771,9.34241943359375,2.2497711181640625,7.376467895507813
8.780999999999999,3.5872222900390627,0.5755645751953126,13.970562744140626
8.790999999999997,3.17674560546875,0.5058807373046875,11.525946044921875
8.801000000000002,5.855685424804688,0.6705200195312501,3.9791564941406254
8.811,7.029544067382813,-1.1578582763671876,2.3605773925781253
8.820999999999998,11.703594970703126,-1.7796295166015623,4.5521789550781255
8.830999999999996,9.07325439453125,-0.699530029296875,6.626394653320313
8.841000000000001,7.081283569335938,0.5967987060546875,2.5460021972656253
8.851999999999997,9.518722534179688,0.12740478515625,4.507318115234376
8.862000000000002,10.952774047851562,-0.7771392822265626,8.346060180664063
8.872,3.2878509521484376,0.7524658203125001,8.791079711914064
8.881999999999998,5.252606201171876,0.167181396484375,1.6830291748046875
8.891999999999996,9.853234863281251,0.7140350341796875,5.723196411132813
8.902000000000001,8.260675048828126,0.008074951171875,6.5320373535156255
8.911999999999999,5.72783203125,0.287408447265625,3.6084564208984378
8.921999999999997,7.5264526367187505,1.03658447265625,3.40523681640625
8.933,12.27213134765625,0.8303741455078125,8.992056274414063
8.942,4.272845458984375,1.9257263183593751,21.392041015625
8.951999999999998,-1.0702301025390626,-0.2205657958984375,-0.2585479736328125
8.961999999999996,12.1865966796875,-0.2595947265625,4.001437377929688
8.972000000000001,11.889019775390626,0.3351104736328125,7.563388061523438
8.982999999999997,5.108004760742188,-0.3814666748046875,4.285556030273438
8.991999999999997,7.583724975585938,-0.6044250488281251,2.278033447265625
9.003,9.375466918945314,-0.326885986328125,3.244186401367188
9.012999999999998,7.720700073242188,0.0180938720703125,8.266806030273438
9.022999999999996,6.350650024414063,0.207257080078125,7.040609741210938
9.033,8.401239013671876,0.020635986328125,9.112432861328124
9.043,3.163436889648438,0.3186614990234375,7.838385009765625
9.052999999999995,2.0570190429687503,0.7428955078125,2.9711334228515627
9.062999999999995,9.177331542968751,0.8417388916015626,4.188656616210938
9.073,15.934420776367189,0.4930206298828125,7.095639038085938
9.082999999999998,11.739932250976564,1.02880859375,6.826773071289063
9.092999999999996,6.5090087890625,-0.465057373046875,8.937026977539062
9.103000000000002,1.5511383056640626,-0.5964996337890626,13.039849853515626
9.113,3.720458984375,0.769512939453125,10.619308471679688
9.122999999999998,6.96898193359375,1.46485595703125,4.122412109375
9.132999999999996,7.524359130859375,0.6240142822265625,2.4794586181640628
9.143999999999998,13.347894287109376,-0.54132080078125,5.119967651367188
9.153999999999996,8.015435791015626,-0.0765625,6.514691162109376
9.164,6.720303344726563,-0.0285614013671875,2.681781005859375
9.174,9.476254272460938,-0.3171661376953125,5.670260620117188
9.183999999999996,11.120254516601562,0.6724639892578126,10.456912231445314
9.193999999999996,1.520632934570313,0.524273681640625,5.248867797851563
9.204,6.1088500976562505,0.7482788085937501,1.341339111328125
9.214,10.726077270507814,0.9645080566406252,5.906228637695313
9.223999999999997,7.090255737304688,-0.1734619140625,4.371987915039063
9.234000000000002,6.859222412109376,-0.3916351318359375,6.302200317382813
9.244,8.57440185546875,-1.048098754882813,5.323336791992188
9.253999999999998,12.084613037109376,-0.079254150390625,7.927359008789063
9.263999999999996,4.464550781250001,1.4318084716796875,14.601156616210938
9.274,1.0169952392578123,-0.0234771728515625,0.9199462890625
9.284,11.772979736328123,0.387298583984375,6.587216186523438
9.295000000000002,8.70718994140625,-0.297576904296875,7.912106323242188
9.305,4.586273193359375,0.255108642578125,7.76810302734375
9.314999999999998,5.24034423828125,0.820355224609375,2.4067840576171875
9.324999999999996,11.80557861328125,0.7689147949218751,4.045101928710938
9.335,9.890020751953124,0.0136077880859375,6.388632202148438
9.345,7.985229492187501,0.452496337890625,8.066278076171876
9.354999999999997,3.152520751953125,0.431561279296875,7.960406494140625
9.365000000000002,6.9181396484375,-0.704315185546875,6.814212036132813
9.375,4.075607299804688,-0.3258392333984375,4.280621337890626
9.384999999999998,3.980950927734375,-0.6889129638671876,1.556521606445313
9.394999999999996,13.982525634765626,0.7031188964843751,7.203753662109375
9.405,12.5335205078125,1.0135559082031251,8.589205932617189
9.415,8.765060424804688,1.442874145507813,7.295718383789063
9.424999999999995,5.33544921875,1.01923828125,12.62488708496094
9.435000000000002,3.1010803222656254,0.219219970703125,12.50346374511719
9.445999999999998,5.901144409179688,1.2529632568359377,5.488424682617188
9.455999999999996,6.498391723632813,-0.8010650634765626,2.015597534179688
9.466,10.101315307617188,-1.4415283203125,3.6935424804687504
9.476,10.402032470703126,-0.6413604736328126,6.919934082031251
9.485999999999995,6.893615722656251,1.19449462890625,3.432601928710938
9.496000000000002,8.524905395507814,0.8619262695312501,2.974273681640625
9.506,12.196615600585938,-0.389990234375,6.769052124023438
9.515999999999998,5.486480712890625,0.41212158203125,10.461398315429689
9.525999999999996,3.3644134521484377,0.2986236572265625,2.062103271484375
9.536,9.4877685546875,0.9999481201171876,6.260629272460938
9.546,8.381051635742189,-1.111053466796875,6.117523193359375
9.555999999999996,6.378015136718751,-1.1623443603515626,4.293331909179688
9.565999999999995,7.070516967773438,0.1466949462890625,3.8656585693359378
9.576,9.095086669921876,2.297772216796876,11.963339233398438
9.586,2.472430419921875,0.9075347900390626,11.23016357421875
9.597,9.4171875,-0.1404144287109375,3.0112091064453126
9.607,9.210079956054688,0.112750244140625,8.2962646484375
9.616999999999996,6.017184448242188,0.4556365966796875,8.041903686523439
9.626999999999995,6.660189819335938,0.5613586425781251,3.5392211914062504
9.637,7.628286743164063,0.330474853515625,3.3647125244140628
9.646999999999998,8.501577758789063,-0.0698333740234375,3.408377075195313
9.656999999999996,9.696221923828126,-0.6537719726562501,6.749761962890625
9.667000000000002,5.758187866210938,0.2773895263671875,9.45008544921875
9.677,7.250259399414063,0.560760498046875,5.526257324218751
9.686999999999998,6.970477294921875,-0.450701904296875,8.600271606445313
9.696999999999996,2.050140380859375,0.5121612548828125,5.010806274414063
9.707,5.9174438476562505,0.2609405517578125,2.3667083740234376
9.717,13.153198242187502,0.12620849609375,6.746322631835938
9.726999999999997,11.444747924804688,-0.2241546630859375,7.120761108398438
9.738,10.090249633789064,-0.503338623046875,6.400296020507813
9.747999999999998,5.164678955078125,-0.8348602294921875,12.570156860351563
9.757999999999996,3.4835937500000003,0.7989715576171875,12.558792114257814
9.768,6.1227569580078125,2.0021392822265627,5.636166381835938
9.778,6.522616577148438,1.28780517578125,2.61448974609375
9.787999999999997,10.554708862304688,1.301263427734375,4.1339263916015625
9.798000000000002,9.833944702148438,0.46356201171875,5.506369018554688
9.808,7.377813720703125,0.9353485107421876,3.7811706542968753
9.817999999999998,4.931552124023438,0.65616455078125,7.179678344726563
9.827999999999996,9.32911071777344,-0.7095489501953125,8.234954833984375
9.838,8.385986328125,0.286212158203125,7.060049438476563
9.848,7.795767211914063,0.2543609619140625,2.6274993896484378
9.857999999999995,8.041903686523439,-0.7529144287109375,3.4287139892578127
9.868000000000002,9.200210571289062,-0.6280517578125,5.8576293945312505
9.878,5.7723937988281255,-0.7086517333984376,7.715167236328125
9.888999999999996,1.5858306884765627,-1.0160980224609375,5.588613891601563
9.899,9.110488891601562,0.194097900390625,10.488763427734376
9.909,8.260226440429689,0.0447113037109375,10.797555541992187
9.918999999999995,7.754345703125001,1.2152801513671876,5.193240356445313
9.929000000000002,8.759527587890625,1.442874145507813,5.358477783203125
9.939,6.698620605468751,1.35958251953125,7.067077636718751
9.948999999999998,6.5664306640625005,0.9486572265625,4.074261474609376
9.958999999999996,7.311868286132813,0.5845367431640626,3.936538696289063
9.969,8.022763061523438,0.8975158691406251,5.636315917968751
9.981000000000002,8.363705444335938,-0.1727142333984375,6.170458984375
9.988999999999995,8.269049072265625,-0.436944580078125,7.05870361328125
10.0,7.281961059570313,-0.15013427734375,8.188748168945313
10.009,5.782711791992188,-1.1339324951171876,7.7193542480468755
10.018999999999998,3.626998901367188,-1.0259674072265623,5.410067749023438
10.03,2.8574859619140627,-0.5625549316406251,2.0736175537109376
10.04,11.600564575195314,0.2899505615234375,4.3245849609375
10.049999999999995,16.04522705078125,0.48748779296875,8.322732543945314
10.060000000000002,10.721142578125,2.368951416015625,6.349603271484376
10.07,5.7354583740234375,1.916305541992188,10.477099609375
10.080999999999996,0.6892120361328126,0.5852844238281251,14.626727294921876
10.089999999999996,4.557861328125,1.3220489501953123,9.6265380859375
10.1,6.061447143554688,0.29727783203125,2.2741455078125004
10.11,8.007211303710939,-0.9619659423828124,2.659051513671875
10.119999999999996,13.482028198242189,-1.6288970947265626,6.426614379882813
10.129999999999995,7.255792236328125,0.241351318359375,5.97666015625
10.14,6.369342041015625,0.3351104736328125,1.9535400390625
10.150999999999996,11.195022583007812,-1.691552734375,6.183917236328125
10.161,12.687243652343753,-1.22021484375,9.107647705078126
10.171,8.190093994140625,0.1329376220703125,0.8915344238281251
10.180999999999996,4.208096313476563,0.8327667236328126,2.1977325439453126
10.190999999999995,6.7147705078125,1.4045928955078126,6.575851440429688
10.201,5.036526489257813,0.5802001953125,8.11981201171875
10.211,3.198727416992188,0.7334747314453125,4.3742309570312505
10.220999999999997,9.242828369140623,1.5779052734375,8.190393066406251
10.231000000000002,9.19647216796875,1.34163818359375,11.325567626953124
10.241,7.820739746093751,0.36068115234375,8.51099853515625
10.250999999999998,7.54678955078125,0.4643096923828125,5.096041870117188
10.260999999999996,6.83798828125,0.302362060546875,8.451483154296875
10.271,4.853643798828125,0.3201568603515625,6.405978393554688
10.281999999999996,7.758383178710938,-0.317315673828125,3.409124755859376
10.290999999999997,8.039361572265626,-0.289202880859375,3.30833740234375
10.302,10.248159790039065,-0.6718658447265625,4.250265502929688
10.311999999999998,10.0966796875,-0.5431152343750001,6.55626220703125
10.321999999999996,6.276480102539063,0.1894622802734375,10.146475219726565
10.332,3.089865112304688,0.0466552734375,5.367001342773438
10.342,7.897900390625001,0.4613189697265625,9.769494628906251
10.351999999999997,1.42178955078125,0.2639312744140625,2.59056396484375
10.362000000000002,7.248913574218751,1.233673095703125,2.377923583984375
10.372,16.03326416015625,0.471337890625,7.586566162109375
10.381999999999998,11.478094482421875,0.7358673095703125,7.955172729492188
10.391999999999996,7.284652709960938,0.2809783935546875,7.017282104492188
10.402,3.583782958984376,-1.23995361328125,12.728964233398438
10.412,3.7864044189453128,0.1658355712890625,11.864495849609376
10.421999999999995,6.676190185546876,1.416107177734375,5.305691528320313
10.432000000000002,6.020025634765625,0.7210632324218751,1.835107421875
10.442,12.464285278320313,-0.22191162109375,4.8497558593750005
10.452999999999996,9.047683715820312,-0.0252716064453125,6.974813842773438
10.463,6.871783447265625,0.578704833984375,2.272650146484376
10.473,8.572009277343751,-0.027813720703125,3.4963043212890628
10.482999999999995,12.0956787109375,0.69923095703125,10.962344360351564
10.493000000000002,2.285360717773438,0.5848358154296875,5.5465942382812505
10.503,6.9387756347656255,1.1028289794921875,2.704061889648438
10.512999999999998,8.405575561523438,0.2452392578125,6.274536132812501
10.522999999999996,8.994747924804688,-0.868206787109375,5.969482421875
10.533,6.342724609375001,-0.9177032470703126,4.4015960693359375
10.543,7.789337158203126,-1.0561737060546876,3.835302734375
10.552999999999995,7.754644775390625,1.465753173828125,15.990945434570314
10.562999999999995,2.288351440429688,-0.375634765625,4.44241943359375
10.573,11.718099975585938,-0.0865814208984375,8.892166137695312
10.583999999999996,6.2045532226562505,0.938787841796875,6.4970458984375
10.592999999999996,6.3765197753906255,0.6471923828125,7.079339599609376
10.604,8.246768188476564,0.288604736328125,3.0536773681640628
10.613999999999995,7.79202880859375,1.140811157226563,3.3029541015625004
10.623999999999995,8.803939819335938,0.8810668945312501,4.268359375
10.634,6.8969055175781255,0.249127197265625,9.2532958984375
10.643999999999998,7.817300415039063,0.0937591552734375,6.823931884765625
10.653999999999996,7.380953979492188,-0.04844970703125,7.836141967773438
10.664,6.669012451171875,-0.129498291015625,7.214968872070313
10.674,4.398754882812501,-0.8121307373046875,6.079391479492188
10.683999999999996,2.730828857421875,-0.2962310791015625,2.421139526367188
10.693999999999996,9.01702880859375,0.45997314453125,3.348861694335938
10.704,15.10718688964844,-0.1819854736328125,9.395803833007813
10.714,11.47525329589844,1.541119384765625,6.210684204101563
10.723999999999997,8.25140380859375,2.07137451171875,7.645184326171876
10.734000000000002,2.492767333984375,0.54072265625,14.488854980468751
10.744999999999996,3.1217163085937503,0.7149322509765625,9.972564697265623
10.754999999999995,6.016287231445313,0.7699615478515626,3.774142456054688
10.765,6.156103515625,-1.125857543945313,1.8663604736328123
10.775,13.575338745117188,-1.568035888671875,6.246124267578126
10.784999999999997,8.641244506835939,0.20396728515625,5.924920654296876
10.795000000000002,7.105807495117188,0.7885040283203125,2.1035247802734376
10.805,10.37466735839844,-0.7437927246093751,5.830862426757813
10.814999999999998,10.87366943359375,-0.5299560546875001,9.582125854492189
10.824999999999996,2.6660797119140627,1.271954345703125,8.758181762695314
10.835,3.3019073486328128,-0.0097198486328125,0.1936492919921875
10.845,11.158685302734376,0.299072265625,5.243185424804688
10.854999999999997,8.178131103515625,0.0180938720703125,5.479153442382813
10.865000000000002,5.1956329345703125,-0.073870849609375,4.172207641601563
10.875,9.347653198242188,0.5132080078125001,5.740243530273438
10.885999999999996,11.78030700683594,0.0082244873046875,7.075601196289063
10.896,8.456567382812501,2.2274902343750003,17.399725341796877
10.906,-1.6806365966796877,0.363671875,5.031890869140625
10.915999999999997,4.9100189208984375,-0.3464752197265625,0.37623291015625
10.926000000000002,15.664358520507813,0.3150726318359375,8.032931518554689
10.936,5.755795288085938,-0.0303558349609375,4.742388916015625
10.945999999999998,6.921578979492188,-0.210546875,2.6597991943359376
10.955999999999996,9.332849121093751,-0.217724609375,6.652114868164063
10.966,6.26915283203125,0.058917236328125,6.955972290039063
10.976,8.855679321289063,0.0124114990234375,7.032235717773438
10.985999999999995,4.843475341796875,0.334661865234375,8.21192626953125
10.997999999999998,2.36865234375,0.5209838867187501,5.343823242187501
11.006,6.400894165039063,0.5923126220703125,4.3402862548828125
11.015999999999998,14.539697265625,0.1045257568359375,7.442413330078126
11.025999999999996,12.159979248046875,1.2637298583984375,5.617623901367188
11.037,9.142788696289063,0.4430755615234375,6.5544677734375005
11.046999999999995,2.1569091796875,-1.374087524414063,12.64283142089844
11.057000000000002,2.295529174804688,-0.5770599365234376,11.713763427734376
11.067,6.415399169921876,1.375732421875,5.669812011718751
11.076999999999998,7.636810302734376,0.690557861328125,2.4072326660156254
11.086999999999996,12.690982055664064,-0.426776123046875,4.070523071289063
11.098,9.81839294433594,-0.124713134765625,7.78245849609375
11.107,6.663479614257813,0.38939208984375,3.407180786132813
11.116999999999996,7.738494873046876,0.1317413330078125,3.976763916015625
11.126999999999995,10.224832153320314,0.7170257568359375,11.943450927734377
11.137,2.134478759765625,0.413616943359375,5.3466644287109375
11.146999999999998,7.778570556640625,1.17176513671875,2.379718017578125
11.156999999999996,8.800650024414063,1.3365539550781251,4.340585327148438
11.168,8.388528442382814,-0.21951904296875,4.745529174804688
11.177999999999995,7.053469848632813,-0.5953033447265625,6.138757324218751
11.187999999999995,7.466937255859375,-1.1092590332031251,5.160940551757813
11.198,12.094033813476564,-0.75784912109375,7.062741088867188
11.207999999999998,9.70474548339844,0.6530242919921876,9.724484252929688
11.217999999999996,0.5115631103515625,0.9855926513671877,8.925811767578125
11.228000000000002,3.396414184570313,-0.091815185546875,0.8519073486328126
11.238,13.390960693359377,0.304754638671875,9.555657958984376
11.247999999999998,6.407623291015626,-0.3321197509765625,6.579290771484375
11.257999999999996,3.879266357421875,0.44681396484375,4.700369262695313
11.268,10.733404541015624,1.2272430419921876,2.9842926025390626
11.278,10.724880981445311,0.4821044921875,6.306686401367188
11.287999999999997,7.651913452148438,0.2881561279296875,8.6934326171875
11.299,3.3928253173828127,0.7775878906250001,6.952383422851563
11.308,7.2169128417968755,-0.2406036376953125,6.987225341796876
11.318999999999996,2.456878662109375,-0.7886535644531251,3.95433349609375
11.329,5.559603881835938,-0.5247222900390626,3.617877197265625
11.339,14.763253784179687,0.423187255859375,6.7243408203125
11.348999999999997,13.310510253906251,0.491973876953125,7.568173217773438
11.359000000000002,7.464245605468751,1.7583953857421877,7.176089477539063
11.369,3.77548828125,0.209051513671875,13.077532958984376
11.378999999999998,2.499197387695313,0.5573211669921876,13.325164794921877
11.388999999999996,5.9219299316406255,1.1391662597656251,4.7076965332031255
11.399,6.955075073242188,-0.4942169189453125,1.67958984375
11.409,11.223583984375,-1.3123291015625,3.663934326171875
11.418999999999995,11.248855590820312,-0.6563140869140626,8.007061767578126
11.429000000000002,6.633273315429688,0.935498046875,3.988427734375
11.439,8.196524047851563,1.1031280517578126,2.748922729492188
11.448999999999998,12.245962524414065,-0.1493865966796875,6.050082397460938
11.458999999999996,7.354187011718751,0.3744384765625,9.109442138671875
11.47,1.3917327880859376,0.3641204833984375,2.8383453369140628
11.479999999999997,8.2962646484375,0.7303344726562501,3.93040771484375
11.490000000000002,9.8466552734375,-0.5734710693359375,7.499536132812499
11.5,6.427810668945313,-0.9864898681640626,5.201016235351563
11.509999999999998,6.459063720703125,-0.342437744140625,2.822344970703125
11.519999999999996,10.77078857421875,1.4546875,10.8587158203125
11.53,3.4062835693359377,0.9966583251953126,13.907458496093753
11.54,6.932046508789063,-0.424981689453125,2.1068145751953127
11.549999999999995,9.726577758789062,0.39776611328125,8.406622314453125
11.560000000000002,4.981945800781251,0.2681182861328125,9.255090332031251
11.57,6.106756591796875,0.544012451171875,4.163235473632813
11.579999999999998,8.503073120117188,1.197784423828125,2.6043212890625003
11.589999999999996,8.244674682617188,-0.1206756591796875,2.1720123291015625
11.601,10.627383422851564,-0.5553771972656251,6.932196044921875
11.610999999999995,9.39371032714844,-0.2435943603515625,7.054815673828125
11.621000000000002,2.9368896484375,0.80091552734375,8.979495239257814
11.631,8.061941528320313,-0.10826416015625,5.249017333984376
11.640999999999998,7.12449951171875,-0.1469940185546875,9.278717041015623
11.650999999999996,0.0841888427734375,-0.2328277587890625,1.3253387451171876
11.661,6.656002807617188,0.346026611328125,2.5264129638671875
11.671,16.666400146484378,-0.152227783203125,10.642935180664065
11.680999999999996,11.844308471679687,-0.381317138671875,5.962454223632813
11.690999999999995,8.2125244140625,-0.1577606201171875,8.247067260742188
11.701,3.4657989501953126,-0.4487579345703125,14.117706298828129
11.711,3.213980102539063,0.901104736328125,10.581924438476562
11.720999999999997,5.7125793457031255,1.3923309326171875,3.872686767578125
11.731000000000002,6.726135253906251,1.3370025634765623,1.7341705322265626
11.741,11.433831787109376,1.849612426757813,4.158599853515625
11.751999999999995,10.154251098632812,0.8993103027343751,6.480895996093751
11.762,7.093096923828125,0.8855529785156251,2.654415893554688
11.771999999999998,9.740036010742188,0.4702911376953125,4.829119873046875
11.781999999999996,8.801995849609376,0.058917236328125,13.71829528808594
11.792000000000002,2.53673095703125,-0.0871795654296875,4.167422485351563
11.802,8.967083740234376,0.6033782958984375,4.8270263671875
11.811999999999998,7.000384521484375,-0.8478698730468751,3.314617919921876
11.821999999999996,9.023458862304688,-0.7917938232421876,5.57291259765625
11.832,6.3211914062500005,-0.9346008300781252,5.764169311523438
11.842,6.6645263671875,-1.149783325195313,3.295028686523438
11.851999999999997,12.308319091796877,-0.5894714355468751,9.30997009277344
11.862000000000002,4.211984252929688,1.10955810546875,16.453909301757815
11.872,1.3286285400390625,-0.13817138671875,0.7158294677734376
11.882999999999996,12.795358276367187,0.8284301757812501,6.611740112304688
11.893,9.604107666015626,1.2451873779296876,6.742135620117188
11.903,5.9563232421875005,0.7422973632812501,2.5474975585937503
11.912999999999997,6.84696044921875,1.3414886474609375,4.831512451171875
11.923000000000002,5.467190551757813,1.062603759765625,6.329415893554688
11.933,10.891165161132813,0.2555572509765625,7.712475585937501
11.942999999999998,7.346261596679688,-0.2241546630859375,7.054965209960938
11.952999999999996,6.989767456054688,-0.095703125,6.993057250976563
11.963,7.229922485351563,-1.1950927734375,8.908166503906251
11.973,4.586422729492188,-1.2568511962890625,6.604861450195313
11.982999999999995,3.247177124023438,-0.4643096923828125,2.3224456787109378
11.993000000000002,4.477410888671876,-0.5643493652343751,1.68916015625
12.003,15.79026794433594,-0.189013671875,7.01982421875
12.012999999999998,14.36070251464844,1.3432830810546876,8.768350219726564
12.022999999999996,8.47391357421875,2.5219268798828125,5.961407470703126
12.033,3.9924652099609377,2.064645385742188,14.076882934570314
12.043999999999995,1.7966766357421875,1.3147216796875,13.754632568359376
12.054000000000002,5.102621459960938,0.9531433105468752,4.978656005859375
12.064,5.663381958007813,-0.140863037109375,1.4117706298828123
12.073999999999998,11.380148315429688,-0.94207763671875,3.755450439453125
12.083999999999996,10.820584106445311,-0.6630432128906251,7.573556518554688
12.094,6.71177978515625,0.704315185546875,3.0663879394531253
12.104,7.912255859375,-0.4888336181640625,2.79034423828125
12.113999999999995,13.7345947265625,-1.6232147216796875,9.845758056640626
12.123999999999995,10.168307495117189,-0.5224792480468751,5.044302368164063
12.134,4.220059204101563,0.055029296875,2.7194641113281253
12.143999999999998,4.164132690429688,0.3659149169921875,2.261434936523438
12.153999999999996,11.051467895507812,0.3349609375,8.335742187500001
12.164,2.3447265625,0.420794677734375,6.8385864257812505
12.174,3.266915893554688,0.4218414306640625,3.270803833007813
12.185000000000002,11.857168579101565,2.3245391845703125,12.976296997070314
12.195,7.0299926757812505,0.8614776611328125,10.926754760742188
12.204999999999998,8.316152954101563,0.4379913330078125,5.8008056640625005
12.214999999999996,7.27164306640625,1.0998382568359375,5.934939575195313
12.225,6.390426635742188,0.54072265625,7.643688964843751
12.235,6.538916015625,0.05084228515625,4.415802001953125
12.244999999999996,7.462600708007813,-0.087628173828125,2.9938629150390628
12.254999999999995,8.89261474609375,-0.4673004150390625,3.44710693359375
12.265,10.1732421875,-1.2970764160156252,5.852545166015625
12.275,6.852194213867188,-0.5333953857421876,10.0739501953125
12.284999999999997,4.885794067382813,0.1780975341796875,5.9874267578125
12.295000000000002,5.50592041015625,-0.3656158447265625,7.459161376953125
12.305,2.746978759765625,-0.140264892578125,4.1810302734375
12.315999999999995,11.24930419921875,1.06170654296875,5.67998046875
12.326,13.700949096679688,0.7357177734375,7.098629760742188
12.336,9.8394775390625,0.5268157958984375,5.005871582031251
12.345999999999997,6.406875610351563,-0.6119018554687501,9.956414794921876
12.356000000000002,1.744937133789063,-0.7603912353515625,13.096524047851563
12.366,5.433096313476563,1.577008056640625,9.026898193359376
12.375999999999998,6.798660278320313,1.4540893554687502,3.093304443359376
12.385999999999996,10.31006774902344,1.4914733886718752,2.7004730224609377
12.396,11.899038696289065,0.9826019287109377,5.959014892578125
12.406,7.112686157226563,-0.094805908203125,5.547341918945313
12.415999999999997,7.027450561523438,0.3443817138671875,3.3671051025390626
12.426000000000002,6.159841918945313,0.385504150390625,10.438369750976562
12.436,7.586416625976563,-0.4595245361328125,5.0819854736328125
12.445999999999998,10.511492919921876,0.28052978515625,6.57420654296875
12.455999999999996,5.160641479492188,0.0825439453125,1.0225280761718751
12.467,9.47266540527344,-0.6099578857421876,5.130734252929688
12.476999999999997,8.233758544921876,-0.784466552734375,7.709484863281251
12.487000000000002,5.3182525634765625,-0.635528564453125,6.776379394531251
12.497999999999998,2.660397338867188,-0.0037384033203125,6.504672241210938
12.506999999999998,11.524899291992188,0.2978759765625,10.312460327148438
12.516999999999996,8.563934326171875,0.1662841796875,8.646777343750001
12.527,4.9922637939453125,1.3058990478515626,4.933197021484375
12.537,7.572509765625001,1.597344970703125,7.652960205078125
12.546999999999995,6.828717041015626,0.3983642578125,5.591006469726563
12.557000000000002,7.5760986328125,1.071575927734375,3.2862060546875003
12.567,8.547634887695313,0.9724334716796876,3.4290130615234378
12.576999999999998,9.669903564453126,-0.20755615234375,5.884695434570313
12.586999999999996,6.02630615234375,-0.3704010009765625,9.548330688476565
12.598999999999997,7.350598144531251,-0.061907958984375,6.182122802734376
12.607,5.417544555664063,-1.0965484619140626,6.8535400390625005
12.618000000000002,2.9095245361328126,-0.8605804443359376,4.177441406250001
12.628,7.1191162109375,-0.2292388916015625,3.7472259521484377
12.637999999999998,14.149108886718752,0.5710784912109376,8.043399047851564
12.647999999999996,12.220541381835938,1.6653839111328126,7.66282958984375
12.658,8.352490234375,1.2081024169921877,6.543402099609375
12.668,3.198876953125,0.2213134765625,13.193722534179688
12.677999999999995,2.572918701171876,0.8922821044921876,11.424560546875
12.687999999999995,5.294476318359376,0.9571807861328124,3.879864501953125
12.698,7.0808349609375005,-0.2860626220703125,2.439382934570313
12.707999999999998,12.044387817382812,-1.215728759765625,4.276434326171875
12.717999999999996,11.163171386718751,-0.2184722900390625,8.100521850585938
12.728000000000002,6.911410522460938,0.9654052734375,3.344375610351563
12.738,8.457015991210938,0.4035980224609375,3.686813354492188
12.747999999999998,11.599816894531251,-0.4104766845703125,8.603561401367188
12.757999999999996,3.261383056640625,0.7343719482421875,9.7509521484375
12.768999999999998,3.4737243652343754,0.019140625,0.7161285400390626
12.778999999999996,9.504965209960938,0.308343505859375,4.4684387207031255
12.789,8.373724365234375,-0.32838134765625,5.80260009765625
12.799,7.45108642578125,-0.82364501953125,6.666171264648438
12.808999999999996,6.451437377929688,-0.05562744140625,2.79991455078125
12.818999999999996,12.350189208984377,0.2651275634765625,6.423773193359375
12.829,12.424060058593753,-0.353204345703125,9.847702026367188
12.839,2.7426422119140628,2.7064544677734377,16.272821044921876
12.848999999999997,-1.4681457519531251,-0.03828125,0.082843017578125
12.859000000000002,7.909115600585938,-0.0157012939453125,2.54271240234375
12.869,14.874359130859377,0.6163879394531251,8.42008056640625
12.878999999999998,4.911215209960938,0.259893798828125,4.59195556640625
12.888999999999996,7.101022338867188,0.3162689208984375,3.065789794921875
12.9,9.389971923828126,0.1710693359375,7.693484497070313
12.909999999999997,7.088909912109376,-0.4251312255859375,8.577841186523438
12.920000000000002,7.314410400390625,0.1039276123046875,7.073507690429688
12.93,4.842428588867188,-0.2208648681640625,6.726882934570313
12.939999999999998,2.864215087890625,-0.07835693359375,3.745880126953125
12.949999999999996,7.6598388671875,0.768017578125,2.8389434814453125
12.96,14.3590576171875,0.243743896484375,7.739242553710938
12.97,11.925955200195313,-0.2624359130859375,7.398748779296875
12.979999999999997,8.017529296875,-0.12740478515625,7.886685180664063
12.990000000000002,2.9214874267578126,-0.7923919677734376,12.944445800781253
13.0,2.715426635742188,0.590069580078125,12.132913208007814
13.009999999999998,6.718807983398438,1.7048614501953123,5.288046264648438
13.019999999999996,7.348953247070313,1.0579681396484375,2.123114013671876
13.03,11.615518188476564,1.5438110351562502,3.4556304931640627
13.04,9.970620727539064,0.8015136718750001,6.6322265625000005
13.051000000000002,6.430801391601563,0.7681671142578126,3.41600341796875
13.061,8.924017333984375,0.7786346435546876,4.484140014648438
13.070999999999998,10.758526611328126,-0.1526763916015625,8.499484252929689
13.080999999999996,3.2389526367187504,0.1463958740234375,8.19278564453125
13.091,6.242535400390626,0.4643096923828125,2.3296234130859377
13.101,9.302194213867187,-0.27694091796875,5.273989868164063
13.110999999999995,7.998538208007813,-0.6986328125000001,4.35867919921875
13.121000000000002,6.959860229492188,-0.578106689453125,6.115130615234375
13.131,6.967785644531251,-0.9849945068359376,5.7773284912109375
13.140999999999998,10.660430908203123,-0.441131591796875,7.319943237304688
13.150999999999996,3.916949462890625,-0.4472625732421875,13.512384033203126
13.161,5.124603271484375,0.210845947265625,2.7875030517578128
13.171,11.813952636718753,1.4702392578125,8.366845703125001
13.180999999999996,6.857727050781251,1.097894287109375,3.856686401367188
13.192,6.878063964843751,0.724951171875,7.510302734375
13.201999999999998,3.507220458984375,1.2350189208984377,4.759884643554688
13.211999999999996,10.256832885742188,1.1518768310546876,2.8966644287109378
13.222,11.044140625,0.5746673583984375,6.64359130859375
13.232,8.2986572265625,-0.2172760009765625,7.021618652343751
13.241999999999996,3.4405273437500004,0.003887939453125,8.302096557617189
13.251999999999995,8.027847290039062,-0.752166748046875,7.245474243164063
13.262,6.284555053710938,-1.1789428710937502,6.961355590820313
13.271999999999998,2.337698364257813,-0.7541107177734375,2.214181518554688
13.281999999999996,5.3765716552734375,-0.7840179443359375,2.4610656738281254
13.292000000000002,15.131411743164064,-0.5429656982421875,7.018179321289063
13.302,12.4569580078125,0.8417388916015626,10.20853271484375
13.311999999999998,8.757434082031251,2.3059967041015628,6.4013427734375
13.321999999999996,5.010955810546875,2.13836669921875,12.896594238281253
13.332,2.1803863525390628,0.66693115234375,13.181011962890626
13.342,5.2464752197265625,1.1855224609375,5.058358764648438
13.353000000000002,5.681475830078125,0.036187744140625,1.5369323730468751
13.363,11.0501220703125,-0.8450286865234375,3.9426696777343753
13.372999999999998,11.254388427734376,-0.4629638671875,6.9567199707031255
13.382999999999996,6.825277709960938,0.99471435546875,2.9923675537109378
13.393,8.462997436523438,-0.39178466796875,3.218914794921876
13.403,13.061233520507814,-1.1988311767578126,9.45068359375
13.415,7.037020874023438,0.514404296875,10.01578063964844
13.423000000000002,0.0414215087890625,-0.374737548828125,1.2765899658203126
13.433,8.394210815429688,0.023028564453125,2.93270263671875
13.442999999999998,10.975503540039064,-0.02572021484375,6.90318603515625
13.452999999999996,5.9373321533203125,-0.4732818603515625,5.1548095703125005
13.463,6.178982543945313,-0.2923431396484375,4.04046630859375
13.473,11.9425537109375,1.6543182373046876,7.781411743164063
13.482999999999995,6.001931762695313,2.5667877197265625,17.436660766601562
13.494,-0.6572113037109375,0.1637420654296875,2.626303100585938
13.503999999999998,10.772882080078126,0.18662109375,5.516687011718751
13.515,12.446490478515626,0.9855926513671877,9.301596069335938
13.524,5.479901123046876,0.0791046142578125,1.7642272949218751
13.534,6.905877685546876,0.063702392578125,2.4262237548828125
13.543999999999995,6.767407226562501,-0.2723052978515625,7.674493408203125
13.554000000000002,8.800500488281251,-0.758148193359375,5.756991577148438
13.564,8.283255004882813,-0.9510498046875,8.240786743164064
13.573999999999998,6.581533813476563,-0.185723876953125,7.197174072265626
13.583999999999996,4.629489135742188,0.23865966796875,6.822735595703126
13.594,3.230728149414063,0.17884521484375,4.148431396484376
13.604,8.908316040039063,0.6552673339843751,4.671658325195313
13.615000000000002,13.473953247070314,0.9604705810546876,7.779318237304688
13.625,11.220742797851564,0.5793029785156251,5.104714965820313
13.634999999999998,7.56533203125,-0.1637420654296875,8.160186767578125
13.644999999999996,2.4954589843750004,-0.26497802734375,13.28105163574219
13.655,4.239797973632813,1.20645751953125,10.337731933593751
13.665,7.21123046875,1.47083740234375,4.117178344726563
13.674999999999995,8.160485839843751,1.0472015380859376,2.556170654296875
13.685000000000002,12.3588623046875,0.039776611328125,5.656802368164063
13.695,7.83389892578125,-0.2848663330078125,6.04783935546875
13.704999999999998,6.615328979492188,0.119927978515625,2.4550842285156254
13.714999999999996,8.196524047851563,0.5344421386718751,9.458010864257814
13.725,4.748669433593751,-0.313726806640625,7.185061645507813
13.735,10.690338134765623,0.232379150390625,5.13028564453125
13.744999999999996,6.9013916015625005,0.435150146484375,3.6157836914062496
13.754999999999995,7.83988037109375,-0.346026611328125,2.717071533203125
13.765,9.380999755859376,-0.5160491943359375,7.655203247070313
13.775,6.211132812500001,-0.420196533203125,4.643994140625001
13.786,4.6169281005859375,0.665435791015625,9.74317626953125
13.796,5.063592529296876,0.5627044677734375,6.890026855468751
13.805999999999996,12.429891967773438,0.1855743408203125,11.412149047851564
13.815999999999995,5.3750762939453125,0.4699920654296875,4.178338623046876
13.826,6.862661743164063,1.2429443359375,7.954425048828125
13.836,7.08023681640625,0.3887939453125,6.222497558593751
13.845999999999997,7.032684326171876,0.2522674560546875,3.278729248046876
13.856000000000002,8.35308837890625,0.9064880371093752,3.115585327148438
13.866,8.84296875,-0.0779083251953125,7.290484619140625
13.875999999999998,7.656997680664063,-0.5682373046875,7.099826049804688
13.885999999999996,7.648175048828126,0.5962005615234376,7.353738403320313
13.896,6.752453613281251,-0.2824737548828125,7.555313110351563
13.906,5.1213134765625,-0.93848876953125,7.308129882812499
13.917000000000002,3.0783508300781253,-0.7895507812500001,4.151272583007813
13.927,5.505023193359375,-0.517095947265625,2.342034912109375
13.936999999999998,14.36967468261719,0.9374420166015626,6.271246337890625
13.946999999999996,12.165960693359375,0.7179229736328125,7.434786987304688
13.957,9.799551391601565,2.1690216064453125,6.616226196289063
13.967,4.510757446289063,1.2970764160156252,13.691976928710938
13.976999999999997,2.618377685546875,0.9796112060546877,12.302487182617188
13.987000000000002,5.669812011718751,1.212588500976563,5.661288452148438
13.997,6.588711547851563,-0.3210540771484375,2.023822021484375
14.006999999999998,10.701553344726562,-1.0228271484375,3.919790649414063
14.016999999999996,10.070211791992188,0.1801910400390625,6.6645263671875
14.027,6.705349731445313,1.21124267578125,2.918197631835937
14.037,8.067623901367188,-0.4053924560546875,3.703262329101563
14.046999999999995,12.593035888671876,-1.3186096191406251,9.22039794921875
14.057000000000002,5.621661376953125,0.3829620361328125,11.484674072265626
14.067999999999998,1.82374267578125,-0.1096099853515625,0.9317596435546877
14.077999999999996,10.873818969726564,0.314923095703125,3.9905212402343753
14.088,8.764462280273438,0.0584686279296875,5.513247680664063
14.098,5.662933349609375,-0.6462951660156251,5.213726806640626
14.107999999999995,6.910214233398438,-0.6186309814453126,4.954879760742188
14.118000000000002,11.5286376953125,0.4768707275390625,5.964697265625
14.128,7.536322021484375,2.5893676757812503,18.48251647949219
14.137999999999998,-1.0020416259765623,0.0287109375,2.657855224609375
14.147999999999996,9.532928466796877,0.2211639404296875,3.142202758789063
14.158,13.196414184570314,0.975872802734375,8.840277099609375
14.168,5.442517089843751,0.4445709228515625,3.2268402099609377
14.177999999999995,5.06448974609375,0.42169189453125,7.834945678710938
14.187999999999995,7.447946166992188,0.2050140380859375,2.5922088623046875
14.198,11.115319824218751,-0.557171630859375,5.693438720703125
14.207999999999998,8.170205688476564,-0.5360870361328125,8.227029418945314
14.219,4.302902221679688,-0.2905487060546875,8.297311401367189
14.229,6.966140747070313,-0.3841583251953125,6.92412109375
14.238999999999995,3.1936431884765626,-0.6246124267578126,5.345767211914063
14.248999999999995,4.793081665039063,0.052935791015625,2.946160888671875
14.259,13.360903930664064,1.1725128173828123,5.5380706787109375
14.268999999999998,13.200601196289064,-0.47313232421875,7.692288208007813
14.278999999999996,9.393411254882814,-0.2672210693359375,5.817852783203126
14.289,4.868447875976563,0.0737213134765625,12.013433837890624
14.299,1.705010986328125,0.6948944091796876,13.403372192382813
14.308999999999996,6.481344604492188,2.1289459228515626,7.019973754882813
14.318999999999996,6.144290161132813,1.2931884765625,2.032345581054688
14.329,10.780209350585938,1.696636962890625,3.558062744140625
14.339999999999996,11.043692016601565,1.380517578125,6.255993652343751
14.35,7.51748046875,0.615789794921875,4.510458374023438
14.36,7.368392944335938,0.466851806640625,4.361669921875
14.369999999999996,4.720257568359376,-0.7479797363281251,8.318695068359375
14.379999999999995,11.789129638671875,-0.5782562255859376,8.223440551757813
14.39,6.6681152343750005,0.1900604248046875,3.272747802734376
14.4,6.678134155273438,0.15970458984375,1.7015716552734377
14.409999999999997,9.191238403320312,-1.0289581298828123,6.086270141601563
14.420000000000002,7.771392822265626,-0.6335845947265626,6.276480102539063
14.43,5.110696411132813,-0.9523956298828126,7.038217163085938
14.439999999999998,3.830816650390626,-0.8619262695312501,7.819094848632813
14.449999999999996,11.16556396484375,0.852056884765625,12.296954345703126
14.46,6.957766723632813,0.3309234619140625,7.016235351562501
14.47,5.993856811523438,2.1904052734375004,5.5705200195312505
14.479999999999997,7.752700805664063,1.3882934570312502,7.432095336914063
14.490000000000002,6.612637329101563,0.5917144775390626,5.07047119140625
14.500999999999998,7.542901611328125,1.547998046875,2.988180541992188
14.510999999999996,8.64019775390625,0.7497741699218751,3.0592102050781254
14.521,9.749905395507811,-0.260791015625,5.989669799804688
14.531,6.407772827148438,-0.38580322265625,10.13675537109375
14.540999999999997,7.04434814453125,-0.7240539550781251,5.936135864257813
14.551000000000002,7.746719360351563,-1.1333343505859377,8.346807861328125
14.561,4.43643798828125,-1.3404418945312502,6.626992797851563
14.570999999999998,2.6796875,-0.6178833007812501,2.6885101318359377
14.580999999999996,5.809478759765625,-0.437542724609375,2.1121978759765625
14.591,15.953411865234376,0.6198272705078125,8.635263061523439
14.601,12.979586791992189,1.6057189941406251,7.785000610351563
14.610999999999995,9.472366333007812,2.2410980224609376,6.404632568359376
14.621000000000002,3.1374176025390628,1.1900085449218751,14.644970703125
14.631,1.5901672363281252,1.2581970214843752,11.912796020507812
14.641999999999996,5.104714965820313,1.0343414306640626,4.12779541015625
14.652,5.810525512695313,0.0761138916015625,1.831369018554688
14.662,11.629724121093751,-0.5199371337890626,4.683920288085938
14.671999999999995,11.844906616210938,-0.199481201171875,6.845166015625001
14.682000000000002,6.675442504882813,1.227691650390625,3.3878906250000003
14.692,8.368640136718751,-0.7781860351562501,3.4898742675781254
14.701999999999998,12.93472595214844,-1.6082611083984375,9.1312744140625
14.711999999999996,8.30523681640625,-0.454290771484375,9.190191650390624
14.722,0.3195587158203125,-0.06041259765625,2.995358276367188
14.732,6.207843017578125,-0.5232269287109376,0.6358276367187501
14.741999999999996,11.73843688964844,0.17286376953125,5.3357482910156255
14.751999999999995,6.0176330566406255,0.1081146240234375,5.9458557128906255
14.762,6.075503540039063,-0.0910675048828125,5.716766357421875
14.771999999999998,10.779162597656253,1.5119598388671875,7.661633300781251
14.781999999999996,5.53343505859375,2.2828186035156253,16.51222839355469
14.793,3.246728515625,-0.020635986328125,1.29498291015625
14.802999999999995,12.427947998046877,1.09639892578125,8.582476806640626
14.812999999999995,7.5402099609375,0.85953369140625,4.827474975585938
14.823,6.173748779296876,0.0530853271484375,7.044049072265626
14.832999999999998,3.136221313476563,0.448907470703125,4.642648315429688
14.842999999999996,10.052566528320312,-0.4486083984375,2.358184814453125
14.853000000000002,11.0931884765625,-1.257598876953125,7.034030151367188
14.863,9.103012084960938,-1.0132568359375,5.9044342041015625
14.872999999999998,4.985684204101563,0.198883056640625,11.40960693359375
14.882999999999996,5.90667724609375,-0.451300048828125,5.535977172851563
14.893,6.498690795898438,-0.2537628173828125,7.475460815429688
14.903,0.9751251220703124,0.6697723388671876,2.6832763671875
14.915,5.523266601562501,1.023126220703125,2.154815673828125
14.924,15.90092468261719,0.3566436767578125,6.100924682617188
14.933999999999996,14.73648681640625,1.271954345703125,8.509054565429688
14.943999999999996,8.820538330078126,0.7493255615234375,7.154257202148438
14.954,3.5944000244140626,-0.3548492431640625,13.635153198242188
14.964,2.547946166992188,-0.016748046875,13.323818969726563
14.973999999999997,4.989273071289063,1.3005157470703126,4.503729248046875
14.984000000000002,5.0351806640625005,0.8776275634765626,1.8896881103515624
14.994,10.736993408203126,0.8258880615234375,4.018933105468751
15.003999999999998,11.328408813476564,-0.4972076416015625,6.480746459960938
15.015,7.179080200195313,-0.2062103271484375,3.454583740234375
15.024,8.495596313476563,-0.4251312255859375,3.5081176757812504
15.034,13.231704711914064,-0.6338836669921876,9.656295776367188
15.043999999999995,5.3062896728515625,1.206158447265625,11.380596923828126
15.054000000000002,1.2849639892578126,-0.034393310546875,-0.0680389404296875
15.064,8.907418823242189,1.059014892578125,3.2060546875000004
15.074999999999996,9.714465332031253,0.303558349609375,5.8097778320312505
15.085,6.295172119140625,-0.4568328857421875,5.093798828125
15.095,6.584225463867188,-0.84876708984375,4.925421142578125
15.104999999999997,11.549124145507813,-0.9897796630859376,7.069320678710938
15.115000000000002,11.205938720703124,0.8007659912109376,9.7605224609375
15.125,2.116683959960937,2.1407592773437503,15.130215454101563
15.134999999999998,0.0958526611328125,0.172564697265625,0.0180938720703125
15.144999999999996,12.719842529296876,0.0363372802734375,6.914102172851563
15.155,10.163970947265623,0.3506622314453125,6.2434326171875005
15.165,4.5103088378906255,-0.1084136962890625,1.398162841796875
15.176000000000002,9.460403442382812,0.98394775390625,3.179885864257813
15.186,10.346255493164064,-0.1045257568359375,5.439526367187501
15.195,7.4651428222656255,-0.1419097900390625,10.918380737304688
15.205999999999996,3.6953369140625,0.2112945556640625,6.8140625
15.216,9.443804931640626,0.0363372802734375,9.549526977539063
15.226,2.1071136474609378,-0.57242431640625,5.2943267822265625
15.235999999999995,2.07855224609375,0.115740966796875,2.2111907958984376
15.246000000000002,9.754840087890626,0.6383697509765626,3.854742431640626
15.256,17.724966430664065,0.5740692138671876,8.872427368164063
15.265999999999998,11.113226318359375,2.3414367675781254,5.923126220703125
15.275999999999996,7.005020141601563,1.7871063232421875,8.691339111328126
15.286,1.311431884765625,0.265875244140625,14.457452392578126
15.296,3.045602416992188,0.4451690673828125,9.755288696289064
15.305999999999996,6.36844482421875,0.157611083984375,3.223251342773438
15.315999999999995,6.467886352539063,-1.0104156494140626,1.5013427734375
15.326,13.853027343750002,-1.3896392822265626,7.00845947265625
15.336,8.826968383789064,-1.0875762939453126,7.549481201171876
15.345999999999997,6.3056396484375,-0.40673828125,1.7891998291015627
15.356000000000002,9.768148803710938,-0.9366943359375,4.663583374023438
15.366999999999996,13.801138305664065,-1.8509582519531247,9.674539184570314
15.376999999999995,7.407870483398438,0.28411865234375,4.885195922851563
15.387,2.5415161132812503,1.666131591796875,3.714477539062501
15.396999999999998,5.677737426757813,0.8424865722656251,0.7245025634765625
15.406999999999996,10.817593383789063,1.8475189208984373,8.796612548828126
15.417000000000002,2.4985992431640627,1.4527435302734375,6.350350952148438
15.427,4.5135986328125,0.6521270751953125,1.919894409179688
15.436999999999998,13.29794921875,2.455831909179688,15.212609863281251
15.446999999999996,6.46654052734375,-0.261090087890625,8.251702880859376
15.457,6.6755920410156255,-0.696539306640625,6.0106048583984375
15.467,7.895358276367188,-0.087628173828125,7.492208862304688
15.476999999999997,5.480947875976563,-0.3557464599609375,8.747265625
15.487000000000002,6.475811767578126,0.082843017578125,2.0540283203125003
15.497999999999998,8.117568969726562,-0.25062255859375,3.07027587890625
15.506999999999998,9.760821533203126,-0.4031494140625,3.976913452148438
15.518,10.614971923828126,-0.4227386474609375,7.0856201171875
15.528,5.893368530273438,0.6282012939453125,10.324871826171876
15.537999999999997,5.4348907470703125,1.0787536621093752,4.884896850585938
15.548000000000002,8.314358520507813,0.32838134765625,9.990359497070314
15.558,2.0727203369140628,0.9455169677734376,5.379861450195313
15.567999999999998,3.0785003662109376,0.9033477783203124,1.5758117675781251
15.577999999999996,8.938821411132814,0.8554962158203125,2.8287750244140626
15.588,17.47225036621094,-0.01614990234375,8.646926879882812
15.598,11.666958618164063,0.5224792480468751,7.593444824218751
15.607999999999995,7.683166503906251,-0.3626251220703125,8.017828369140625
15.618000000000002,2.3828582763671875,-1.2895996093750002,13.817138671875002
15.628,2.7049591064453127,-0.6694732666015626,10.127334594726562
15.637999999999998,5.98204345703125,0.6919036865234376,4.4753173828125
15.647999999999996,4.793081665039063,0.2612396240234375,1.729983520507813
15.658,13.794558715820314,0.4628143310546875,5.542257690429688
15.668999999999995,9.819888305664064,0.6548187255859376,7.534527587890626
15.679000000000002,6.970925903320313,0.612799072265625,1.8549957275390627
15.689,8.879306030273439,-0.0201873779296875,4.006222534179688
15.698999999999998,14.191726684570314,-0.7026702880859376,10.5835693359375
15.708999999999996,4.288098144531251,2.2862579345703127,14.992791748046876
15.719,-1.0166961669921877,0.079254150390625,-0.5746673583984375
15.729,8.237945556640625,0.1347320556640625,0.0629547119140625
15.738999999999995,10.972512817382814,0.482403564453125,4.0207275390625
15.748999999999995,5.938229370117188,-0.0814971923828125,7.042105102539063
15.760999999999996,8.192187500000001,-0.5573211669921876,5.8251800537109375
15.768999999999998,12.693374633789064,-0.8886932373046875,3.756048583984376
15.778999999999996,9.91544189453125,0.14176025390625,10.66895446777344
15.79,1.222607421875,1.0763610839843751,8.910858154296875
15.799999999999995,3.834106445312501,-0.5802001953125,2.603872680664063
15.810000000000002,13.463336181640626,0.3536529541015625,11.22403259277344
15.82,6.375323486328125,-0.185125732421875,3.321646118164063
15.829999999999998,4.0008392333984375,1.03060302734375,4.32159423828125
15.839999999999996,8.704348754882814,1.80220947265625,4.36466064453125
15.85,10.6003173828125,0.8691040039062501,9.3657470703125
15.86,5.689401245117188,0.23387451171875,7.341326904296875
15.869999999999996,7.594342041015626,0.4424774169921875,7.954873657226563
15.879999999999995,6.829315185546876,-0.8167663574218751,9.0283935546875
15.89,6.0592041015625,-0.6273040771484375,7.050628662109376
15.9,5.013348388671876,-0.2507720947265625,3.3343566894531254
15.909999999999997,1.8916320800781248,-0.5531341552734376,0.581396484375
15.920000000000002,8.818893432617188,-0.9625640869140626,4.193890380859376
15.932000000000002,16.82520751953125,-0.8593841552734376,10.866641235351564
15.940999999999995,11.499478149414063,1.421490478515625,4.119869995117188
15.951,9.780111694335938,1.9634094238281248,10.726974487304688
15.961,1.26148681640625,1.2887023925781251,15.734640502929688
15.970999999999997,3.090164184570313,1.143353271484375,8.748910522460939
15.981000000000002,4.8741302490234375,0.7870086669921875,2.5102630615234376
15.991,6.193936157226563,-0.1834808349609375,1.8932769775390623
16.000999999999998,13.558889770507813,-0.9924713134765626,5.9149017333984375
16.010999999999996,8.576196289062501,0.4634124755859375,5.7338134765625
16.021,6.917391967773438,1.158755493164063,2.0929077148437503
16.031999999999996,11.342315673828123,-0.2047149658203125,5.93778076171875
16.040999999999997,12.62802734375,-1.1614471435546876,10.191036987304688
16.051000000000002,4.444363403320313,0.441131591796875,9.269595336914064
16.061,-0.200079345703125,-0.4852447509765625,0.095404052734375
16.070999999999998,10.313806152343751,-0.1272552490234375,3.0387237548828128
16.082,10.020864868164065,0.1613494873046875,5.345468139648438
16.092,5.02142333984375,-0.21533203125,5.980548095703125
16.101999999999997,7.240240478515625,0.003289794921875,5.576501464843751
16.112000000000002,12.23026123046875,1.224551391601563,7.911209106445313
16.122,3.855938720703125,1.666729736328125,16.779898071289065
16.131999999999998,1.6386169433593751,-0.1362274169921875,0.99471435546875
16.141999999999996,13.745062255859375,0.460272216796875,8.780014038085938
16.152,8.532830810546876,1.0914642333984377,5.7758331298828125
16.162,5.6158294677734375,0.1864715576171875,1.550540161132813
16.171999999999997,7.273287963867188,0.2896514892578125,3.343927001953125
16.182000000000002,6.675143432617188,-0.3781768798828125,8.33514404296875
16.192,9.243426513671876,-0.766522216796875,5.902191162109375
16.201999999999998,8.641693115234375,-0.1918548583984375,8.557952880859375
16.211999999999996,6.207244873046876,-0.39537353515625,7.351644897460938
16.222,5.4434143066406255,-0.2775390625,7.445254516601563
16.232,2.7378570556640627,0.0823944091796875,4.578198242187501
16.243000000000002,4.37901611328125,0.5887237548828126,3.091061401367188
16.253,15.151599121093753,0.3958221435546875,5.1627349853515625
16.262999999999998,14.206829833984376,0.4780670166015625,6.857427978515625
16.272999999999996,8.865399169921876,-0.0973480224609375,7.216464233398438
16.283,3.034536743164063,-0.4801605224609375,13.38587646484375
16.293,1.9420257568359376,0.4403839111328125,13.240228271484376
16.302999999999997,6.390725708007813,1.6749542236328123,6.1297851562500005
16.312999999999995,6.408819580078125,1.09639892578125,2.2517150878906254
16.323,11.37955017089844,1.1728118896484376,3.7910400390625
16.333,10.3778076171875,0.4302154541015625,6.395510864257813
16.342999999999996,6.875820922851563,-0.13218994140625,3.877471923828125
16.354,7.25968017578125,-0.4302154541015625,3.4287139892578127
16.363999999999997,12.22427978515625,-0.0913665771484375,8.771340942382814
16.373999999999995,5.012899780273438,0.6814361572265626,9.434533691406251
16.384,3.320150756835938,0.146246337890625,0.4981048583984375
16.394,10.347152709960938,0.91934814453125,4.674948120117188
16.403999999999996,8.315106201171876,-0.8484680175781251,5.9448089599609375
16.414,6.864157104492188,-0.450701904296875,5.272195434570313
16.424,7.08023681640625,-0.7177734375,4.205105590820313
16.433999999999997,11.64527587890625,-1.0253692626953126,8.800650024414063
16.443999999999996,8.464791870117189,0.8777770996093751,10.231411743164063
16.454,0.6933990478515626,1.3310211181640623,9.744522094726562
16.464,3.84666748046875,0.227294921875,0.442626953125
16.473999999999997,14.283242797851564,1.035986328125,10.522409057617187
16.484,7.244577026367188,0.4571319580078125,4.821493530273438
16.494,6.394015502929688,0.1724151611328125,0.1634429931640625
16.503999999999998,8.592196655273439,1.349114990234375,7.519873046875
16.515,7.156350708007813,0.43724365234375,6.163131713867188
16.525,8.992355346679688,-0.682781982421875,8.198168945312501
16.534999999999997,5.898153686523438,-0.15791015625,8.100222778320314
16.545,6.698770141601563,-0.6323883056640626,8.033679199218751
16.555,7.114181518554688,-0.7406524658203125,7.645333862304688
16.564999999999998,5.622409057617188,0.0082244873046875,4.357781982421876
16.574999999999996,2.6599487304687504,0.098992919921875,1.34881591796875
16.585,5.3151123046875,0.27215576171875,1.8889404296875
16.595,16.40157165527344,0.6762023925781251,10.213616943359376
16.604999999999997,13.370025634765629,1.763330078125,7.084423828125001
16.615000000000002,10.466482543945313,2.724847412109375,7.841076660156251
16.625,3.3285247802734377,0.9005065917968751,13.888916015625002
16.634999999999998,1.7391052246093752,0.36307373046875,11.541497802734376
16.644999999999996,3.909771728515625,0.5833404541015625,4.585076904296876
16.656,4.6060119628906255,-0.3046051025390625,1.24952392578125
16.665,11.751446533203126,-1.323394775390625,4.532589721679688
16.676000000000002,11.402279663085938,-1.5239227294921875,7.315158081054688
16.686,7.380654907226563,-0.0083740234375,3.562399291992188
16.695999999999998,8.489465332031251,0.5265167236328125,3.560455322265625
16.705999999999996,13.331146240234377,-1.5065765380859375,9.295764160156253
16.716,9.974807739257812,-0.89063720703125,6.419735717773438
16.726,3.266766357421876,1.05692138671875,6.552075195312501
16.735999999999997,2.8724395751953127,0.5860321044921876,1.19150390625
16.746000000000002,10.493997192382814,0.16568603515625,3.378170776367188
16.756,7.039862060546875,1.1333343505859377,7.249960327148438
16.766,2.585031127929688,1.1879150390625002,5.818600463867188
16.775999999999996,6.636264038085938,2.033392333984376,9.774728393554687
16.786,12.012536621093751,0.6637908935546876,11.68594970703125
16.796,6.114382934570313,-0.5298065185546875,7.102069091796875
16.807000000000002,9.4112060546875,0.078656005859375,5.52745361328125
16.817,6.89122314453125,0.5117126464843751,8.127886962890626
16.826999999999998,4.212283325195313,-0.192303466796875,4.119271850585938
16.836999999999996,7.441366577148438,-0.0303558349609375,2.5458526611328125
16.847,8.719601440429688,-0.46416015625,3.687261962890626
16.857,10.074847412109376,-0.783270263671875,6.1381591796875
16.866999999999997,7.225735473632813,0.2356689453125,8.794967651367188
16.876999999999995,7.572659301757813,0.7020721435546875,7.210333251953125
16.887,4.187460327148438,0.020635986328125,7.899993896484376
16.897,1.371096801757813,0.3937286376953125,4.205404663085938
16.906999999999996,7.844665527343751,0.6814361572265626,4.041812133789063
16.917,16.038796997070314,0.64898681640625,7.147528076171875
16.927,12.736441040039065,0.7819244384765626,5.579193115234375
16.936999999999998,8.596084594726562,-0.1662841796875,7.056460571289063
16.948,1.9346984863281247,-0.8160186767578126,13.855120849609376
16.958,1.4316589355468752,0.0155517578125,10.564877319335938
16.969,6.380258178710938,1.29139404296875,5.296719360351563
16.978,6.5831787109375,0.5624053955078125,2.26278076171875
16.988,13.644573974609376,1.0777069091796876,5.285205078125
16.997999999999998,9.673641967773438,0.1626953125,7.218408203125
17.007999999999996,6.16746826171875,-0.4629638671875,2.9703857421875
17.018,8.641094970703126,-0.5142547607421876,4.59195556640625
17.028,12.68888854980469,-0.5513397216796876,12.460247802734376
17.037999999999997,2.1549652099609378,1.1877655029296876,12.441406250000002
17.048000000000002,1.49117431640625,-0.0785064697265625,-2.3759796142578127
17.058,11.349942016601563,0.7408020019531251,1.912417602539063
17.067999999999998,8.0103515625,0.39058837890625,3.62535400390625
17.077999999999996,7.619015502929688,0.0725250244140625,7.1873046875
17.088,7.5880615234375,-0.363372802734375,6.395062255859376
17.098,11.752044677734377,-0.7790832519531251,3.5067718505859378
17.109,12.718496704101565,-0.1329376220703125,7.260278320312499
17.119,6.211730957031251,0.62625732421875,3.806591796875
17.128999999999998,0.6971374511718751,1.600933837890625,10.573550415039064
17.138999999999996,6.342425537109375,0.2199676513671875,5.713327026367188
17.149,9.547732543945314,0.8197570800781251,10.687347412109377
17.159,3.3820587158203126,0.016748046875,0.8537017822265626
17.168999999999997,11.138796997070314,0.9174041748046876,4.7126312255859375
17.179000000000002,9.763363647460938,0.2785858154296875,9.012991333007813
17.189,6.063839721679688,-0.06998291015625,7.425964355468751
17.198999999999998,6.994702148437501,0.145050048828125,7.529443359375
17.208999999999996,6.328817749023438,-1.1272033691406251,8.861212158203125
17.219,4.0965423583984375,-0.71597900390625,5.7589355468750005
17.229,3.225942993164063,-0.351409912109375,1.6617950439453126
17.238999999999997,7.592398071289063,0.0441131591796875,2.072869873046875
17.25,16.79290771484375,-0.2746978759765625,7.8153564453125
17.259999999999998,12.38876953125,1.4581268310546875,10.180419921875
17.269999999999996,6.406576538085938,1.666131591796875,7.414450073242188
17.28,2.944366455078125,0.77100830078125,14.482275390625
17.29,2.6835754394531253,1.36795654296875,10.483978271484377
17.299999999999997,6.127243041992188,0.9503021240234376,3.0470977783203126
