time,ax,ay,az
0.0,7.789785766601563,-0.1182830810546875,6.624600219726563
0.0100000000001116,7.785150146484375,0.2250518798828125,6.072213745117188
0.0200000000001026,7.688699340820313,0.2220611572265625,6.282760620117188
0.0300000000000935,7.476358032226563,-0.0826934814453125,7.040310668945313
0.0410000000000607,7.281811523437501,0.306549072265625,6.578244018554688
0.0500000000000753,7.233511352539063,0.4897308349609375,6.024661254882813
0.0600000000000662,6.941018676757813,-0.0752166748046875,6.192141723632813
0.07000000000005,7.105209350585938,-0.1634429931640625,5.770748901367188
0.080000000000048,9.593341064453126,0.5283111572265625,5.841030883789063
0.0900000000000389,7.715316772460938,-0.5513397216796876,7.001580810546876
0.1000000000000369,4.476364135742188,0.653173828125,6.993655395507813
0.1100000000000207,4.709640502929688,1.3942749023437502,8.97635498046875
0.1200000000000116,7.823880004882813,0.299969482421875,10.052566528320312
0.1310000000000926,8.791079711914064,0.300567626953125,4.894467163085938
0.1410000000000835,8.274432373046876,-0.6255096435546875,1.5079223632812502
0.1510000000000744,7.713073730468751,-1.854547119140625,7.060946655273438
0.1610000000000653,6.833950805664063,-1.2013732910156252,10.644729614257812
0.1710000000000562,5.749664306640625,0.75306396484375,6.053671264648438
0.1810000000000471,7.443908691406251,-0.95643310546875,3.136221313476563
0.191000000000038,10.166213989257812,-1.8343597412109376,5.967837524414063
0.201000000000036,10.833892822265623,-0.8134765625000001,5.899499511718751
0.2110000000000269,8.739190673828126,1.1415588378906252,2.8494110107421875
0.2210000000000107,7.984631347656251,1.3453765869140626,4.31322021484375
0.2310000000001153,6.492709350585938,0.9604705810546876,8.564981079101564
0.2410000000001062,5.576800537109375,0.55567626953125,8.181719970703126
0.2510000000000971,6.179580688476563,1.2320281982421877,5.845068359375
0.261000000000088,8.611337280273439,1.6329345703125002,6.489569091796875
0.2730000000000316,8.465988159179688,1.926025390625,7.565930175781251
0.2820000000000462,5.881256103515625,1.181634521484375,7.243530273437501
0.29200000000003,5.526257324218751,0.101983642578125,7.246820068359375
0.3020000000000351,7.496246337890626,-1.1219696044921876,8.708984375
0.312000000000026,8.02650146484375,-1.278384399414063,7.046591186523438
0.3220000000000098,7.959957885742188,-0.9423767089843752,4.166525268554688
0.3320000000001144,8.394210815429688,-1.1261566162109375,3.67320556640625
0.3420000000001053,7.711428833007813,-1.5668395996093751,5.63153076171875
0.3520000000000962,4.3197998046875,-0.8320190429687501,4.978955078125001
0.36200000000008,5.553024291992188,0.4275238037109375,4.307687377929688
0.3730000000000544,10.7534423828125,1.2051116943359377,7.543798828125
0.382000000000076,12.002218627929688,-0.448907470703125,10.2964599609375
0.3920000000000598,9.80164489746094,1.4443695068359377,4.893869018554688
0.4020000000000507,5.032339477539063,0.97437744140625,6.854287719726563
0.4120000000000416,4.440774536132813,-0.279034423828125,11.437570190429687
0.4230000000000089,3.9431182861328127,0.8453277587890625,7.13646240234375
0.4330000000001135,6.578692626953125,0.7346710205078125,1.29677734375
0.4430000000001044,9.749755859375,-0.155517578125,1.2765899658203126
0.4530000000000953,9.876412963867187,-0.317913818359375,10.421322631835938
0.4630000000000862,6.890625000000001,0.1736114501953125,7.889825439453125
0.4730000000000842,8.021417236328126,-0.1655364990234375,4.942767333984375
0.4830000000000751,8.82083740234375,-1.5728210449218751,11.4078125
0.4930000000000589,8.249459838867189,-0.6403137207031251,8.807977294921876
0.5030000000000499,6.887933349609376,0.3792236328125,0.9335540771484376
0.5130000000000408,6.8954101562500005,-0.2069580078125,1.299169921875
0.5230000000000317,7.141995239257813,0.078955078125,6.896008300781251
0.5340000000001126,6.129037475585938,0.086431884765625,7.243231201171875
0.5430000000000135,7.468582153320313,1.1037261962890623,4.829119873046875
0.5530000000000044,10.885333251953126,1.5962982177734375,6.603515625000001
0.5630000000001161,10.121502685546876,0.3677093505859375,10.108792114257811
0.5740000000000762,6.940719604492188,0.7502227783203126,5.430255126953125
0.5840000000000671,5.89830322265625,0.716278076171875,4.357781982421876
0.594000000000058,5.992361450195313,-0.22310791015625,7.9146484375
0.6040000000000489,5.779870605468751,-0.7986724853515625,6.859072875976563
0.6140000000000398,6.891522216796876,-0.60113525390625,3.1099029541015626
0.6240000000000308,8.732162475585938,-0.683380126953125,4.8031005859375
0.6340000000000217,8.177084350585938,-0.9962097167968752,9.632369995117188
0.6440000000000126,7.036572265625001,-0.666632080078125,9.302941894531251
0.65400000000011,7.075750732421875,-0.2476318359375,7.751654052734375
0.6640000000001152,7.952032470703125,0.502142333984375,6.638656616210938
0.6740000000001061,7.941116333007813,0.3348114013671875,5.6034179687500005
0.6840000000000899,6.951486206054688,0.56524658203125,4.226339721679688
0.69500000000005,6.800006103515625,0.9561340332031252,4.710687255859376
0.705000000000048,6.348406982421875,0.2343231201171875,5.92880859375
0.7150000000000389,4.980899047851563,-0.5719757080078125,5.2457275390625
0.725000000000037,7.892816162109375,0.509918212890625,6.198422241210938
0.7350000000000207,12.011190795898438,0.2513702392578125,8.5833740234375
0.7450000000000117,9.576742553710938,-0.6225189208984375,6.916943359375001
0.7550000000001162,6.667218017578126,0.5749664306640625,5.749514770507813
0.7650000000001143,5.46165771484375,-0.36427001953125,10.160830688476564
0.7750000000001052,5.764767456054688,-0.33555908203125,9.575994873046875
0.785000000000089,5.1597442626953125,0.4526458740234375,2.7568481445312503
0.7950000000000799,7.8614135742187505,-0.045458984375,2.700921630859375
0.8050000000000708,10.785891723632814,-1.0292572021484376,7.641595458984375
0.8150000000000617,8.197720336914063,0.2271453857421875,7.947097778320313
0.8250000000000526,7.31590576171875,1.7482269287109375,4.5342346191406255
0.8350000000000435,7.60660400390625,-0.8354583740234376,8.178131103515625
0.8450000000000344,8.669805908203125,-0.06519775390625,9.789981079101564
0.8550000000000253,7.929901123046876,1.4497528076171875,3.8952667236328127
0.8660000000001062,8.111437988281251,0.37384033203125,1.131689453125
0.8760000000000971,8.33634033203125,0.40015869140625,4.3221923828125
0.886000000000088,6.4557739257812505,-0.738409423828125,7.687802124023438
0.896000000000079,5.445657348632813,-0.4882354736328125,5.6262969970703125
0.906000000000077,7.37930908203125,-0.1112548828125,6.029296875
0.9160000000000608,8.99609375,-1.04794921875,8.998336791992188
0.9260000000000516,8.519522094726563,-0.7687652587890625,6.998739624023438
0.9360000000000426,7.571911621093751,0.413916015625,4.707846069335938
0.9460000000000336,6.626693725585938,0.32060546875,7.251007080078126
0.9560000000000244,5.808132934570313,-0.0204864501953125,8.750555419921875
0.9660000000000152,5.231072998046876,0.1120025634765625,6.853091430664063
0.9760000000000062,6.683517456054688,0.683380126953125,5.311224365234375
0.9860000000001108,8.863156127929688,0.3404937744140625,6.072064208984376
0.997000000000078,9.622052001953126,0.433056640625,6.161785888671876
1.007000000000076,8.7771728515625,0.4499542236328125,5.3930206298828125
1.01700000000006,7.428207397460938,0.1296478271484375,6.310125732421875
1.0270000000000508,6.742584228515626,-0.08074951171875,7.165322875976563
1.0370000000000417,6.00836181640625,-0.222509765625,6.544448852539063
1.0470000000000326,5.1971282958984375,0.6389678955078125,5.196530151367188
1.0570000000000237,4.994656372070313,0.3386993408203125,5.155108642578125
1.0670000000000144,9.685455322265623,-0.41451416015625,7.152462768554688
1.0770000000000053,12.893603515625,0.1517791748046875,7.298410034179688
1.087000000000117,9.471319580078124,0.0058319091796875,6.361715698242188
1.0970000000001008,5.8610687255859375,-0.1275543212890625,7.621258544921876
1.1070000000000917,4.722650146484376,-0.0970489501953125,9.075048828125
1.1170000000000826,4.647283935546875,0.064300537109375,6.865054321289063
1.12800000000005,5.837292480468751,0.7319793701171875,3.242691040039063
1.1380000000000408,8.956317138671876,0.5176940917968751,4.7974182128906255
1.1480000000000317,10.382891845703126,-0.5997894287109375,8.40333251953125
1.1580000000000226,8.011996459960939,0.2340240478515625,7.39366455078125
1.1680000000000137,7.366000366210938,0.6431549072265625,6.429605102539063
1.1780000000000044,8.013790893554688,-1.188214111328125,8.527447509765626
1.189000000000085,8.796762084960939,-1.0639495849609375,6.7159667968750005
1.198000000000107,6.963150024414063,-0.1517791748046875,3.043807983398437
1.2080000000000908,7.058255004882813,-0.0808990478515625,2.23466796875
1.2180000000000817,7.9197326660156255,-0.6776977539062501,5.107556152343751
1.2280000000000726,6.526953125,-0.5677886962890626,8.235104370117188
1.2380000000000635,6.8894287109375005,0.902001953125,6.278573608398438
1.2480000000000544,8.975308227539063,0.4844970703125,6.431698608398438
1.2580000000000453,9.281558227539064,0.2370147705078125,8.530288696289062
1.2680000000000362,7.215567016601563,0.9186004638671876,7.277774047851563
1.27900000000011,5.665924072265625,1.0582672119140626,5.414404296875
1.2890000000001152,6.341677856445313,0.602032470703125,5.806936645507813
1.299000000000106,6.811968994140625,-0.04306640625,6.542355346679688
1.30900000000009,7.138107299804688,0.52158203125,5.069723510742188
1.3190000000000808,8.177532958984376,0.2404541015625,5.011853027343751
1.3290000000000717,8.465390014648438,-0.9909759521484376,7.797113037109375
1.3390000000000626,7.846310424804688,-0.7868591308593751,8.5259521484375
1.3490000000000535,7.366748046875,-0.3949249267578125,6.812716674804688
1.3590000000000444,6.937579345703125,-0.5015441894531251,5.842974853515625
1.3690000000000353,4.086224365234376,-0.66214599609375,4.801156616210938
1.3790000000000262,2.739202880859376,-0.51739501953125,3.6706634521484376
1.3900000000001145,10.119558715820313,0.5307037353515626,5.79901123046875
1.399000000000008,16.423254394531252,0.8393463134765625,7.036871337890625
1.4090000000001126,12.327310180664064,-0.0459075927734375,4.985833740234376
1.4190000000001035,5.60760498046875,0.6663330078125,6.255694580078125
1.4300000000000708,2.8198028564453126,-0.6682769775390626,13.163665771484377
1.4400000000000617,3.713580322265625,-0.136077880859375,14.89903259277344
1.4500000000000526,2.489178466796876,0.448309326171875,1.2098968505859375
1.4600000000000437,8.485278320312501,0.4655059814453125,2.463458251953125
1.4700000000000344,13.644723510742187,-0.5031890869140625,1.9385864257812504
1.4800000000000253,9.77786865234375,0.6009857177734376,9.42496337890625
1.4900000000000162,5.858526611328125,0.7795318603515625,3.922482299804688
1.5,7.176089477539063,0.2507720947265625,8.234954833984375
1.5100000000001117,8.545242309570312,-0.8492156982421876,12.151605224609376
1.5200000000001026,8.162280273437501,-0.7303344726562501,4.718463134765625
1.5300000000000935,7.570565795898438,0.297576904296875,0.45458984375
1.5400000000000844,7.4062255859375,0.6868194580078125,4.171160888671875
1.550000000000075,5.77568359375,0.468048095703125,7.539761352539063
1.5600000000000662,5.755944824218751,0.3760833740234375,6.514691162109376
1.57000000000005,8.280563354492188,1.2866088867187502,7.187454223632813
1.5810000000000244,11.692678833007813,0.7660736083984375,7.551425170898438
1.5910000000000153,9.018972778320313,-0.8978149414062501,7.1481262207031255
1.6010000000000062,5.471975708007813,-0.8601318359375001,4.71995849609375
1.6110000000001108,5.097836303710938,-0.23387451171875,6.827221679687501
1.6210000000001017,5.9108642578125,-0.5683868408203125,8.290582275390626
1.6310000000000926,7.055563354492188,-0.7358673095703125,4.907925415039063
1.6410000000000835,8.102914428710939,-0.23447265625,3.4489013671875
1.6510000000000744,9.678875732421876,0.0195892333984375,5.250064086914063
1.661000000000065,7.914199829101563,0.1423583984375,9.147125244140623
1.6710000000000562,6.504522705078125,0.4828521728515625,8.610589599609376
1.6810000000000471,6.648675537109376,0.9573303222656252,7.236053466796876
1.691000000000038,6.88883056640625,0.4350006103515625,5.860919189453125
1.701000000000036,5.899798583984375,0.8377014160156251,4.274041748046876
1.711000000000027,4.60989990234375,0.8089904785156251,4.168170166015625
1.7220000000001008,8.752798461914063,0.3482696533203125,6.072811889648438
1.7320000000000917,13.009494018554689,-0.10228271484375,6.764566040039063
1.7420000000000826,11.08900146484375,-0.5994903564453126,5.630932617187501
1.7520000000000735,7.263418579101563,0.0192901611328125,7.513442993164063
1.7620000000000644,5.108901977539063,-0.3007171630859375,10.228271484375
1.7720000000000553,4.230227661132813,-0.4714874267578125,8.099923706054689
1.7820000000000462,5.171408081054688,-0.0665435791015625,3.9209869384765614
1.79200000000003,7.617819213867188,-0.3599334716796875,3.885696411132813
1.8020000000000351,10.370330810546877,-0.9891815185546876,6.804940795898438
1.812000000000026,8.464492797851562,-0.205462646484375,7.218557739257813
1.8220000000000096,6.955972290039063,1.0247711181640626,6.907522583007813
1.8320000000001144,7.571612548828125,-0.251220703125,8.880801391601564
1.842000000000105,8.510848999023438,-0.3165679931640625,8.449688720703126
1.852000000000096,8.19757080078125,0.5842376708984376,4.314266967773438
1.8630000000000635,7.758831787109376,0.217425537109375,2.6234619140625
1.8730000000000544,7.634417724609375,0.0462066650390625,4.300509643554688
1.8830000000000453,6.304443359375001,-0.332568359375,6.963449096679688
1.893000000000036,6.585421752929688,0.1060211181640625,5.951239013671875
1.9030000000000344,8.45596923828125,0.6162384033203125,5.995202636718751
1.913000000000025,9.212173461914062,0.1697235107421875,7.3724304199218755
1.923000000000009,8.042651367187501,-0.145050048828125,6.6047119140625
1.9330000000001133,6.766958618164063,0.46116943359375,6.23984375
1.9430000000001044,6.414501953125001,0.5775085449218751,7.006365966796875
1.9530000000000955,6.259283447265625,-0.1565643310546875,6.832305908203126
1.9630000000000865,6.5568603515625,-0.2199676513671875,5.92581787109375
1.973000000000084,7.444955444335938,0.087030029296875,5.91265869140625
1.9830000000000751,7.928106689453125,0.0034393310546875,6.572113037109376
1.9940000000000355,8.019174194335939,-0.0808990478515625,7.28360595703125
2.00300000000005,7.942761230468751,-0.05084228515625,7.368991088867188
2.014000000000017,7.61258544921875,-0.0151031494140625,5.984286499023438
2.024000000000008,7.541854858398438,-0.1715179443359375,5.003628540039063
2.0340000000001126,6.954925537109376,-0.2767913818359375,5.946304321289063
2.0440000000001035,5.013796997070313,0.1123016357421875,5.670858764648438
2.0540000000000944,3.1936431884765626,-0.2681182861328125,4.264321899414063
2.0640000000000853,8.436679077148439,-0.0865814208984375,7.164874267578125
2.074000000000076,14.712860107421877,0.384906005859375,8.282806396484375
2.084000000000067,11.836233520507813,0.1303955078125,5.202362060546875
2.094000000000058,7.072909545898438,0.590667724609375,5.121463012695313
2.104000000000049,3.946707153320313,-0.4311126708984375,9.8873291015625
2.11400000000004,4.167123413085938,-0.374139404296875,10.259823608398438
2.1240000000000308,4.103720092773438,0.6074157714843751,5.0416107177734375
2.1340000000000217,8.345611572265625,0.430364990234375,1.19449462890625
2.144000000000013,11.156890869140623,-0.0333465576171875,8.489913940429688
2.15400000000011,9.71087646484375,0.1972381591796875,8.398995971679689
2.1650000000000844,6.74766845703125,0.8523559570312501,5.3521972656250005
2.175000000000076,6.741088867187501,0.200079345703125,8.710031127929689
2.1850000000000662,8.320339965820313,-1.19569091796875,9.332550048828123
2.19500000000005,8.073754882812501,0.04725341796875,4.180432128906251
2.205000000000048,7.88414306640625,0.4954132080078125,1.0157989501953126
2.215000000000039,8.287890625000001,0.6003875732421875,3.888986206054688
2.225000000000037,6.84097900390625,0.153125,6.58377685546875
2.2350000000000207,5.6117919921875,0.05263671875,6.520822143554688
2.245000000000012,7.679727172851563,0.2606414794921875,7.2976623535156255
2.255000000000116,9.526797485351564,-0.7083526611328126,7.915844726562501
2.2650000000001143,8.4876708984375,-0.2477813720703125,6.562991333007813
2.275000000000105,6.800903320312501,-0.4550384521484375,4.991964721679688
2.285000000000089,6.344668579101563,0.023028564453125,6.646881103515626
2.296000000000056,5.692242431640626,0.2244537353515625,8.0689697265625
2.306000000000047,5.800357055664063,0.0139068603515625,6.313565063476563
2.316000000000038,7.582229614257813,-0.03050537109375,5.396011352539063
2.326000000000036,8.937026977539062,0.191705322265625,6.7548461914062505
2.336000000000027,9.245669555664064,0.5333953857421876,6.274087524414063
2.3460000000000107,8.352938842773439,0.3769805908203125,5.958416748046876
2.356000000000116,7.33983154296875,0.280828857421875,6.94505615234375
2.3660000000001062,6.477008056640625,0.215631103515625,6.612637329101563
2.376000000000097,6.3167053222656255,0.090618896484375,5.403189086914063
2.386000000000088,5.920733642578125,0.261090087890625,5.506967163085938
2.396000000000079,5.4767608642578125,0.1804901123046875,5.954229736328125
2.407000000000046,5.336196899414063,0.0632537841796875,4.862466430664063
2.4160000000000608,9.123199462890623,-0.3337646484375,5.202511596679688
2.426000000000052,14.889312744140629,-0.44442138671875,7.909713745117188
2.437000000000026,12.667654418945313,-0.0785064697265625,7.617520141601563
2.44700000000001,6.442166137695313,0.06639404296875,6.290985107421876
2.4570000000001144,3.362469482421876,-0.404046630859375,8.335891723632812
2.4670000000001053,3.707000732421875,-0.450103759765625,9.9040771484375
2.477000000000096,4.125552368164063,0.438739013671875,5.179632568359375
2.48900000000004,7.5862670898437505,0.5921630859375,0.8369537353515626
2.497000000000078,11.0979736328125,2.388690185546875,5.356085205078125
2.507000000000076,10.155596923828126,-1.9496520996093751,10.552017211914062
2.51700000000006,7.002328491210938,-0.16688232421875,6.545196533203126
2.5270000000000508,6.428408813476563,0.02572021484375,8.78016357421875
2.5370000000000417,8.900241088867189,-1.5017913818359376,9.41763610839844
2.547000000000033,8.377462768554688,-0.296978759765625,5.266513061523438
2.5570000000000235,6.903933715820313,0.216229248046875,1.11553955078125
2.5670000000000144,7.887582397460938,0.0237762451171875,2.449700927734375
2.5770000000000053,6.568374633789063,-0.262884521484375,6.859671020507813
2.5880000000000862,6.471026611328125,0.13338623046875,6.327471923828125
2.598000000000084,7.554565429687501,0.7786346435546876,7.075750732421875
2.608000000000075,10.393060302734376,0.683380126953125,7.269400024414063
2.618000000000059,8.83997802734375,0.5997894287109375,7.671951293945313
2.62800000000005,6.542205810546876,0.208154296875,5.759832763671875
2.6380000000000408,5.796917724609376,0.79493408203125,5.850003051757813
2.648000000000032,5.940771484375,0.4484588623046875,7.188949584960938
2.6580000000000226,6.280966186523438,-0.5001983642578125,5.989819335937501
2.668000000000013,7.7058959960937505,-0.47911376953125,4.892523193359375
2.6780000000000044,8.609991455078125,-0.2235565185546875,6.438876342773438
2.688000000000116,8.472418212890625,-0.439935302734375,7.633071899414063
2.698000000000107,7.962051391601563,-0.3662139892578125,7.410861206054688
2.709000000000067,7.431796264648438,-0.15970458984375,6.913055419921876
2.719000000000058,7.190744018554688,-0.23865966796875,5.850601196289063
2.729000000000049,6.708489990234376,-0.1422088623046875,5.032937622070313
2.73900000000004,6.685012817382813,0.2857635498046875,5.452984619140626
2.7490000000000308,6.149972534179688,0.3907379150390625,5.871685791015626
2.7590000000000217,4.863363647460938,0.06400146484375,5.128939819335938
2.769000000000013,7.57310791015625,0.41092529296875,6.154010009765625
2.77900000000011,12.525894165039064,0.6655853271484375,8.076296997070314
2.789000000000115,11.825167846679689,0.1416107177734375,6.746771240234375
2.799000000000106,7.762570190429688,0.386102294921875,4.9801513671875
2.80900000000009,4.458569335937501,-0.27335205078125,8.292227172851563
2.8190000000000808,4.90179443359375,-0.4786651611328125,10.315899658203126
2.829000000000072,4.685116577148438,0.271258544921875,5.650820922851563
2.8390000000000626,7.86619873046875,0.427374267578125,2.5033843994140628
2.849000000000053,10.123745727539063,-0.5665924072265626,6.3211914062500005
2.8590000000000444,10.303338623046876,-1.181634521484375,7.8240295410156255
2.870000000000012,6.680377197265625,0.6542205810546875,6.816305541992188
2.880000000000116,6.740789794921875,0.6745574951171875,7.2028564453125
2.8900000000001143,7.965640258789063,-0.6032287597656251,8.880352783203126
2.900000000000105,8.017379760742188,0.19140625,5.643045043945313
2.910000000000089,7.333251953125001,0.754559326171875,1.996157836914063
2.92000000000008,8.0402587890625,0.8761322021484376,3.969436645507813
2.9300000000000708,7.615875244140626,0.69384765625,7.396206665039063
2.9400000000000617,5.783160400390625,0.39776611328125,7.20225830078125
2.9500000000000526,7.67838134765625,0.6742584228515626,5.557958984375
2.9600000000000435,9.913198852539065,-1.221560668945313,7.707989501953126
2.9700000000000344,8.791677856445313,-0.772802734375,7.112686157226563
2.9800000000000253,6.432296752929688,-0.4984039306640625,4.272994995117188
2.990000000000016,6.122906494140626,-1.0460052490234375,5.524313354492188
3.0,6.571514892578126,-0.645697021484375,8.074203491210938
3.011000000000088,6.492410278320313,0.26617431640625,6.269601440429688
3.021000000000079,7.264614868164063,0.2630340576171875,4.500588989257813
3.031000000000077,8.462249755859375,0.128900146484375,7.192837524414063
3.0410000000000608,8.153308105468751,0.5722747802734376,8.788088989257814
3.051000000000052,7.247866821289063,1.101931762695313,6.976458740234375
3.0610000000000426,7.495648193359376,0.8184112548828125,6.220703125000001
3.071000000000033,7.689447021484375,0.5404235839843751,6.315957641601563
3.0810000000000244,7.151116943359376,0.2989227294921875,4.997946166992188
3.091000000000016,6.310125732421875,0.371746826171875,4.371987915039063
3.101000000000006,5.621063232421875,0.0151031494140625,6.070867919921875
3.111000000000111,4.849008178710938,-0.4852447509765625,6.428707885742188
3.1210000000001017,7.960107421875,-0.93370361328125,6.146832275390626
3.1310000000000926,13.679565429687502,-0.5476013183593751,6.903036499023438
3.1410000000000835,12.7679931640625,-0.584088134765625,7.054666137695313
3.1510000000000744,6.850399780273438,0.0620574951171875,6.336743164062501
3.1620000000000417,3.6383636474609378,-0.1088623046875,7.780215454101563
3.172000000000033,3.747525024414063,-0.2764923095703125,8.970971679687501
3.1820000000000235,5.282962036132813,0.5755645751953126,5.180081176757813
3.1920000000000144,7.992108154296876,0.8433837890625001,2.2351165771484376
3.2020000000000053,11.012738037109376,1.1698211669921876,6.220852661132813
3.212000000000117,10.00037841796875,-1.3193572998046876,8.360116577148439
3.222000000000101,6.429605102539063,0.8160186767578126,8.968728637695314
3.232000000000092,6.135916137695313,0.6847259521484376,8.372079467773439
3.2420000000000826,8.251104736328125,-1.1953918457031252,8.291030883789062
3.252000000000073,8.3584716796875,-0.1798919677734375,4.792034912109376
3.2620000000000644,7.685858154296875,0.1303955078125,1.3927795410156252
3.272000000000056,7.703353881835938,-0.242547607421875,2.8784210205078127
3.282000000000046,6.8595214843750005,-0.7077545166015625,6.163580322265625
3.293000000000013,6.429156494140625,-0.36427001953125,7.528546142578126
3.3040000000000944,7.900891113281251,-0.083740234375,7.115078735351563
3.313000000000116,9.83633728027344,0.4344024658203125,7.085470581054688
3.323000000000107,8.868389892578126,0.3593353271484375,6.952233886718751
3.333000000000091,6.747219848632813,0.401654052734375,5.7125793457031255
3.3430000000000817,5.73441162109375,0.6461456298828125,6.385192871093751
3.3530000000000726,5.659494018554688,0.6582580566406251,6.969131469726563
3.3630000000000635,6.465194702148438,0.3189605712890625,5.846414184570313
3.3730000000000544,7.753598022460938,0.054730224609375,5.547341918945313
3.3830000000000453,8.58756103515625,0.260491943359375,6.756192016601563
3.393000000000036,8.388079833984376,-0.0982452392578125,7.301849365234376
3.405000000000093,7.88414306640625,-0.5224792480468751,7.494900512695313
3.413000000000025,7.346710205078126,-0.425579833984375,7.180276489257813
3.423000000000009,7.108499145507813,-0.5274139404296876,5.5619964599609375
3.433000000000113,7.001580810546876,-0.394476318359375,4.562197875976563
3.4430000000001044,6.698471069335938,-0.22071533203125,5.45208740234375
3.454000000000072,5.384945678710938,-0.27215576171875,5.923574829101563
3.4640000000000626,4.471429443359376,-0.346026611328125,5.109500122070313
3.474000000000053,9.043048095703126,0.3218017578125,6.627142333984375
3.4840000000000444,13.865438842773438,0.4960113525390625,8.003323364257813
3.494000000000036,11.074945068359376,0.131292724609375,5.717813110351563
3.505000000000116,6.444708251953125,0.7120910644531251,5.52984619140625
3.514000000000017,3.922332763671875,-0.2071075439453125,9.492404174804689
3.524000000000008,4.550833129882813,-0.1134979248046875,9.936376953125
3.5340000000001126,5.292233276367188,0.8369537353515626,4.31322021484375
3.5440000000001035,8.71197509765625,2.8559906005859377,2.9482543945312503
3.5540000000000944,11.106048583984377,-0.8336639404296876,7.429852294921876
3.5640000000000853,9.248062133789062,-1.3509094238281252,7.883245849609375
3.574000000000076,6.2003662109375,0.8664123535156251,6.945803833007813
3.584000000000067,6.883895874023438,-0.5220306396484375,7.850646972656251
3.5950000000000344,8.413650512695312,-0.9405822753906252,8.291778564453125
3.605000000000025,7.918087768554688,0.145947265625,4.114935302734375
3.615000000000016,7.977752685546876,0.34154052734375,1.3444793701171875
3.625,8.397650146484375,1.5856811523437502,4.251910400390625
3.635000000000112,7.118667602539063,-0.430963134765625,6.604263305664063
3.645000000000103,5.412908935546875,-0.1280029296875,7.097433471679688
3.656000000000077,7.602865600585938,0.150433349609375,6.801651000976563
3.665000000000085,9.223089599609375,-0.8065979003906251,8.540008544921875
3.6750000000000753,8.241683959960938,0.2229583740234375,6.726583862304688
3.685000000000066,6.956420898437501,-0.1921539306640625,4.47711181640625
3.69500000000005,6.280068969726563,-0.5479003906250001,6.7054992675781255
3.705000000000048,6.039315795898438,0.1260589599609375,8.284750366210938
3.715000000000039,6.052624511718751,0.279632568359375,6.247619628906251
3.726000000000006,7.904330444335938,-0.061907958984375,4.488626098632813
3.736000000000111,9.139498901367189,-0.2247528076171875,6.625347900390626
3.7460000000001017,9.043646240234375,0.5179931640625001,6.868344116210938
3.7560000000000926,8.017230224609376,0.5468536376953126,5.661886596679688
3.766000000000084,7.12808837890625,0.1136474609375,6.85294189453125
3.7760000000000735,6.3884826660156255,0.1655364990234375,7.34342041015625
3.786000000000065,6.299508666992188,0.03529052734375,5.74876708984375
3.796000000000056,6.237600708007813,0.3330169677734375,5.175894165039063
3.806000000000047,6.128887939453126,0.1625457763671875,6.458914184570313
3.816000000000038,5.45926513671875,-0.1867706298828125,5.910415649414063
3.826000000000036,8.823229980468751,-0.190509033203125,5.282513427734376
3.836000000000027,13.603451538085938,-0.2095001220703125,7.090704345703125
3.8460000000000094,11.596826171875,-0.2380615234375,6.755145263671875
3.8560000000001153,6.477606201171875,0.4610198974609375,5.7828613281250005
3.866000000000106,4.168618774414063,-0.225799560546875,8.32557373046875
3.8770000000000735,4.485485839843751,-0.299371337890625,9.304287719726563
3.887000000000064,5.332009887695313,0.7023712158203126,4.793978881835938
3.8970000000000553,7.950985717773438,0.30086669921875,2.442523193359375
3.907000000000046,10.847500610351563,-0.5905181884765626,7.204202270507813
3.91700000000003,9.165667724609376,-0.51380615234375,9.277819824218753
3.930000000000071,6.178982543945313,0.9646575927734377,7.630978393554688
3.937000000000026,6.97496337890625,-0.0306549072265625,7.236053466796876
3.94700000000001,8.638104248046876,-1.2601409912109376,8.338433837890626
3.9570000000001135,8.247515869140626,0.0587677001953125,4.489224243164063
3.967000000000105,7.472470092773438,0.252716064453125,1.22320556640625
3.977000000000096,8.060745239257812,0.0644500732421875,3.4480041503906254
3.98700000000008,7.180575561523438,-0.4556365966796875,6.689050292968751
3.997000000000078,6.026455688476563,0.0064300537109375,7.645782470703126
4.007000000000076,7.8599182128906255,0.9395355224609376,6.173001098632813
4.01700000000006,9.667361450195314,0.2836700439453125,7.728924560546876
4.028000000000034,8.385986328125,0.3910369873046875,7.6954284667968755
4.038000000000025,6.543701171875001,0.4789642333984375,4.99749755859375
4.048000000000009,6.037371826171875,0.184228515625,5.825479125976563
4.0580000000001135,6.1644775390625,-0.01734619140625,7.744775390625
4.068000000000104,6.411212158203125,0.001495361328125,6.324929809570313
4.078000000000095,7.42476806640625,-0.1212738037109375,5.027703857421876
4.088000000000086,8.523709106445313,-0.1523773193359375,6.768304443359376
4.098000000000084,8.533578491210939,-0.261090087890625,7.8629089355468755
4.108000000000075,7.946798706054688,-0.1451995849609375,6.658245849609376
4.118000000000059,7.479498291015625,-0.155816650390625,6.0390167236328125
4.12800000000005,7.059451293945313,-0.3662139892578125,6.113784790039063
4.138000000000041,6.772341918945313,0.0028411865234375,5.192791748046876
4.148000000000032,5.664129638671875,0.04725341796875,5.044601440429688
4.158000000000023,3.613989257812501,-0.169573974609375,5.174099731445313
4.169000000000104,6.708938598632813,0.00897216796875,6.904531860351563
4.179000000000094,13.824465942382814,0.4448699951171875,7.566528320312501
4.189000000000085,13.139590454101564,-0.1514801025390625,5.902789306640625
4.199000000000076,8.356527709960938,0.4711883544921875,5.290438842773438
4.209000000000067,3.9698852539062495,0.0222808837890625,8.988168334960939
4.219000000000058,4.238751220703126,-0.23865966796875,10.459454345703126
4.229000000000049,4.15411376953125,0.39656982421875,5.372982788085938
4.23900000000004,7.592697143554688,2.270556640625,2.584881591796876
4.249000000000031,10.683160400390626,0.1592559814453125,6.241937255859376
4.259000000000022,10.565176391601565,-1.72205810546875,7.277774047851563
4.269000000000013,6.539364624023438,0.8350097656250001,7.368841552734375
4.27900000000011,6.362911987304688,0.1616485595703125,8.398397827148438
4.289000000000115,8.053118896484376,-1.1671295166015625,8.867791748046876
4.299000000000106,8.361611938476564,0.0785064697265625,5.104565429687501
4.310000000000066,7.889526367187501,0.4589263916015625,1.8071441650390627
4.32000000000005,8.217010498046875,1.7278900146484375,3.28441162109375
4.330000000000048,7.536770629882813,-0.3754852294921875,6.138458251953126
4.340000000000039,5.335299682617188,-0.5283111572265625,6.970626831054688
4.350000000000037,7.183865356445313,0.2588470458984375,6.317153930664063
4.360000000000021,9.537713623046876,-0.80869140625,7.959658813476563
4.370000000000012,8.92431640625,-0.5825927734375,7.512695312500001
4.380000000000116,7.004122924804688,0.1685272216796875,4.664480590820313
4.390000000000114,6.208441162109375,-0.506329345703125,6.058755493164063
4.400000000000105,6.108551025390625,-0.134283447265625,8.290881347656251
4.410000000000089,5.63511962890625,0.45458984375,7.16038818359375
4.42000000000008,7.037619018554688,0.4376922607421875,4.698873901367188
4.430000000000071,8.81904296875,-0.0874786376953125,5.969183349609375
4.440000000000062,9.225033569335938,0.1392181396484375,7.545892333984375
4.451000000000036,8.387930297851563,0.929815673828125,6.07774658203125
4.461000000000027,7.504620361328126,0.4015045166015625,5.957220458984375
4.471000000000011,6.809576416015625,-0.166583251953125,7.236053466796876
4.481000000000115,6.4468017578125005,-0.0357391357421875,6.404632568359376
4.491000000000106,5.987127685546875,0.3081939697265625,4.791287231445313
4.501000000000097,5.8307128906250005,0.309539794921875,5.427713012695313
4.511000000000088,5.578146362304688,-0.3002685546875,6.656600952148438
4.521000000000079,6.896606445312501,-0.3887939453125,5.53941650390625
4.531000000000077,12.765301513671876,0.1320404052734375,5.8790130615234375
4.541000000000061,14.032321166992189,-0.5142547607421876,7.291830444335938
4.551000000000052,8.374621582031251,-0.108563232421875,6.948794555664063
4.561000000000043,4.117178344726563,0.3398956298828125,7.017282104492188
4.5710000000000335,3.5661376953125004,-0.4024017333984375,9.0690673828125
4.582000000000114,4.5650390625,0.00059814453125,7.25968017578125
4.591000000000015,6.392520141601563,0.66513671875,2.213583374023438
4.603000000000073,10.312609863281253,0.0982452392578125,4.423129272460938
4.61200000000008,10.795013427734377,-0.7928405761718751,8.556307983398439
4.622000000000078,7.669708251953126,0.0466552734375,8.565130615234375
4.632000000000076,5.806338500976563,0.8824127197265625,8.027697753906251
4.64200000000006,7.914797973632813,-0.9682464599609376,8.420828247070313
4.652000000000051,8.725881958007813,-0.64898681640625,6.612936401367188
4.662000000000042,7.555313110351563,1.0851837158203126,2.78316650390625
4.672000000000033,7.734457397460938,0.5163482666015625,1.366162109375
4.682000000000024,7.685559082031251,-1.045556640625,4.697528076171875
4.692000000000014,6.20694580078125,-0.3976165771484375,7.420730590820313
4.703000000000095,6.471026611328125,0.3680084228515625,7.348953247070313
4.712000000000117,9.42496337890625,0.7475311279296876,6.441567993164063
4.722000000000101,9.6887451171875,0.4209442138671875,8.1120361328125
4.732000000000092,7.51090087890625,0.3659149169921875,6.567178344726563
4.742000000000083,6.053372192382813,0.579901123046875,4.985684204101563
4.75300000000005,5.740093994140626,-0.0414215087890625,6.9181396484375
4.763000000000041,5.872732543945313,-0.2214630126953125,7.598977661132813
4.773000000000032,6.851895141601563,-0.079254150390625,5.384197998046876
4.783000000000023,8.2974609375,-0.2223602294921875,5.2584381103515625
4.7930000000000135,8.97216796875,-0.1335357666015625,7.310821533203126
4.803000000000004,8.426361083984375,-0.3034088134765625,7.727130126953125
4.813000000000116,7.5518737792968755,-0.1000396728515625,6.381304931640625
4.823000000000107,7.053170776367188,-0.110357666015625,6.10107421875
4.833000000000091,6.818399047851563,-0.4031494140625,6.079541015625001
4.843000000000082,6.439773559570313,0.2941375732421875,5.061050415039063
4.853000000000073,5.34801025390625,0.4412811279296875,4.972076416015625
4.863000000000064,4.513299560546876,-0.139666748046875,5.553921508789063
4.873000000000054,8.969326782226563,0.6279022216796876,6.761276245117188
4.883000000000045,13.536758422851564,0.1063201904296875,7.494900512695313
4.894000000000013,11.467626953125,0.010467529296875,5.857180786132813
4.90400000000011,6.801052856445313,0.4146636962890625,6.359024047851563
4.914000000000115,4.2145263671875,-0.4894317626953125,9.535171508789062
4.924000000000106,4.565786743164063,-0.4128692626953125,9.23355712890625
4.93400000000009,5.1428466796875005,0.4469635009765625,4.3522491455078125
4.944000000000081,8.353536987304688,0.1915557861328125,2.9908721923828128
4.954000000000072,10.818341064453126,-0.6462951660156251,6.892269897460938
4.964000000000063,9.223986816406253,-0.4708892822265625,7.482339477539063
4.9740000000000535,6.411660766601563,1.325787353515625,7.260427856445313
4.984000000000044,6.950140380859375,0.6709686279296876,8.260226440429689
4.994000000000035,8.488568115234376,-0.701025390625,8.311816406250001
5.004000000000026,8.05521240234375,0.4912261962890625,4.0948974609375
5.014000000000017,7.86978759765625,0.58857421875,1.87578125
5.024000000000008,8.082278442382814,1.196588134765625,4.173703002929688
5.035000000000089,7.202407836914063,-0.107366943359375,6.7413879394531255
5.04500000000008,5.4467041015625,-0.5431152343750001,6.785351562500001
5.055000000000071,7.396804809570313,-0.3369049072265625,6.410763549804688
5.065000000000062,9.089254760742188,-1.067987060546875,8.006912231445312
5.075000000000053,8.767303466796875,-1.1775970458984375,7.46544189453125
5.085000000000044,6.788192749023438,-0.054730224609375,5.208941650390625
5.095000000000034,6.205001831054688,-0.086431884765625,6.178533935546875
5.105000000000025,5.999838256835938,0.0001495361328125,7.890573120117188
5.115000000000016,6.158197021484376,0.4314117431640625,7.079937744140626
5.125,7.47142333984375,0.9615173339843752,4.596591186523438
5.135000000000112,9.260922241210938,0.5800506591796876,5.318551635742188
5.145000000000103,9.254043579101562,0.23985595703125,7.026852416992188
5.1550000000000935,8.056259155273438,1.108062744140625,6.5927490234375
5.166000000000061,7.024459838867188,0.6530242919921876,6.362313842773438
5.175000000000075,6.468035888671875,-0.4233367919921875,7.1490234375
5.186000000000043,6.0460449218750005,-0.225201416015625,6.528298950195313
5.1960000000000335,5.49754638671875,-0.0629547119140625,5.260382080078125
5.206000000000024,5.476162719726563,-0.35111083984375,5.3237854003906255
5.216000000000015,6.290386962890626,-0.6425567626953126,5.680877685546875
5.226000000000006,11.198162841796876,-0.7002777099609375,6.0699707031250005
5.236000000000111,14.019610595703126,-0.215032958984375,6.415997314453126
5.246000000000102,10.0009765625,0.051739501953125,6.33853759765625
5.256000000000093,5.352944946289063,0.3542510986328125,7.703952026367188
5.266000000000084,3.8230407714843753,-0.157012939453125,9.18435974121094
5.276000000000074,4.339239501953125,0.12501220703125,7.811618041992188
5.286000000000065,5.369842529296875,1.008172607421875,2.9470581054687504
5.296000000000056,9.689642333984375,2.2590423583984376,4.0781494140625005
5.306000000000047,10.817742919921876,-1.6483367919921876,7.7435791015625
5.316000000000038,7.911508178710938,0.052337646484375,8.721395874023438
5.327000000000005,5.95751953125,0.7274932861328125,7.664773559570313
5.337000000000117,7.805187988281251,-1.2073547363281252,8.287142944335939
5.347000000000101,8.776574707031251,-1.102081298828125,7.182818603515625
5.357000000000092,7.695877075195313,0.0321502685546875,3.2002227783203128
5.367000000000083,7.7770751953125,-0.0154022216796875,1.5482971191406252
5.3770000000000735,7.428955078125001,-0.624462890625,4.844821166992188
5.387000000000064,6.362014770507813,-0.4909271240234375,7.029693603515626
5.397000000000055,6.553570556640626,0.4795623779296875,7.419534301757813
5.407000000000046,9.017776489257812,0.6062194824218751,6.868493652343751
5.41700000000003,9.566125488281251,0.8972167968750001,7.267456054687501
5.427000000000035,7.643838500976563,0.499749755859375,6.310424804687501
5.437000000000026,6.1477294921875005,0.503936767578125,6.225787353515625
5.44700000000001,6.114981079101563,1.06051025390625,6.6884521484375
5.457000000000114,6.0771484375,-0.0632537841796875,6.39835205078125
5.468000000000082,6.960009765625,-0.5289093017578126,5.336196899414063
5.478000000000073,8.18082275390625,0.0112152099609375,5.914752197265625
5.488000000000064,8.54569091796875,-0.2821746826171875,6.986776733398438
5.498000000000054,7.979397583007813,-0.762335205078125,7.42476806640625
5.508000000000045,7.493405151367188,-0.452197265625,7.446600341796875
5.519000000000013,7.292727661132813,-0.3273345947265625,6.166720581054688
5.528000000000034,7.216763305664063,-0.5707794189453126,5.0067687988281255
5.538000000000025,6.157897949218751,-0.024822998046875,5.372982788085938
5.548000000000009,4.451242065429688,0.344232177734375,5.513397216796875
5.5580000000001135,6.0998779296875005,0.1933502197265625,6.276779174804688
5.568000000000104,11.360858154296876,0.6036773681640626,6.910513305664063
5.578000000000095,12.250598144531253,0.3001190185546875,6.106158447265625
5.588000000000086,8.582626342773438,0.0835906982421875,5.761178588867188
5.598000000000084,5.382702636718751,-0.0490478515625,8.046389770507814
5.609000000000044,4.715173339843751,-0.099591064453125,9.288287353515626
5.619000000000035,5.077200317382813,0.49825439453125,6.593496704101563
5.629000000000026,7.8359924316406255,0.7508209228515625,3.723898315429688
5.639000000000017,9.698016357421876,0.075665283203125,5.70928955078125
5.649000000000008,9.375616455078124,-0.4511505126953125,7.385440063476563
5.659000000000113,7.200613403320313,0.35888671875,7.66641845703125
5.669000000000104,6.773089599609375,0.135479736328125,7.854833984375
5.679000000000094,7.848703002929688,-0.385504150390625,7.667913818359375
5.689000000000085,8.100970458984376,0.0662445068359375,5.1476318359375
5.699000000000076,8.18082275390625,0.2654266357421875,3.14803466796875
5.709000000000067,8.318844604492188,1.32608642578125,3.3991058349609378
5.719000000000058,7.383496093750001,-0.13458251953125,6.434988403320313
5.730000000000025,6.2075439453125005,-0.3416900634765625,6.952084350585938
5.73900000000004,7.192837524414063,0.360980224609375,6.392520141601563
5.75,8.385537719726564,-0.5031890869140625,7.374822998046875
5.760000000000112,8.481539916992189,-0.661846923828125,6.891671752929688
5.770000000000103,7.386785888671875,-0.07177734375,5.767010498046876
5.7800000000000935,6.739743041992188,-0.4765716552734375,6.151318359375001
5.790000000000084,6.343023681640625,-0.337054443359375,6.9806457519531255
5.800000000000075,6.207843017578125,0.0677398681640625,6.645385742187501
5.810000000000066,6.992010498046875,0.138470458984375,6.271994018554688
5.82000000000005,7.983584594726563,0.165386962890625,6.529196166992188
5.830000000000048,8.509054565429688,0.3337646484375,6.497195434570313
5.840000000000039,8.428903198242189,0.603826904296875,6.327322387695313
5.850000000000037,7.8727783203125,0.3605316162109375,6.64359130859375
5.860000000000021,7.242184448242188,0.5102172851562501,6.072213745117188
5.871000000000102,6.698620605468751,0.1700225830078125,5.828469848632813
5.880000000000116,6.492410278320313,-0.1428070068359375,6.261526489257813
5.890000000000114,6.0689239501953125,0.375933837890625,5.990118408203125
5.901000000000074,5.405133056640626,0.1399658203125,5.7125793457031255
5.911000000000065,5.1268463134765625,-0.4915252685546875,5.873629760742188
5.921000000000056,9.68201599121094,-0.465655517578125,6.455026245117188
5.931000000000047,15.051110839843751,-0.20396728515625,6.6190673828125
5.941000000000038,11.882589721679688,-0.2998199462890625,5.537771606445313
5.951000000000036,5.851498413085938,0.13876953125,6.496896362304688
5.961000000000027,3.462509155273438,-0.181536865234375,9.2341552734375
5.971000000000011,3.7288330078125,-0.2691650390625,9.135910034179688
5.981000000000115,4.882354736328125,0.6742584228515626,4.114785766601563
5.991000000000106,8.691937255859376,2.6179290771484376,2.94466552734375
6.001000000000097,11.297604370117188,-1.166680908203125,8.16766357421875
6.011000000000088,9.568069458007812,-1.0050323486328123,7.333401489257813
6.021000000000079,5.804095458984375,0.8417388916015626,8.192935180664064
6.031000000000077,6.7069946289062505,-0.6207244873046875,8.878408813476563
6.04200000000003,8.64857177734375,-1.0821929931640626,7.596286010742188
6.052000000000035,8.211477661132813,0.0578704833984375,3.6271484375
6.062000000000026,7.885937500000001,0.0417205810546875,1.2203643798828123
6.07200000000001,8.052371215820314,-0.157012939453125,3.73302001953125
6.082000000000114,6.534729003906251,-0.398663330078125,6.140252685546876
6.092000000000105,5.950640869140625,-0.0079254150390625,7.350149536132813
6.102000000000096,8.143438720703125,0.7212127685546875,7.707241821289063
6.11200000000008,9.858917236328123,0.563153076171875,7.775280761718751
6.122000000000078,8.4709228515625,0.721661376953125,6.2748352050781255
6.132000000000076,6.479400634765626,0.2917449951171875,5.702410888671875
6.14200000000006,5.809030151367188,0.4027008056640625,7.106106567382813
6.152000000000051,5.669363403320313,0.360980224609375,6.983935546875
6.162000000000042,6.444259643554688,-0.280230712890625,5.4049835205078125
6.172000000000033,7.99180908203125,-0.305352783203125,5.499041748046875
6.182000000000024,9.063235473632814,-0.050244140625,6.550579833984376
6.193000000000104,8.652310180664063,-0.32060546875,6.763070678710938
6.203000000000095,7.856628417968751,-0.4027008056640625,7.163827514648438
6.213000000000086,7.122406005859376,-0.2029205322265625,7.210632324218751
6.223000000000084,6.714620971679688,-0.3576904296875,5.839685058593751
6.233000000000075,6.621459960937501,-0.2229583740234375,5.10277099609375
6.243000000000059,6.660189819335938,0.34632568359375,5.825628662109375
6.25300000000005,5.672354125976563,0.31522216796875,5.611492919921876
6.263000000000041,5.008563232421875,-0.3482696533203125,5.197427368164063
6.273000000000032,9.625790405273438,0.6238647460937501,6.922476196289063
6.283000000000023,13.447784423828129,0.581695556640625,7.711428833007813
6.2930000000000135,10.431640625,-0.1724151611328125,5.576651000976563
6.303000000000004,5.941967773437501,0.2779876708984375,6.0544189453125
6.313000000000116,4.161740112304688,-0.42886962890625,9.442160034179688
6.324000000000076,4.8605224609375,-0.2059112548828125,9.185107421875
6.334000000000067,5.7963195800781255,0.7571014404296875,3.557913208007813
6.344000000000058,9.069216918945314,0.36068115234375,3.4837432861328126
6.354000000000049,10.837930297851564,-0.6742584228515626,7.538864135742188
6.36400000000004,8.63421630859375,-0.1362274169921875,7.913751220703125
6.374000000000031,6.189749145507813,1.2072052001953126,7.239492797851563
6.384000000000022,7.15201416015625,-0.301165771484375,8.090054321289063
6.394000000000013,8.306134033203126,-0.6974365234375001,7.508807373046875
6.40400000000011,7.832403564453125,0.454888916015625,3.4598175048828126
6.414000000000115,7.957266235351563,1.0777069091796876,2.2186676025390626
6.424000000000106,8.090054321289063,0.64300537109375,4.9322998046875
6.435000000000066,6.701162719726563,-0.6114532470703126,7.828964233398438
6.444000000000081,5.8857421875,-0.01016845703125,6.605459594726563
6.454000000000072,8.209982299804688,0.093310546875,6.329714965820313
6.464000000000063,9.327316284179688,-0.8302246093750001,7.796813964843751
6.4740000000000535,8.35548095703125,-0.7034179687500001,6.337789916992188
6.485000000000021,6.373379516601563,-0.01973876953125,5.038769531250001
6.495000000000012,6.204254150390626,-0.27095947265625,6.528149414062501
6.505000000000116,6.100924682617188,-0.1003387451171875,7.34940185546875
6.515000000000114,6.432147216796875,0.2223602294921875,6.577047729492188
6.525000000000105,7.598379516601563,0.336456298828125,5.765216064453125
6.535000000000089,8.881997680664064,0.1858734130859375,6.477456665039063
6.54500000000008,8.660385131835938,0.2217620849609375,7.022665405273438
6.555000000000071,7.906124877929688,0.6854736328125001,6.822137451171876
6.565000000000062,7.226931762695313,0.6715667724609375,6.146234130859376
6.575000000000053,6.896755981445313,-0.0022430419921875,5.659194946289063
6.585000000000044,6.318350219726563,-0.1981353759765625,5.998342895507813
6.595000000000034,5.50711669921875,0.572723388671875,5.777627563476563
6.606000000000115,5.196231079101563,0.2364166259765625,5.746524047851563
6.615000000000016,6.0807373046875,-0.446514892578125,6.02032470703125
6.626000000000097,11.23135986328125,-0.41571044921875,6.249713134765625
6.636000000000088,14.280252075195314,-0.2307342529296875,6.6097961425781255
6.646000000000079,10.046286010742188,0.13697509765625,6.013894653320313
6.656000000000077,5.2624755859375005,0.2465850830078125,7.246969604492188
6.666000000000061,3.524118041992188,-0.401055908203125,9.22279052734375
6.676000000000052,4.263723754882813,-0.185125732421875,8.130877685546876
6.686000000000043,5.316159057617188,0.471038818359375,2.9923675537109378
6.6960000000000335,9.9519287109375,0.19678955078125,3.9159027099609376
6.706000000000024,10.80009765625,-0.8157196044921876,8.216262817382812
6.716000000000015,8.656198120117189,-0.224005126953125,7.956967163085938
6.726000000000006,5.709140014648438,1.07606201171875,7.315307617187501
6.736000000000111,7.725186157226563,-0.8369537353515626,8.73231201171875
6.746000000000102,8.222393798828126,-1.0981933593750002,7.6715026855468755
6.756000000000093,8.177682495117189,0.3342132568359375,3.103323364257813
6.76700000000006,7.559500122070313,0.098095703125,1.4563323974609377
6.777000000000051,7.625146484375,-0.1807891845703125,4.425222778320313
6.787000000000042,6.737350463867188,-0.0251220703125,7.176986694335938
6.797000000000033,6.326275634765626,0.137872314453125,7.601669311523438
6.807000000000024,8.629730224609375,1.3006652832031251,6.210983276367188
6.818000000000104,9.6373046875,0.539227294921875,7.3464111328125
6.827000000000005,8.192337036132812,-0.1897613525390625,7.147079467773438
6.837000000000117,6.220404052734375,0.9132171630859376,5.792282104492188
6.847000000000101,5.534481811523438,0.54849853515625,6.346163940429688
6.857000000000092,5.969631958007813,-0.375335693359375,7.051525878906251
6.867000000000083,6.799856567382813,-0.636724853515625,6.413604736328126
6.8770000000000735,7.882498168945313,0.0112152099609375,5.538519287109375
6.887000000000064,8.9566162109375,-0.0276641845703125,5.843722534179688
6.898000000000032,8.623748779296875,-0.7542602539062501,7.521368408203125
6.907000000000046,7.619912719726563,-0.273052978515625,7.617520141601563
6.9180000000000135,6.778921508789063,0.1819854736328125,5.955874633789063
6.928000000000004,6.928457641601563,-0.2352203369140625,5.179333496093751
6.938000000000116,6.82841796875,-0.19439697265625,5.959912109375001
6.948000000000107,5.197277832031251,0.466552734375,5.652316284179688
6.958000000000091,4.1200195312500005,0.2992218017578125,4.56802978515625
6.968000000000082,9.7174560546875,0.575115966796875,6.719256591796875
6.978000000000073,13.56875915527344,-0.0201873779296875,8.428155517578126
6.988000000000064,10.66431884765625,0.2077056884765625,5.299111938476563
6.998000000000054,6.191693115234376,0.60711669921875,5.735906982421875
7.008000000000045,4.4793548583984375,-0.5591156005859376,9.936227416992187
7.018000000000036,4.875326538085938,-0.2160797119140625,9.500927734375
7.028000000000034,5.329916381835938,0.5790039062500001,3.504229736328125
7.038000000000025,8.8345947265625,0.194097900390625,3.05233154296875
7.048000000000009,10.69482421875,-0.7722045898437501,7.584472656250001
7.05900000000009,8.636160278320313,-0.5277130126953126,8.011099243164063
7.069000000000081,6.244329833984375,1.2415985107421876,6.784603881835938
7.079000000000072,7.248464965820313,0.0761138916015625,8.162280273437501
7.089000000000063,8.477651977539063,-0.8306732177734376,8.303143310546876
7.0990000000000535,7.902386474609376,0.560760498046875,3.7126831054687504
7.109000000000044,7.998089599609376,2.0631500244140626,1.6878143310546876
7.119000000000035,8.365948486328126,-0.459674072265625,4.339389038085938
7.129000000000026,6.806436157226563,-0.40135498046875,7.792626953125
7.139000000000017,5.583978271484376,-0.04605712890625,6.373977661132813
7.149000000000008,7.889526367187501,0.0225799560546875,6.0834289550781255
7.159000000000113,9.089553833007812,-0.9055908203125,8.456567382812501
7.169000000000104,8.504718017578126,-0.6261077880859376,6.945654296875
7.179000000000094,6.643292236328126,0.086431884765625,4.856634521484375
7.189000000000085,6.327322387695313,-0.3404937744140625,6.536224365234376
7.200000000000053,6.097784423828125,-0.0336456298828125,7.858871459960938
7.2100000000000435,6.048736572265625,0.326287841796875,6.600973510742188
7.220000000000034,7.541107177734376,0.552984619140625,5.003628540039063
7.230000000000025,8.963046264648439,0.2268463134765625,6.426614379882813
7.240000000000016,8.995196533203126,0.3515594482421875,6.823184204101563
7.25,8.087063598632813,0.7614379882812501,6.0968872070312505
7.260000000000112,7.232614135742188,0.2770904541015625,6.825875854492188
7.270000000000103,6.690246582031251,0.0617584228515625,6.718060302734376
7.280000000000093,6.358724975585938,-0.0629547119140625,5.6644287109375
7.290000000000084,5.723794555664063,-0.0844879150390625,5.729776000976563
7.300000000000075,5.218960571289063,0.1293487548828125,6.079840087890625
7.310000000000066,5.03936767578125,-0.3249420166015625,5.637362670898438
7.32000000000005,10.540054321289062,-0.8656646728515626,6.139505004882813
7.330000000000048,14.888714599609376,-0.256903076171875,6.952981567382813
7.341000000000015,10.965634155273438,0.0994415283203125,5.783010864257813
7.351000000000006,5.680429077148438,0.335260009765625,6.578692626953125
7.361000000000111,3.755300903320313,-0.1182830810546875,9.194378662109376
7.371000000000102,3.987380981445313,0.048150634765625,8.486474609375001
7.381000000000093,5.0638916015625,1.3845550537109377,3.280075073242188
7.3910000000000835,9.266156005859376,1.8075927734375,3.3926757812500004
7.401000000000074,10.927801513671875,-1.9785125732421875,7.818197631835938
7.411000000000065,8.603561401367188,-0.4819549560546875,9.05994567871094
7.421000000000056,5.816506958007813,0.8457763671875,7.985079956054688
7.431000000000047,7.503872680664063,-1.09281005859375,8.235104370117188
7.441000000000038,8.723190307617188,-1.149932861328125,7.597781372070313
7.451000000000036,8.256039428710938,-0.118133544921875,3.40523681640625
7.461000000000027,7.165921020507813,0.0572723388671875,1.389190673828125
7.471000000000011,8.074951171875,-0.0282623291015625,3.592306518554688
7.482000000000092,7.040908813476563,-0.5042358398437501,6.474316406250001
7.492000000000083,6.060699462890625,0.3158203125,7.089358520507813
7.5020000000000735,8.12220458984375,1.59285888671875,6.730322265625
7.512000000000064,10.124044799804688,0.128302001953125,8.020819091796875
7.522000000000055,8.596682739257814,0.7261474609375,7.280166625976563
7.532000000000046,6.097186279296875,0.7020721435546875,5.320794677734376
7.54200000000003,5.469134521484375,0.39656982421875,6.483886718750001
7.552000000000035,5.77628173828125,-0.32120361328125,7.97147216796875
7.562000000000026,6.139953613281251,-0.3883453369140625,6.415548706054688
7.57200000000001,7.905526733398438,0.1281524658203125,4.316958618164063
7.582000000000114,9.387579345703124,-0.7245025634765625,6.328817749023438
7.592000000000105,9.141293334960938,-0.5959014892578125,7.629632568359375
7.602000000000096,7.647427368164063,-0.0758148193359375,6.59573974609375
7.61200000000008,6.728378295898438,-0.274847412109375,6.408520507812501
7.622000000000078,6.81705322265625,-0.287109375,6.606057739257813
7.632000000000076,6.608001708984376,-0.027813720703125,5.372384643554688
7.643000000000036,6.255545043945313,0.4550384521484375,4.4789062500000005
7.653000000000034,4.369296264648438,0.0506927490234375,5.0411621093750005
7.663000000000025,6.297714233398438,0.290997314453125,6.420184326171875
7.673000000000009,12.839321899414063,0.8052520751953126,7.714718627929688
7.6830000000001135,13.227069091796876,-0.22789306640625,6.887933349609376
7.693000000000104,8.658291625976563,0.468646240234375,5.225689697265626
7.703000000000095,4.243386840820313,-0.0327484130859375,8.339181518554689
7.713000000000086,4.465447998046876,-0.5748168945312501,10.911801147460938
7.723000000000084,4.2221527099609375,0.194097900390625,6.166271972656251
7.734000000000044,7.2243896484375005,0.7654754638671876,2.088421630859376
7.743000000000059,10.442257690429688,0.7970275878906251,5.217764282226563
7.75300000000005,10.855126953125,-1.32967529296875,7.616024780273438
7.763000000000041,7.095489501953126,0.2950347900390625,7.023712158203126
7.774000000000008,6.260629272460938,0.93011474609375,7.886984252929688
7.784000000000113,7.747317504882813,-0.807196044921875,9.172695922851563
7.794000000000103,8.143438720703125,-0.54132080078125,6.247619628906251
7.804000000000094,7.797711181640626,0.7049133300781251,1.8340606689453127
7.814000000000085,8.160934448242188,2.4549346923828126,2.954684448242188
7.824000000000076,7.828067016601563,-0.8152709960937501,6.150570678710938
7.834000000000067,5.627493286132813,-0.310736083984375,7.358074951171876
7.844000000000058,6.272293090820313,0.551190185546875,5.8800598144531255
7.854000000000049,9.158041381835938,-0.5680877685546876,7.3727294921875
7.86400000000004,9.2293701171875,-1.0935577392578126,8.152560424804689
7.874000000000031,7.643838500976563,-0.4442718505859375,5.3390380859375
7.885000000000112,6.373828125,-0.25660400390625,5.229428100585938
7.894000000000013,6.184963989257813,-0.366961669921875,7.624398803710938
7.905000000000093,5.91265869140625,0.0019439697265625,7.66881103515625
7.915000000000084,6.509606933593751,0.49346923828125,5.442218017578125
7.925000000000075,8.272937011718751,0.3025115966796875,5.229876708984375
7.935000000000066,9.140097045898438,-0.003289794921875,7.090255737304688
7.94500000000005,8.548681640625,0.6966888427734376,6.8056884765625005
7.955000000000048,7.725784301757813,0.96719970703125,5.994305419921876
7.965000000000039,7.063638305664063,0.227294921875,6.86729736328125
7.975000000000037,6.648974609375,-0.0366363525390625,6.5472900390625
7.985000000000021,6.249563598632813,0.2038177490234375,5.309878540039063
7.995000000000012,5.8127685546875005,0.23267822265625,5.533285522460938
8.005000000000116,5.226437377929688,-0.1900604248046875,6.330313110351563
8.015000000000114,5.8296661376953125,-0.4203460693359375,5.661138916015625
8.025000000000105,11.435177612304688,-0.4725341796875,6.0281005859375005
8.035000000000089,14.409750366210938,-0.2962310791015625,6.84097900390625
8.04500000000008,9.89136657714844,0.1766021728515625,6.192141723632813
8.056000000000047,5.43533935546875,0.1724151611328125,7.242483520507813
8.065000000000062,3.720159912109376,-0.310736083984375,9.3693359375
8.076000000000036,4.118673706054688,-0.13099365234375,7.9325927734375
8.087000000000117,5.241989135742188,0.6515289306640626,2.7275390625
8.09600000000001,9.836038208007814,0.353802490234375,3.969137573242188
8.106000000000115,10.905969238281251,-0.5683868408203125,8.0450439453125
8.116000000000106,8.507110595703125,0.084637451171875,7.8967041015625
8.126000000000097,5.846414184570313,0.7950836181640626,7.609445190429688
8.136000000000088,7.527798461914063,-1.045108032226563,8.834146118164064
8.146000000000079,8.704647827148438,-1.1370727539062502,7.813711547851563
8.156000000000077,7.502676391601563,0.0195892333984375,3.1163330078125004
8.16600000000006,7.988220214843751,1.6214202880859376,1.1565124511718752
8.176000000000052,7.829562377929688,-0.8898895263671875,4.5028320312500005
8.186000000000043,6.420932006835938,-0.7493255615234375,6.944308471679688
8.198000000000107,5.894415283203125,0.66812744140625,6.960159301757813
8.207000000000114,8.866744995117188,0.9595733642578126,6.759182739257813
8.217000000000105,9.898245239257813,0.435150146484375,8.139700317382813
8.227000000000096,7.888330078125,0.80869140625,6.666619873046876
8.23700000000008,6.301153564453125,0.4290191650390625,5.2629241943359375
8.247000000000078,6.020474243164063,0.1670318603515625,6.898849487304688
8.257000000000076,5.680877685546875,-0.1556671142578125,7.644735717773438
8.26700000000006,6.254049682617188,-0.4242340087890625,5.654559326171875
8.27700000000005,8.094540405273438,-0.293988037109375,5.1178741455078125
8.287000000000042,9.116320800781253,-0.4338043212890625,6.969430541992188
8.297000000000033,8.737396240234375,-0.368157958984375,6.958514404296875
8.307000000000023,7.673147583007813,-0.2995208740234375,6.507812500000001
8.317000000000014,6.931448364257813,-0.1395172119140625,6.665872192382813
8.327000000000005,6.710733032226563,-0.1710693359375,6.15311279296875
8.337000000000117,6.265264892578125,0.0447113037109375,5.115780639648438
8.3470000000001,5.194137573242188,0.4115234375,5.046395874023438
8.358000000000075,4.901943969726563,0.0841888427734375,5.628390502929688
8.368000000000059,10.343264770507814,0.855047607421875,6.595590209960938
8.37800000000005,13.60464782714844,0.2002288818359375,7.304391479492188
8.38800000000004,10.0787353515625,0.2235565185546875,5.733364868164063
8.398000000000032,5.58487548828125,0.692352294921875,6.803445434570313
8.408000000000023,4.542459106445313,-0.5076751708984375,10.250701904296877
8.418000000000013,4.350155639648438,-0.402850341796875,8.418435668945314
8.428000000000004,6.202908325195313,0.6718658447265625,3.196035766601563
8.438000000000116,9.124844360351563,0.0886749267578125,3.867453002929688
8.448000000000107,10.923016357421876,-1.0433135986328126,7.63890380859375
8.45800000000009,8.055810546875001,-0.020635986328125,7.428656005859375
8.468000000000082,6.250012207031251,0.6869689941406251,7.194183349609376
8.478000000000073,7.427758789062499,-0.5298065185546875,8.170654296875
8.488000000000063,8.447146606445314,-0.421392822265625,7.589108276367188
8.49900000000003,7.838235473632813,0.4170562744140625,3.236859130859376
8.509000000000022,8.111737060546876,0.5778076171875001,2.046701049804688
8.519000000000013,7.939920043945313,1.0863800048828125,5.341879272460938
8.52900000000011,6.7865478515625,0.44442138671875,7.313214111328126
8.539000000000115,5.706298828125,0.0394775390625,6.660339355468751
8.549000000000106,8.259628295898438,0.1111053466796875,6.5807861328125
8.55900000000009,9.10196533203125,-0.8199066162109375,8.02052001953125
8.56900000000008,8.043997192382813,-1.0800994873046876,6.605010986328126
8.579000000000072,6.414202880859375,-0.1260589599609375,5.081536865234376
8.589000000000063,6.478054809570313,-0.23267822265625,6.660339355468751
8.599000000000053,6.311770629882813,-0.368157958984375,7.428057861328125
8.609000000000044,6.413156127929688,0.11424560546875,6.079690551757813
8.619000000000035,7.754794311523438,0.4577301025390625,5.316906738281251
8.629000000000026,8.827117919921875,0.1748077392578125,6.639553833007813
8.640000000000114,8.60430908203125,0.31103515625,7.1789306640625
8.650000000000105,7.754345703125001,0.9610687255859376,6.415249633789063
8.660000000000089,7.419982910156251,0.6871185302734375,6.244778442382813
8.67000000000008,6.883148193359376,-0.03409423828125,6.538766479492188
8.68000000000007,6.4767089843750005,0.1278533935546875,6.0106048583984375
8.690000000000062,5.715420532226563,0.5434143066406251,5.2146240234375005
8.700000000000053,5.271148681640625,-0.122918701171875,5.809628295898438
8.710000000000043,5.170660400390625,-0.4773193359375,6.198571777343751
8.720000000000034,9.845907592773438,-0.3481201171875,5.878863525390625
8.730000000000025,15.169244384765626,-0.218023681640625,6.450988769531251
8.740000000000016,11.941357421875,-0.7152313232421875,6.525457763671875
8.75,5.5220703125,0.2956329345703125,6.717611694335938
8.760000000000112,3.1954376220703127,-0.003887939453125,8.357125854492189
8.770000000000103,3.880313110351562,-0.293988037109375,9.228472900390626
8.780000000000094,4.9384307861328125,0.4134674072265625,4.128543090820313
8.79100000000006,8.828164672851564,1.79263916015625,2.802755737304688
8.801000000000052,11.311660766601562,-0.337652587890625,7.517181396484376
8.811000000000043,9.39969177246094,-1.5782043457031252,8.717059326171876
8.821000000000033,5.489022827148438,1.1475402832031252,8.928952026367188
8.831000000000024,6.891970825195313,-0.237762451171875,7.925564575195313
8.841000000000015,9.022262573242188,-1.21064453125,7.218707275390625
8.851000000000006,8.329760742187501,0.09630126953125,4.022671508789063
8.86100000000011,7.777224731445313,0.114544677734375,1.1476898193359375
8.871000000000102,7.351644897460938,-0.161798095703125,3.2210083007812504
8.881000000000093,6.63760986328125,-0.2883056640625,6.449493408203126
8.891000000000084,6.166571044921875,-0.1308441162109375,8.022912597656251
8.901000000000074,8.166467285156251,0.710296630859375,7.2770263671875
8.911000000000065,10.112530517578126,1.00308837890625,6.723294067382813
8.922000000000033,8.820388793945312,-0.156414794921875,7.085470581054688
8.932000000000023,6.341378784179688,0.489581298828125,6.092999267578126
8.942000000000014,5.317355346679688,0.6721649169921875,6.332257080078126
8.952000000000005,5.5485382080078125,0.1351806640625,7.067974853515626
8.962000000000117,6.601571655273438,-0.3988128662109375,6.117074584960938
8.9720000000001,8.087063598632813,-0.1592559814453125,5.277728271484375
8.982000000000092,9.086862182617187,0.131292724609375,6.012548828125
8.992000000000083,8.85194091796875,-0.490179443359375,7.179528808593751
9.002000000000073,7.721896362304688,-0.3539520263671875,7.597482299804688
9.012000000000064,6.94266357421875,0.0088226318359375,6.862213134765626
9.022000000000055,6.726434326171876,-0.4598236083984375,5.751608276367188
9.034000000000113,6.771444702148438,-0.183331298828125,5.3282714843750005
9.04200000000003,6.734210205078125,0.4605712890625,5.386441040039063
9.053000000000004,5.886190795898438,-0.0091217041015625,5.50711669921875
9.062000000000026,4.665228271484375,-0.3835601806640625,5.299411010742188
9.07200000000001,8.562289428710939,0.5640502929687501,6.582431030273438
9.08300000000009,13.67298583984375,0.466253662109375,7.858123779296876
9.093000000000082,11.53506774902344,-0.1502838134765625,6.072811889648438
9.103000000000073,6.782659912109375,0.687567138671875,5.4969482421875
9.113000000000063,4.085028076171875,-0.1368255615234375,9.755587768554689
9.123000000000054,4.542010498046875,-0.4867401123046875,10.402182006835938
9.134000000000022,5.015740966796876,0.5728729248046875,4.298117065429688
9.143000000000036,8.120559692382812,0.4510009765625,2.2292846679687504
9.153000000000034,11.185302734375,-0.5075256347656251,6.589907836914063
9.163000000000023,9.375466918945314,-0.5586669921875,7.760177612304688
9.173000000000007,6.679180908203126,1.302459716796875,6.482989501953125
9.183000000000114,6.436483764648438,0.5073760986328125,8.1407470703125
9.193000000000104,8.100372314453125,-1.1333343505859377,9.034674072265624
9.203000000000095,7.962051391601563,0.1251617431640625,4.7290802001953125
9.214000000000064,7.919134521484375,2.016793823242188,1.64908447265625
9.224000000000052,8.505166625976564,-0.1006378173828125,3.7678619384765626
9.234000000000044,6.842474365234375,-0.346026611328125,7.883395385742188
9.244000000000035,5.714822387695313,-0.216229248046875,6.636712646484376
9.254000000000026,7.38170166015625,0.2761932373046875,5.660391235351563
9.264000000000015,9.4458984375,-0.6434539794921875,7.853338623046875
9.274000000000008,8.579486083984376,-1.2490753173828126,7.5354248046875005
9.284000000000113,6.726135253906251,-0.2069580078125,4.990469360351563
9.294000000000104,6.319696044921876,0.08433837890625,5.89591064453125
9.304000000000094,6.394912719726563,-0.1831817626953125,7.836590576171876
9.314000000000084,6.199618530273438,0.2358184814453125,6.868493652343751
9.324000000000076,7.134967041015625,0.7270446777343751,5.0351806640625005
9.334000000000067,8.614627075195314,0.1933502197265625,6.08133544921875
9.344000000000058,8.796612548828126,0.108563232421875,7.405178833007813
9.355000000000024,8.026950073242189,0.8112335205078126,6.688003540039063
9.365000000000016,7.5025268554687505,0.8336639404296876,5.999090576171875
9.375,7.095489501953126,-0.154022216796875,6.418240356445313
9.385000000000112,6.415997314453126,-0.233575439453125,6.293527221679688
9.395000000000104,5.512200927734376,0.363671875,5.320196533203125
9.405000000000094,5.0830322265625005,-0.1069183349609375,5.66263427734375
9.415000000000084,5.368197631835938,-0.5386291503906251,6.19737548828125
9.425000000000075,10.159933471679688,-0.593359375,6.138757324218751
9.435000000000066,14.876153564453126,-0.152825927734375,6.365753173828126
9.44500000000005,11.563928222656251,-0.3847564697265625,6.266162109375
9.455000000000048,5.864059448242188,0.4164581298828125,6.9073730468750005
9.46500000000004,3.2313262939453127,-0.0705810546875,8.556307983398439
9.475000000000035,3.737057495117188,-0.10347900390625,8.711227416992188
9.48500000000002,4.625302124023438,0.6002380371093751,3.8850982666015614
9.495000000000012,9.245669555664064,3.046051025390625,2.9756195068359377
9.506000000000093,11.150012207031253,-1.5931579589843752,7.420730590820313
9.516000000000084,9.4375244140625,-1.4204437255859377,8.700161743164063
9.526000000000074,5.593548583984376,1.2341217041015626,8.759976196289063
9.536000000000064,6.9806457519531255,-0.6089111328125001,8.352639770507814
9.546000000000056,8.700460815429688,-1.284515380859375,7.602267456054688
9.556000000000047,8.225833129882814,0.0154022216796875,3.950894165039063
9.566000000000038,7.675540161132813,0.133087158203125,0.954937744140625
9.576000000000036,7.721447753906251,-0.157012939453125,3.192745971679688
9.586000000000029,6.758883666992188,-0.484197998046875,6.170758056640626
9.59600000000001,6.132028198242188,-0.0418701171875,7.723690795898438
9.606000000000115,8.170803833007813,0.9633117675781252,7.349700927734376
9.616000000000106,10.438668823242187,0.71478271484375,7.201211547851563
9.626000000000095,8.613879394531251,0.2322296142578125,7.417141723632813
9.636000000000088,6.030194091796876,0.762335205078125,5.565585327148438
9.64600000000008,5.5041259765625,0.5863311767578125,6.262124633789063
9.657000000000046,5.7290283203125005,-0.0921142578125,7.325775146484376
9.66700000000003,6.4423156738281255,-0.2325286865234375,5.961407470703126
9.677000000000035,7.861264038085938,-0.0174957275390625,4.829568481445313
9.687000000000026,9.126040649414064,-0.338250732421875,6.422726440429688
9.69700000000001,8.670703125000001,-0.5706298828125,7.908966064453126
9.707000000000114,7.671353149414063,-0.2595947265625,7.441964721679688
9.717000000000104,7.124798583984376,-0.1338348388671875,6.383099365234376
9.727000000000096,6.917092895507813,-0.5715270996093751,5.963351440429688
9.73700000000008,6.714022827148438,-0.0826934814453125,5.2998596191406255
9.747000000000078,6.308181762695313,0.4523468017578125,4.974020385742188
9.757000000000076,5.176193237304688,0.23626708984375,5.297467041015626
9.76700000000006,5.415750122070313,-0.1460968017578125,5.93778076171875
9.77700000000005,10.978195190429688,0.75904541015625,7.152462768554688
9.787000000000042,13.72547302246094,0.37144775390625,7.193585205078126
9.798000000000007,9.972265625,0.1401153564453125,5.332608032226563
9.808000000000114,5.027105712890625,0.4062896728515625,7.025506591796876
9.818000000000104,4.299014282226563,-0.48629150390625,10.7079833984375
9.828000000000095,4.1219635009765625,-0.093011474609375,7.910012817382813
9.838000000000086,6.473718261718751,0.7856628417968751,2.7869049072265626
9.848000000000084,9.509451293945313,0.0829925537109375,3.926519775390626
9.858000000000075,11.022756958007813,-0.9778167724609376,7.710232543945313
9.86800000000006,7.926312255859376,-0.20875244140625,7.129434204101563
9.87800000000005,6.141598510742188,0.7781860351562501,7.465591430664063
9.88800000000004,7.356430053710938,-0.6978851318359376,8.896203613281251
9.898000000000032,8.575149536132812,-0.569134521484375,7.190744018554688
9.908000000000024,7.8853393554687505,0.4598236083984375,2.7311279296875
9.918000000000012,8.151364135742188,1.6878143310546876,2.2378082275390625
9.928000000000004,7.937228393554688,0.4445709228515625,5.361767578125001
9.939000000000084,6.035726928710938,-0.337054443359375,7.500433349609375
9.950000000000053,6.01553955078125,0.4007568359375,6.594692993164063
9.959000000000067,8.422772216796876,0.168377685546875,6.811370849609376
9.969000000000058,9.538311767578126,-0.58857421875,7.505368041992188
9.979000000000047,7.907620239257813,-0.9628631591796876,6.401492309570313
9.98900000000004,6.477755737304688,-0.2044158935546875,5.789141845703125
9.99900000000003,6.120065307617188,0.1822845458984375,6.8044921875
10.009000000000022,6.248516845703126,-0.5214324951171876,6.926663208007813
10.019000000000013,6.510055541992188,-0.146844482421875,6.095541381835938
10.02900000000011,7.928704833984375,0.5815460205078126,5.429806518554688
10.039000000000115,8.931643676757814,-0.1134979248046875,6.172253417968751
10.050000000000075,8.489913940429688,0.17764892578125,7.071713256835938
10.05900000000009,7.760177612304688,0.8933288574218751,7.1430419921875
10.07000000000005,7.229025268554688,0.60113525390625,6.40672607421875
10.080000000000048,6.920382690429688,0.0094207763671875,5.9587158203125
10.09000000000004,6.5712158203125,0.14654541015625,6.357528686523438
10.100000000000035,5.6587463378906255,0.608013916015625,5.770449829101563
10.11000000000002,5.272045898437501,0.08792724609375,5.484835815429688
10.120000000000012,5.6979248046875,-0.356494140625,6.290386962890626
10.130000000000116,9.68994140625,-0.210247802734375,5.91923828125
10.140000000000114,14.388815307617188,-0.344232177734375,5.938977050781251
10.150000000000103,11.841616821289064,-0.4466644287109375,6.284255981445313
10.160000000000087,5.878863525390625,0.2452392578125,6.847857666015625
10.17000000000008,3.471481323242188,-0.150732421875,8.544793701171876
10.18000000000007,3.8741821289062495,-0.2657257080078125,9.041104125976563
10.190000000000062,5.388684082031251,0.358587646484375,5.096041870117188
10.200000000000053,8.291030883789062,0.279931640625,2.366259765625
10.210000000000043,11.116665649414063,-0.3626251220703125,6.823184204101563
10.22100000000001,9.159536743164065,-0.7128387451171876,8.930596923828126
10.231000000000115,6.144439697265626,0.9380401611328124,8.099325561523438
10.241000000000106,6.630731201171876,0.5236755371093751,7.818197631835938
10.251000000000095,8.856427001953126,-1.5044830322265623,7.864105224609376
10.261000000000088,8.392864990234376,-0.093310546875,4.579244995117188
10.27100000000008,7.47501220703125,1.9873352050781248,1.3743865966796875
10.281000000000075,7.861114501953126,-0.5911163330078125,3.039620971679688
10.29100000000006,6.7602294921875,-1.1370727539062502,6.856231689453126
10.302000000000035,5.858676147460938,-0.099591064453125,8.105905151367189
10.311000000000044,8.0761474609375,0.602630615234375,6.404782104492188
10.321000000000032,10.470071411132814,0.271856689453125,6.930401611328126
10.331000000000024,8.643936157226562,0.3457275390625,7.778720092773438
10.341000000000015,6.083578491210938,0.6135467529296875,5.597286987304688
10.351000000000006,5.604464721679688,0.5594146728515625,5.786001586914063
10.36100000000011,6.135467529296876,-0.0705810546875,7.489218139648438
10.372000000000078,6.734957885742188,-0.056524658203125,6.016885375976563
10.382000000000076,7.816253662109376,0.1084136962890625,4.4090728759765625
10.39200000000006,8.838632202148439,-0.191705322265625,6.327471923828125
10.40200000000005,8.159588623046876,-0.420794677734375,8.603411865234376
10.412000000000042,7.306484985351563,-0.0234771728515625,7.697970581054688
10.422000000000033,7.254895019531251,-0.1185821533203125,6.200216674804688
10.432000000000023,7.303643798828125,-0.5848358154296875,5.872134399414063
10.442000000000014,7.099676513671875,-0.141461181640625,5.326177978515625
10.452000000000004,6.266012573242188,0.32060546875,5.047891235351563
10.462000000000115,4.883999633789063,0.1855743408203125,5.586370849609375
10.4720000000001,5.860321044921875,-0.016748046875,6.423623657226563
10.482000000000092,11.119805908203126,0.575714111328125,6.9875244140625
10.492000000000084,12.700103759765629,0.06878662109375,6.2972656250000005
10.502000000000072,9.481188964843753,0.301165771484375,5.437582397460938
10.51300000000004,5.038619995117188,0.1233673095703125,7.762420654296876
10.523000000000032,4.488327026367188,-0.3973175048828125,9.949835205078124
10.533000000000024,4.618722534179688,0.108563232421875,7.486526489257813
10.543000000000012,7.254147338867188,0.7077545166015625,3.0499389648437503
10.553000000000004,9.847103881835938,-0.0904693603515625,4.518682861328125
10.563000000000116,10.085763549804687,-1.0495941162109377,7.431646728515625
10.573000000000109,7.3404296875,0.0466552734375,7.488769531250001
10.58300000000009,6.2090393066406255,0.8448791503906251,7.661184692382813
10.593000000000082,7.6478759765625,-0.5924621582031251,8.221347045898439
10.603000000000073,8.626290893554689,-0.343035888671875,6.369192504882813
10.613000000000063,7.842572021484376,0.5794525146484375,2.9739746093750004
10.623000000000054,8.25738525390625,0.652874755859375,2.789447021484375
10.633000000000044,7.678829956054688,0.7686157226562501,5.9672393798828125
10.643000000000036,5.770599365234375,0.043365478515625,7.565780639648438
10.65400000000011,6.484036254882813,0.680389404296875,6.420034790039063
10.664000000000115,8.951531982421876,-0.6461456298828125,7.0030761718750005
10.674000000000106,9.229818725585938,-0.660650634765625,7.324130249023438
10.68400000000009,7.596435546875001,-0.24583740234375,5.446405029296876
10.69400000000008,6.480447387695313,-0.7953826904296876,5.846414184570313
10.704000000000072,6.489419555664063,-0.1906585693359375,7.333401489257813
10.714000000000064,6.0460449218750005,0.198583984375,6.856979370117188
10.724000000000052,6.666171264648438,-0.032598876953125,5.52506103515625
10.734000000000044,8.0833251953125,0.2029205322265625,6.0609985351562505
10.744000000000035,8.550177001953125,0.182135009765625,7.271942138671876
10.754000000000026,8.022164916992189,0.5615081787109375,6.801800537109376
10.764000000000015,7.831805419921875,0.7759429931640626,6.55626220703125
10.774000000000008,7.564285278320313,0.389990234375,6.663479614257813
10.784000000000113,7.094891357421876,0.2268463134765625,5.536276245117188
10.794000000000104,6.517083740234376,0.0992919921875,5.519976806640625
10.80500000000007,5.7728424072265625,0.5224792480468751,6.007913208007813
10.815000000000062,5.05133056640625,0.0222808837890625,6.214721679687501
10.825000000000053,5.299111938476563,-0.4311126708984375,6.282012939453126
10.835000000000043,10.5177734375,-0.2763427734375,6.161038208007813
10.845000000000034,15.070849609375,-0.1918548583984375,6.390875244140625
10.855000000000024,11.0357666015625,-0.5793029785156251,5.630932617187501
10.865000000000016,5.009161376953125,0.0765625,6.744229125976563
10.875,3.187960815429688,-0.167779541015625,8.769696044921876
10.885000000000112,4.127197265625,-0.12022705078125,8.612084960937501
10.895000000000104,5.604464721679688,0.404644775390625,4.0427093505859375
10.905000000000094,9.67618408203125,0.216229248046875,3.142501831054688
10.915000000000084,11.247808837890624,-0.5671905517578125,7.60301513671875
10.925000000000075,8.50860595703125,-0.653472900390625,8.828912353515626
10.935000000000066,5.433694458007813,1.0116119384765625,8.245721435546876
10.94500000000005,6.893765258789063,0.36905517578125,8.199664306640626
10.956000000000024,8.888278198242189,-1.1605499267578123,7.000534057617188
10.966000000000015,8.338583374023438,0.49287109375,3.828125
10.976000000000006,7.4564697265625,1.1333343505859377,1.20765380859375
10.98600000000011,7.938873291015626,-0.7442413330078126,3.4572753906250004
10.996000000000102,6.999337768554688,-0.81287841796875,7.0497314453125
11.006000000000093,5.900994873046876,-0.1484893798828125,8.393463134765625
11.016000000000084,8.125643920898439,0.935498046875,6.113186645507813
11.026000000000074,10.281057739257813,-0.1954437255859375,6.971673583984376
11.036000000000064,8.61627197265625,0.0303558349609375,7.981939697265625
11.046000000000056,5.9294067382812505,0.9975555419921877,5.228680419921876
11.056000000000047,5.354739379882813,0.42288818359375,5.500985717773438
11.066000000000038,6.155804443359376,-0.3258392333984375,7.998837280273438
11.076000000000036,6.4946533203125005,0.0330474853515625,7.159939575195313
11.086000000000029,7.897451782226563,0.43365478515625,4.203012084960938
11.0970000000001,9.198715209960938,-0.124713134765625,5.75235595703125
11.107000000000092,8.661880493164062,-0.6092102050781251,8.827267456054688
11.117000000000084,7.371533203125001,0.168377685546875,7.293923950195313
11.127000000000072,6.991860961914063,-0.0420196533203125,5.282962036132813
11.137000000000064,7.060946655273438,-0.66334228515625,6.053970336914063
11.147000000000055,6.971374511718751,-0.0713287353515625,6.150271606445313
11.157000000000046,6.404034423828126,0.3446807861328125,4.623208618164063
11.16700000000003,5.2935791015625,0.277239990234375,4.992861938476563
11.177000000000035,5.3605712890625,-0.1383209228515625,7.027151489257813
11.187000000000026,10.575942993164062,0.337353515625,8.048931884765626
11.19700000000001,13.455560302734376,0.43485107421875,6.242236328125
11.207000000000114,9.8992919921875,-0.055328369140625,4.691247558593751
11.217000000000104,5.24393310546875,0.034991455078125,7.527499389648438
11.227000000000096,3.894219970703125,-0.4098785400390625,9.541900634765623
11.238000000000063,4.327874755859376,-0.0267669677734375,7.419235229492188
11.24900000000003,6.576300048828125,0.60950927734375,3.151473999023438
11.258000000000044,10.013388061523438,0.0408233642578125,4.721603393554688
11.268000000000036,10.806826782226564,-0.8768798828125001,7.637857055664063
11.278000000000034,7.761672973632813,0.0195892333984375,7.724737548828125
11.288000000000023,6.036325073242188,1.0075744628906251,8.120709228515626
11.298000000000007,7.313064575195313,-0.34154052734375,8.363854980468751
11.308000000000114,8.509951782226564,-0.5959014892578125,6.115130615234375
11.318000000000104,7.693185424804688,0.447412109375,2.9651519775390627
11.328000000000095,8.270843505859375,1.5641479492187502,2.373587036132813
11.338000000000086,7.896554565429688,0.6027801513671875,4.909869384765625
11.349000000000052,6.296218872070313,-0.8299255371093751,8.041156005859376
11.358000000000075,6.115429687500001,0.5595642089843751,7.181173706054688
11.36800000000006,8.947793579101564,-0.127703857421875,6.437081909179688
11.379000000000026,9.520965576171877,-1.266421508789063,7.365252685546875
11.389000000000015,7.99898681640625,-0.6421081542968751,6.365753173828126
11.399000000000008,5.962005615234375,-0.0399261474609375,5.239297485351563
11.409000000000113,6.078793334960938,-0.327783203125,6.305789184570313
11.419000000000104,6.120513916015625,-0.1567138671875,7.459759521484376
11.429000000000094,6.419586181640626,0.45159912109375,6.511102294921876
11.439000000000084,8.091549682617188,0.624462890625,5.12430419921875
11.449000000000076,8.999981689453126,-0.058917236328125,6.991412353515625
11.459000000000067,8.439968872070313,0.4909271240234375,7.858422851562499
11.469000000000058,7.550527954101563,0.9812561035156252,6.592300415039063
11.479000000000047,7.336392211914063,0.4749267578125,5.7481689453125
11.48900000000004,6.974066162109375,-0.07835693359375,6.061596679687501
11.49900000000003,6.5963378906250005,-0.063104248046875,5.9431640625
11.510000000000112,5.896658325195313,0.3443817138671875,5.039666748046876
11.520000000000104,5.680429077148438,-0.1694244384765625,5.8606201171875005
11.530000000000094,5.381954956054688,-0.3724945068359375,6.790286254882813
11.540000000000084,8.939419555664063,-0.37264404296875,6.194683837890626
11.550000000000075,14.425152587890626,-0.2600433349609375,6.384594726562501
11.560000000000066,12.209326171875,-0.4000091552734375,6.249264526367188
11.57000000000005,5.971725463867188,0.2624359130859375,6.570916748046876
11.580000000000048,3.393722534179688,-0.11783447265625,8.414697265625001
11.59000000000004,3.71507568359375,-0.1431060791015625,8.960205078125
11.600000000000035,5.35997314453125,0.624462890625,4.984188842773438
11.61000000000002,8.59952392578125,0.439337158203125,2.38121337890625
11.620000000000012,11.608340454101564,0.7388580322265625,6.652114868164063
11.630000000000116,9.359765625,-1.34403076171875,8.4900634765625
11.640000000000114,5.917144775390625,0.4481597900390625,8.366546630859375
11.651000000000074,6.213674926757813,0.4077850341796875,8.40931396484375
11.660000000000087,8.522811889648438,-1.502838134765625,7.949490356445313
11.671000000000056,8.49903564453125,-0.181536865234375,4.458270263671875
11.681000000000047,7.501181030273438,0.1966400146484375,1.283917236328125
11.691000000000038,8.010501098632814,-0.0372344970703125,2.971282958984375
11.701000000000036,7.215866088867188,-0.5348907470703126,6.69981689453125
11.711000000000029,5.811123657226563,-0.0734222412109375,8.111288452148438
11.72100000000001,7.69931640625,1.2610382080078126,6.411660766601563
11.731000000000115,10.218252563476565,0.1120025634765625,6.935485839843751
11.741000000000106,8.937924194335938,0.3976165771484375,7.728027343750001
11.751000000000095,6.278274536132813,1.084136962890625,5.19189453125
11.761000000000088,5.6277923583984375,0.346624755859375,5.579791259765625
11.77100000000008,6.18541259765625,-0.2376129150390625,7.877114868164063
11.781000000000075,6.270947265625001,0.0121124267578125,6.972271728515626
11.79100000000006,7.608099365234375,0.1407135009765625,4.290341186523438
11.801000000000052,8.91953125,-0.5316009521484375,6.107952880859376
11.812000000000026,8.486325073242188,-0.6608001708984376,8.711227416992188
11.82200000000001,7.544696044921875,-0.0061309814453125,7.245474243164063
11.832000000000114,7.300354003906251,-0.2591461181640625,5.597286987304688
11.842000000000104,7.2737365722656255,-0.6374725341796875,6.079241943359375
11.852000000000096,6.943560791015625,0.1040771484375,5.6408020019531255
11.86200000000008,6.275283813476563,0.2824737548828125,4.6786865234375
11.872000000000078,5.2793731689453125,0.1957427978515625,5.2804199218750005
11.882000000000076,5.355786132812501,-0.05443115234375,6.490914916992188
11.89200000000006,10.322479248046877,0.6258087158203125,7.105209350585938
11.90200000000005,13.684500122070313,0.35230712890625,6.75364990234375
11.912000000000042,10.252645874023438,0.0749176025390625,5.458218383789063
11.922000000000033,5.177987670898438,0.413616943359375,7.039562988281251
11.932000000000023,4.0673828125,-0.435748291015625,10.1002685546875
11.942000000000014,4.301556396484376,-0.1897613525390625,8.390472412109375
11.953000000000095,6.452484130859376,0.726446533203125,3.1236602783203127
11.963000000000086,9.47146911621094,0.11185302734375,3.741094970703125
11.973000000000084,11.084365844726562,-0.9509002685546876,7.717111206054688
11.983000000000075,8.113681030273439,-0.0921142578125,7.765411376953126
11.99300000000006,5.994903564453125,0.91097412109375,7.361065673828126
12.00300000000005,7.293325805664063,-0.2773895263671875,8.051473999023438
12.01300000000004,8.646627807617188,-0.4783660888671875,7.258633422851563
12.023000000000032,7.790832519531251,0.4221405029296875,3.3475158691406253
12.033000000000024,8.028894042968751,2.5748626708984377,1.8514068603515623
12.043000000000012,8.127886962890626,-0.6765014648437501,4.940374755859375
12.053000000000004,6.157299804687501,-0.3339141845703125,8.239141845703125
12.063000000000116,6.205151367187501,0.4906280517578125,6.661087036132813
12.073000000000109,8.289535522460938,-0.363970947265625,6.479400634765626
12.084000000000067,9.462347412109375,-0.77698974609375,7.722045898437501
12.093000000000082,7.898498535156251,-0.719268798828125,6.552374267578125
12.104000000000047,6.394314575195313,-0.4406829833984375,5.305990600585938
12.11400000000004,6.046643066406251,0.0765625,6.47252197265625
12.12400000000003,6.249114990234376,-0.2965301513671875,7.368542480468751
12.134000000000022,6.513195800781251,0.045458984375,6.1970764160156255
12.144000000000013,8.112933349609376,0.50184326171875,5.296719360351563
12.15400000000011,9.038861083984376,0.2591461181640625,6.429156494140625
12.165000000000084,8.637655639648438,0.305352783203125,7.290783691406251
12.174000000000106,7.589556884765625,0.8178131103515626,6.855633544921876
12.18400000000009,7.097433471679688,0.7632324218750001,6.197525024414063
12.19400000000008,6.7386962890625,-0.1185821533203125,6.282461547851563
12.204000000000072,6.5114013671875,-0.0979461669921875,6.237899780273438
12.214000000000064,6.076251220703125,0.52576904296875,5.448199462890625
12.224000000000052,5.802151489257813,-0.1949951171875,5.571566772460938
12.234000000000044,5.8356475830078125,-0.5251708984375001,6.347659301757813
12.244000000000035,8.226580810546876,-0.0394775390625,5.739794921875
12.254000000000026,13.362997436523438,-0.4795623779296875,5.9413696289062505
12.265000000000114,12.866836547851564,-0.63343505859375,6.546243286132813
12.275000000000103,6.90677490234375,0.206658935546875,6.711929321289063
12.285000000000087,3.66064453125,-0.0442626953125,7.961303710937501
12.29500000000008,4.1633850097656255,-0.0829925537109375,9.809869384765626
12.30500000000007,4.646087646484375,0.3255401611328125,5.99041748046875
12.315000000000062,8.083773803710939,1.317413330078125,2.1693206787109376
12.325000000000053,10.623196411132811,0.7861114501953126,5.596090698242188
12.335000000000043,10.22647705078125,-1.7136840820312502,8.579037475585938
12.345000000000034,6.100177001953125,0.7031188964843751,8.687451171875
12.355000000000024,6.05023193359375,0.3709991455078125,7.885189819335938
12.365000000000016,8.325274658203126,-1.325787353515625,7.761822509765626
12.375,8.80169677734375,-0.457281494140625,5.3791137695312505
12.386000000000088,7.974911499023438,0.1574615478515625,1.822247314453125
12.39600000000008,7.774832153320313,-0.159405517578125,2.446112060546876
12.406000000000075,6.797463989257813,-0.6054718017578126,6.0595031738281255
12.41600000000006,6.175393676757813,-0.238958740234375,8.050875854492189
12.426000000000052,7.268353271484376,0.415411376953125,7.376318359375
12.436000000000044,9.652407836914064,0.9666015625,6.203656005859376
12.446000000000032,9.038412475585938,0.450103759765625,7.087713623046875
12.456000000000024,7.054367065429688,0.207855224609375,6.465792846679688
12.466000000000015,5.835946655273438,0.9778167724609376,6.140850830078126
12.476000000000006,5.777478027343751,0.7599426269531251,6.820941162109375
12.48600000000011,6.538168334960938,-0.3170166015625,6.465344238281251
12.496000000000102,7.543499755859376,-0.267669677734375,5.53343505859375
12.506000000000093,8.583074951171875,0.213836669921875,5.7160186767578125
12.51700000000006,8.579934692382814,-0.61549072265625,7.011749267578126
12.52700000000005,7.940817260742188,-0.6014343261718751,7.655352783203125
12.537000000000042,7.280764770507813,-0.351708984375,6.877914428710938
12.547000000000033,6.933392333984376,-0.5630035400390625,5.669363403320313
12.557000000000023,6.993057250976563,-0.2782867431640625,5.402590942382813
12.567000000000014,6.658993530273438,0.2860626220703125,5.721701049804688
12.577000000000004,5.139556884765625,0.441729736328125,5.567379760742188
12.587000000000115,4.5506835937500005,0.0632537841796875,5.541360473632813
12.5970000000001,9.673641967773438,0.772802734375,7.081283569335938
12.607000000000092,13.909402465820314,0.6563140869140626,7.155603027343751
12.617000000000084,11.109786987304688,0.072076416015625,5.09619140625
12.627000000000072,5.945108032226563,0.4062896728515625,6.634619140625
12.637000000000064,3.9697357177734376,-0.3763824462890625,9.894058227539062
12.647000000000055,4.3233886718750005,-0.2453887939453125,8.979794311523438
12.657000000000046,5.813516235351563,0.4604217529296875,3.845321655273438
12.66700000000003,9.155050659179688,-0.004486083984375,3.38011474609375
12.678000000000004,10.759274291992188,-0.9464141845703126,6.89720458984375
12.688000000000116,8.612084960937501,-0.8414398193359376,7.215267944335938
12.698000000000109,6.205599975585938,0.7840179443359375,7.845562744140626
12.70800000000009,6.8822509765625,0.2412017822265625,8.466885375976563
12.718000000000082,8.511447143554689,-0.6793426513671875,7.235305786132813
12.728000000000073,8.020370483398438,0.2651275634765625,3.68935546875
12.738000000000063,8.12998046875,0.6132476806640625,2.3580352783203127
12.748000000000054,7.849749755859375,1.1210723876953126,4.8691955566406255
12.758000000000044,6.635516357421875,0.32598876953125,7.473516845703125
12.768000000000036,5.833554077148438,0.3241943359375,6.821688842773438
12.778000000000034,8.19278564453125,0.251519775390625,6.171505737304688
12.788000000000023,9.529638671875,-1.1690734863281251,7.8488525390625
12.798000000000007,8.254244995117189,-0.6512298583984375,6.764416503906251
12.808000000000114,6.3678466796875,0.0847869873046875,4.7241455078125005
12.81900000000008,6.189749145507813,-0.7083526611328126,6.295770263671876
12.829000000000072,6.373828125,-0.432159423828125,8.112933349609376
12.839000000000064,6.285601806640625,0.6522766113281251,6.5021301269531255
12.849000000000052,7.652810668945313,0.1949951171875,4.609152221679688
12.859000000000044,8.96259765625,-0.22789306640625,6.539813232421875
12.869000000000035,8.553915405273438,0.4246826171875,8.052969360351563
12.879000000000026,7.61856689453125,1.1088104248046875,6.396707153320313
12.889000000000015,7.422674560546875,0.6814361572265626,5.6696624755859375
12.899000000000008,7.093994140625001,-0.0862823486328125,6.745724487304688
12.909000000000113,6.595440673828126,0.0782073974609375,6.217712402343751
12.919000000000104,6.099578857421875,0.5323486328125,4.883102416992188
12.929000000000094,5.82891845703125,0.02332763671875,6.035128784179688
12.939000000000084,5.242587280273438,-0.2842681884765625,7.022067260742188
12.949000000000076,7.366598510742188,-0.271258544921875,5.87796630859375
12.959000000000067,13.542291259765626,-0.22490234375,5.863610839843751
12.970000000000034,13.48741149902344,-0.5662933349609376,6.189898681640625
12.980000000000024,7.584173583984375,0.147442626953125,6.381304931640625
12.990000000000016,3.7485717773437504,0.0276641845703125,7.668960571289063
13.0,3.3825073242187504,-0.3600830078125,9.263165283203126
13.010000000000112,5.002133178710938,0.29368896484375,6.617422485351563
13.020000000000104,7.333999633789063,0.38460693359375,2.6989776611328127
13.030000000000094,11.182461547851563,-0.2241546630859375,5.2031097412109375
13.040000000000084,9.955816650390624,-0.729437255859375,8.230767822265626
13.050000000000075,6.779818725585938,0.14415283203125,8.423519897460938
13.060000000000066,5.746075439453126,0.9323577880859376,8.519073486328125
13.07000000000005,8.129681396484376,-0.7343719482421875,8.025155639648439
13.080000000000048,8.672348022460938,-0.3949249267578125,5.278775024414063
13.09000000000004,8.009753417968751,0.8003173828125001,1.964157104492188
13.100000000000035,8.0641845703125,0.6123504638671875,2.4371398925781254
13.11100000000011,7.12808837890625,-1.1909057617187502,5.440274047851563
13.121000000000102,5.804544067382813,-0.248529052734375,7.912106323242188
13.131000000000093,6.923074340820313,0.35111083984375,7.403683471679688
13.141000000000084,9.689193725585938,0.5384796142578125,6.931747436523438
13.151000000000074,9.362756347656251,0.206060791015625,7.283157348632813
13.161000000000064,7.384991455078126,0.342437744140625,5.8091796875
13.171000000000056,5.939276123046875,0.335858154296875,5.895761108398438
13.181000000000047,5.692242431640626,0.101983642578125,7.288241577148438
13.191000000000038,5.9937072753906255,0.0198883056640625,6.730322265625
13.201000000000036,7.293923950195313,-0.0844879150390625,5.055816650390625
13.211000000000029,8.634515380859376,0.017047119140625,5.810375976562501
13.22100000000001,8.651861572265625,-0.235369873046875,7.4920593261718755
13.231000000000115,8.026950073242189,-0.218023681640625,7.444656372070313
13.241000000000106,7.466488647460938,0.08314208984375,6.709088134765626
13.251000000000095,7.137359619140626,-0.331072998046875,6.315509033203125
13.261000000000088,6.923074340820313,-0.2298370361328125,5.563491821289063
13.272000000000055,6.574954223632813,0.338250732421875,4.933047485351563
13.282000000000046,5.5141448974609375,0.0490478515625,5.599530029296876
13.29200000000003,4.560702514648438,-0.2074066162109375,6.010754394531251
13.302000000000035,8.652459716796876,0.3348114013671875,6.923971557617188
13.312000000000026,13.436120605468751,0.1885650634765625,6.864306640625
13.32200000000001,11.421270751953124,-0.38699951171875,5.524014282226563
13.332000000000114,6.848455810546875,0.3132781982421875,6.413156127929688
13.342000000000104,4.171011352539063,-0.1852752685546875,8.968130493164063
13.352000000000096,4.443615722656251,-0.145947265625,9.0260009765625
13.36200000000008,5.426666259765625,0.7961303710937501,4.886242675781251
13.372000000000078,8.825173950195314,0.51978759765625,3.416452026367188
13.383000000000044,10.450631713867187,-0.3066986083984375,6.228030395507813
13.39200000000006,8.805285644531251,-0.101385498046875,7.941265869140626
13.403000000000034,6.618319702148438,0.9852935791015626,8.181869506835938
13.413000000000023,6.959411621093751,-0.016748046875,7.995697021484376
13.423000000000007,8.169906616210938,-0.5012451171875001,6.978851318359376
13.433000000000114,8.134017944335938,0.086431884765625,4.048391723632813
13.443000000000104,7.987322998046875,0.3718963623046875,2.620919799804688
13.453000000000095,7.878909301757813,1.0279113769531252,4.057214355468751
13.464000000000064,6.686358642578125,-0.3132781982421875,7.278970336914063
13.473000000000084,6.255844116210938,-0.3055023193359375,7.247119140625
13.483000000000075,7.92960205078125,0.33017578125,6.422128295898438
13.49300000000006,9.279763793945314,-0.7011749267578126,7.162780761718751
13.50300000000005,8.510250854492188,-0.9079833984375,6.920532226562501
13.51300000000004,6.701760864257813,-0.007476806640625,5.6876068115234375
13.523000000000032,5.964996337890625,-0.12919921875,6.112738037109375
13.534000000000113,6.042156982421876,0.03170166015625,7.096536254882813
13.544000000000104,6.404782104492188,0.2331268310546875,6.839633178710938
13.554000000000094,7.523760986328125,0.4652069091796875,5.5186309814453125
13.565000000000062,8.843716430664063,0.288604736328125,6.075802612304688
13.574000000000076,8.777621459960939,0.0590667724609375,7.360018920898438
13.584000000000067,7.977304077148438,0.7253997802734375,6.875073242187501
13.594000000000058,7.281362915039063,0.551190185546875,6.053073120117188
13.604000000000047,6.942214965820313,-0.240155029296875,6.267657470703125
13.61400000000004,6.528149414062501,-0.073870849609375,6.199468994140625
13.62400000000003,6.23326416015625,0.0945068359375,5.514443969726563
13.635000000000112,6.026904296875,-0.138470458984375,5.8055908203125
13.644000000000013,5.499789428710938,-0.287408447265625,6.6166748046875
13.65400000000011,7.102368164062501,-0.2047149658203125,6.136215209960938
13.664000000000115,12.70085144042969,-0.134283447265625,6.117373657226563
13.674000000000106,13.149160766601565,-0.582891845703125,6.264218139648438
13.685000000000066,7.787841796875001,0.481207275390625,5.572613525390626
13.69500000000005,4.272247314453125,0.1547698974609375,7.577893066406251
13.705000000000048,4.171310424804688,-0.2588470458984375,9.793569946289065
13.71500000000004,4.893270874023438,0.468646240234375,6.757388305664063
13.725000000000035,7.242184448242188,2.004830932617188,2.22509765625
13.73500000000002,10.641140747070311,-0.3028106689453125,5.58487548828125
13.745000000000012,10.276123046875,-1.475921630859375,8.437426757812501
13.755000000000116,6.450689697265625,0.7569519042968751,8.671450805664064
13.765000000000114,5.923275756835938,0.5057312011718751,7.235006713867188
13.775000000000103,8.020370483398438,-1.3238433837890626,8.074801635742189
13.785000000000087,8.627188110351563,-0.6763519287109375,5.876919555664063
13.79500000000008,8.255142211914062,0.1607513427734375,2.010064697265625
13.80500000000007,7.78365478515625,-0.0097198486328125,1.9710357666015623
13.815000000000062,7.814907836914063,-0.4260284423828125,5.867199707031251
13.826000000000036,6.079690551757813,-0.4601226806640625,7.867843627929688
13.836000000000029,6.415399169921876,0.6539215087890625,7.263867187500001
13.84600000000001,9.154302978515624,1.07247314453125,6.319546508789063
13.856000000000115,9.54922790527344,-0.23387451171875,8.103213500976564
13.866000000000106,7.317700195312501,1.02821044921875,6.120513916015625
13.876000000000095,5.868246459960938,0.8351593017578126,5.189501953125
13.886000000000088,5.981893920898438,-0.0246734619140625,7.374374389648438
13.89600000000008,6.221749877929688,-0.0468048095703125,7.76451416015625
13.906000000000075,6.852044677734376,-0.174658203125,5.25888671875
13.91600000000006,8.440567016601562,-0.0873291015625,4.879513549804688
13.926000000000052,9.060992431640626,-0.6051727294921876,7.417739868164063
13.936000000000044,8.26456298828125,-0.5988922119140625,7.659689331054688
13.946000000000032,7.335345458984375,0.0551788330078125,5.781515502929688
13.956000000000024,6.967486572265625,-0.509619140625,5.990267944335938
13.967000000000104,6.879409790039063,-0.2782867431640625,6.402987670898438
13.977000000000096,5.887387084960938,0.4490570068359375,5.304046630859375
13.98700000000008,4.198077392578125,0.2657257080078125,4.963104248046875
13.997000000000078,6.089859008789063,0.444720458984375,6.670806884765626
14.007000000000076,12.85337829589844,0.650482177734375,7.618716430664063
14.01700000000006,12.782946777343753,0.05921630859375,5.690298461914063
14.02700000000005,8.7867431640625,0.5479003906250001,4.710836791992188
14.037000000000042,4.798165893554688,0.1902099609375,8.752648925781251
14.047000000000033,4.302005004882813,-0.514105224609375,10.447491455078126
14.057000000000023,4.4513916015625,0.199481201171875,6.153262329101563
14.067000000000014,7.324728393554688,0.47313232421875,2.6880615234375003
14.077000000000004,10.6146728515625,-0.432757568359375,5.800357055664063
14.087000000000115,9.871478271484376,-1.399658203125,7.269400024414063
14.0970000000001,7.011151123046876,0.1795928955078125,6.691741943359376
14.107000000000092,6.490914916992188,0.1622467041015625,8.085717773437501
14.11800000000006,7.834945678710938,-0.8408416748046875,8.859716796875
14.12800000000005,8.320639038085938,0.0441131591796875,5.346813964843751
14.13800000000004,7.681820678710938,0.4813568115234375,2.422186279296876
14.148000000000032,8.448043823242188,0.9849945068359376,3.439031982421876
14.158000000000024,7.215267944335938,1.069482421875,6.5260559082031255
14.168000000000012,5.8251800537109375,0.4762725830078125,6.943859863281251
14.178000000000004,7.081283569335938,0.1039276123046875,6.662432861328125
14.188000000000116,9.035421752929688,-0.17286376953125,7.538565063476563
14.198000000000109,8.76102294921875,-0.4696929931640625,6.652413940429688
14.20800000000009,7.473516845703125,-0.90977783203125,5.714523315429688
14.218000000000082,6.349453735351563,-0.259295654296875,6.700265502929688
14.228000000000073,6.121411132812501,-0.1206756591796875,7.177883911132813
14.238000000000063,6.039315795898438,-0.18721923828125,6.02750244140625
14.248000000000054,7.253399658203126,-0.2020233154296875,5.884246826171875
14.258000000000044,8.375518798828125,0.12620849609375,6.339434814453125
14.269000000000013,8.7388916015625,0.378326416015625,6.183917236328125
14.280000000000094,8.174093627929688,0.2845672607421875,6.948345947265626
14.289000000000115,7.61497802734375,0.8691040039062501,7.194183349609376
14.299000000000106,6.970626831054688,0.6051727294921876,6.143392944335938
14.30900000000009,6.793426513671876,0.0729736328125,5.722598266601563
14.31900000000008,6.212179565429688,0.4891326904296875,6.231918334960938
14.329000000000072,5.300308227539063,0.4840484619140625,5.856732177734376
14.339000000000064,4.733715820312501,0.061907958984375,5.513546752929688
14.349000000000052,7.243978881835938,-0.4592254638671875,6.636862182617188
14.359000000000044,13.885626220703124,-0.125311279296875,6.577197265625
14.369000000000035,13.818035888671876,-0.2944366455078125,5.3347015380859375
14.380000000000116,7.86739501953125,-0.1876678466796875,5.924322509765625
14.389000000000015,3.988876342773438,-0.000299072265625,8.32916259765625
14.400000000000103,3.4991455078125004,-0.334661865234375,9.5834716796875
14.410000000000087,4.338043212890625,-0.076861572265625,5.990716552734376
14.42000000000008,7.214520263671876,0.172265625,2.511459350585937
14.43000000000007,11.004513549804688,-0.380120849609375,6.0524749755859375
14.440000000000062,10.333843994140626,-1.2972259521484375,7.935433959960938
14.450000000000053,6.451885986328126,0.7675689697265625,8.067773437500001
14.460000000000043,5.839984130859375,0.6869689941406251,8.865997314453125
14.470000000000034,8.273086547851562,-0.8269348144531251,8.460305786132814
14.480000000000024,8.743826293945313,-0.1088623046875,5.0665832519531255
14.490000000000016,7.900442504882813,0.289801025390625,1.5328948974609375
14.5,8.37222900390625,0.18482666015625,2.33575439453125
14.510000000000112,6.757089233398438,-0.0713287353515625,5.8905273437500005
14.520000000000104,5.983389282226563,0.1374237060546875,6.923522949218751
14.530000000000094,6.642245483398438,0.6585571289062501,7.657745361328126
14.540000000000084,9.665267944335938,0.2089019775390625,7.616622924804688
14.550000000000075,9.5547607421875,0.164788818359375,7.208090209960938
14.560000000000066,7.3604675292968755,-0.1867706298828125,5.770150756835938
14.571000000000032,6.04425048828125,0.268267822265625,6.130981445312501
14.581000000000024,5.55377197265625,0.1469940185546875,7.528994750976563
14.591000000000015,5.83310546875,-0.1553680419921875,6.644039916992188
14.601000000000006,7.145883178710938,0.1987335205078125,4.698574829101563
14.61100000000011,8.732162475585938,-0.065496826171875,5.7783752441406255
14.621000000000102,8.919830322265625,0.0179443359375,7.09818115234375
14.631000000000093,8.29327392578125,-0.026019287109375,7.268502807617188
14.641000000000084,7.286447143554688,-0.0418701171875,7.104013061523438
14.651000000000074,7.025506591796876,0.1000396728515625,6.348406982421875
14.661000000000064,6.757537841796876,-0.3026611328125,5.741290283203125
14.671000000000056,6.254348754882813,-0.052337646484375,5.228231811523438
14.682000000000023,4.906130981445313,0.32239990234375,5.01065673828125
14.691000000000038,5.0423583984375,-0.4248321533203125,5.774337768554688
14.702000000000004,10.838079833984375,0.207257080078125,7.109844970703126
14.712000000000115,13.46228942871094,-0.0213836669921875,6.699069213867188
14.7220000000001,10.123297119140624,-0.1451995849609375,5.1129394531250005
14.733000000000075,5.477508544921875,0.1553680419921875,7.45048828125
14.742000000000084,4.554721069335938,-0.404345703125,10.611233520507811
14.752000000000072,4.169964599609376,0.0228790283203125,7.979696655273438
14.762000000000064,6.363360595703125,1.0798004150390623,3.0062744140625
14.772000000000055,9.338681030273438,1.2532623291015623,4.0183349609375005
14.782000000000046,10.730712890625,-1.4721832275390625,7.114331054687501
14.79200000000003,7.653408813476563,0.7615875244140625,7.58507080078125
14.802000000000035,6.360818481445313,0.96959228515625,7.625744628906251
14.812000000000026,7.509255981445313,-0.372943115234375,8.70120849609375
14.82200000000001,8.525503540039063,-0.6119018554687501,6.9387756347656255
14.832000000000114,7.8990966796875,0.26976318359375,2.96978759765625
14.843000000000082,8.250656127929688,1.8324157714843752,2.47930908203125
14.853000000000073,7.636959838867188,-0.71597900390625,5.579342651367188
14.863000000000063,6.078942871093751,-0.494964599609375,7.462301635742188
14.873000000000054,6.420184326171875,-0.085235595703125,6.10107421875
14.883000000000044,8.563186645507812,-0.39776611328125,6.981991577148438
14.893000000000036,9.321484375,-0.567938232421875,7.5976318359375
14.903000000000034,7.899246215820313,-0.75067138671875,6.180477905273438
14.913000000000023,6.366052246093751,-0.0327484130859375,5.788394165039063
14.923000000000007,6.091653442382813,0.1806396484375,7.12449951171875
14.933000000000114,6.113934326171876,0.16807861328125,6.886138916015626
14.943000000000104,6.814511108398438,0.49705810546875,5.64169921875
14.953000000000095,7.896853637695313,0.2830718994140625,5.853143310546876
14.963000000000086,8.937326049804689,0.3865509033203125,6.362014770507813
14.973000000000084,8.43323974609375,0.450701904296875,6.863558959960938
14.984000000000044,7.67598876953125,0.4390380859375,7.258782958984375
14.994000000000035,7.200015258789063,0.433953857421875,6.499887084960938
15.004000000000026,6.788491821289063,-0.2863616943359375,5.785702514648438
15.014000000000015,6.5739074707031255,-0.233575439453125,5.978005981445313
15.024000000000008,5.916995239257813,-0.0007476806640625,6.252105712890626
15.034000000000113,5.360870361328125,-0.1780975341796875,5.618521118164063
15.044000000000104,5.5809875488281255,-0.3476715087890625,5.722598266601563
15.054000000000094,9.3178955078125,-0.44501953125,6.533084106445313
15.064000000000084,14.2346435546875,0.01256103515625,6.271994018554688
15.074000000000076,11.879299926757811,0.0686370849609375,5.375823974609375
15.084000000000067,6.178384399414063,0.27813720703125,6.776977539062501
15.094000000000058,3.7605346679687504,0.134881591796875,8.909661865234376
15.106000000000115,4.003530883789063,0.0746185302734375,9.289932250976562
15.115000000000016,5.013348388671876,0.6627441406250001,4.50103759765625
15.125,9.094189453125,2.4822998046875,2.6473876953125
15.135000000000112,10.749105834960938,-1.5517364501953126,7.2288757324218755
15.145000000000104,9.161929321289064,-1.4060882568359376,8.332003784179689
15.155000000000094,5.4483489990234375,1.19449462890625,8.148522949218751
15.165000000000084,6.758135986328125,-0.775494384765625,8.423220825195314
15.175000000000075,8.528793334960938,-1.292889404296875,7.820739746093751
15.185000000000066,8.602664184570314,-0.0811981201171875,4.015493774414063
15.19500000000005,8.0689697265625,0.1176849365234375,1.6939453125
15.205000000000048,7.878610229492188,-0.0514404296875,3.131585693359375
15.21500000000004,6.843670654296876,-0.348419189453125,6.30264892578125
15.225000000000035,5.920135498046875,-0.088226318359375,7.752102661132813
15.23500000000002,7.629183959960938,1.0507904052734376,7.104312133789063
15.245000000000012,9.863552856445311,0.7029693603515625,6.894961547851563
15.255000000000116,9.03018798828125,0.2821746826171875,7.0404602050781255
15.265000000000114,6.728228759765625,0.4912261962890625,6.127243041992188
15.275000000000103,5.579641723632813,0.954937744140625,6.449792480468751
15.286000000000064,5.862564086914063,0.1392181396484375,7.133172607421876
15.296000000000056,6.509606933593751,-0.5752655029296876,6.245077514648438
15.306000000000047,7.59703369140625,-0.0524871826171875,5.1622863769531255
15.316000000000038,8.689843750000001,-0.2130889892578125,5.7601318359375
15.326000000000036,8.601916503906251,-0.701025390625,7.209136962890626
15.336000000000029,7.874124145507813,-0.4750762939453125,7.876815795898438
15.34600000000001,7.130331420898438,-0.263482666015625,6.862661743164063
15.356000000000115,7.076199340820313,-0.102581787109375,5.2935791015625
15.366000000000106,7.017730712890626,-0.252117919921875,5.601773071289063
15.376000000000095,6.1552062988281255,0.2380615234375,5.897555541992188
15.386000000000088,4.431951904296875,0.679791259765625,4.862615966796875
15.39600000000008,5.708541870117188,0.1416107177734375,5.9036865234375
15.407000000000046,11.97889099121094,0.6605010986328126,7.787393188476563
15.41600000000006,13.3123046875,0.2133880615234375,6.752154541015625
15.427000000000035,9.103909301757811,0.1954437255859375,4.42626953125
15.437000000000026,4.792034912109376,0.0426177978515625,7.542153930664063
15.44700000000001,4.6427978515625,-0.5139556884765626,11.349942016601563
15.457000000000114,3.9793060302734378,-0.0095703125,6.963299560546876
15.467000000000104,7.14244384765625,0.71298828125,2.050289916992188
15.477000000000096,9.91544189453125,-0.143853759765625,5.039068603515625
15.48700000000008,10.697515869140624,-1.083837890625,7.890274047851563
15.497000000000078,7.288540649414063,0.3814666748046875,6.917391967773438
15.507000000000076,6.3678466796875,0.479412841796875,7.493106079101563
15.51700000000006,7.664773559570313,-0.4029998779296875,8.951831054687501
15.52700000000005,8.327218627929689,-0.3482696533203125,6.609347534179688
15.537000000000042,7.713522338867188,0.43544921875,2.05821533203125
15.547000000000033,8.22568359375,2.575460815429688,2.6971832275390626
15.558000000000114,7.687353515625,-0.7793823242187501,6.199319458007813
15.568000000000104,6.010455322265625,0.10826416015625,7.711578369140626
15.580000000000048,6.401492309570313,0.5326477050781251,6.024810791015625
15.588000000000086,9.153854370117188,-0.4053924560546875,7.098928833007813
15.598000000000084,9.089404296875,-0.8658142089843751,7.830609130859376
15.608000000000075,7.686904907226563,-0.7807281494140625,5.795571899414063
15.61800000000006,6.083279418945313,-0.2041168212890625,5.453732299804688
15.62800000000005,6.284405517578126,-0.3195587158203125,7.216015625000001
15.63800000000004,6.018978881835938,-0.0805999755859375,7.0180297851562505
15.648000000000032,6.865054321289063,0.1891632080078125,5.5555664062500005
15.658000000000024,8.12100830078125,0.18123779296875,5.8441711425781255
15.668000000000012,8.997738647460938,0.2788848876953125,6.802996826171875
15.679000000000094,8.283554077148438,0.528759765625,7.062442016601563
15.688000000000116,7.584024047851563,0.7560546875,6.851895141601563
15.699000000000076,7.180426025390625,0.6054718017578126,6.405230712890625
15.709000000000067,6.688900756835938,0.0231781005859375,5.915798950195313
15.719000000000058,6.5305419921875005,0.1260589599609375,5.763421630859376
15.729000000000047,5.824880981445313,0.2435943603515625,5.915051269531251
15.73900000000004,5.255148315429688,-0.09031982421875,5.904135131835938
15.74900000000003,5.66861572265625,-0.1493865966796875,5.803347778320313
15.759000000000022,10.541549682617188,-0.6077148437500001,6.396258544921875
15.769000000000013,14.887368774414064,-0.222210693359375,6.433941650390626
15.77900000000011,10.880847167968753,-0.226995849609375,5.643344116210938
15.789000000000115,5.109201049804688,-0.0861328125,6.995449829101563
15.799000000000106,3.5517822265625,-0.165985107421875,9.427355957031253
15.80900000000009,3.822143554687501,-0.116339111328125,8.7030029296875
15.81900000000008,5.466442871093751,0.608612060546875,3.507220458984375
15.829000000000072,9.6385009765625,1.3797698974609376,3.0282562255859378
15.839000000000064,11.232257080078126,-0.1933502197265625,7.730120849609375
15.850000000000035,8.592794799804688,-1.349713134765625,8.072409057617188
15.86000000000002,5.289541625976563,1.2028686523437502,8.292227172851563
15.870000000000012,6.859820556640625,-0.469842529296875,8.800500488281251
15.880000000000116,8.870333862304689,-1.0232757568359376,7.357028198242188
15.890000000000114,8.419631958007812,0.0931610107421875,3.4297607421875003
15.900000000000103,7.924667358398438,0.0791046142578125,1.2323272705078123
15.910000000000087,7.731915283203126,-0.0500946044921875,3.899752807617188
15.92000000000008,6.748565673828126,-0.5507415771484375,6.764715576171875
15.93000000000007,5.707644653320313,-0.1351806640625,7.819692993164063
15.940000000000062,8.389276123046876,1.0199859619140623,6.650918579101563
15.950000000000053,10.156195068359375,-0.136376953125,7.386038208007813
15.960000000000043,8.618215942382813,0.3578399658203125,7.095040893554688
15.970000000000034,5.954678344726563,0.9350494384765624,5.606259155273438
15.980000000000024,5.653662109375,0.485992431640625,6.503775024414063
15.991000000000106,6.164776611328126,0.024822998046875,7.381253051757813
16.001000000000097,6.614730834960938,-0.0689361572265625,5.90428466796875
16.011000000000088,7.917788696289063,0.2308837890625,4.496701049804688
16.02100000000008,8.913250732421876,-0.373541259765625,6.468634033203125
16.031000000000077,8.358920288085939,-0.440234375,8.108148193359376
16.04100000000006,7.510003662109375,-0.1160400390625,7.313064575195313
16.05100000000005,7.258184814453125,-0.4098785400390625,6.343771362304688
16.061000000000043,7.161285400390626,-0.361578369140625,5.767907714843751
16.071000000000033,6.7662109375,-0.1529754638671875,5.444012451171876
16.081000000000024,5.96649169921875,0.196490478515625,5.285653686523438
16.091000000000015,4.866952514648438,0.0985443115234375,5.4849853515625
16.101000000000006,6.245376586914063,0.116937255859375,6.206796264648438
16.11100000000011,11.748007202148438,0.5887237548828126,7.093246459960938
16.1210000000001,12.853677368164064,-0.0629547119140625,6.52994384765625
16.131000000000093,9.037814331054689,0.4819549560546875,5.343524169921875
16.14200000000006,4.7111358642578125,0.2403045654296875,7.649371337890625
16.15200000000005,4.41251220703125,-0.46595458984375,10.357022094726563
16.16200000000004,4.446456909179688,0.158209228515625,7.093395996093751
16.172000000000033,7.659689331054688,0.7719055175781251,2.529852294921876
16.182000000000023,10.002770996093751,-0.2109954833984375,4.848858642578126
16.192000000000014,10.194476318359376,-1.1070159912109376,7.819094848632813
16.202000000000005,7.155902099609375,0.4373931884765625,7.623800659179688
16.212000000000117,6.361715698242188,0.6107055664062501,7.709634399414063
16.2220000000001,7.718905639648438,-0.4918243408203125,8.187551879882813
16.23200000000009,8.404528808593751,-0.131890869140625,5.947201538085938
16.242000000000083,7.804888916015625,0.44202880859375,2.371942138671875
16.252000000000073,8.220748901367188,1.2915435791015626,2.8664581298828127
16.262000000000064,7.428356933593751,0.4278228759765625,6.351846313476563
16.272000000000055,6.069821166992188,-0.1559661865234375,7.754644775390625
16.283000000000023,6.767407226562501,0.3533538818359375,6.345565795898438
16.293000000000013,8.968429565429688,-0.46356201171875,7.07664794921875
16.303000000000004,9.093890380859376,-0.6914550781250001,7.34342041015625
16.313000000000116,7.564434814453126,-0.7301849365234375,5.762524414062501
16.323000000000107,6.146383666992188,-0.3901397705078125,5.761328125
16.33300000000009,5.9850341796875,-0.2872589111328125,7.230670166015625
16.34300000000008,6.115579223632813,0.0273651123046875,6.692340087890625
16.353000000000073,7.086367797851563,0.0121124267578125,5.761328125
16.363000000000063,8.360565185546875,0.25361328125,6.152963256835938
16.373000000000054,8.988168334960939,0.4675994873046875,6.531140136718751
16.383000000000045,8.324975585937501,0.476123046875,6.786697387695313
16.395000000000103,7.506414794921875,0.7478302001953125,7.024310302734375
16.403000000000034,7.007711791992188,0.6431549072265625,6.428408813476563
16.414000000000115,6.513195800781251,0.0634033203125,5.644390869140626
16.424000000000106,6.640451049804688,0.05921630859375,5.826974487304688
16.43400000000009,5.995501708984375,0.20516357421875,6.058157348632813
16.44400000000008,5.313467407226563,-0.0387298583984375,5.784954833984376
16.45400000000007,5.730224609375,-0.270062255859375,5.869293212890625
16.464000000000063,11.01004638671875,-0.6258087158203125,6.697723388671876
16.474000000000053,14.451770019531253,-0.2740997314453125,6.315808105468751
16.484000000000044,10.18939208984375,-0.0958526611328125,5.4748168945312505
16.49500000000001,5.017385864257813,0.1772003173828125,7.217361450195313
16.504000000000026,3.594549560546876,-0.2998199462890625,9.359915161132813
16.514000000000017,4.164132690429688,-0.10347900390625,8.08033447265625
16.524000000000008,5.777777099609375,0.5520874023437501,3.0462005615234378
16.534000000000113,10.117315673828124,0.2217620849609375,3.7125335693359376
16.544000000000104,11.090945434570314,-0.6114532470703126,8.283554077148438
16.554000000000094,8.007958984375001,0.0734222412109375,8.447445678710938
16.564000000000085,5.4945556640625,1.5520355224609377,7.9690795898437505
16.575000000000053,7.169659423828126,-0.8858520507812501,8.580682373046876
16.585000000000043,8.859268188476562,-0.867010498046875,6.9061767578125
16.595000000000034,7.761672973632813,0.5583679199218751,3.061004638671875
16.605000000000025,8.252450561523439,0.7286895751953125,1.3216003417968751
16.615000000000016,7.907321166992188,-1.0259674072265623,4.399652099609376
16.625,6.257339477539063,-0.6884643554687501,7.153659057617188
16.63500000000011,5.979052734375,0.1616485595703125,7.498190307617188
16.645000000000103,8.873175048828125,0.2462860107421875,7.159341430664063
