time,ax,ay,az
0.0,7.799505615234375,0.3707000732421875,6.323284912109376
0.0120000000000004,7.513742065429688,0.423785400390625,6.281564331054688
0.0200000000000386,7.445852661132813,0.311334228515625,6.429904174804688
0.0300000000000295,7.398748779296875,0.026318359375,6.483737182617188
0.0400000000000204,7.46065673828125,-0.1299468994140625,6.220404052734375
0.0500000000000113,7.399346923828125,-0.226397705078125,6.127093505859375
0.0600000000000022,7.462600708007813,-0.2755950927734375,6.466839599609376
0.07000000000005,7.411758422851563,-0.2498748779296875,6.576599121093751
0.0800000000000409,7.432992553710938,-0.3213531494140625,6.256442260742188
0.0910000000000081,7.464694213867188,-0.383709716796875,6.0424560546875
0.100999999999999,7.543350219726563,-0.2883056640625,6.232067871093751
0.1110000000000468,7.420132446289063,-0.0814971923828125,6.342575073242188
0.1210000000000377,7.428207397460938,-0.04486083984375,6.4004455566406255
0.1310000000000286,7.536022949218751,-0.102880859375,6.2482177734375
0.1410000000000195,7.62813720703125,-0.202471923828125,6.078793334960938
0.1510000000000104,7.547238159179688,-0.298175048828125,5.700765991210938
0.1610000000000013,8.118466186523438,0.0294586181640625,5.91265869140625
0.1710000000000491,7.483236694335938,-0.6373229980468751,7.102218627929688
0.18100000000004,5.783908081054688,-0.18841552734375,7.038815307617188
0.1910000000000309,6.74766845703125,0.9912750244140626,7.035974121093751
0.2010000000000218,7.76451416015625,0.1511810302734375,8.218505859375
0.2110000000000127,8.432641601562501,0.8329162597656251,5.623306274414063
0.2220000000000368,8.191439819335939,0.7823730468750001,4.715173339843751
0.2320000000000277,8.509652709960939,0.99232177734375,5.508312988281251
0.2420000000000186,7.720101928710938,1.0247711181640626,7.286297607421876
0.2520000000000095,6.597235107421875,0.7419982910156251,5.983389282226563
0.2620000000000004,7.3724304199218755,0.163592529296875,4.854241943359376
0.2720000000000482,7.749859619140626,-1.1369232177734376,6.5712158203125
0.2820000000000391,7.734008789062501,-1.2601409912109376,7.395010375976563
0.29200000000003,7.3215881347656255,-1.0316497802734377,5.70689697265625
0.3020000000000209,7.5258544921875,-1.0639495849609375,6.0823822021484375
0.3120000000000118,7.548583984375001,-1.184326171875,8.169458007812501
0.3220000000000027,7.493106079101563,-0.47791748046875,6.94266357421875
0.3320000000000505,7.622454833984375,0.6178833007812501,4.627694702148438
0.3420000000000414,8.016931152343751,0.8276824951171876,5.44730224609375
0.3520000000000323,7.450189208984375,1.1545684814453123,6.963299560546876
0.3620000000000161,6.736154174804688,1.0830902099609376,6.1142333984375
0.3730000000000473,6.628338623046876,0.9407318115234377,4.698873901367188
0.3830000000000382,7.959060668945313,1.13946533203125,6.243881225585938
0.3930000000000291,8.247665405273438,0.7602416992187501,8.277423095703126
0.40300000000002,6.110345458984376,-0.8363555908203125,7.139453125
0.4130000000000109,6.843521118164063,-0.6986328125000001,6.194683837890626
0.4230000000000018,8.740686035156251,-1.1445495605468752,8.925064086914062
0.4330000000000495,8.535223388671875,-1.2381591796875,7.512396240234375
0.4430000000000405,7.436431884765626,-0.47432861328125,3.36336669921875
0.4530000000000314,7.560397338867188,-0.6975860595703125,3.32030029296875
0.4630000000000223,8.735153198242188,-1.2285888671875,6.07535400390625
0.4730000000000203,6.494802856445313,-0.581396484375,7.515237426757813
0.4830000000000112,6.059054565429688,0.5519378662109375,5.3342529296875005
0.4930000000000518,8.289236450195313,0.8885437011718751,6.220703125000001
0.5030000000000427,8.922671508789064,0.619976806640625,9.744970703125
0.51400000000001,7.179827880859375,1.1596527099609375,6.878512573242188
0.5240000000000009,7.113284301757813,0.9003570556640625,4.465597534179688
0.5340000000000487,7.862011718750001,1.17535400390625,5.9682861328125005
0.5440000000000396,7.0419555664062505,1.152325439453125,7.427758789062499
0.5540000000000305,5.878115844726563,0.6933990478515626,5.236605834960938
0.5640000000000214,7.6957275390625,0.1326385498046875,4.607806396484375
0.5740000000000123,8.416641235351562,-1.1710174560546875,7.7432800292968755
0.5840000000000032,7.714419555664063,-1.1695220947265623,7.946350097656251
0.5940000000000509,7.4651428222656255,-0.7744476318359376,5.0700225830078125
0.6040000000000418,8.227777099609376,-0.9066375732421876,5.703607177734376
0.6140000000000327,7.805337524414063,-1.1991302490234377,7.844366455078125
0.6240000000000165,6.664227294921876,-0.7571014404296875,6.427212524414063
0.6340000000000217,6.825277709960938,0.1758544921875,4.239947509765625
0.6440000000000126,7.870684814453125,0.9561340332031252,6.733612060546876
0.6540000000000532,7.766458129882813,1.1295959472656252,7.691540527343751
0.6650000000000205,7.524060058593751,1.056024169921875,5.58128662109375
0.6750000000000114,7.834646606445313,1.091015625,5.408123779296876
0.6850000000000023,8.035174560546876,1.353152465820313,7.280615234375
0.69500000000005,6.943411254882813,1.188662719726563,6.770697021484375
0.7050000000000409,6.845913696289063,1.003387451171875,5.173501586914063
0.7150000000000318,7.915396118164063,0.9673492431640626,5.836993408203125
0.7250000000000227,7.467984008789063,-0.3671112060546875,6.97496337890625
0.7350000000000207,7.081134033203125,-1.1249603271484376,6.464895629882813
0.7450000000000117,7.214669799804688,-1.1500823974609375,6.909765625
0.7550000000000523,7.528097534179688,-1.3210021972656252,7.892965698242188
0.7650000000000361,7.709036254882813,-1.1663818359375,6.764117431640625
0.7750000000000341,8.043847656250001,-1.062005615234375,5.601473999023438
0.785000000000025,8.533877563476564,-1.1122497558593751,5.717663574218751
0.7960000000000491,7.921826171875001,-1.01864013671875,5.414404296875
0.80600000000004,6.702359008789063,0.38699951171875,5.452386474609376
0.8160000000000309,7.158743286132813,1.15860595703125,6.063690185546875
0.8290000000000077,7.718606567382813,1.30814208984375,7.373776245117188
0.8360000000000127,7.530191040039063,1.3432830810546876,6.494503784179688
0.8460000000000036,7.4905639648437505,1.278533935546875,6.060101318359376
0.8560000000000514,7.54918212890625,1.368255615234375,7.106106567382813
0.8660000000000423,6.888381958007813,1.0772583007812502,7.291680908203125
0.8760000000000332,7.090255737304688,-0.32838134765625,6.075204467773438
0.8860000000000241,7.537069702148438,-0.9322082519531252,5.749514770507813
0.8960000000000221,7.75015869140625,-1.0687347412109376,6.083279418945313
0.906000000000013,6.503475952148438,-1.047650146484375,5.3058410644531255
0.9159999999999968,6.724639892578126,-1.1183807373046877,5.631680297851563
0.9290000000000304,7.782608032226563,-1.2357666015625002,6.688601684570313
0.9370000000000118,8.611935424804688,-1.2019714355468751,6.890475463867188
0.9470000000000028,9.065029907226563,-0.6886138916015625,6.028997802734375
0.9570000000000504,8.209832763671876,-0.0599639892578125,6.552822875976563
0.9670000000000414,6.733013916015626,0.4198974609375,7.794271850585938
0.9770000000000324,6.445755004882813,0.8658142089843751,6.873129272460938
0.987000000000016,7.005767822265626,1.1234649658203126,6.115728759765625
0.9970000000000212,7.519125366210938,1.218121337890625,6.419586181640626
1.007000000000012,7.923919677734376,1.2009246826171875,6.204852294921875
1.0170000000000528,8.301199340820313,0.9824523925781252,5.6500732421875
1.0290000000000532,8.561242675781251,0.7867095947265625,5.585174560546875
1.0370000000000346,7.7806640625,-0.0369354248046875,6.782659912109375
1.0470000000000257,7.353588867187501,-0.60950927734375,6.423623657226563
1.0570000000000164,7.238446044921876,-0.491973876953125,5.914154052734375
1.0670000000000073,6.834548950195313,-0.5594146728515625,6.4791015625
1.0780000000000314,6.627590942382813,-0.5700317382812501,6.592898559570313
1.0880000000000225,6.954177856445313,-0.461767578125,6.012698364257813
1.0980000000000203,7.618267822265626,-0.37264404296875,6.446652221679688
1.1080000000000112,7.945751953125001,0.1161895751953125,6.782809448242188
1.1180000000000518,7.987622070312501,0.4209442138671875,6.274386596679688
1.129000000000019,7.787841796875001,0.6065185546875,6.18302001953125
1.1380000000000337,7.514190673828126,0.7261474609375,6.743630981445313
1.1480000000000246,7.0270019531250005,0.8421875000000001,6.387884521484375
1.1580000000000226,7.088760375976563,0.93968505859375,6.043203735351563
1.1680000000000064,7.463796997070313,0.7663726806640626,6.40672607421875
1.1779999999999973,7.812814331054688,0.6261077880859376,6.193338012695313
1.188000000000045,7.786795043945313,0.48509521484375,5.814712524414063
1.198000000000036,7.42476806640625,-0.07476806640625,6.1970764160156255
1.2080000000000268,7.495797729492188,-0.390887451171875,6.574505615234376
1.2180000000000175,7.040609741210938,-0.7805786132812501,6.248068237304688
1.2290000000000418,6.638357543945313,-0.9749755859375,6.14713134765625
1.2379999999999995,7.335195922851563,-1.104473876953125,6.722097778320313
1.2490000000000163,8.371331787109376,-1.0845855712890626,6.77518310546875
1.2590000000000217,8.314807128906251,-0.9975555419921877,5.993408203125
1.2690000000000126,8.154653930664063,-0.7532135009765626,5.9881744384765625
1.2790000000000532,7.872628784179688,-0.0095703125,7.273287963867188
1.289000000000044,7.383496093750001,0.3258392333984375,7.467236328125001
1.299000000000035,7.209136962890626,1.045257568359375,5.951687622070313
1.309000000000026,7.481741333007813,1.0853332519531251,5.449246215820313
1.3190000000000168,7.765560913085938,1.1414093017578126,6.001632690429688
1.3290000000000075,7.3822998046875,1.1834289550781252,6.375473022460938
1.3389999999999986,7.126742553710938,1.0874267578125,5.896807861328125
1.3490000000000464,7.474862670898438,0.755157470703125,6.102120971679688
1.3600000000000207,7.446002197265625,-0.5920135498046876,7.047039794921876
1.3690000000000282,7.312316894531251,-0.5585174560546875,6.798211669921876
1.379000000000019,7.441067504882813,-0.5749664306640625,6.202011108398438
1.390000000000036,7.376168823242188,-1.01026611328125,6.466690063476563
1.400000000000034,7.485928344726563,-1.10357666015625,6.607852172851563
1.410000000000025,7.556958007812501,-1.0851837158203126,6.0464935302734375
1.420000000000023,7.814309692382813,-0.8498138427734375,5.387188720703126
1.4300000000000068,7.597332763671876,-0.1128997802734375,6.353341674804688
1.4399999999999975,6.629983520507813,0.232080078125,6.5233642578125
1.4500000000000457,6.719854736328125,0.6928009033203125,5.519976806640625
1.4600000000000364,7.42117919921875,0.7449890136718751,5.810375976562501
1.4700000000000273,8.24781494140625,0.2966796875,7.026104736328126
1.4800000000000182,8.604608154296876,0.5405731201171875,6.993356323242188
1.490000000000009,8.075399780273438,0.5537322998046875,6.71177978515625
1.5,7.155902099609375,0.4510009765625,7.425665283203125
1.5100000000000475,6.920681762695313,0.7472320556640626,7.53123779296875
1.5200000000000389,7.180426025390625,0.4403839111328125,5.8296661376953125
1.531000000000013,7.539312744140625,-0.2835205078125,4.997048950195313
1.5409999999999968,7.770944213867188,-0.463861083984375,5.753253173828125
1.5510000000000446,7.9625,-0.44681396484375,6.304443359375001
1.5610000000000357,7.964892578125,-0.1909576416015625,6.116326904296876
1.5710000000000264,7.763616943359375,-0.1275543212890625,6.6696105957031255
1.5820000000000505,7.661483764648438,-0.2654266357421875,7.143640136718751
1.5910000000000082,7.526303100585938,-0.1447509765625,6.4276611328125
1.600999999999999,7.184613037109376,0.0773101806640625,5.582931518554688
1.6110000000000468,6.86729736328125,0.039776611328125,6.182720947265626
1.6210000000000375,6.622207641601563,-0.100189208984375,6.546691894531251
1.632000000000012,7.240090942382813,0.1377227783203125,6.189898681640625
1.6420000000000528,7.947695922851563,0.3799713134765625,6.100924682617188
1.6520000000000366,8.397650146484375,0.2729034423828125,6.446951293945313
1.6620000000000346,8.049679565429688,0.413616943359375,6.498690795898438
1.6720000000000257,7.4292541503906255,0.7188201904296876,6.3705383300781255
1.6820000000000164,6.865951538085938,0.8332153320312501,6.539364624023438
1.6920000000000073,6.8236328125000005,0.8031585693359375,6.242385864257813
1.7019999999999982,6.106457519531251,0.831121826171875,5.192642211914063
1.712000000000046,7.256240844726563,0.690557861328125,5.201165771484376
1.7220000000000368,8.147625732421876,-0.032000732421875,6.475064086914063
1.7320000000000275,8.471371459960938,-0.3170166015625,6.46654052734375
1.7420000000000186,9.07744140625,-0.5025909423828125,7.105657958984375
1.7520000000000095,7.812515258789063,-0.9917236328125,8.34112548828125
1.7620000000000005,6.50302734375,-0.85355224609375,6.860418701171875
1.7720000000000482,6.369790649414063,-0.6524261474609375,5.403488159179688
1.782000000000039,7.2737365722656255,-0.7928405761718751,6.33255615234375
1.79200000000003,7.36495361328125,0.14893798828125,6.748715209960938
1.802000000000021,7.697372436523438,0.9535919189453126,5.6696624755859375
1.812000000000012,8.671600341796875,0.8406921386718751,6.021820068359375
1.823000000000036,8.604907226562501,0.4059906005859375,7.529443359375
1.8330000000000268,7.522116088867188,0.330474853515625,7.109695434570313
1.8430000000000173,7.244876098632813,-0.2962310791015625,5.4662933349609375
1.8530000000000089,7.152163696289063,-0.581097412109375,6.219058227539063
1.8629999999999995,7.017880249023438,-0.85355224609375,6.76561279296875
1.8730000000000475,7.211529541015626,-0.2379119873046875,5.148977661132813
1.8830000000000384,7.920928955078126,-0.172265625,4.677340698242188
1.893000000000029,8.0390625,-0.5130584716796875,6.437829589843751
1.90300000000002,7.376019287109376,-0.012860107421875,7.054965209960938
1.913000000000011,7.319644165039063,0.508123779296875,6.439324951171876
1.9230000000000016,7.421627807617188,0.6305938720703126,6.989019775390625
1.9330000000000496,7.144238281250001,0.552984619140625,7.301998901367188
1.9430000000000405,6.712826538085938,0.7385589599609376,6.250161743164063
1.954000000000008,7.099826049804688,0.7361663818359375,5.851647949218751
1.9630000000000225,7.473965454101563,0.28890380859375,6.196627807617188
1.9740000000000464,6.891372680664063,-0.0085235595703125,5.3641601562500005
1.9840000000000373,7.470077514648438,-0.096002197265625,4.8647094726562505
1.994000000000028,8.007809448242188,-0.256903076171875,6.007315063476563
2.004000000000019,7.467984008789063,-0.7206146240234376,7.064535522460938
2.01400000000001,7.312167358398438,-0.4505523681640625,7.025506591796876
2.024000000000001,7.973416137695313,-0.672314453125,7.809524536132813
2.0340000000000487,8.504418945312501,-0.414215087890625,7.745971679687501
2.04400000000004,8.193383789062501,0.6567626953125001,5.71287841796875
2.0540000000000305,7.320840454101563,0.237762451171875,5.602969360351563
2.0640000000000214,6.935784912109376,-0.3707000732421875,7.0703674316406255
2.0740000000000123,6.761276245117188,0.3569427490234375,6.307434082031251
2.0850000000000364,7.076199340820313,0.5467041015625,4.9125610351562505
2.095000000000028,8.298358154296876,0.5794525146484375,5.8666015625000005
2.105000000000018,8.742779541015626,0.8045043945312501,7.341925048828125
2.115000000000009,8.017379760742188,1.0180419921875,6.7626220703125
2.125,7.275830078125001,0.3437835693359375,6.438876342773438
2.135000000000048,7.127340698242188,-0.4167572021484375,7.329962158203125
2.1450000000000387,7.022665405273438,-0.3895416259765625,6.689947509765625
2.1550000000000296,7.240539550781251,-0.1359283447265625,4.830615234375
2.1650000000000205,7.558154296875,-0.3243438720703125,5.196829223632813
2.175000000000012,7.877264404296875,-0.7850646972656251,6.366052246093751
2.1850000000000023,7.53243408203125,-0.6989318847656251,6.103915405273438
2.19500000000005,7.343869018554688,-0.2385101318359375,6.043652343750001
2.205000000000041,7.687802124023438,-0.2633331298828125,7.250408935546876
2.215000000000032,7.480694580078126,0.142657470703125,7.32547607421875
2.2250000000000227,7.115228271484376,0.5522369384765625,6.2003662109375
2.2350000000000207,6.962551879882813,0.63822021484375,6.116177368164063
2.2460000000000377,7.093695068359375,0.578704833984375,6.434689331054688
2.2560000000000286,6.28111572265625,0.7615875244140625,5.24632568359375
2.26600000000002,7.35,0.8151214599609375,4.784109497070313
2.2760000000000105,8.196075439453125,0.50244140625,6.6023193359375005
2.2860000000000014,7.596286010742188,-0.356494140625,7.394412231445313
2.296000000000049,8.508157348632814,-0.059515380859375,6.430053710937501
2.30600000000004,8.590402221679689,-0.4125701904296875,7.547836303710938
2.316000000000031,7.454226684570313,-0.346923828125,7.281961059570313
2.329000000000008,6.412857055664063,0.0462066650390625,5.356085205078125
2.3360000000000127,6.744528198242188,-0.7596435546875,6.217562866210938
2.346000000000004,7.287344360351563,-0.942974853515625,7.5641357421875
2.3560000000000514,7.424917602539063,-0.002093505859375,5.580090332031251
2.3660000000000423,8.330657958984375,0.2720062255859375,4.538870239257813
2.376000000000033,9.153256225585938,-0.2787353515625,6.893017578125001
2.386000000000024,8.091250610351564,0.10826416015625,8.327069091796876
2.397000000000048,6.809725952148438,0.8732910156250001,6.163131713867188
2.407000000000039,6.8774658203125005,0.39716796875,5.675344848632813
2.41700000000003,7.324429321289063,-0.49466552734375,7.606155395507813
2.4290000000000305,7.230221557617188,0.4768707275390625,6.38280029296875
2.437000000000012,7.629034423828125,0.56165771484375,4.343576049804688
2.4470000000000027,8.436080932617188,0.2811279296875,5.3270751953125
2.4570000000000505,7.902685546875,-0.3919342041015625,7.472769165039063
2.4670000000000414,7.107751464843751,0.06041259765625,6.356631469726563
2.4770000000000323,7.467684936523438,0.1066192626953125,5.2868499755859375
2.487000000000016,7.691540527343751,-0.49825439453125,6.910214233398438
2.497000000000021,6.939971923828126,-0.336456298828125,7.165023803710938
2.507000000000012,6.471774291992188,0.106170654296875,5.877667236328126
2.5170000000000528,7.075152587890625,0.0548797607421875,6.394912719726563
2.529000000000053,7.599575805664063,0.03170166015625,7.245922851562501
2.538000000000011,7.600323486328126,-0.0073272705078125,6.100625610351563
2.548000000000002,5.214923095703125,-0.2875579833984375,4.273443603515625
2.5580000000000496,5.770748901367188,-0.27095947265625,5.1388092041015625
2.5680000000000405,9.589602661132814,0.4595245361328125,7.028048706054688
2.578000000000032,11.523553466796876,0.53175048828125,6.596487426757813
2.5880000000000223,9.61023864746094,0.1978363037109375,4.9100189208984375
2.5980000000000203,6.725088500976563,-0.3158203125,7.148275756835938
2.608000000000011,5.91923828125,-0.3536529541015625,9.89615173339844
2.618000000000052,5.5929504394531255,0.1878173828125,7.850347900390625
2.629000000000019,5.855535888671875,0.7333251953125001,4.32757568359375
2.6380000000000337,7.949639892578125,0.0934600830078125,5.403787231445313
2.649000000000001,9.261669921875,-0.074169921875,7.396206665039063
2.6580000000000226,8.172747802734376,0.54072265625,6.356332397460938
2.6680000000000064,7.399346923828125,0.8534027099609376,6.284854125976563
2.6790000000000305,7.928256225585938,-0.2938385009765625,7.979098510742188
2.6890000000000214,8.166467285156251,-0.4577301025390625,6.810025024414063
2.6990000000000123,7.7794677734375,0.4550384521484375,4.572964477539063
2.709000000000003,7.174594116210938,0.5208343505859375,4.71995849609375
2.719000000000051,7.403384399414063,0.616986083984375,5.7978149414062505
2.729000000000042,6.485382080078126,-0.5229278564453126,6.111691284179688
2.7390000000000327,7.072161865234375,-0.5579193115234375,5.596090698242188
2.7490000000000165,8.459558105468751,0.1574615478515625,6.926364135742188
2.7590000000000217,8.480642700195313,-0.54371337890625,7.490115356445313
2.769000000000013,7.223193359375,-0.6735107421875001,6.456072998046875
2.779000000000053,6.641796875000001,0.0249725341796875,6.582431030273438
2.789000000000044,6.906027221679688,0.07177734375,6.928457641601563
2.799000000000035,7.18790283203125,0.0514404296875,5.889779663085938
2.809000000000026,7.332504272460938,0.452197265625,5.1595947265625
2.819000000000017,7.897152709960938,0.6963897705078126,5.398104858398438
2.830000000000041,7.543350219726563,0.5154510498046876,6.247021484375001
2.840000000000032,7.276577758789063,0.514404296875,6.715817260742188
2.8500000000000227,7.321438598632813,0.6646881103515625,6.597235107421875
2.8600000000000207,7.117172241210938,0.0880767822265625,6.259133911132813
2.870000000000012,7.520022583007813,-0.4421783447265625,6.375473022460938
2.8800000000000523,7.53123779296875,-0.10467529296875,6.743032836914063
2.890000000000036,7.892218017578125,-0.6727630615234376,6.904382324218751
2.900000000000034,7.913302612304688,-0.7397552490234376,6.641198730468751
2.910000000000025,7.811767578125001,-0.7618865966796875,7.41519775390625
2.920000000000023,7.467236328125001,-0.136077880859375,7.398150634765625
2.930000000000007,7.827468872070313,0.7168762207031251,5.84088134765625
2.9399999999999977,8.09229736328125,0.4696929931640625,5.030844116210938
2.950000000000045,7.78245849609375,0.1191802978515625,5.7517578125
2.9600000000000364,7.229623413085938,0.188116455078125,6.401193237304688
2.971000000000004,7.218258666992188,0.4978057861328125,6.476858520507813
2.982000000000028,7.675689697265626,0.4940673828125,6.675442504882813
2.9910000000000423,7.909564208984375,0.008673095703125,6.678283691406251
3.001000000000033,7.956069946289063,-0.027813720703125,5.861517333984375
3.011000000000024,7.708587646484376,0.1140960693359375,5.35458984375
3.021000000000022,7.251605224609375,-0.1146942138671875,6.06578369140625
3.031000000000013,6.4183898925781255,-0.349615478515625,6.696377563476563
3.040999999999997,6.466839599609376,-0.44681396484375,6.580636596679688
3.051000000000045,7.3009521484375,-0.27574462890625,6.373080444335938
3.0610000000000355,8.011996459960939,-0.276043701171875,6.456372070312501
3.0710000000000264,8.087811279296876,-0.26019287109375,6.684414672851563
3.0810000000000173,7.801150512695313,0.04127197265625,6.546093750000001
3.091000000000008,7.326821899414063,-0.016448974609375,6.322088623046875
3.100999999999999,6.447250366210938,0.174359130859375,6.260479736328126
3.111000000000047,6.686209106445313,0.5324981689453125,6.043203735351563
3.122000000000021,7.048385620117188,0.6450988769531251,5.47601318359375
3.132000000000012,7.116574096679688,0.4209442138671875,5.670858764648438
3.1420000000000528,7.475161743164063,0.0121124267578125,6.663778686523438
3.152000000000037,8.621505737304688,-0.03170166015625,7.125247192382813
3.1620000000000346,9.67139892578125,-0.11304931640625,7.238595581054688
3.172000000000025,8.587112426757812,-0.0466552734375,7.343121337890626
3.1820000000000164,6.979598999023438,-0.1993316650390625,7.3679443359375005
3.192000000000008,6.200216674804688,-0.1051239013671875,6.368893432617188
3.201999999999998,6.424819946289063,-0.08314208984375,5.513397216796875
3.212000000000046,7.025656127929688,-0.07835693359375,5.425619506835938
3.222000000000037,8.00018310546875,0.088226318359375,5.678485107421875
3.232000000000028,9.054562377929688,0.20037841796875,5.8666015625000005
3.242000000000018,8.89739990234375,0.47911376953125,6.622955322265626
3.2530000000000427,7.994650268554688,0.6461456298828125,7.382000732421876
3.2630000000000337,7.169061279296876,0.4361968994140625,7.085470581054688
3.273000000000025,6.9037841796875,0.0028411865234375,6.14952392578125
3.2830000000000226,6.789987182617188,-0.1451995849609375,5.466891479492188
3.2930000000000064,6.809875488281251,-0.0366363525390625,5.420983886718751
3.3029999999999973,7.108499145507813,-0.129498291015625,5.721701049804688
3.313000000000045,7.513143920898438,-0.43126220703125,6.4468017578125005
3.323000000000036,7.935433959960938,-0.34273681640625,6.81944580078125
3.333000000000027,8.378359985351564,-0.2438934326171875,6.657498168945313
3.346000000000004,8.043847656250001,-0.1686767578125,6.650769042968751
3.3530000000000086,7.100723266601563,-0.0370849609375,6.968533325195313
3.3629999999999995,6.181524658203125,0.444720458984375,6.474765014648438
3.373000000000048,5.794076538085938,0.7422973632812501,5.25230712890625
3.383000000000038,7.16397705078125,0.7206146240234376,5.213726806640626
3.394000000000013,8.478848266601563,0.7137359619140625,5.935089111328125
3.404000000000053,8.567523193359376,0.7998687744140626,6.0176330566406255
3.414000000000044,8.256488037109376,0.594854736328125,6.958663940429688
3.424000000000035,7.318896484375,0.0219818115234375,8.524008178710938
3.434000000000026,6.243731689453125,-0.310137939453125,7.452731323242188
3.4460000000000264,7.007412719726563,-0.5289093017578126,5.938977050781251
3.454000000000008,8.129681396484376,-0.8840576171875001,5.93778076171875
3.463999999999998,8.195028686523438,-0.8723937988281251,6.080288696289063
3.4740000000000464,7.749710083007813,-0.6129486083984376,5.301803588867188
3.4840000000000373,7.794570922851563,-0.417205810546875,6.269003295898438
3.494000000000028,7.860665893554688,-0.2735015869140625,7.386935424804688
3.504000000000019,7.694381713867188,0.26976318359375,6.688302612304688
3.51400000000001,7.619464111328125,0.4652069091796875,5.831311035156251
3.525000000000034,7.544995117187501,0.2397064208984375,6.558953857421876
3.5340000000000487,7.2770263671875,0.27454833984375,6.862811279296875
3.546000000000049,6.9970947265625005,0.6184814453125,5.839385986328125
3.555000000000007,7.413403320312501,0.57840576171875,5.661886596679688
3.5649999999999977,8.069866943359376,0.032598876953125,6.239544677734376
3.575000000000045,7.857974243164063,-0.0968994140625,5.941519165039063
3.5850000000000364,7.542901611328125,0.110357666015625,5.530145263671876
3.595000000000028,7.375570678710938,-0.1443023681640625,6.572113037109376
3.605000000000018,7.089208984375,-0.4604217529296875,7.234408569335938
3.615000000000009,6.887484741210938,-0.3668121337890625,6.726583862304688
3.625,7.143191528320313,-0.2145843505859375,6.479849243164063
3.635000000000048,7.571762084960938,-0.2142852783203125,6.48209228515625
3.646000000000022,7.639053344726563,-0.146844482421875,6.351547241210938
3.6550000000000296,7.638305664062501,0.0692352294921875,6.039166259765626
3.665000000000021,7.588360595703126,0.225799560546875,5.939276123046875
3.6750000000000114,6.536822509765625,0.1565643310546875,5.757589721679688
3.686000000000036,6.22130126953125,0.0198883056640625,5.845965576171875
3.6960000000000255,6.682620239257813,0.476422119140625,6.1058593750000005
3.706000000000017,8.102465820312501,0.1626953125,6.9372802734375005
3.716000000000008,9.921722412109377,0.6066680908203126,6.851296997070313
3.725999999999999,9.10061950683594,0.84158935546875,6.83739013671875
3.736000000000047,7.336093139648438,0.2516693115234375,7.972817993164063
3.7460000000000377,6.436782836914063,0.41810302734375,7.762420654296876
3.7560000000000286,6.460858154296876,-0.2543609619140625,5.694186401367188
3.76600000000002,6.668414306640625,-0.7382598876953126,4.610797119140625
3.7760000000000105,7.771990966796875,-0.6996795654296876,5.390179443359376
3.786000000000002,8.728872680664063,-0.279632568359375,5.980548095703125
3.796000000000049,8.658291625976563,0.1009368896484375,6.140252685546876
3.80600000000004,8.086764526367189,0.0955535888671875,7.135116577148438
3.816000000000031,7.667016601562499,-0.1730133056640625,7.716961669921876
3.826000000000022,7.356579589843751,0.1472930908203125,6.533084106445313
3.837000000000046,6.8798583984375,0.4222900390625,5.714672851562501
3.847000000000037,6.773837280273438,0.3841583251953125,5.888583374023438
3.857000000000028,7.158743286132813,0.329876708984375,5.554669189453126
3.867000000000018,7.528396606445313,0.1795928955078125,5.460012817382813
3.8770000000000095,7.89012451171875,0.32239990234375,6.214273071289063
3.887000000000001,8.038613891601564,0.0605621337890625,6.72972412109375
3.897000000000048,7.85184326171875,-0.259893798828125,6.6995178222656255
3.907000000000039,7.284204101562499,-0.136676025390625,7.0419555664062505
3.91700000000003,6.892868041992188,0.030804443359375,7.169061279296876
3.927000000000021,6.8200439453125,0.082244873046875,6.480746459960938
3.937000000000012,7.0419555664062505,0.00777587890625,5.815759277343751
3.9470000000000014,7.194332885742188,0.1990325927734375,5.5705200195312505
3.9570000000000505,7.038516235351563,0.5156005859375,5.238699340820313
3.9670000000000414,7.634268188476563,0.632537841796875,5.731271362304688
3.9780000000000086,8.007958984375001,0.69324951171875,6.826174926757813
3.988,7.6356140136718755,0.471337890625,6.923522949218751
3.9980000000000473,7.214370727539063,0.11185302734375,6.825875854492188
4.008000000000038,7.49534912109375,-0.25780029296875,7.585369873046876
4.018000000000029,7.939471435546875,-0.4390380859375,6.884194946289063
4.02800000000002,8.097232055664064,-0.470440673828125,5.418142700195313
4.038000000000011,7.379757690429688,-0.8542999267578125,6.201263427734376
4.048000000000002,7.174594116210938,-0.7958312988281251,7.33145751953125
4.05800000000005,7.338485717773438,-0.3132781982421875,6.207394409179688
4.0680000000000405,7.900143432617188,-0.0968994140625,5.109051513671876
4.078000000000031,8.180075073242188,-0.109161376953125,6.0771484375
4.088000000000022,8.015435791015626,0.09091796875,6.874176025390626
4.09800000000002,7.592846679687501,0.5594146728515625,6.369790649414063
4.108000000000011,7.312316894531251,0.6567626953125001,6.527102661132813
4.119000000000028,7.359869384765625,0.23387451171875,7.046890258789063
4.129000000000019,7.447946166992188,0.2980255126953125,6.090457153320313
4.13900000000001,7.578341674804688,0.5984436035156251,5.099331665039063
4.149000000000001,7.578790283203125,0.1637420654296875,5.77030029296875
4.159000000000049,7.262969970703126,-0.1469940185546875,6.2882934570312505
4.16900000000004,7.0509277343750005,-0.27335205078125,6.326425170898438
4.179000000000031,7.169509887695313,-0.305950927734375,6.698770141601563
4.189000000000021,7.621109008789063,-0.332568359375,7.007113647460938
4.199000000000012,7.694232177734375,-0.3231475830078125,6.67589111328125
4.209000000000003,7.4905639648437505,-0.1807891845703125,6.378762817382813
4.219000000000051,7.269100952148438,0.0010467529296875,6.317453002929688
4.229000000000042,7.261325073242188,0.0145050048828125,6.154757690429688
4.239000000000033,7.299456787109375,0.07955322265625,5.972174072265625
4.25,6.423324584960938,0.21234130859375,5.513995361328125
4.260000000000048,6.419137573242188,0.083441162109375,5.620614624023438
4.270000000000039,7.269848632812501,0.3416900634765625,6.297415161132813
4.28000000000003,8.572308349609376,0.2426971435546875,7.1421447753906255
4.2900000000000205,9.586163330078126,0.46116943359375,6.812268066406251
4.300000000000011,8.733209228515626,0.2573516845703125,6.8140625
4.310000000000002,7.130032348632813,-0.26737060546875,8.226281738281251
4.32000000000005,6.307733154296876,0.0587677001953125,7.46304931640625
4.330000000000041,6.4527832031250005,-0.070880126953125,5.3749267578125
4.340000000000032,6.994253540039063,-0.329876708984375,4.7066497802734375
4.350000000000023,7.993753051757813,-0.13218994140625,5.631979370117188
4.360000000000021,8.329461669921876,0.13697509765625,6.226684570312501
4.370000000000012,8.332901000976562,0.276641845703125,6.5305419921875005
4.380000000000052,7.968182373046876,0.3122314453125,7.186706542968751
4.390000000000036,7.766159057617188,0.0952545166015625,7.392019653320313
4.400000000000034,7.422973632812501,0.4433746337890625,6.356631469726563
4.411000000000001,7.0763488769531255,0.6735107421875001,5.618521118164063
4.421000000000049,7.043600463867188,0.2392578125,5.79302978515625
4.43100000000004,7.213323974609375,-0.10347900390625,5.646334838867188
4.441000000000031,7.43314208984375,-0.0267669677734375,5.552426147460938
4.451000000000022,7.893414306640626,-0.153424072265625,6.112738037109375
4.461000000000013,8.156597900390626,-0.365765380859375,6.610244750976563
4.471000000000004,7.669857788085938,-0.4200469970703125,6.678433227539063
4.481000000000051,7.129882812500001,-0.34393310546875,6.938027954101563
4.491000000000042,6.907672119140625,-0.109161376953125,7.083078002929688
4.501000000000033,6.937130737304688,-0.090618896484375,6.61607666015625
4.511000000000024,7.052273559570313,0.1604522705078125,5.961557006835938
4.521000000000022,7.35179443359375,0.402252197265625,5.649325561523438
4.531000000000013,6.834698486328126,0.8492156982421876,5.066134643554688
4.540999999999997,7.553817749023438,0.8912353515625001,5.552874755859375
4.552000000000021,7.926760864257813,0.9766204833984377,6.7985107421875
4.562000000000012,7.04434814453125,0.6697723388671876,6.618469238281251
4.572000000000003,7.522415161132813,-0.0411224365234375,6.920083618164063
4.5820000000000505,8.672048950195313,-0.6108551025390625,8.68326416015625
4.592000000000041,8.856576538085939,-0.2818756103515625,6.786846923828126
4.602000000000032,7.476358032226563,-0.31641845703125,4.78575439453125
4.613,6.713723754882813,-0.9323577880859376,6.8954101562500005
4.622000000000021,6.680975341796875,-0.7505218505859376,7.826870727539063
4.632000000000012,6.636114501953125,-0.4050933837890625,5.073162841796876
4.642000000000053,7.797860717773438,-0.134283447265625,4.15830078125
4.6520000000000366,9.060693359375,-0.74588623046875,6.332705688476563
4.662000000000035,8.492007446289064,-0.011663818359375,7.803842163085938
4.6720000000000255,7.6221557617187505,0.9558349609375,6.090606689453125
4.682000000000016,7.299905395507813,0.5988922119140625,6.797613525390625
4.692000000000007,7.306185913085938,0.1311431884765625,7.868890380859375
4.703000000000031,7.056011962890626,0.3841583251953125,5.708242797851563
4.713000000000022,7.155603027343751,0.5132080078125001,4.080392456054688
4.72300000000002,7.839431762695313,0.7787841796875,5.5735107421875005
4.733000000000011,7.531686401367188,0.0707305908203125,6.92471923828125
4.743000000000052,7.337887573242188,-0.09390869140625,5.861965942382813
4.753000000000043,7.778121948242188,-0.142059326171875,6.335845947265626
4.763000000000034,7.908218383789063,-0.6156402587890626,7.597930908203126
4.773000000000025,7.235455322265626,-0.7494750976562501,7.217660522460938
4.783000000000023,6.80748291015625,-0.432757568359375,6.086270141601563
4.793000000000006,7.053619384765626,-0.140264892578125,6.2577880859375
4.802999999999997,7.110891723632813,-0.070880126953125,6.305340576171876
4.813000000000045,7.286297607421876,0.2059112548828125,5.698373413085938
4.823000000000036,6.373379516601563,0.2764923095703125,5.254251098632813
4.833000000000027,7.109844970703126,0.1206756591796875,6.15311279296875
4.844000000000051,8.449240112304688,0.5825927734375,7.005917358398438
4.854000000000042,9.1360595703125,0.8320190429687501,6.657348632812501
4.864000000000033,8.506961059570314,0.4035980224609375,6.306237792968751
4.8740000000000165,7.459011840820313,0.0968994140625,7.803842163085938
4.884000000000022,6.361865234375,-0.0115142822265625,8.048632812500001
4.894000000000013,6.06339111328125,0.1840789794921875,5.835049438476563
4.904000000000053,7.0898071289062505,0.01614990234375,5.052227783203126
4.914000000000044,8.2005615234375,-0.4828521728515625,6.194833374023438
4.924000000000035,8.765509033203125,-0.3222503662109375,6.103317260742188
4.934000000000026,8.284600830078126,-0.0695343017578125,6.016885375976563
4.947000000000003,7.929901123046876,-0.269464111328125,7.205697631835938
4.954000000000008,7.375570678710938,-0.210546875,7.530789184570313
4.963999999999999,7.16995849609375,0.4101776123046875,6.1166259765625
4.974000000000046,7.180426025390625,0.7243530273437501,5.268756103515625
4.984000000000037,7.409963989257813,0.4379913330078125,6.021371459960938
4.995000000000012,7.53482666015625,0.2666229248046875,5.9817443847656255
5.005000000000052,7.610641479492188,0.376531982421875,5.599081420898438
5.015000000000036,7.741036987304688,0.2283416748046875,6.4901672363281255
5.025000000000034,7.840029907226563,0.119927978515625,6.993954467773438
5.035000000000025,7.702755737304688,0.034991455078125,6.435586547851563
5.048000000000002,7.158145141601563,-0.17286376953125,6.266012573242188
5.055000000000007,7.006665039062501,-0.31163330078125,6.698321533203125
5.064999999999998,7.064236450195313,-0.30684814453125,6.491213989257813
5.0750000000000455,7.2650634765625,-0.3313720703125,5.937930297851563
5.085000000000036,7.571762084960938,-0.152227783203125,5.917892456054688
5.095000000000027,7.491461181640625,-0.0270660400390625,5.949444580078126
5.105000000000018,7.197622680664063,0.3887939453125,5.354888916015625
5.115000000000009,7.385440063476563,0.6193786621093751,6.205001831054688
5.126000000000033,7.247418212890626,0.417803955078125,6.995599365234376
5.136000000000024,6.840829467773438,0.3820648193359375,6.170010375976563
5.147000000000048,7.658642578125001,0.074468994140625,6.776528930664063
5.156000000000013,8.788088989257814,-0.177947998046875,8.058801269531251
5.165999999999997,8.736199951171876,0.294586181640625,6.084027099609376
5.176000000000045,7.792327880859376,0.0566741943359375,5.523715209960938
5.186000000000036,6.724639892578126,-0.4670013427734375,7.993902587890625
5.196000000000026,6.472821044921876,-0.3449798583984375,7.722344970703125
5.206000000000017,6.941766357421876,0.069384765625,5.1237060546875
5.216000000000008,8.163775634765626,-0.3375030517578125,4.723995971679688
5.225999999999999,8.802743530273439,-0.7307830810546876,6.288442993164063
5.236000000000047,7.8967041015625,-0.068487548828125,7.074703979492188
5.247000000000021,7.200613403320313,0.28232421875,6.247470092773438
5.256000000000029,7.345364379882813,-0.1102081298828125,7.342523193359375
5.267000000000053,7.491909790039063,-0.1921539306640625,7.512396240234375
5.2760000000000105,7.713372802734375,0.268865966796875,5.297915649414063
5.287000000000035,7.714868164062499,0.6151916503906251,4.687957763671875
5.2970000000000255,7.5043212890625,0.3668121337890625,6.125
5.307000000000016,6.933840942382813,0.3802703857421875,6.268106079101563
5.317000000000007,7.048086547851563,0.32957763671875,5.829217529296876
5.326999999999998,7.735504150390626,0.1469940185546875,6.558206176757813
5.337000000000046,7.913302612304688,0.0342437744140625,7.067376708984376
5.34800000000002,7.49295654296875,-0.30325927734375,6.818698120117188
5.357000000000028,7.12449951171875,-0.13099365234375,6.848904418945313
5.367000000000019,7.232464599609376,-0.09151611328125,6.714022827148438
5.3770000000000095,7.285549926757813,-0.2811279296875,5.941519165039063
5.3870000000000005,7.407870483398438,-0.162994384765625,5.5603515625
5.397000000000048,6.973767089843751,-0.107666015625,5.537771606445313
5.407000000000039,6.618170166015625,-0.2558563232421875,5.297915649414063
5.418000000000006,6.375921630859375,-0.069683837890625,5.479901123046876
5.427999999999997,7.519873046875,0.298773193359375,6.536373901367188
5.438000000000045,9.525601196289063,0.229388427734375,7.256390380859376
5.448000000000036,10.299749755859375,0.0459075927734375,6.712228393554688
5.458000000000027,8.323480224609376,-0.070880126953125,7.724288940429688
5.468000000000018,6.347360229492188,-0.1969390869140625,8.548980712890625
5.478000000000009,5.769403076171876,0.3207550048828125,7.325027465820313
5.488,5.922528076171876,0.6276031494140626,5.0954437255859375
5.498000000000047,7.144836425781251,0.20755615234375,4.58896484375
5.508000000000038,8.400640869140625,0.1993316650390625,5.6991210937500005
5.518000000000029,8.890670776367188,0.43604736328125,5.730673217773438
5.52800000000002,8.646029663085939,0.7155303955078125,6.130831909179688
5.538000000000011,7.747317504882813,0.18662109375,8.617916870117188
5.548000000000002,7.40263671875,-0.07237548828125,8.296563720703126
5.559000000000026,7.474713134765626,0.082843017578125,5.546295166015625
5.569000000000017,6.90677490234375,0.132489013671875,5.165127563476563
5.579000000000008,6.700265502929688,-0.2316314697265625,6.228927612304688
5.588999999999999,7.023114013671876,-0.3709991455078125,5.423825073242188
5.599000000000046,7.681222534179688,-0.1810882568359375,4.833456420898438
5.609000000000037,8.446099853515626,-0.0892730712890625,6.258386230468751
5.619000000000028,8.489913940429688,-0.22669677734375,7.125247192382813
5.629000000000019,7.909863281250001,-0.183331298828125,6.475064086914063
5.63900000000001,6.856381225585938,0.0746185302734375,6.876568603515626
5.649000000000001,6.419735717773438,-0.0058319091796875,7.586865234375001
5.659000000000049,6.724041748046876,0.1751068115234375,6.444259643554688
5.66900000000004,7.0060668945312505,0.312530517578125,5.083331298828125
5.679000000000031,6.993804931640626,0.5639007568359375,4.738800048828125
5.689000000000021,8.237646484375,0.4438232421875,5.697476196289063
5.699000000000012,7.876815795898438,0.019140625,6.940869140625001
5.710000000000036,7.344766235351563,0.39298095703125,6.581533813476563
5.720000000000027,7.460357666015626,-0.133984375,7.022366333007813
5.730000000000018,7.564285278320313,-0.6416595458984375,8.139251708984375
5.740000000000009,7.730270385742188,0.146246337890625,6.407025146484376
5.75,7.8599182128906255,0.6515289306640626,4.991964721679688
5.760000000000048,7.617071533203125,-0.1960418701171875,6.871185302734376
5.770000000000039,7.141546630859375,-0.5414703369140625,7.918685913085938
5.78000000000003,7.102517700195313,0.1649383544921875,5.3551879882812505
5.7900000000000205,8.069418334960938,-0.3034088134765625,4.654013061523438
5.800000000000011,8.389425659179688,-0.7466339111328125,6.824829101562501
5.810000000000002,7.491162109375001,0.1123016357421875,7.394113159179688
5.82000000000005,7.096536254882813,0.41092529296875,5.815460205078125
5.830000000000041,7.334597778320313,-0.3303253173828125,6.758285522460938
5.840000000000032,7.590902709960938,-0.33197021484375,7.747018432617188
5.850999999999999,7.625595092773438,0.3078948974609375,5.780169677734375
5.861000000000047,7.889825439453125,0.4062896728515625,4.686013793945313
5.871000000000038,7.844815063476563,-0.0022430419921875,6.546243286132813
5.881000000000029,7.171603393554688,0.24583740234375,6.9148498535156255
5.89100000000002,7.202108764648438,0.5480499267578125,5.253652954101563
5.9010000000000105,7.812515258789063,0.2014251708984375,5.670111083984375
5.911000000000001,7.7657104492187505,-0.100189208984375,7.095788574218751
5.921000000000049,7.133322143554688,-0.017047119140625,6.401043701171876
5.93100000000004,6.890774536132813,-0.0578704833984375,6.234011840820313
5.941000000000031,7.22977294921875,-0.1236663818359375,7.393814086914063
5.951000000000022,7.358224487304688,0.123516845703125,6.864605712890626
5.963000000000022,7.092498779296876,-0.0471038818359375,5.269055175781251
5.971000000000004,6.135018920898438,-0.2917449951171875,5.122958374023438
5.982000000000028,5.853741455078126,-0.3704010009765625,5.972174072265625
5.991000000000042,7.958761596679688,0.1789947509765625,6.08671875
6.001000000000033,10.863052368164062,0.6945953369140625,6.130084228515625
6.0120000000000005,10.539007568359375,0.1996307373046875,6.214721679687501
6.022000000000048,7.755841064453126,-0.421990966796875,7.250408935546876
6.032000000000039,6.05382080078125,-0.2423980712890625,7.737896728515626
6.04200000000003,5.613885498046876,-0.3013153076171875,7.471273803710938
6.052000000000021,5.850003051757813,-0.0563751220703125,6.023764038085938
6.064000000000021,7.121359252929688,0.3063995361328125,4.721603393554688
6.072000000000003,8.477651977539063,0.3126800537109375,6.0304931640625
6.0820000000000505,8.711676025390625,0.8197570800781251,7.413253784179688
6.092000000000041,7.776925659179688,0.751568603515625,7.669857788085938
6.102000000000032,7.744326782226563,0.0898712158203125,7.043002319335938
6.113,8.0294921875,-0.250323486328125,6.548336791992188
6.123000000000047,7.7896362304687505,0.2184722900390625,5.448199462890625
6.133000000000038,6.997543334960938,0.5327972412109375,4.806539916992188
6.143000000000029,7.124050903320313,0.4463653564453125,5.063592529296876
6.1520000000000366,7.127041625976563,-0.3766815185546875,6.416146850585938
6.164000000000044,7.337738037109376,-0.487188720703125,6.821090698242188
6.173000000000002,8.294769287109375,-0.160601806640625,6.499887084960938
6.18300000000005,8.697021484375,-0.442926025390625,6.784304809570313
6.1930000000000405,7.662979125976563,-0.6165374755859375,6.855184936523438
6.203000000000031,6.448147583007813,-0.1543212890625,6.490914916992188
6.213999999999999,6.451736450195313,0.2468841552734375,6.228329467773438
6.22300000000002,7.1346679687500005,0.1703216552734375,6.025259399414063
6.233000000000011,7.613781738281251,0.274249267578125,5.361019897460938
6.243000000000052,7.9705749511718755,0.25062255859375,5.399600219726563
6.253000000000043,8.089755249023439,0.31641845703125,6.250161743164063
6.263000000000034,6.527850341796875,0.5324981689453125,6.562841796875
6.274000000000001,5.131781005859375,0.3587371826171875,6.049484252929688
6.284000000000049,6.775631713867188,-0.039776611328125,7.017880249023438
6.29400000000004,9.84486083984375,0.0294586181640625,6.910214233398438
6.304000000000031,10.05765075683594,0.1075164794921875,5.8917236328125
6.314000000000021,8.652459716796876,-0.081646728515625,5.888284301757813
6.324000000000012,6.685910034179688,-0.1368255615234375,8.146578979492189
6.334000000000003,5.842376708984375,-0.1425079345703125,7.577145385742188
6.344000000000051,5.88394775390625,0.0805999755859375,5.710186767578126
6.354000000000042,7.727279663085938,0.0213836669921875,5.226736450195313
6.364000000000033,8.79093017578125,-0.2776885986328125,5.9814453125
6.3740000000000165,8.471820068359376,-0.382513427734375,5.812619018554688
6.384000000000022,7.714718627929688,-0.0179443359375,6.640151977539063
6.395000000000039,7.395309448242188,-0.0346923828125,7.976705932617188
6.40500000000003,7.568472290039063,-0.2009765625,7.081283569335938
6.4150000000000205,7.275830078125001,0.1248626708984375,5.53702392578125
6.425000000000011,7.106854248046876,0.165985107421875,5.797067260742188
6.435000000000002,7.205099487304688,-0.139666748046875,6.473867797851563
6.44500000000005,7.484881591796875,0.143255615234375,5.822338867187501
6.455000000000041,7.727429199218751,0.4544403076171875,5.5081634521484375
6.465000000000032,8.184561157226563,0.3138763427734375,6.421380615234376
6.475000000000023,8.195178222656251,0.0758148193359375,6.490316772460938
6.485000000000021,7.482489013671875,0.1000396728515625,6.0609985351562505
6.495000000000012,6.87088623046875,0.0825439453125,6.656002807617188
6.505000000000052,6.779071044921875,-0.0988433837890625,7.1167236328125005
6.515000000000036,6.834249877929688,0.0100189208984375,6.30205078125
6.525000000000034,6.856381225585938,-0.170172119140625,5.615979003906251
6.535000000000025,6.744229125976563,-0.186322021484375,5.565585327148438
6.545000000000023,6.9507385253906255,-0.317913818359375,6.11004638671875
6.55600000000004,8.14613037109375,-0.0734222412109375,6.1656738281250005
6.566000000000031,9.548779296875,0.2773895263671875,6.0689239501953125
6.576000000000022,9.42361755371094,-0.5313018798828125,6.521719360351563
6.586000000000013,7.982388305664063,-0.4101776123046875,6.927560424804688
6.596000000000004,6.154907226562501,0.1057220458984375,7.038067626953126
6.606000000000051,5.7828613281250005,-0.1244140625,7.032086181640626
6.616000000000042,6.445306396484376,0.5184417724609376,6.606655883789063
6.626000000000033,7.490264892578126,0.7520172119140626,5.443563842773438
6.636000000000024,8.3465087890625,0.7158294677734376,5.692691040039063
6.646000000000022,8.84476318359375,1.0137054443359377,7.409664916992188
6.656000000000013,8.102465820312501,0.5525360107421875,7.627389526367188
6.665999999999997,7.430899047851563,0.4505523681640625,6.042605590820313
6.676000000000045,7.482189941406251,-0.1614990234375,6.1048126220703125
6.687000000000012,7.186407470703125,-0.3838592529296875,6.533084106445313
6.697000000000003,6.847109985351563,0.387298583984375,5.295074462890625
6.7070000000000505,7.211978149414063,-0.174359130859375,5.457022094726563
6.717000000000041,7.904779052734375,-0.5791534423828125,6.80150146484375
6.727000000000032,8.025903320312501,-0.354998779296875,6.935784912109376
6.737000000000016,7.866049194335938,-0.073272705078125,6.225637817382813
6.747000000000021,7.999734497070313,-0.098095703125,6.578543090820313
6.757000000000012,7.537518310546876,-0.2899505615234375,6.927261352539063
6.767000000000053,6.823483276367188,0.18004150390625,5.747720336914063
6.7770000000000366,6.88583984375,0.5760131835937501,5.228530883789063
6.787000000000035,7.395758056640625,0.3357086181640625,6.130682373046875
6.7970000000000255,7.48338623046875,0.27574462890625,6.3690429687500005
6.807000000000016,7.530639648437501,0.3114837646484375,5.97606201171875
6.817000000000007,7.918536376953125,-0.0231781005859375,6.673648071289063
6.826999999999998,7.73221435546875,-0.084039306640625,7.17833251953125
6.838000000000022,6.097634887695313,0.12381591796875,6.154010009765625
6.84800000000002,4.766314697265625,0.237762451171875,5.24871826171875
6.858000000000011,6.938925170898438,-0.5612091064453125,6.253900146484376
6.868000000000052,10.151409912109376,-0.0779083251953125,6.4707275390625005
6.878000000000043,10.636056518554687,0.018243408203125,5.608502197265626
6.888000000000034,8.769097900390626,-0.329876708984375,5.833255004882813
6.898000000000025,6.934887695312501,-0.027215576171875,8.212973022460938
6.908000000000023,5.810525512695313,-0.0638519287109375,7.971023559570313
6.918000000000006,5.644989013671875,0.3757843017578125,6.402838134765625
6.927999999999997,7.091900634765626,0.6540710449218751,5.412908935546875
6.938000000000045,8.659487915039064,0.0322998046875,6.117523193359375
6.948000000000036,8.429351806640625,-0.1757049560546875,5.9911651611328125
6.958000000000027,7.717111206054688,0.091217041015625,6.436932373046876
6.968000000000018,7.500881958007813,0.0043365478515625,7.654006958007813
6.979000000000042,7.854983520507813,-0.46834716796875,7.196575927734376
6.989000000000033,7.730120849609375,-0.2597442626953125,5.668765258789063
6.9990000000000165,7.363159179687501,-0.0094207763671875,5.098284912109375
7.009000000000022,7.332653808593751,-0.4185516357421875,5.87138671875
7.019000000000013,6.990814208984376,-0.4385894775390625,6.507812500000001
7.029000000000053,7.105059814453125,0.2775390625,5.9850341796875
7.039000000000044,7.846011352539063,0.37802734375,6.207394409179688
7.049000000000035,8.464343261718751,0.266473388671875,6.5688232421875
7.059000000000026,7.937677001953125,0.271856689453125,6.333901977539063
7.069000000000017,7.213174438476563,0.5319000244140626,6.224441528320313
7.079000000000008,6.841427612304688,0.3865509033203125,6.697125244140626
7.090000000000032,7.013693237304688,0.130096435546875,6.759930419921876
7.099000000000046,7.073507690429688,0.2367156982421875,6.072662353515625
7.109000000000037,7.539163208007813,0.1215728759765625,5.591754150390625
7.119000000000028,7.225286865234375,-0.298773193359375,5.72484130859375
7.129000000000019,6.530093383789063,-0.380419921875,6.025857543945313
7.140000000000036,6.559103393554688,-0.2998199462890625,6.298611450195313
7.150000000000034,8.067773437500001,-0.130096435546875,6.009408569335938
7.160000000000025,9.7246337890625,-0.090020751953125,6.150720214843751
7.170000000000023,9.57330322265625,-0.6826324462890625,7.167715454101563
7.180000000000007,7.908816528320313,0.02093505859375,7.031338500976563
7.189999999999998,6.061297607421875,-0.046954345703125,6.9061767578125
7.2000000000000455,5.732467651367188,-0.38341064453125,7.245623779296875
7.210000000000036,6.367996215820313,0.3084930419921875,6.519027709960938
7.220000000000027,7.446600341796875,0.6548187255859376,4.73192138671875
7.230000000000018,8.4948486328125,0.567938232421875,5.357730102539063
7.240000000000009,9.31131591796875,1.05093994140625,7.114480590820313
7.25,7.932144165039063,0.9437225341796877,7.805337524414063
7.261000000000024,7.458413696289063,0.481207275390625,6.5209716796875
7.271000000000022,7.554714965820313,-0.38699951171875,6.8224365234375
7.281000000000013,7.0951904296875,-0.174359130859375,6.526205444335938
7.290999999999997,6.498840332031251,0.1727142333984375,4.979254150390625
7.301000000000045,6.936831665039063,-0.2187713623046875,5.4782562255859375
7.3110000000000355,7.93797607421875,-0.4472625732421875,6.667666625976563
7.321000000000026,8.19278564453125,-0.3736907958984375,6.165524291992188
7.331000000000017,8.201159667968751,-0.131890869140625,5.92581787109375
7.341000000000008,8.138803100585939,-0.0357391357421875,7.148873901367188
7.350999999999999,7.533331298828125,-0.303857421875,7.174295043945313
7.361000000000047,6.64957275390625,0.09031982421875,5.813665771484375
7.371000000000038,6.700564575195313,0.486590576171875,5.743533325195313
7.381000000000029,7.213024902343751,0.444720458984375,6.328070068359375
7.392000000000053,7.340878295898438,0.20396728515625,5.962005615234375
7.40100000000001,7.677484130859375,0.350811767578125,5.874676513671876
7.412000000000035,8.055062866210939,0.1126007080078125,6.549084472656251
7.4220000000000255,7.280166625976563,-0.032000732421875,6.423175048828125
7.432000000000016,5.502630615234375,0.1586578369140625,5.9587158203125
7.442000000000007,6.295172119140625,-0.0079254150390625,6.395809936523438
7.451999999999998,8.811865234375,0.0814971923828125,6.277975463867188
7.463999999999999,10.097277832031253,-0.122918701171875,5.91624755859375
7.472000000000037,8.826968383789064,-0.0186920166015625,6.212777709960938
7.482000000000028,7.189547729492188,0.0695343017578125,7.586566162109375
7.492000000000019,6.246572875976563,-0.36427001953125,7.844067382812501
7.5020000000000095,5.959762573242188,-0.2106964111328125,6.9268127441406255
7.512,7.126293945312501,0.3321197509765625,5.469284057617188
7.522000000000048,8.365798950195312,0.0112152099609375,5.390328979492188
7.532000000000039,8.612234497070313,-0.4266265869140625,5.876470947265625
7.54200000000003,7.678530883789063,-0.023028564453125,6.66392822265625
7.552000000000021,7.486526489257813,0.2148834228515625,6.753500366210938
7.564999999999998,7.63651123046875,-0.162994384765625,6.996197509765626
7.573000000000036,7.621856689453126,-0.085833740234375,6.708041381835938
7.583000000000027,7.2626708984375,0.258697509765625,5.7380004882812505
7.593000000000018,7.124649047851563,-0.11065673828125,5.950491333007813
7.603000000000009,7.376617431640626,-0.112451171875,6.666769409179688
7.612999999999999,7.578341674804688,0.2588470458984375,6.116326904296876
7.623000000000047,7.923321533203126,0.4269256591796875,5.404385375976563
7.633000000000038,8.013043212890626,0.0468048095703125,6.347958374023438
7.643000000000029,7.621856689453126,0.1287506103515625,6.755444335937501
7.65300000000002,7.1256958007812505,0.159405517578125,6.172253417968751
7.66500000000002,7.111639404296875,0.1155914306640625,6.241937255859376
7.673000000000002,7.2052490234375,0.0210845947265625,6.823931884765625
7.68300000000005,7.25908203125,-0.1401153564453125,6.534878540039063
7.69300000000004,7.278970336914063,-0.0258697509765625,5.973370361328126
7.703000000000031,7.327420043945313,-0.119329833984375,5.9014434814453125
7.713000000000022,6.469830322265626,0.0471038818359375,5.6177734375
7.724000000000046,5.994903564453125,-0.1933502197265625,5.824880981445313
7.734000000000037,7.584622192382813,0.1244140625,6.345416259765625
7.744000000000028,10.207485961914063,0.3548492431640625,6.529345703125
7.754000000000019,10.38199462890625,-0.4801605224609375,6.552822875976563
7.765000000000036,8.202206420898438,-0.4366455078125,7.1550048828125
7.774000000000001,6.3002563476562505,0.1194793701171875,7.345065307617188
7.784000000000049,5.470480346679688,-0.311932373046875,7.036721801757813
7.79400000000004,5.835946655273438,0.0107666015625,6.326724243164063
7.8040000000000305,7.2632690429687505,0.5319000244140626,4.958020019531251
7.814000000000021,8.3823974609375,0.3720458984375,5.329916381835938
7.824000000000012,9.1073486328125,0.7280914306640626,6.750360107421876
7.834000000000003,8.008856201171875,1.0107147216796877,8.040707397460938
7.844000000000051,7.5976318359375,0.578704833984375,7.102816772460938
7.855000000000018,7.59464111328125,-0.3680084228515625,6.554318237304688
7.866000000000042,7.411758422851563,0.0001495361328125,6.0599517822265625
7.875,6.672601318359376,0.43365478515625,5.193988037109375
7.885000000000048,6.853240966796876,-0.1242645263671875,5.4251708984375
7.895000000000039,7.531387329101563,-0.4592254638671875,6.276181030273438
7.90500000000003,8.103213500976564,-0.5745178222656251,6.357678222656251
7.91500000000002,8.278469848632813,-0.351409912109375,6.275582885742188
7.925000000000011,8.445651245117189,-0.0797027587890625,6.8056884765625005
7.935000000000002,7.515686035156251,-0.3265869140625,7.208090209960938
7.94500000000005,6.528298950195313,-0.0850860595703125,6.327621459960938
7.955000000000041,6.582730102539063,0.3955230712890625,5.822189331054688
7.965000000000032,7.101919555664063,0.3025115966796875,6.250012207031251
7.975000000000023,7.61258544921875,0.4200469970703125,5.87078857421875
7.985000000000021,7.754196166992188,0.4457672119140625,5.643344116210938
7.995000000000012,8.239590454101563,0.28531494140625,6.27513427734375
8.005000000000052,7.391421508789063,0.14534912109375,6.708938598632813
8.01600000000002,5.780618286132813,0.1748077392578125,6.123953247070313
8.02600000000001,5.6237548828125,-0.1351806640625,6.229675292968751
8.036000000000001,8.174691772460939,-0.2612396240234375,6.476260375976563
8.04600000000005,10.02774353027344,0.0258697509765625,6.154010009765625
8.05600000000004,9.188546752929687,-0.14415283203125,5.7125793457031255
8.066000000000031,7.646380615234375,0.088226318359375,7.040310668945313
8.076000000000022,6.591104125976563,-0.1927520751953125,8.164224243164064
8.086000000000013,5.972174072265625,-0.2524169921875,7.243231201171875
8.096000000000004,6.421231079101563,0.469244384765625,5.527902221679688
8.106000000000051,8.177682495117189,0.2235565185546875,5.358477783203125
8.116000000000042,8.804388427734375,-0.405242919921875,6.052923583984375
8.126000000000033,8.084521484375001,0.080450439453125,6.231918334960938
8.137,7.560546875000001,0.2334259033203125,6.639105224609375
8.147000000000048,7.6475769042968755,-0.3407928466796875,7.438076782226563
8.156000000000013,7.553967285156251,-0.1471435546875,7.028347778320313
8.16700000000003,7.104312133789063,0.09630126953125,5.666970825195313
8.177000000000021,7.292877197265626,-0.1466949462890625,5.622259521484375
8.187000000000012,7.46962890625,-0.484796142578125,6.554318237304688
8.197000000000003,7.510601806640626,-0.055029296875,6.123654174804688
8.20700000000005,7.625744628906251,0.4427764892578125,5.4722747802734375
8.217000000000041,8.148074340820314,0.246435546875,6.286499023437501
8.227000000000032,7.9092651367187505,0.161798095703125,6.760977172851563
8.237000000000016,7.282559204101563,0.352008056640625,5.998941040039063
8.247000000000021,6.944906616210938,0.3225494384765625,6.254498291015626
8.257000000000012,7.083377075195313,0.1580596923828125,7.089208984375
8.267000000000053,7.045245361328125,0.1102081298828125,6.731817626953125
8.277000000000037,7.225735473632813,0.075665283203125,5.994305419921876
8.288000000000011,7.7657104492187505,0.072674560546875,5.928958129882813
8.297000000000025,7.006216430664063,-0.19200439453125,5.886639404296876
8.30800000000005,6.082232666015625,-0.2739501953125,5.428759765625
8.31800000000004,6.375772094726563,-0.2002288818359375,5.7220001220703125
8.328000000000031,9.031533813476564,-0.007177734375,6.032586669921876
8.338000000000022,10.808023071289064,-0.1021331787109375,6.811968994140625
8.34800000000002,9.535470581054687,-0.715679931640625,6.847409057617188
8.358000000000011,6.8370910644531255,-0.201275634765625,7.087564086914063
8.368000000000052,5.530743408203126,-0.224603271484375,7.600173950195313
8.378000000000043,5.582781982421875,-0.2603424072265625,7.445703125
8.388000000000034,6.241638183593751,0.548797607421875,5.655905151367188
8.398000000000025,7.703952026367188,0.5124603271484376,4.5406646728515625
8.408000000000023,9.31714782714844,0.5351898193359376,6.297714233398438
8.418000000000006,9.177032470703123,1.1654846191406252,7.539013671875001
8.427999999999997,7.441366577148438,1.15262451171875,7.261474609375001
8.439999999999998,7.611837768554688,0.303857421875,6.697125244140626
8.449000000000012,7.750906372070313,-0.6907073974609376,7.081881713867188
8.458000000000027,7.113882446289063,0.1876678466796875,5.300906372070313
8.468000000000018,6.493756103515626,0.4412811279296875,4.344174194335938
8.479000000000042,7.033132934570313,-0.4900299072265625,6.220703125000001
8.489000000000033,7.638455200195313,-0.705511474609375,6.938476562500001
8.499000000000017,8.005715942382814,-0.4176544189453125,5.882302856445313
8.509000000000022,8.636459350585938,0.0106170654296875,6.146533203125
8.519000000000013,8.537765502929688,-0.392681884765625,7.648175048828126
8.529000000000053,7.106106567382813,-0.30804443359375,6.690695190429688
8.539000000000044,6.115429687500001,0.271856689453125,5.4673400878906255
8.550000000000011,6.673797607421876,0.479412841796875,6.3271728515625005
8.560000000000002,7.234109497070313,0.3730926513671875,6.478054809570313
8.569000000000017,7.544546508789063,0.3868499755859375,5.276681518554688
8.583000000000027,7.830010986328125,0.2752960205078125,5.870190429687501
8.590000000000032,8.444454956054688,0.160302734375,7.090106201171875
8.600000000000023,7.901489257812501,0.2633331298828125,6.923223876953125
8.61000000000002,5.901593017578126,0.253314208984375,6.047091674804688
8.620000000000012,4.521673583984375,0.12979736328125,5.5208740234375
8.630000000000052,6.492858886718751,-0.4601226806640625,6.376220703125001
8.640000000000036,10.123147583007814,-0.0725250244140625,6.382949829101563
8.650000000000034,10.848696899414064,0.186322021484375,5.554669189453126
8.660000000000025,9.443057250976564,-0.040972900390625,5.100527954101563
8.670000000000023,7.242333984375,-0.4499542236328125,8.242132568359375
8.682000000000016,5.767459106445313,-0.427972412109375,8.6862548828125
8.689999999999998,4.9442626953125,0.037384033203125,6.374276733398438
8.700000000000045,6.603216552734375,0.3864013671875,5.372683715820313
8.710000000000036,8.743527221679688,-0.3243438720703125,6.194235229492188
8.720000000000027,8.525503540039063,-0.0680389404296875,6.25120849609375
8.730000000000018,7.74058837890625,0.4270751953125,5.5679779052734375
8.741000000000042,7.895507812500001,0.259893798828125,7.077545166015626
8.751000000000033,7.886087036132813,-0.4484588623046875,8.858221435546875
8.761000000000024,7.968032836914063,0.1945465087890625,5.78226318359375
8.771000000000022,7.537368774414063,0.2169769287109375,4.422232055664063
8.782000000000039,7.49295654296875,-0.1401153564453125,5.480050659179688
8.790999999999997,6.695181274414063,-0.380419921875,6.931896972656251
8.801000000000045,6.683816528320313,0.18123779296875,5.548239135742188
8.811000000000035,7.949639892578125,0.304754638671875,5.499789428710938
8.821000000000026,8.76820068359375,-0.040972900390625,6.831857299804688
8.831000000000017,7.898648071289063,-0.21353759765625,6.765463256835938
8.841000000000008,6.889578247070313,0.2109954833984375,6.489718627929688
8.850999999999999,6.687106323242188,0.3701019287109375,7.211529541015626
8.861000000000047,7.051974487304688,-0.0186920166015625,6.970925903320313
8.871000000000038,7.142742919921876,0.1544708251953125,5.552725219726563
8.882000000000012,7.095938110351563,0.31522216796875,5.020526123046875
8.892000000000053,6.482391357421876,0.0873291015625,5.42218017578125
8.902000000000037,6.356930541992188,-0.240753173828125,6.043652343750001
8.912000000000035,7.953228759765626,0.1807891845703125,6.220254516601563
8.922000000000025,10.2773193359375,0.39896240234375,6.323883056640626
8.932000000000016,10.29765625,-0.6643890380859375,6.840829467773438
8.942000000000007,7.795468139648438,-0.7841674804687501,7.556808471679688
8.951999999999998,5.824581909179688,-0.23148193359375,7.349252319335938
8.962000000000046,5.2674102783203125,-0.346923828125,7.140948486328125
8.972000000000037,6.207992553710938,0.0991424560546875,6.369342041015625
8.982000000000028,7.534078979492188,0.5467041015625,4.6119934082031255
8.992000000000019,8.784350585937501,0.3935791015625,5.4269653320312505
9.00200000000001,9.35318603515625,0.7345214843750001,6.6142822265625005
9.012,7.972967529296875,0.9782653808593752,7.937527465820313
9.022000000000048,7.298709106445313,0.6238647460937501,7.3583740234375
9.033000000000024,7.618865966796876,-0.2274444580078125,6.652862548828126
9.043000000000006,7.22139892578125,0.1281524658203125,6.17943115234375
9.052999999999995,6.406127929687501,0.575714111328125,5.169763183593751
9.063000000000043,6.840380859375,0.0545806884765625,5.287298583984375
9.073000000000036,7.676287841796875,-0.5426666259765626,6.297564697265625
9.083000000000029,8.121606445312501,-0.5266662597656251,6.1970764160156255
9.093000000000018,8.389724731445312,-0.0850860595703125,5.950491333007813
9.103000000000009,8.511148071289064,-0.2941375732421875,6.878363037109375
9.113,7.618417358398438,-0.6051727294921876,7.266259765625
9.123000000000047,6.417492675781251,-0.0811981201171875,6.1611877441406255
9.133000000000038,6.282012939453126,0.1233673095703125,6.124551391601563
9.143000000000027,6.884494018554688,0.1963409423828125,6.662432861328125
9.154000000000051,7.482788085937501,0.3098388671875,5.980847167968751
9.163000000000013,7.844067382812501,0.4284210205078125,5.289691162109375
9.174000000000037,8.531036376953125,0.35230712890625,6.113485717773438
9.184000000000026,8.195327758789062,0.332269287109375,6.8080810546875
9.194000000000017,5.830563354492188,0.4451690673828125,5.967837524414063
9.204000000000008,4.22708740234375,0.341839599609375,5.2098388671875
9.214,6.693087768554688,-0.0850860595703125,6.694134521484376
9.224000000000046,10.600616455078123,-0.0743194580078125,6.9941040039062505
9.234000000000036,10.738040161132814,0.108563232421875,5.7055511474609375
9.244000000000028,9.386981201171876,0.0873291015625,5.544201660156251
9.25400000000002,6.988272094726563,-0.473431396484375,9.023309326171876
9.26400000000001,5.38988037109375,-0.487786865234375,8.822183227539064
9.274,4.558609008789063,0.0011962890625,5.445358276367188
9.284000000000049,6.963748168945313,0.0575714111328125,4.898205566406251
9.29400000000004,9.028244018554688,-0.3760833740234375,6.296218872070313
9.305000000000009,8.554064941406251,-0.256903076171875,6.0868682861328125
9.314999999999998,7.740438842773438,0.12261962890625,5.122659301757813
9.325000000000044,8.32318115234375,0.202471923828125,7.085919189453126
9.336000000000013,7.907321166992188,-0.31163330078125,9.31131591796875
9.345000000000027,7.523461914062499,0.14774169921875,6.008212280273438
9.355000000000018,7.2531005859375,0.3757843017578125,4.15770263671875
9.365000000000007,7.175341796875,0.0369354248046875,6.079989624023438
9.375,6.519027709960938,-0.0121124267578125,6.949093627929688
9.385000000000048,6.971374511718751,0.4388885498046875,4.955776977539063
9.39500000000004,8.425613403320312,0.4062896728515625,5.302102661132813
9.40500000000003,8.938671875,-0.049346923828125,6.854437255859375
9.41500000000002,7.817898559570313,-0.31103515625,6.81705322265625
9.425000000000011,6.728228759765625,0.0849365234375,6.759780883789063
9.435000000000002,6.609497070312501,0.098992919921875,7.480844116210938
9.44500000000005,6.799407958984376,-0.2169769287109375,7.046890258789063
9.456000000000016,7.168014526367188,-0.0450103759765625,5.411114501953126
9.466000000000008,7.587911987304688,0.1613494873046875,5.340832519531251
9.476,6.950888061523438,0.08912353515625,5.63751220703125
9.486000000000049,5.945556640625,-0.200079345703125,5.544500732421875
9.496000000000038,6.558953857421876,0.185723876953125,5.606259155273438
9.506000000000029,9.350344848632814,0.4424774169921875,6.235058593750001
9.51600000000002,11.406765747070311,0.1084136962890625,6.834100341796876
9.52600000000001,9.524105834960938,-0.3204559326171875,6.955822753906251
9.536,6.611889648437501,-0.1661346435546875,7.546939086914063
9.54600000000005,5.205801391601563,-0.37742919921875,8.096783447265626
9.55600000000004,5.47003173828125,-0.3385498046875,7.642193603515626
9.566000000000033,6.08970947265625,0.2827728271484375,4.820895385742188
9.576000000000022,7.978500366210938,0.24105224609375,4.37064208984375
9.586000000000013,9.328662109375,0.058917236328125,6.304293823242188
9.596000000000004,8.99609375,0.602032470703125,6.510055541992188
9.607000000000028,7.382000732421876,0.963909912109375,7.180276489257813
9.61700000000002,7.634417724609375,0.1864715576171875,8.18680419921875
9.62700000000001,7.915545654296875,-0.2313323974609375,7.3814025878906255
9.637,7.122406005859376,0.5139556884765626,4.736706542968751
9.647000000000048,6.662881469726563,0.5718261718750001,4.278378295898438
9.65700000000004,7.111788940429688,0.217425537109375,6.31162109375
9.66700000000003,7.13646240234375,-0.620574951171875,6.640750122070313
9.67700000000002,7.935284423828126,-0.222808837890625,5.1930908203125
9.687000000000012,8.999832153320312,-0.372943115234375,6.410015869140626
9.697000000000005,8.67249755859375,-0.6954925537109375,7.760476684570313
9.70700000000005,6.949542236328125,-0.418701171875,6.553421020507813
9.71700000000004,6.1372619628906255,-0.064898681640625,6.041259765625
9.727000000000032,6.44560546875,0.00538330078125,7.038516235351563
9.738,7.070816040039063,0.2654266357421875,6.408370971679688
9.748000000000047,7.506265258789063,0.4053924560546875,4.817007446289063
9.758000000000038,8.311367797851563,0.4055419921875,5.538818359375
9.768000000000027,8.28250732421875,0.5286102294921875,6.876119995117188
9.77800000000002,6.720153808593751,0.4915252685546875,6.3750244140625005
9.788000000000013,5.008413696289063,0.451300048828125,5.564538574218751
9.798000000000002,6.554617309570313,0.208154296875,6.7147705078125
9.80800000000005,9.619958496093751,0.0844879150390625,6.768902587890626
9.81800000000004,10.089651489257813,0.0497955322265625,5.746524047851563
9.828000000000031,8.980242919921876,0.2409027099609375,5.5664825439453125
9.838000000000022,7.073507690429688,-0.362176513671875,8.42127685546875
9.84800000000002,5.933743286132813,-0.5764617919921875,8.548831176757814
9.858000000000011,5.33963623046875,-0.3049041748046875,5.962902832031251
9.868000000000052,7.37930908203125,-0.11484375,4.750912475585938
9.878000000000045,8.797808837890626,-0.329278564453125,6.282611083984375
9.88900000000001,8.4158935546875,-0.42886962890625,6.018978881835938
9.899,7.75015869140625,0.20635986328125,5.342477416992188
9.909000000000049,7.7292236328125,0.09271240234375,7.402935791015626
9.91900000000004,7.763317871093751,-0.2172760009765625,8.563336181640626
9.92900000000003,7.387234497070313,0.384906005859375,6.018380737304688
9.93900000000002,7.316055297851563,0.44322509765625,4.765866088867188
9.949000000000012,7.230670166015625,-0.0203369140625,6.53592529296875
9.959000000000003,7.13048095703125,-0.0468048095703125,6.797015380859375
9.969000000000053,7.356878662109375,0.3775787353515625,4.99749755859375
9.979000000000042,8.260675048828126,0.3309234619140625,5.414852905273438
9.989000000000033,8.462399291992188,-0.1015350341796875,6.869689941406251
9.999000000000017,7.540359497070313,-0.1688262939453125,6.55028076171875
10.009000000000022,6.868194580078126,0.125311279296875,6.129486083984376
10.019000000000013,6.813613891601563,-0.1284515380859375,7.213323974609375
10.029000000000051,6.859072875976563,-0.140863037109375,6.985580444335938
10.04000000000002,6.441867065429688,-0.321502685546875,5.5555664062500005
10.050000000000011,6.329266357421876,-0.3043060302734375,5.071966552734375
10.060000000000002,6.713275146484375,-0.4628143310546875,6.171505737304688
10.07000000000005,8.592944335937501,-0.1212738037109375,6.289788818359376
10.08000000000004,10.378256225585938,0.45518798828125,6.055615234375001
10.090000000000032,10.02893981933594,0.0390289306640625,6.322836303710938
10.100000000000025,7.570565795898438,0.026318359375,7.292578125
10.11000000000002,5.915200805664063,0.2296875,7.211380004882813
10.120000000000012,5.4135070800781255,0.088824462890625,7.286895751953126
10.130000000000052,6.094494628906251,0.64420166015625,6.390875244140625
10.140000000000036,7.457516479492188,0.6652862548828126,4.953982543945313
10.150000000000034,8.71317138671875,0.375634765625,5.717813110351563
10.160000000000023,9.129330444335938,0.6413604736328126,7.175192260742188
10.170000000000025,7.795916748046875,0.6059204101562501,7.819393920898438
10.18300000000005,7.525106811523438,-0.04306640625,6.684265136718751
10.191000000000033,7.7232421875,-0.5909667968750001,6.443063354492188
10.201000000000022,7.421478271484376,-0.209649658203125,5.887985229492188
10.211000000000013,6.63760986328125,0.45279541015625,4.752557373046876
10.221000000000004,7.053768920898438,-0.1900604248046875,5.395114135742188
10.231000000000051,7.706942749023438,-0.428570556640625,6.708639526367188
10.241000000000042,7.93199462890625,0.0157012939453125,6.6262451171875005
10.251000000000031,8.309274291992189,0.3040069580078125,6.249862670898438
10.261000000000024,8.44281005859375,0.0602630615234375,7.037469482421876
10.271000000000022,7.410113525390625,-0.0829925537109375,7.118966674804688
10.283000000000024,6.247619628906251,0.116937255859375,6.105410766601563
10.290999999999997,6.615029907226563,0.3165679931640625,5.81217041015625
10.301000000000045,7.36973876953125,0.08792724609375,6.118719482421875
10.311000000000035,7.752401733398438,0.032598876953125,5.556912231445313
10.322000000000005,7.845413208007813,0.021234130859375,5.631381225585938
10.33200000000005,8.2747314453125,-0.1846771240234375,6.535775756835938
10.34200000000004,7.544995117187501,-0.3409423828125,7.122406005859376
10.352000000000032,5.019479370117188,-0.105572509765625,6.034381103515625
10.362000000000016,4.919888305664063,-0.244342041015625,5.759533691406251
10.37200000000002,8.143438720703125,-0.2130889892578125,6.411959838867188
10.384000000000022,10.81864013671875,0.1543212890625,6.565383911132813
10.392000000000053,10.03507080078125,0.0976470947265625,5.108303833007813
10.402000000000037,8.514437866210939,0.5927612304687501,6.048736572265625
10.412000000000036,6.864157104492188,0.102880859375,9.114227294921877
10.422000000000024,5.418890380859375,0.047552490234375,8.170355224609375
10.432000000000016,5.30673828125,0.7858123779296876,5.591305541992188
10.442000000000007,7.632324218750001,0.7644287109375001,5.2194091796875
10.451999999999998,9.008056640625,-0.0873291015625,6.296218872070313
10.462000000000046,8.291030883789062,-0.284417724609375,5.8815551757812505
10.47300000000002,7.650119018554688,-0.1900604248046875,5.791683959960938
10.483000000000011,7.642193603515626,-0.8541503906250001,7.964743041992188
10.493000000000052,7.908367919921876,-1.0295562744140625,7.925265502929688
10.503000000000045,7.723989868164063,-0.302960205078125,5.4646484375
10.513000000000034,7.591500854492188,0.1105072021484375,4.661489868164063
10.523000000000025,7.300354003906251,-0.495562744140625,5.821142578125
10.533000000000024,6.6286376953125,-0.1233673095703125,6.76561279296875
10.543000000000006,6.919186401367188,0.8463745117187501,5.5066680908203125
10.552999999999995,8.348153686523439,0.8510101318359375,5.887536621093751
10.563000000000043,8.671450805664064,0.9120208740234376,6.811968994140625
10.573000000000036,7.406973266601563,0.4885345458984375,6.763668823242188
10.583000000000029,6.738098144531251,0.6612487792968751,6.478054809570313
10.593000000000018,6.943560791015625,0.3476715087890625,7.370486450195313
10.604000000000042,7.143490600585938,-0.119329833984375,6.820941162109375
10.614000000000033,7.263119506835938,-0.271856689453125,5.3406829833984375
10.624000000000017,7.788290405273438,-0.4318603515625,5.27623291015625
10.634000000000022,7.943359375000001,-0.7696624755859376,6.2075439453125005
10.644000000000013,6.570916748046876,-0.691754150390625,6.049484252929688
10.654000000000051,5.2026611328125005,-0.5295074462890625,5.448199462890625
10.664000000000044,6.164178466796876,-0.6395660400390626,5.778823852539063
10.674000000000037,9.5739013671875,0.088525390625,6.606356811523438
10.684000000000026,11.956759643554689,0.6075653076171875,6.9755615234375
10.694000000000017,9.488366699218751,0.707305908203125,6.018081665039063
10.704000000000008,6.661087036132813,0.3171661376953125,7.432394409179688
10.714,5.342776489257813,-0.201275634765625,8.815753173828126
10.724000000000046,5.118472290039063,0.0862823486328125,7.74417724609375
10.73500000000002,5.809628295898438,0.843084716796875,4.257891845703125
10.744000000000028,8.28250732421875,0.428271484375,4.565936279296875
10.75400000000002,9.859814453125,0.109759521484375,6.893316650390625
10.765000000000036,8.855828857421876,0.41929931640625,6.433343505859376
10.775000000000034,7.237548828125001,0.6268554687500001,6.847857666015625
10.785000000000023,7.8153564453125,-0.6959411621093751,8.156298828125001
10.795000000000025,7.781411743164063,-1.0053314208984376,7.539761352539063
10.805000000000009,6.805239868164063,0.06998291015625,4.336099243164063
10.814999999999998,6.859820556640625,0.5516387939453126,3.93040771484375
10.825000000000044,7.212277221679688,0.1137969970703125,6.360220336914063
10.835000000000036,7.002926635742188,-0.2597442626953125,6.811968994140625
10.845000000000027,7.873675537109375,0.327783203125,5.326177978515625
10.855000000000018,9.179425048828126,0.3231475830078125,6.433343505859376
10.865000000000007,8.861212158203125,-0.2606414794921875,7.9346862792968755
10.875,6.660040283203125,-0.1449005126953125,6.755444335937501
10.885000000000048,5.914154052734375,0.25181884765625,6.022717285156251
10.89500000000004,6.472821044921876,0.1374237060546875,6.900643920898438
10.906000000000011,7.186557006835938,-0.0560760498046875,6.351397705078125
10.915999999999997,7.592398071289063,0.0333465576171875,4.781268310546875
10.926000000000045,8.41888427734375,-0.0435150146484375,5.1835205078125
10.936000000000035,8.50980224609375,-0.1580596923828125,6.727780151367188
10.946000000000026,6.306387329101563,0.0514404296875,6.669311523437501
10.956000000000016,4.725042724609375,0.428271484375,5.544500732421875
10.966000000000008,6.590805053710938,0.0462066650390625,6.88524169921875
10.976,10.457958984375,0.03828125,7.079339599609376
10.986000000000049,10.155596923828126,0.3074462890625,5.715570068359376
10.996000000000038,8.514138793945314,0.5236755371093751,5.406777954101563
11.006000000000029,6.776977539062501,0.125311279296875,8.4422119140625
11.01600000000002,5.858227539062501,-0.326885986328125,8.646029663085939
11.02600000000001,5.220904541015625,0.288006591796875,5.780169677734375
11.036,7.4202819824218755,0.32359619140625,4.638162231445313
11.047000000000024,9.318045043945313,-0.390887451171875,6.471475219726563
11.057000000000016,8.67728271484375,-0.682781982421875,6.130233764648438
11.067000000000007,7.789486694335938,-0.16688232421875,5.218960571289063
11.076999999999998,7.676586914062501,-0.2047149658203125,7.336990356445313
11.087000000000046,7.732064819335938,-0.7146331787109376,8.401986694335939
11.097000000000037,6.983038330078125,-0.119329833984375,5.800656127929688
11.107000000000028,6.969430541992188,0.389990234375,4.686761474609376
11.11700000000002,7.323532104492188,-0.0976470947265625,6.6097961425781255
11.12700000000001,7.313064575195313,0.0124114990234375,6.775332641601563
11.137,7.477255249023438,0.624761962890625,5.241241455078125
11.147000000000048,8.376416015625,0.6871185302734375,5.620465087890626
11.15700000000004,8.719601440429688,0.314923095703125,6.818698120117188
11.16700000000003,7.310372924804688,0.016748046875,6.636712646484376
11.17700000000002,6.5978332519531255,0.3545501708984375,6.253152465820313
11.188000000000043,6.708639526367188,0.133984375,7.005319213867188
11.200000000000044,7.111788940429688,-0.2011260986328125,6.830062866210938
11.208000000000029,7.278073120117188,-0.1601531982421875,5.762374877929688
11.218000000000018,7.794570922851563,-0.096600341796875,5.684616088867188
11.228000000000009,7.195529174804688,-0.3698028564453125,6.0352783203125
11.238,6.023764038085938,-0.4759735107421875,6.019128417968751
11.248000000000047,6.395809936523438,-0.1478912353515625,5.941967773437501
11.258000000000038,8.605953979492188,0.3001190185546875,5.787347412109376
11.268000000000027,10.7582275390625,-0.01435546875,6.385491943359376
11.27800000000002,9.39027099609375,-0.5656951904296875,6.714620971679688
11.288000000000013,6.845016479492188,0.03529052734375,7.023712158203126
11.300000000000011,5.699719238281251,-0.0776092529296875,7.682867431640625
11.30800000000005,5.8271240234375,-0.0160003662109375,8.001828002929688
11.319000000000017,6.433792114257813,0.7484283447265625,5.9395751953125
11.328000000000031,7.732962036132813,0.5142547607421876,4.3772216796875005
11.339,9.202752685546876,0.434552001953125,5.828469848632813
11.349000000000046,8.931643676757814,0.9649566650390624,6.929354858398438
11.359000000000036,7.257736206054688,0.8851043701171876,7.195529174804688
11.369000000000028,7.605557250976563,-0.09151611328125,6.750958251953126
11.37900000000002,8.027847290039062,-0.86551513671875,7.129135131835938
11.38900000000001,7.252951049804688,0.0788055419921875,5.717962646484375
11.40100000000001,6.5724121093750005,0.602630615234375,4.549038696289063
11.409000000000049,6.79312744140625,-0.299371337890625,6.270498657226563
11.41900000000004,7.4068237304687505,-0.6530242919921876,7.055264282226563
11.42900000000003,7.803842163085938,-0.055029296875,5.648876953125001
11.43900000000002,8.774630737304689,0.334063720703125,5.726635742187501
11.449000000000012,8.70718994140625,-0.182135009765625,7.491012573242188
11.459000000000003,7.217959594726563,-0.204864501953125,7.058255004882813
11.470000000000027,6.207843017578125,0.25361328125,5.713177490234376
11.480000000000018,6.649722290039063,0.2845672607421875,6.331509399414063
11.490000000000007,7.193136596679688,0.0961517333984375,6.755593872070313
11.5,7.408767700195313,0.271258544921875,5.421881103515625
11.510000000000048,7.85423583984375,0.08912353515625,5.407974243164063
11.52000000000004,8.272637939453126,-0.0958526611328125,6.7937255859375005
11.53000000000003,7.700512695312501,0.0201873779296875,6.898849487304688
11.54000000000002,5.605511474609376,0.20635986328125,5.799160766601563
11.550000000000011,4.781866455078125,-0.0777587890625,5.397656250000001
11.560000000000002,7.425067138671875,-0.36785888671875,6.725686645507813
11.57000000000005,10.864398193359376,0.2026214599609375,6.505419921875
11.58000000000004,10.53870849609375,0.2821746826171875,5.359375
11.590000000000032,8.458660888671876,0.4224395751953125,6.323434448242188
11.600000000000025,6.545046997070313,-0.1990325927734375,8.91654052734375
11.611000000000049,5.1313323974609375,-0.2735015869140625,8.126391601562501
11.621000000000038,5.160491943359375,0.41630859375,5.680279541015626
11.631000000000029,7.7316162109375,0.5055816650390625,4.763323974609375
11.64100000000002,9.186154174804688,-0.34632568359375,6.331509399414063
11.65100000000001,8.512643432617189,-0.3880462646484375,6.203207397460938
11.661,7.787991333007813,-0.032598876953125,5.626895141601563
11.67100000000005,7.629931640625,-0.284716796875,8.036520385742188
11.68100000000004,7.676586914062501,-0.6542205810546875,8.37103271484375
11.691000000000033,7.381253051757813,0.0079254150390625,5.37791748046875
11.701000000000022,7.283456420898438,0.28411865234375,4.290939331054688
11.711000000000013,7.455871582031251,-0.2938385009765625,5.9567718505859375
11.721000000000004,6.901541137695313,-0.009869384765625,6.999786376953126
11.731000000000051,7.208090209960938,0.662445068359375,5.364010620117188
11.741000000000042,8.301947021484375,0.6957916259765625,5.681475830078125
11.751000000000031,8.697769165039062,0.204864501953125,7.150369262695313
11.761000000000024,7.570864868164063,0.0227294921875,6.798809814453126
11.772000000000048,6.688302612304688,0.4726837158203125,5.980847167968751
11.78200000000004,6.692938232421875,0.063104248046875,6.923672485351563
11.79200000000003,6.878213500976563,-0.2675201416015625,7.194781494140625
11.80200000000002,7.177285766601563,-0.0803009033203125,5.723645019531251
11.812000000000012,7.846160888671876,0.016748046875,5.164678955078125
11.822000000000005,7.595388793945313,-0.494366455078125,6.0330352783203125
11.83200000000005,6.382202148437501,-0.5108154296875,6.139205932617188
11.84200000000004,6.384445190429688,-0.2313323974609375,6.093746948242188
11.852000000000032,8.16168212890625,0.2667724609375,6.01793212890625
11.862000000000016,9.866094970703124,0.0873291015625,6.382650756835938
11.87200000000002,9.566275024414065,-0.1616485595703125,6.944009399414063
11.882000000000012,7.455123901367188,0.319110107421875,6.8984008789062505
11.893000000000027,5.893966674804688,0.03887939453125,7.326672363281251
11.902000000000037,5.93658447265625,-0.09630126953125,7.531536865234376
11.913000000000013,6.5858703613281255,0.509619140625,6.0868682861328125
11.923000000000002,7.412356567382813,0.3988128662109375,4.32757568359375
11.93300000000005,8.74427490234375,0.4670013427734375,5.451788330078125
11.94300000000004,8.742330932617188,0.5190399169921875,7.920779418945313
11.953000000000031,7.776327514648438,0.5802001953125,7.546490478515626
11.963000000000022,7.672848510742188,0.1520782470703125,6.211581420898438
11.97300000000002,7.940219116210938,-0.7177734375,6.937579345703125
11.983000000000011,7.334597778320313,-0.10347900390625,6.210534667968751
11.993000000000052,6.428408813476563,0.440234375,4.589862060546875
12.003000000000045,6.727630615234376,-0.21951904296875,5.641400146484376
12.013000000000034,7.682568359375001,-0.4673004150390625,7.034329223632813
12.023000000000025,8.103213500976564,0.093609619140625,6.055615234375001
12.033000000000024,8.426361083984375,0.3551483154296875,5.6741485595703125
12.043000000000006,8.452230834960938,-0.0746185302734375,7.380804443359375
12.05400000000003,7.396057128906251,-0.2501739501953125,7.517031860351563
12.06400000000002,6.3107238769531255,0.184228515625,5.861218261718751
12.074000000000012,6.506915283203125,0.2711090087890625,5.8654052734375
12.084000000000003,7.210931396484375,0.0363372802734375,6.587216186523438
12.094000000000053,7.512844848632813,0.152825927734375,5.673849487304688
12.104000000000042,7.9092651367187505,0.20277099609375,5.278475952148438
12.114000000000033,8.327517700195314,-0.1051239013671875,6.625796508789063
12.124000000000017,7.311718750000001,-0.09989013671875,6.907821655273438
12.134000000000022,5.226736450195313,-0.2071075439453125,5.750262451171875
12.144000000000013,5.512799072265626,-0.16748046875,6.003875732421875
12.154000000000051,8.602066040039062,-0.120526123046875,6.908270263671875
12.164000000000044,10.499978637695314,0.1248626708984375,6.093148803710938
12.174000000000037,9.490310668945312,0.2824737548828125,5.252157592773438
12.184000000000026,7.7986083984375005,0.483001708984375,7.405178833007813
12.194000000000017,6.469381713867188,-0.0994415283203125,8.840127563476564
12.20500000000004,5.427114868164063,0.2256500244140625,6.89481201171875
12.215000000000032,6.196029663085938,0.7979248046875,5.209988403320313
12.225000000000025,8.36505126953125,0.294586181640625,5.612838745117188
12.23500000000002,8.691339111328126,-0.3002685546875,6.061895751953125
12.245000000000012,8.075100708007813,-0.133685302734375,5.57291259765625
12.255000000000052,7.953677368164063,-0.1496856689453125,6.692788696289063
12.265000000000036,7.787393188476563,-0.7674194335937501,8.185757446289063
12.275000000000034,7.339382934570313,-0.608013916015625,6.833352661132813
12.285000000000023,7.103564453125,0.0638519287109375,5.0550689697265625
12.295000000000025,7.195080566406251,-0.36845703125,5.8677978515625
12.305000000000009,7.209735107421875,-0.3668121337890625,6.697274780273438
12.314999999999998,7.317999267578125,0.2977264404296875,5.659344482421876
12.325000000000044,7.867245483398438,0.6147430419921875,5.5021820068359375
12.335000000000036,8.512344360351562,0.594854736328125,6.667068481445313
12.346000000000004,8.075549316406251,0.4640106201171875,6.7907348632812505
12.356000000000051,7.195529174804688,0.5700317382812501,6.02451171875
12.366000000000042,6.947299194335938,0.4960113525390625,6.453381347656251
12.376000000000031,6.850399780273438,0.1320404052734375,7.080087280273438
12.386000000000024,6.985879516601563,-0.0370849609375,6.315658569335938
12.396000000000022,7.285848999023438,-0.097796630859375,5.811422729492188
12.406000000000011,7.947845458984376,-0.384906005859375,6.133673095703125
12.415999999999997,7.944107055664063,-0.56763916015625,6.161636352539063
12.426000000000045,6.415249633789063,-0.6181823730468751,5.692990112304688
12.436000000000035,5.526705932617188,-0.5579193115234375,5.794525146484375
12.446000000000026,6.6561523437500005,-0.652874755859375,6.354837036132813
12.456000000000016,9.754840087890626,0.1239654541015625,6.469830322265626
12.466000000000008,11.107693481445311,0.1873687744140625,6.437380981445313
12.476,9.038861083984376,-0.1176849365234375,5.984286499023438
12.486000000000049,6.404183959960938,0.311334228515625,7.356579589843751
12.496000000000038,5.49156494140625,0.077459716796875,8.174990844726564
12.507000000000012,5.71826171875,0.48270263671875,7.220651245117188
12.517000000000053,6.329864501953126,0.8845062255859376,4.8452697753906255
12.527000000000037,8.210281372070312,0.55926513671875,5.093350219726563
12.537000000000036,9.572705078125,0.699530029296875,6.663778686523438
12.547000000000024,8.371331787109376,1.21124267578125,7.39964599609375
12.557000000000016,7.288241577148438,0.6419586181640625,7.067077636718751
12.567000000000007,7.837637329101563,-0.8463745117187501,7.121957397460938
12.576999999999998,7.761224365234375,-0.9090301513671876,6.61607666015625
12.587000000000046,6.948196411132813,0.189013671875,4.490121459960938
12.597000000000037,6.896307373046875,0.253912353515625,4.508514404296875
12.607000000000028,7.243679809570313,-0.7418487548828125,6.730023193359376
12.61700000000002,7.382748413085938,-0.5316009521484375,6.660488891601563
12.62700000000001,8.028594970703125,0.149237060546875,5.735906982421875
12.638000000000034,8.822482299804689,0.1517791748046875,6.958813476562501
12.648000000000025,8.216262817382812,-0.0264678955078125,7.599276733398438
12.658000000000024,6.499737548828126,0.085235595703125,6.162982177734375
12.668000000000006,6.220404052734375,0.508123779296875,5.782711791992188
12.677999999999995,6.917691040039063,0.4215423583984375,6.624600219726563
12.688000000000043,7.395309448242188,0.3868499755859375,5.979351806640626
12.700000000000044,7.627838134765626,0.1861724853515625,5.0782470703125
12.708000000000029,8.228375244140626,-0.083441162109375,6.143093872070313
12.718000000000018,7.514639282226563,0.0764129638671875,6.965542602539063
12.728000000000009,5.395114135742188,0.2169769287109375,6.064288330078125
12.738,6.161785888671876,-0.1978363037109375,6.266461181640626
12.748000000000047,9.228921508789064,-0.1763031005859375,6.595889282226563
12.758000000000038,10.204495239257811,-0.399859619140625,5.784207153320313
12.768000000000027,8.546588134765626,-0.252716064453125,5.621511840820313
12.779000000000051,6.796267700195313,0.1443023681640625,7.823132324218751
12.789000000000044,6.25479736328125,-0.1769012451171875,8.656198120117189
12.800000000000011,5.77269287109375,0.0524871826171875,6.765911865234376
12.809000000000026,7.225436401367188,0.6045745849609375,5.195932006835938
12.819000000000017,8.854931640625,0.3366058349609375,5.700466918945313
12.829000000000008,9.059048461914063,0.02332763671875,5.864508056640625
12.839,7.612136840820313,0.1688262939453125,5.889031982421876
12.849000000000046,7.213024902343751,0.0934600830078125,6.877166748046876
12.859000000000036,7.603314208984376,-0.4750762939453125,7.546490478515626
12.869000000000028,7.3918701171875005,-0.359783935546875,6.644787597656251
12.87900000000002,7.19029541015625,-0.01435546875,5.4244232177734375
12.88900000000001,7.379010009765626,-0.602032470703125,6.037222290039063
12.900000000000034,7.588211059570313,-0.6627441406250001,6.698321533203125
12.909000000000049,7.48697509765625,0.090618896484375,5.968884277343751
12.920000000000025,7.861563110351563,0.57421875,5.4921630859375
12.930000000000009,8.117568969726562,0.15611572265625,6.521270751953126
12.939999999999998,7.615127563476563,0.285015869140625,6.550131225585938
12.950000000000044,6.947747802734376,0.747381591796875,5.935687255859375
12.960000000000036,7.040161132812501,0.5489471435546875,6.383248901367188
12.970000000000027,7.155453491210938,0.27095947265625,7.010702514648438
12.980000000000018,7.15799560546875,0.204266357421875,6.548336791992188
12.990000000000007,7.463198852539063,0.1733123779296875,6.11004638671875
13.0,8.013790893554688,-0.05323486328125,6.315509033203125
13.010000000000048,7.563388061523438,-0.3375030517578125,6.307882690429688
13.02000000000004,5.902340698242188,-0.39178466796875,5.72843017578125
13.03000000000003,5.2584381103515625,-0.5154510498046876,5.5077148437500005
13.04000000000002,7.202108764648438,-0.406439208984375,5.8381896972656255
13.050000000000011,10.47754821777344,0.25780029296875,6.331509399414063
13.060000000000002,10.9783447265625,-0.1120025634765625,6.325079345703125
13.071000000000026,8.4948486328125,-0.2071075439453125,6.528747558593751
13.081000000000016,6.39835205078125,-0.2100982666015625,7.9077697753906255
13.091000000000008,5.4962005615234375,-0.4027008056640625,8.478250122070314
13.101,5.587567138671876,0.21712646484375,6.672302246093751
13.111000000000049,6.511550903320313,0.6477905273437501,4.361370849609376
13.121000000000038,8.74188232421875,0.3644195556640625,5.5017333984375005
13.131000000000029,9.5308349609375,0.6643890380859375,6.608001708984376
13.14100000000002,8.063436889648438,1.28720703125,6.828866577148438
13.15100000000001,7.373028564453126,0.98873291015625,6.9671875000000005
13.161,7.660736083984376,-0.635528564453125,8.058502197265625
13.17100000000005,7.492507934570313,-0.1203765869140625,6.336444091796875
13.18100000000004,7.130929565429688,0.591864013671875,4.190301513671876
13.191000000000033,7.302746582031251,0.2346221923828125,4.971926879882813
13.201000000000022,7.152313232421876,-0.6776977539062501,6.953280639648438
13.212000000000046,7.072909545898438,-0.8456268310546876,6.3765197753906255
13.222000000000037,8.167364501953125,-0.3049041748046875,5.4722747802734375
13.232000000000028,8.917587280273438,-0.4161590576171875,6.868942260742188
13.24200000000002,7.816403198242188,-0.5944061279296875,7.306484985351563
13.25200000000001,6.632824707031251,0.0871795654296875,6.018231201171876
13.262,6.314462280273438,0.348419189453125,6.3466125488281255
13.272000000000048,7.008908081054688,0.389093017578125,7.019226074218751
13.28200000000004,7.259381103515626,0.4732818603515625,5.972772216796876
13.29200000000003,7.792178344726563,0.5019927978515626,5.056713867187501
13.30200000000002,8.272488403320313,0.3434844970703125,5.991912841796875
13.312000000000012,7.939022827148438,0.3704010009765625,6.877166748046876
13.322000000000005,5.538967895507813,0.5121612548828125,5.948248291015625
13.33200000000005,4.760931396484375,0.155218505859375,5.43414306640625
13.34200000000004,7.90208740234375,-0.6326873779296875,6.926214599609375
13.353000000000009,11.477197265625,-0.102880859375,6.837539672851563
13.363,10.349694824218751,0.1084136962890625,4.825082397460938
13.373000000000047,7.583575439453125,-0.18961181640625,6.349005126953125
13.383000000000038,5.886639404296876,-0.4233367919921875,9.305783081054688
13.393000000000027,5.1911468505859375,-0.3835601806640625,8.195028686523438
13.40300000000002,5.425021362304688,0.1440032958984375,4.893869018554688
13.413000000000013,8.346209716796876,0.27454833984375,5.10037841796875
13.423000000000002,9.862655639648438,-0.1257598876953125,7.061544799804688
13.43300000000005,8.500231933593751,-0.098095703125,6.034829711914063
13.44300000000004,6.992309570312501,0.6389678955078125,5.787347412109376
13.453000000000031,7.431198120117188,0.0264678955078125,8.639151000976563
13.463000000000022,7.843170166015626,-0.442926025390625,7.923171997070313
13.47300000000002,7.420880126953126,0.188714599609375,4.521374511718751
13.483000000000011,7.46005859375,0.1801910400390625,4.0471954345703125
13.493000000000052,7.779766845703126,-0.4263275146484375,6.219207763671876
13.50400000000002,6.9462524414062505,-0.4095794677734375,7.132873535156251
13.51400000000001,7.026254272460938,0.45040283203125,5.23974609375
13.524,8.353237915039063,0.15791015625,6.2150207519531255
13.534000000000049,8.464193725585938,-0.3563446044921875,7.426263427734375
13.54400000000004,7.265811157226563,0.2145843505859375,6.164028930664063
13.55400000000003,6.505718994140626,0.59814453125,5.962155151367188
13.56400000000002,6.901242065429688,0.2103973388671875,7.330709838867188
13.574000000000012,6.976458740234375,0.034393310546875,7.0045715332031255
13.584000000000003,7.401889038085938,0.3816162109375,5.283859252929688
13.594000000000053,8.166766357421876,0.2678192138671875,5.452984619140626
13.604000000000042,8.257684326171876,-0.2201171875,6.592449951171876
13.61700000000002,7.168612670898438,-0.1757049560546875,6.413156127929688
13.624000000000017,5.301504516601563,-0.082843017578125,5.429058837890626
13.635000000000048,5.264718627929688,-0.527862548828125,5.871087646484376
13.64500000000004,7.886386108398438,-0.401654052734375,6.656002807617188
13.65500000000003,11.503067016601562,0.322698974609375,6.489120483398438
13.66500000000002,10.534371948242187,-0.1801910400390625,5.29656982421875
13.675000000000011,7.868890380859375,-0.5656951904296875,6.685012817382813
13.685000000000002,6.026605224609376,-0.2758941650390625,8.826519775390626
13.69500000000005,5.2389984130859375,-0.196490478515625,8.393014526367189
13.70500000000004,5.233615112304688,0.495263671875,5.236157226562501
13.71700000000004,7.400692749023438,0.6216217041015626,4.238751220703126
13.725000000000025,9.269894409179688,0.261688232421875,6.450689697265625
13.73500000000002,9.096282958984377,0.69923095703125,6.756939697265626
13.745000000000012,7.662231445312501,1.2258972167968751,6.472372436523438
13.755000000000052,7.531985473632813,0.9514984130859376,7.90567626953125
13.765000000000036,7.665222167968751,-0.5493957519531251,8.243029785156251
13.775000000000034,7.451235961914063,0.115142822265625,5.2808685302734375
13.786,7.294073486328125,0.5921630859375,4.164730834960938
13.79600000000005,7.609445190429688,0.1598541259765625,5.186959838867188
13.80600000000004,6.815109252929688,-0.8857025146484375,6.750360107421876
13.817000000000007,6.987225341796876,-0.7823730468750001,5.82353515625
13.826000000000022,8.541952514648438,-0.2770904541015625,6.096438598632813
13.836000000000013,9.06009521484375,-0.6255096435546875,7.408468627929688
13.846000000000004,7.5264526367187505,-0.4825531005859375,6.594842529296876
13.856000000000051,6.419137573242188,0.10048828125,5.8535919189453125
13.866000000000042,6.472073364257813,0.3970184326171875,6.883297729492188
13.876000000000031,6.942364501953126,0.5522369384765625,6.886886596679688
13.886000000000024,7.212725830078125,0.5088714599609375,5.3653564453125
13.896000000000022,7.97147216796875,0.41571044921875,5.238848876953125
13.906000000000011,8.352789306640625,0.39896240234375,6.429754638671875
13.91700000000003,7.342672729492188,0.40733642578125,6.720303344726563
13.92700000000002,5.21103515625,0.4807586669921875,5.983837890625001
13.937000000000012,5.438031005859376,-0.0275146484375,5.759832763671875
13.947000000000005,8.759078979492188,-0.4000091552734375,6.241488647460938
13.958000000000029,11.426504516601565,-0.0991424560546875,6.178085327148438
13.96700000000004,9.984527587890623,0.0264678955078125,5.421432495117188
13.977000000000032,7.13406982421875,-0.1435546875,7.482189941406251
13.987000000000016,5.550332641601563,-0.5154510498046876,9.117666625976565
13.99700000000002,5.09080810546875,-0.4047943115234375,7.901040649414063
14.007000000000012,5.89591064453125,0.2884552001953125,5.22598876953125
14.018000000000027,8.612384033203126,0.1906585693359375,4.9897216796875
14.027000000000037,9.452777099609376,-0.253912353515625,6.369342041015625
14.037000000000036,8.4302490234375,-0.3019134521484375,5.240194702148438
14.047000000000024,7.1071533203125,0.3481201171875,6.268255615234375
14.057000000000016,7.623800659179688,0.018243408203125,8.410659790039062
14.067000000000007,7.75255126953125,-0.2887542724609375,7.88414306640625
14.078000000000031,7.41280517578125,0.2516693115234375,4.657452392578126
14.088000000000022,7.362411499023438,0.226397705078125,4.400399780273438
14.09800000000002,7.192987060546876,-0.3696533203125,6.955972290039063
14.108000000000011,6.902288818359375,0.0019439697265625,6.878662109375001
14.118000000000052,7.464694213867188,0.46416015625,5.0102081298828125
14.128000000000045,8.709881591796876,0.1981353759765625,5.88275146484375
14.138000000000034,8.539260864257812,-0.2089019775390625,7.229025268554688
14.148000000000025,7.083078002929688,0.1697235107421875,6.423623657226563
14.158000000000024,6.449343872070313,0.308343505859375,6.359173583984376
14.168000000000006,6.682919311523438,-0.0384307861328125,7.392916870117188
14.177999999999995,7.078591918945313,-0.06041259765625,6.556710815429688
14.188000000000043,7.624996948242188,0.250921630859375,5.214324951171875
14.198000000000036,7.969378662109375,0.0886749267578125,5.6811767578125005
14.209000000000003,7.1430419921875,-0.1861724853515625,6.1731506347656255
14.219000000000053,5.755197143554688,-0.06519775390625,5.7433837890625
14.229000000000042,6.388183593750001,-0.182733154296875,6.274237060546875
14.239000000000033,9.204547119140626,0.4246826171875,6.466839599609376
14.249000000000017,10.711273193359377,0.04246826171875,6.325827026367188
14.259000000000022,8.734255981445314,-0.5399749755859375,6.696676635742188
14.27000000000004,6.7482666015625,-0.0315521240234375,7.361215209960938
14.279000000000051,5.738150024414063,-0.23626708984375,7.682867431640625
14.289000000000044,5.977856445312501,-0.3886444091796875,6.8200439453125
14.299000000000037,6.847409057617188,0.203070068359375,4.682125854492188
14.309000000000026,8.1885986328125,0.3720458984375,4.788296508789063
14.319000000000017,8.940167236328126,0.6619964599609376,6.577197265625
14.329000000000008,8.188449096679689,0.8354583740234376,8.130728149414063
14.339,7.494601440429688,0.7632324218750001,7.256838989257813
14.349000000000046,7.771841430664063,-0.0213836669921875,6.734359741210938
14.359000000000036,7.684213256835938,-0.2791839599609375,6.710284423828125
14.370000000000012,6.852044677734376,0.6356781005859375,5.255596923828126
14.380000000000052,6.832455444335938,0.67530517578125,4.7432861328125
14.390000000000036,7.3105224609375,-0.4774688720703125,6.352743530273438
14.400000000000034,7.810870361328125,-0.318511962890625,6.452633666992188
14.410000000000023,8.028744506835938,-0.1843780517578125,5.8008056640625005
14.420000000000025,8.452828979492189,-0.4508514404296875,6.703256225585938
14.430000000000009,8.099026489257813,-0.5839385986328125,7.558901977539063
14.439999999999998,6.8251281738281255,-0.3321197509765625,6.344818115234376
14.450000000000044,6.424969482421876,0.0653472900390625,5.569772338867188
14.460000000000036,6.88524169921875,0.1610504150390625,6.483288574218751
14.470000000000027,7.238595581054688,0.249127197265625,6.305340576171876
14.480000000000018,7.512246704101563,0.3712982177734375,5.272943115234376
14.490000000000007,8.135363769531251,0.3895416259765625,5.976809692382813
14.501000000000031,8.344265747070313,0.3401947021484375,7.052273559570313
14.511000000000024,6.285153198242188,0.5644989013671875,6.158944702148438
14.521000000000022,5.017535400390625,0.5344421386718751,5.725289916992188
14.531000000000011,6.845315551757813,-0.10467529296875,7.275830078125001
14.540999999999997,10.176681518554688,0.043963623046875,6.517233276367188
14.551000000000045,9.86759033203125,0.13338623046875,4.8397369384765625
14.561000000000035,8.211328125000001,-0.1529754638671875,6.097634887695313
14.571000000000026,6.7877441406250005,-0.2992218017578125,8.616122436523439
14.581000000000016,5.984136962890625,-0.404345703125,7.795169067382813
14.591000000000008,5.798861694335938,-0.2761932373046875,5.747271728515625
14.601,7.791281127929688,-0.0058319091796875,5.4707794189453125
14.611000000000049,8.739639282226562,-0.3413909912109375,6.193188476562501
14.621000000000038,8.118167114257814,-0.349017333984375,5.663082885742188
14.631000000000029,7.685110473632813,0.17166748046875,6.336444091796875
14.642000000000053,7.556060791015626,0.091217041015625,7.893563842773438
14.652000000000037,7.838235473632813,-0.007476806640625,6.977056884765625
14.662000000000036,7.313214111328126,0.244342041015625,5.532537841796875
14.672000000000024,7.41220703125,0.249725341796875,5.613287353515625
14.682000000000016,7.479049682617188,-0.0366363525390625,6.399697875976563
14.692000000000007,7.416693115234375,-0.1233673095703125,6.183319091796876
14.701999999999998,7.402487182617188,0.4137664794921875,5.810525512695313
14.712000000000046,7.885937500000001,0.1565643310546875,6.304443359375001
14.722000000000037,8.000482177734376,-0.2785858154296875,6.541159057617188
14.732000000000028,7.443310546875001,0.261688232421875,6.137860107421876
14.74200000000002,7.188201904296876,0.1407135009765625,6.251806640625
14.75200000000001,7.084423828125001,-0.106170654296875,6.533831787109375
14.762,7.04075927734375,-0.0710296630859375,6.591403198242188
14.772000000000048,7.153808593750001,0.133685302734375,6.36246337890625
14.783000000000024,7.670904541015625,0.0945068359375,6.2449279785156255
14.793000000000006,7.634866333007813,0.021832275390625,5.875723266601563
14.802999999999995,6.482241821289063,0.0228790283203125,5.618820190429688
14.813000000000043,5.7110839843750005,-0.168377685546875,6.0106048583984375
14.823000000000036,7.5129943847656255,-0.0243743896484375,6.374127197265626
14.833000000000029,10.36883544921875,0.456683349609375,6.500186157226563
14.843000000000018,10.311712646484375,-0.1350311279296875,6.238198852539063
14.853000000000009,7.906872558593751,-0.263482666015625,6.6935363769531255
14.863,5.960809326171876,0.03648681640625,7.614828491210938
14.873000000000047,5.725738525390625,-0.3967193603515625,7.5264526367187505
14.883000000000038,6.041110229492188,-0.0267669677734375,5.97008056640625
14.893000000000027,7.28001708984375,0.3470733642578125,4.514346313476563
14.90300000000002,8.9661865234375,0.273651123046875,5.6766906738281255
14.913000000000013,8.970223999023439,0.5867797851562501,7.655352783203125
14.924000000000037,7.637258911132813,0.8359069824218751,7.634866333007813
14.934000000000026,7.639651489257813,0.5042358398437501,6.696377563476563
14.944000000000017,7.886087036132813,-0.40255126953125,6.906924438476563
14.954000000000008,7.374673461914063,0.1949951171875,5.7489166259765625
14.964,6.612039184570313,0.63642578125,4.464849853515625
14.974000000000046,6.960159301757813,0.0228790283203125,5.5436035156250005
14.984000000000036,7.596286010742188,-0.4846466064453125,6.936233520507813
14.994000000000028,7.824478149414063,-0.0536834716796875,6.199917602539063
15.00400000000002,8.320639038085938,-0.151031494140625,6.139654541015625
15.01400000000001,8.561541748046876,-0.40015869140625,7.361065673828126
15.024,7.458413696289063,-0.5733215332031251,7.278521728515625
15.034000000000049,6.330313110351563,-0.0,5.705850219726563
15.04400000000004,6.576150512695313,0.2118927001953125,5.894265747070313
15.05400000000003,7.220651245117188,0.1351806640625,6.431997680664063
15.06400000000002,7.524060058593751,0.335858154296875,5.480050659179688
15.075000000000044,7.807281494140626,0.304754638671875,5.4737701416015625
15.085000000000036,8.358172607421876,0.207855224609375,6.793576049804688
15.095000000000027,8.017080688476563,0.146246337890625,7.156051635742188
15.105000000000018,5.387188720703126,0.468646240234375,5.898153686523438
15.115000000000007,5.042807006835938,0.2331268310546875,5.9208831787109375
15.125,7.566976928710938,-0.41092529296875,7.264465332031251
15.135000000000048,10.048828125,-0.0779083251953125,6.184963989257813
15.14500000000004,9.696969604492187,0.1221710205078125,4.697677612304688
15.15500000000003,8.310470581054688,-0.1033294677734375,6.554617309570313
15.16500000000002,7.135116577148438,-0.293988037109375,8.994747924804688
15.175000000000011,5.743234252929688,0.1108062744140625,7.238894653320313
15.185000000000002,6.026754760742188,0.5229278564453126,5.377767944335938
15.19500000000005,7.825076293945313,-0.1078155517578125,5.8917236328125
15.20500000000004,8.456118774414064,-0.2803802490234375,6.322836303710938
15.218000000000018,7.867095947265626,0.137872314453125,5.291036987304688
15.226,8.159738159179689,0.1111053466796875,6.42227783203125
15.236000000000049,7.850646972656251,-0.23626708984375,8.149420166015625
15.246000000000038,7.630978393554688,-0.37982177734375,6.79013671875
15.256000000000029,7.358673095703126,0.0216827392578125,5.266812133789063
15.26600000000002,7.426412963867188,-0.2349212646484375,6.1740478515625
15.27600000000001,7.205548095703126,-0.3648681640625,6.596487426757813
15.286,7.0593017578125,0.0246734619140625,5.5639404296875
15.29600000000005,7.644735717773438,0.37503662109375,5.717214965820313
15.30600000000004,8.153158569335938,0.3288299560546875,6.6815734863281255
15.31800000000004,8.016632080078125,0.3336151123046875,6.1884033203125
15.326000000000022,7.441366577148438,0.46416015625,5.975314331054688
15.336000000000013,7.2770263671875,0.2666229248046875,6.7482666015625
15.346000000000004,7.021469116210938,0.2199676513671875,6.715219116210938
15.356000000000051,6.857128906250001,0.0533843994140625,6.497195434570313
15.366000000000042,7.163827514648438,0.0285614013671875,6.47252197265625
15.37700000000001,7.63292236328125,-0.0832916259765625,6.207095336914063
15.387,7.726980590820313,-0.276043701171875,5.738299560546875
15.397000000000048,6.4037353515625,-0.29608154296875,5.704653930664063
15.40700000000004,5.4150024414062505,-0.4921234130859375,5.68656005859375
15.418000000000006,7.517929077148438,-0.3425872802734375,6.105111694335938
15.42700000000002,10.7893310546875,0.3934295654296875,6.855484008789063
15.437000000000012,10.3203857421875,-0.043963623046875,6.261825561523438
15.447000000000005,7.804888916015625,-0.31402587890625,6.271844482421876
15.45700000000005,5.971725463867188,-0.1446014404296875,8.181420898437501
15.46700000000004,5.7350097656250005,-0.2809783935546875,8.08033447265625
15.477000000000032,5.822637939453125,0.4266265869140625,5.422479248046876
15.487000000000016,7.366299438476563,0.5405731201171875,4.2999114990234375
15.49700000000002,9.365597534179688,0.5133575439453125,6.07415771484375
15.507000000000012,8.989813232421875,1.11434326171875,7.331756591796876
15.519000000000013,7.4660400390625,0.9912750244140626,7.012646484375001
15.52800000000002,7.459011840820313,0.0151031494140625,7.416992187500001
15.538000000000013,7.563388061523438,-0.6587066650390625,7.785299682617188
15.548000000000002,7.28001708984375,0.3363067626953125,5.239447021484375
15.55800000000005,7.124948120117188,0.6054718017578126,4.1762451171875
15.56800000000004,7.506115722656251,-0.0569732666015625,5.947052001953125
15.578000000000031,7.257586669921875,-0.69683837890625,6.905877685546876
15.588000000000022,7.476956176757813,-0.2926422119140625,5.711831665039063
15.59800000000002,8.421725463867189,-0.1308441162109375,6.276031494140626
15.608000000000011,8.737695312500001,-0.5145538330078125,7.4083190917968755
15.619000000000028,7.279718017578125,-0.43604736328125,6.343322753906251
15.628000000000045,6.342874145507813,0.0934600830078125,5.634671020507813
15.638000000000034,6.525906372070313,0.12620849609375,6.776528930664063
15.648000000000025,7.081582641601563,0.3339141845703125,6.611141967773438
15.658000000000024,7.328317260742188,0.3457275390625,5.442218017578125
15.66900000000004,8.017828369140625,0.20516357421875,5.820843505859376
15.67900000000003,8.25977783203125,0.2627349853515625,6.8236328125000005
15.68900000000002,7.97984619140625,0.3662139892578125,6.788641357421875
15.699000000000012,6.809875488281251,0.623565673828125,6.4216796875
15.709000000000003,4.0673828125,0.3911865234375,5.124603271484375
15.719000000000053,5.235858154296875,-0.1906585693359375,5.483340454101563
15.729000000000042,10.127783203125,-0.278436279296875,6.685012817382813
15.739000000000033,12.09388427734375,0.173760986328125,5.929107666015625
15.749000000000017,9.990060424804687,0.1117034912109375,4.8262786865234375
15.759000000000022,7.044198608398438,-0.4912261962890625,8.52655029296875
15.769000000000013,5.577548217773438,-0.6533233642578126,10.283749389648438
15.78000000000003,4.4418212890625,-0.14893798828125,6.823333740234376
15.789000000000044,5.752056884765626,0.4532440185546875,4.305294799804688
15.800000000000011,8.999682617187501,-0.0964508056640625,5.8416290283203125
15.810000000000002,9.13306884765625,-0.3385498046875,6.605609130859375
15.82000000000005,7.700213623046875,0.0010467529296875,4.990618896484375
15.83000000000004,7.973266601562501,0.327484130859375,5.620166015625
15.840000000000032,8.04205322265625,-0.2308837890625,9.488815307617188
15.850000000000025,7.69034423828125,-0.2380615234375,7.828964233398438
15.86000000000002,7.534228515625,0.2669219970703125,3.757394409179688
15.870000000000012,7.602865600585938,0.2044158935546875,4.57401123046875
15.880000000000052,6.676638793945313,-0.244940185546875,7.201660156250001
15.890000000000036,6.145935058593751,0.001495361328125,6.309677124023438
15.900000000000034,7.678530883789063,0.4604217529296875,4.837942504882813
15.910000000000023,9.282156372070313,0.225799560546875,6.456372070312501
15.92100000000005,8.697021484375,-0.1984344482421875,7.091003417968751
15.930000000000009,7.001580810546876,0.0734222412109375,6.357379150390625
15.941000000000033,6.390277099609375,0.2352203369140625,7.119863891601563
15.951000000000022,6.572262573242188,-0.005084228515625,7.680923461914063
15.961000000000013,6.834100341796876,-0.1040771484375,5.8236846923828125
15.971000000000004,6.983636474609376,0.2020233154296875,4.5040283203125
15.981000000000051,6.831558227539063,0.164788818359375,5.001834106445313
15.991000000000042,6.730621337890626,-0.331671142578125,6.211431884765625
16.001000000000033,8.362509155273438,0.1921539306640625,6.631927490234376
16.011000000000024,10.374966430664063,0.5205352783203125,6.586468505859376
16.021000000000022,9.695175170898438,-0.5552276611328125,7.1573974609375
16.031000000000013,7.5249572753906255,-0.2693145751953125,7.330261230468751
16.040999999999997,5.608950805664063,-0.054730224609375,7.354037475585938
16.051000000000045,5.523117065429688,-0.35111083984375,6.806735229492188
16.061000000000035,6.244180297851563,-0.0240753173828125,5.501882934570313
16.071000000000026,7.6685119628906255,0.2974273681640625,4.724444580078125
16.081000000000017,8.866744995117188,0.3955230712890625,5.561697387695313
16.09200000000004,9.03138427734375,0.59036865234375,7.294821166992188
16.102000000000032,7.78843994140625,0.7433441162109375,7.957415771484375
16.112000000000016,7.53482666015625,0.5716766357421875,7.117471313476563
16.12200000000002,7.472769165039063,-0.06280517578125,6.6286376953125
16.132000000000012,7.035226440429688,0.14534912109375,5.935836791992188
16.142000000000053,6.649423217773438,0.58917236328125,4.882952880859375
16.152000000000037,7.079339599609376,-0.1208251953125,5.416049194335938
16.162000000000035,7.862759399414063,-0.526068115234375,6.47252197265625
16.172000000000025,8.144036865234376,-0.22669677734375,6.390725708007813
16.182000000000016,8.486474609375001,-0.244940185546875,6.192889404296875
16.192000000000007,8.336190795898439,-0.4723846435546875,7.095788574218751
16.201999999999998,7.232614135742188,-0.4466644287109375,7.275531005859375
16.212000000000046,6.300704956054688,-0.01375732421875,6.0663818359375
16.22300000000002,6.4782043457031255,0.1831817626953125,5.812918090820313
16.236000000000047,7.084722900390625,0.0871795654296875,6.266311645507813
16.243000000000052,7.620809936523438,0.395074462890625,5.626446533203126
16.253000000000043,8.094689941406251,0.4765716552734375,5.2505126953125005
16.263000000000034,7.9331909179687505,0.2624359130859375,6.397903442382813
16.273000000000025,5.907723999023438,0.4358978271484375,6.2404418945312505
16.283000000000023,5.7421875,0.1710693359375,6.1919921875
16.293000000000006,8.100970458984376,0.08134765625,6.804791259765626
16.302999999999997,10.277767944335938,0.0348419189453125,6.402688598632813
16.313000000000045,9.129031372070314,-0.2809783935546875,5.698223876953126
16.323000000000036,7.338336181640625,0.034991455078125,7.552023315429688
16.336000000000013,6.260330200195313,0.0179443359375,8.622552490234376
16.343000000000018,5.993258666992188,0.0168975830078125,7.104910278320313
16.35300000000001,6.517681884765626,0.0530853271484375,5.1667724609375005
16.363,8.310021972656251,-0.054730224609375,5.424871826171875
16.374000000000017,8.785845947265626,-0.4469635009765625,5.675793457031251
16.38400000000002,8.42127685546875,-0.247332763671875,5.586370849609375
16.394000000000013,7.572360229492188,0.1072174072265625,7.000384521484375
16.404000000000053,7.461254882812501,-0.0629547119140625,7.682717895507813
16.414000000000044,7.415048217773438,-0.197686767578125,6.673648071289063
16.424000000000035,7.062142944335938,0.006280517578125,5.927462768554688
16.435000000000002,7.258483886718751,0.0275146484375,6.186758422851563
16.444000000000017,7.41160888671875,-0.0653472900390625,6.236553955078126
16.454000000000008,7.688848876953125,0.17286376953125,5.7937774658203125
16.464,7.773486328125,0.6361267089843751,5.869442749023438
16.474000000000046,7.937377929687501,0.32060546875,6.260928344726563
16.484000000000037,7.802197265625001,-0.0171966552734375,6.251806640625
16.494000000000028,7.284054565429688,0.246435546875,6.294125366210938
16.50400000000002,7.049133300781251,0.1517791748046875,6.450091552734375
16.51400000000001,7.078890991210938,-0.0034393310546875,6.535476684570313
16.524,7.07425537109375,-0.0204864501953125,6.779370117187501
16.536,7.301251220703126,-0.006878662109375,6.534280395507813
16.545000000000023,7.835543823242188,-0.0297576904296875,5.9403228759765625
16.555000000000007,7.9915100097656255,-0.2337249755859375,5.970977783203125
16.564999999999998,7.174893188476563,-0.2190704345703125,6.146383666992188
16.575000000000045,5.585174560546875,-0.0868804931640625,5.522817993164063
16.585000000000036,5.577996826171876,-0.366363525390625,5.538967895507813
16.595000000000027,7.825674438476563,0.0118133544921875,6.255694580078125
16.605000000000018,10.790377807617189,0.45758056640625,6.528897094726563
16.61500000000001,10.632467651367188,-0.1619476318359375,6.163131713867188
16.625,8.093045043945313,-0.076861572265625,7.079937744140626
16.636000000000024,6.133673095703125,0.0082244873046875,8.287442016601563
16.64500000000004,5.455825805664063,-0.155218505859375,8.266955566406251
16.65500000000003,5.613436889648438,0.42288818359375,6.1297851562500005
16.66500000000002,6.963897705078126,0.512310791015625,4.227236938476563
16.676000000000045,8.926260375976563,0.1727142333984375,5.512948608398438
16.686000000000035,9.40283203125,0.46116943359375,6.376669311523438
16.696000000000026,7.772738647460938,1.1853729248046876,7.004122924804688
16.706000000000017,7.403533935546876,0.2172760009765625,7.326971435546875
16.716000000000008,7.7746826171875005,-0.7035675048828125,7.723391723632813
16.726,7.455273437500001,0.1314422607421875,5.9039855957031255
16.736000000000047,7.008609008789063,0.6181823730468751,4.303051757812501
