time,ax,ay,az
0.0,7.380804443359375,-0.023028564453125,6.4013427734375
0.0100000000000477,7.457366943359376,0.0683380126953125,6.334350585937501
0.0200000000000386,7.521218872070313,0.043963623046875,6.335845947265626
0.0300000000000295,7.487274169921876,-0.041571044921875,6.392819213867188
0.0409999999999968,7.5249572753906255,0.1081146240234375,6.252703857421875
0.0510000000000516,7.444955444335938,-0.10706787109375,6.446353149414063
0.0610000000000425,7.472769165039063,0.0797027587890625,6.357827758789063
0.0710000000000263,7.536621093750001,0.0106170654296875,6.374575805664063
0.0810000000000172,7.486526489257813,0.0991424560546875,6.339285278320313
0.0910000000000081,7.566827392578125,0.046954345703125,6.329415893554688
0.100999999999999,7.481890869140625,0.1131988525390625,6.307733154296876
0.1110000000000468,7.529592895507813,0.1801910400390625,6.31102294921875
0.1210000000000377,7.418487548828126,0.010467529296875,6.443212890625
0.1310000000000286,7.503872680664063,0.1383209228515625,6.3167053222656255
0.1410000000000195,7.518975830078125,0.0124114990234375,6.263320922851563
0.1510000000000104,7.547537231445313,0.0590667724609375,6.381454467773438
0.1610000000000013,7.534677124023438,0.1329376220703125,6.356332397460938
0.1710000000000491,7.4083190917968755,-0.066094970703125,6.412258911132813
0.18100000000004,7.445254516601563,0.0873291015625,6.3122192382812505
0.1920000000000072,7.535125732421876,-0.083740234375,6.400146484375001
0.2040000000000077,7.557406616210938,0.0497955322265625,6.315509033203125
0.2120000000000459,7.560098266601563,0.124114990234375,6.2763305664062505
0.2220000000000368,7.40084228515625,0.01375732421875,6.431997680664063
0.2320000000000277,7.5025268554687505,0.1754058837890625,6.362014770507813
0.2420000000000186,7.476806640625001,0.007177734375,6.364706420898438
0.2520000000000095,7.555462646484376,0.11783447265625,6.2793212890625005
0.2620000000000004,7.470974731445313,0.1392181396484375,6.262423706054688
0.2720000000000482,7.442413330078126,-0.009271240234375,6.413006591796876
0.2820000000000391,7.474114990234375,0.1783966064453125,6.363211059570313
0.29200000000003,7.522265625,-0.0943572998046875,6.454727172851563
0.3040000000000304,7.567575073242188,0.1505828857421875,6.217263793945313
0.3120000000000118,7.54080810546875,-0.061907958984375,6.356930541992188
0.3220000000000027,7.466488647460938,0.0258697509765625,6.4037353515625
0.3319999999999936,7.4905639648437505,0.136376953125,6.304293823242188
0.3430000000000177,7.425067138671875,-0.019140625,6.405679321289063
0.3530000000000086,7.54619140625,0.1973876953125,6.331210327148438
0.3629999999999995,7.464843750000001,-0.0333465576171875,6.351696777343751
0.3730000000000473,7.595538330078125,0.1323394775390625,6.242236328125
0.3830000000000382,7.506863403320313,0.1039276123046875,6.420333862304688
0.3930000000000291,7.532583618164063,0.0743194580078125,6.414352416992188
0.4039999999999963,7.458712768554688,0.1440032958984375,6.256741333007813
0.4130000000000109,7.525106811523438,-0.0500946044921875,6.372482299804688
0.4230000000000018,7.460357666015626,0.11783447265625,6.374127197265626
0.4330000000000495,7.434188842773438,-0.012860107421875,6.4037353515625
0.4430000000000405,7.4442077636718755,0.103179931640625,6.279171752929688
0.4530000000000314,7.552471923828126,-0.03170166015625,6.382202148437501
0.4639999999999986,7.5593505859375005,0.030206298828125,6.3047424316406255
0.4740000000000464,7.57908935546875,0.1194793701171875,6.220254516601563
0.4840000000000373,7.413552856445313,-0.0348419189453125,6.470578002929688
0.4940000000000282,7.426412963867188,0.0808990478515625,6.380706787109376
0.5040000000000191,7.461105346679688,0.0755157470703125,6.271096801757813
0.51400000000001,7.555313110351563,0.055029296875,6.310424804687501
0.5240000000000009,7.556808471679688,0.1392181396484375,6.367697143554688
0.5340000000000487,7.427459716796876,0.05084228515625,6.323883056640626
0.5440000000000396,7.419534301757813,0.0776092529296875,6.3833984375
0.5540000000000305,7.499835205078125,0.0692352294921875,6.503176879882813
0.5640000000000214,7.597183227539063,0.088525390625,6.316107177734375
0.5740000000000123,7.511199951171876,0.1108062744140625,6.152066040039063
0.5840000000000032,7.481442260742188,0.0091217041015625,6.410165405273438
0.5939999999999941,7.383944702148438,-0.0127105712890625,6.466839599609376
0.6040000000000418,7.526153564453126,0.0949554443359375,6.238348388671875
0.6140000000000327,7.51688232421875,-0.03409423828125,6.318051147460938
0.625,7.617370605468751,0.058319091796875,6.385043334960938
0.6350000000000477,7.4564697265625,0.0662445068359375,6.305340576171876
0.6450000000000387,7.489517211914063,0.0453094482421875,6.425717163085938
0.6550000000000296,7.374523925781251,0.1215728759765625,6.513345336914063
0.6650000000000205,7.510302734375,0.0151031494140625,6.36485595703125
0.6750000000000114,7.5488830566406255,0.1167877197265625,6.178234863281251
0.6850000000000023,7.569369506835938,0.04486083984375,6.336593627929688
0.6949999999999861,7.499087524414063,0.143853759765625,6.350051879882813
0.7050000000000409,7.432394409179688,0.0459075927734375,6.327920532226563
0.7150000000000318,7.4397216796875005,-0.0142059326171875,6.369790649414063
0.7250000000000156,7.588360595703126,0.094805908203125,6.255993652343751
0.7350000000000136,7.584173583984375,-0.0082244873046875,6.349005126953125
0.7450000000000117,7.458563232421875,0.1481903076171875,6.412857055664063
0.7570000000000121,7.423422241210938,0.0300567626953125,6.525756835937501
0.7660000000000196,7.453778076171876,0.025421142578125,6.2853027343750005
0.7760000000000105,7.621109008789063,-0.0040374755859375,6.345715332031251
0.7860000000000014,7.49893798828125,0.1679290771484375,6.3211914062500005
0.7960000000000491,7.46903076171875,0.088226318359375,6.2853027343750005
0.80600000000004,7.359271240234375,0.0483001708984375,6.40732421875
0.8160000000000309,7.580734252929688,0.09151611328125,6.444708251953125
0.8260000000000218,7.533181762695313,0.0538330078125,6.255545043945313
0.8360000000000198,7.658792114257813,0.1009368896484375,6.163430786132813
0.8460000000000107,7.413702392578125,-0.0456085205078125,6.457867431640626
0.8559999999999945,7.473815917968751,0.1158905029296875,6.395809936523438
0.8660000000000423,7.402487182617188,0.040673828125,6.379061889648438
0.8760000000000332,7.541107177734376,0.0438140869140625,6.379360961914063
0.8860000000000241,7.547387695312499,0.0677398681640625,6.293527221679688
0.896000000000015,7.500732421875001,-0.0279632568359375,6.3092285156250005
0.9070000000000392,7.539611816406251,0.1335357666015625,6.398202514648438
0.91700000000003,7.456768798828126,0.0805999755859375,6.453680419921875
0.9270000000000208,7.540359497070313,0.049346923828125,6.220104980468751
0.9370000000000118,7.47501220703125,0.039776611328125,6.273788452148438
0.9470000000000028,7.549929809570313,0.06998291015625,6.385491943359376
0.9569999999999936,7.403833007812499,0.1218719482421875,6.3439208984375
0.9670000000000414,7.482489013671875,0.029608154296875,6.373379516601563
0.9770000000000324,7.498788452148438,0.045159912109375,6.367547607421876
0.987000000000016,7.615875244140626,0.070281982421875,6.254498291015626
0.997000000000014,7.482040405273438,0.0288604736328125,6.386090087890626
1.007000000000012,7.4307495117187505,0.0898712158203125,6.48209228515625
1.016999999999996,7.421627807617188,0.0303558349609375,6.335098266601563
1.0270000000000508,7.551126098632813,0.0124114990234375,6.213226318359376
1.0370000000000417,7.646231079101563,0.1502838134765625,6.318200683593751
1.0470000000000257,7.41280517578125,0.0548797607421875,6.385641479492188
1.0570000000000164,7.427310180664063,0.0160003662109375,6.343771362304688
1.0680000000000405,7.444656372070313,0.0539825439453125,6.405081176757813
1.0780000000000314,7.672848510742188,0.054730224609375,6.4004455566406255
1.0880000000000225,7.509405517578125,0.165087890625,6.253002929687501
1.0980000000000203,7.47261962890625,0.0370849609375,6.3271728515625005
1.1080000000000112,7.345214843750001,-0.0013458251953125,6.489270019531251
1.117999999999995,7.516732788085938,0.0551788330078125,6.387734985351563
1.12800000000005,7.593594360351563,0.1266571044921875,6.206646728515626
1.1380000000000408,7.600323486328126,0.088525390625,6.216217041015626
1.1480000000000246,7.505068969726563,-0.0088226318359375,6.365603637695313
1.1580000000000157,7.3404296875,-0.0136077880859375,6.472821044921876
1.1680000000000064,7.437478637695313,0.1164886474609375,6.351696777343751
1.1779999999999973,7.45108642578125,-0.0710296630859375,6.3810058593750005
1.1890000000000214,7.6335205078125,0.069085693359375,6.261676025390625
1.198000000000036,7.476956176757813,0.140264892578125,6.322387695312501
1.2090000000000032,7.508059692382813,0.096002197265625,6.414053344726563
1.218999999999994,7.408917236328126,0.030804443359375,6.465643310546875
1.2290000000000418,7.56712646484375,0.0764129638671875,6.221151733398438
1.2390000000000327,7.607800292968751,0.083441162109375,6.222198486328126
1.2490000000000236,7.479946899414063,0.1184326171875,6.450241088867188
1.2590000000000146,7.384991455078126,0.1543212890625,6.413903808593751
1.2690000000000126,7.352392578125,-0.06639404296875,6.352145385742188
1.2789999999999964,7.650717163085938,0.0085235595703125,6.20694580078125
1.2890000000000512,7.611239624023438,0.057421875,6.312518310546875
1.299000000000042,7.519424438476563,0.0394775390625,6.33853759765625
1.309000000000026,7.367196655273438,-0.000897216796875,6.483288574218751
1.3190000000000168,7.447348022460938,-0.0154022216796875,6.455026245117188
1.3290000000000075,7.545593261718751,0.03349609375,6.293377685546876
1.3389999999999986,7.5369201660156255,0.0883758544921875,6.263320922851563
1.3500000000000156,7.479797363281251,0.1224700927734375,6.347061157226563
1.3600000000000136,7.386187744140625,0.0968994140625,6.368743896484376
1.3700000000000117,7.518527221679688,0.0471038818359375,6.379510498046876
1.3799999999999957,7.547836303710938,0.2232574462890625,6.204104614257813
1.3900000000000503,7.703503417968751,-0.0031402587890625,6.222048950195313
1.4000000000000412,7.454376220703126,0.008074951171875,6.455325317382813
1.410000000000025,7.3978515625,0.1559661865234375,6.502728271484376
1.420000000000016,7.35538330078125,0.0162994384765625,6.417044067382813
1.4300000000000068,7.529443359375,0.010467529296875,6.301004028320313
1.4399999999999975,7.569519042968751,-0.006878662109375,6.316256713867188
1.4500000000000526,7.484881591796875,0.055926513671875,6.280966186523438
1.4600000000000364,7.478750610351563,0.0638519287109375,6.3167053222656255
1.4700000000000273,7.485180664062501,0.0657958984375,6.409417724609376
1.4800000000000182,7.5757995605468755,0.06878662109375,6.268704223632813
1.4910000000000423,7.543350219726563,0.0665435791015625,6.277227783203125
1.5010000000000332,7.451235961914063,0.136676025390625,6.433642578125
1.511000000000024,7.448394775390626,0.0118133544921875,6.504821777343751
1.521000000000015,7.463497924804688,0.0390289306640625,6.3259765625
1.531000000000006,7.613781738281251,0.13577880859375,6.2269836425781255
1.5409999999999968,7.475909423828125,0.02452392578125,6.384893798828125
1.5510000000000517,7.52525634765625,-0.0466552734375,6.413754272460938
1.5610000000000426,7.467385864257813,0.0299072265625,6.295321655273438
1.5710000000000264,7.576397705078126,0.033197021484375,6.301153564453125
1.5810000000000173,7.512545776367188,0.0581695556640625,6.370986938476563
1.5910000000000082,7.426712036132813,0.078656005859375,6.361865234375
1.6030000000000086,7.383645629882813,0.0004486083984375,6.332107543945313
1.6110000000000468,7.534677124023438,0.04366455078125,6.445455932617188
1.6210000000000375,7.571163940429688,0.177349853515625,6.283059692382813
1.6310000000000286,7.534976196289063,0.107965087890625,6.269003295898438
1.641999999999996,7.455572509765625,0.0681884765625,6.395660400390626
1.6520000000000508,7.447946166992188,0.062506103515625,6.514691162109376
1.6620000000000417,7.429104614257813,0.0916656494140625,6.323434448242188
1.6720000000000257,7.61318359375,0.0456085205078125,6.276480102539063
1.6820000000000164,7.551126098632813,0.10946044921875,6.335546875
1.6920000000000073,7.506863403320313,-0.03050537109375,6.424969482421876
1.7040000000000075,7.375271606445313,0.0539825439453125,6.290386962890626
1.712000000000046,7.544546508789063,-0.008074951171875,6.318649291992188
1.7220000000000368,7.5877624511718755,-0.015252685546875,6.293826293945313
1.7320000000000275,7.523013305664063,0.1194793701171875,6.347360229492188
1.7420000000000186,7.390374755859375,0.094207763671875,6.382650756835938
1.7520000000000095,7.418038940429688,-0.01854248046875,6.473419189453126
1.7620000000000005,7.537667846679688,0.063104248046875,6.353042602539063
1.7720000000000482,7.557556152343751,0.1353302001953125,6.265713500976563
1.7830000000000157,7.473666381835938,0.144451904296875,6.32059326171875
1.7930000000000064,7.461553955078125,0.02691650390625,6.414950561523438
1.8029999999999973,7.473217773437501,0.02811279296875,6.3481079101562505
1.813000000000052,7.56473388671875,0.099591064453125,6.198571777343751
1.823000000000036,7.566079711914063,0.039178466796875,6.356930541992188
1.8330000000000268,7.481292724609376,0.0764129638671875,6.428109741210938
1.8430000000000173,7.429702758789063,-0.0264678955078125,6.430950927734376
1.8530000000000089,7.414898681640626,0.0668426513671875,6.327023315429688
1.8629999999999995,7.593893432617188,0.0405242919921875,6.316107177734375
1.8730000000000475,7.536022949218751,-0.0227294921875,6.321340942382813
1.8830000000000384,7.512844848632813,0.12919921875,6.310574340820313
1.893000000000029,7.446301269531251,0.0399261474609375,6.389529418945313
1.90300000000002,7.498040771484375,0.04246826171875,6.386538696289063
1.9140000000000512,7.5701171875,0.107666015625,6.172253417968751
1.9230000000000016,7.537518310546876,0.0064300537109375,6.393716430664063
1.934000000000026,7.441067504882813,0.1311431884765625,6.447848510742188
1.9440000000000168,7.449591064453125,0.09031982421875,6.433044433593751
1.954000000000008,7.434039306640625,0.015850830078125,6.313116455078125
1.9639999999999984,7.581781005859375,0.0375335693359375,6.353790283203126
1.9740000000000464,7.484432983398438,0.0677398681640625,6.330911254882813
1.9840000000000373,7.524807739257813,0.04844970703125,6.250311279296875
1.994000000000028,7.481442260742188,-0.000299072265625,6.363360595703125
2.004000000000019,7.557705688476563,0.0743194580078125,6.381903076171875
2.01400000000001,7.453329467773438,0.0844879150390625,6.244329833984375
2.024000000000001,7.541107177734376,0.0251220703125,6.399398803710938
2.0340000000000487,7.488171386718751,0.0889739990234375,6.434539794921876
2.04400000000004,7.511349487304688,0.077459716796875,6.374725341796876
2.055000000000007,7.398150634765625,0.1359283447265625,6.301303100585938
2.0640000000000214,7.472470092773438,0.0115142822265625,6.503176879882813
2.0750000000000526,7.465292358398438,0.0043365478515625,6.36485595703125
2.0850000000000364,7.631726074218751,0.06400146484375,6.154907226562501
2.095000000000028,7.504470825195313,0.0853851318359375,6.281564331054688
2.105000000000018,7.551574707031251,-0.0213836669921875,6.471624755859375
2.115000000000009,7.409515380859376,0.044561767578125,6.314312744140626
2.125,7.503872680664063,-0.0115142822265625,6.389230346679688
2.135000000000048,7.549929809570313,0.0841888427734375,6.355584716796876
2.1450000000000387,7.566827392578125,0.0610107421875,6.360668945312501
2.156000000000006,7.418637084960938,0.0692352294921875,6.341378784179688
2.1650000000000205,7.439572143554688,0.0480010986328125,6.485681152343751
2.175000000000012,7.502975463867188,0.0753662109375,6.302499389648438
2.1850000000000023,7.619763183593751,0.0562255859375,6.155804443359376
2.194999999999986,7.538116455078126,0.136376953125,6.3319580078125
2.2060000000000173,7.439422607421876,0.0288604736328125,6.4791015625
2.216000000000008,7.429852294921876,0.0300567626953125,6.328070068359375
2.225999999999999,7.580584716796875,0.0315521240234375,6.288442993164063
2.236000000000047,7.590753173828125,0.027813720703125,6.432894897460938
2.2460000000000377,7.434188842773438,0.1254608154296875,6.398501586914063
2.2560000000000286,7.389627075195313,0.05682373046875,6.317453002929688
2.26600000000002,7.47142333984375,-0.074468994140625,6.468484497070313
2.2760000000000105,7.574603271484375,0.1200775146484375,6.290835571289063
2.2860000000000014,7.497741699218751,0.1280029296875,6.1477294921875005
2.296000000000049,7.487722778320313,0.045758056640625,6.397903442382813
2.30600000000004,7.471273803710938,0.011962890625,6.524111938476563
2.316000000000031,7.533630371093751,0.1006378173828125,6.2242919921875
2.326000000000022,7.578790283203125,0.0494964599609375,6.22130126953125
2.33600000000002,7.530490112304688,0.0121124267578125,6.502578735351563
2.3460000000000107,7.447048950195313,0.1194793701171875,6.481045532226563
2.357000000000028,7.366748046875,0.0426177978515625,6.280966186523438
2.367000000000018,7.540957641601563,0.0610107421875,6.359622192382813
2.377000000000009,7.564285278320313,0.021832275390625,6.3774169921875
2.3870000000000005,7.567874145507813,0.0435150146484375,6.244628906250001
2.397000000000048,7.403683471679688,0.09390869140625,6.361267089843751
2.407000000000039,7.522714233398438,-0.01973876953125,6.4796997070312505
2.420000000000016,7.511050415039063,0.0767120361328125,6.185263061523438
2.427000000000021,7.584921264648438,0.041571044921875,6.304144287109375
2.437000000000012,7.423870849609376,0.0722259521484375,6.468185424804688
2.4470000000000027,7.543798828125,0.10228271484375,6.386837768554688
2.4569999999999936,7.405926513671876,-0.0155517578125,6.360668945312501
2.4670000000000414,7.5384155273437505,0.11663818359375,6.444409179687501
2.4770000000000323,7.431796264648438,0.075067138671875,6.330462646484375
2.487000000000016,7.587313842773438,-0.0073272705078125,6.202160644531251
2.497000000000014,7.498788452148438,0.0968994140625,6.390127563476563
2.507000000000012,7.459759521484376,0.0755157470703125,6.386688232421876
2.5200000000000387,7.438973999023438,0.029608154296875,6.1776367187500005
2.52800000000002,7.575051879882813,-0.026019287109375,6.431399536132813
2.538000000000011,7.565780639648438,0.1012359619140625,6.437979125976563
2.548000000000002,7.468283081054688,0.1254608154296875,6.270648193359375
2.5580000000000496,7.445852661132813,0.021533203125,6.401641845703126
2.5680000000000405,7.478302001953126,-0.015252685546875,6.625347900390626
2.578000000000032,7.493405151367188,0.0907684326171875,6.251956176757813
2.5880000000000223,7.571313476562499,0.176751708984375,6.015240478515626
2.5980000000000203,7.57310791015625,-0.02691650390625,6.486428833007813
2.608000000000011,7.466339111328126,0.1131988525390625,6.48209228515625
2.620000000000012,7.4157958984375005,0.0817962646484375,6.111093139648438
2.629000000000019,7.554116821289063,-0.011663818359375,6.388034057617188
2.63900000000001,7.57669677734375,0.1242645263671875,6.525906372070313
2.649000000000001,7.430899047851563,0.0800018310546875,6.331509399414063
2.6590000000000487,7.313812255859376,0.070281982421875,6.2972656250000005
2.66900000000004,7.574902343750001,-0.0491973876953125,6.519476318359375
2.6790000000000305,7.543499755859376,0.0629547119140625,6.265414428710938
2.6890000000000214,7.617520141601563,0.1164886474609375,6.094943237304688
2.6990000000000123,7.408917236328126,0.0287109375,6.476858520507813
2.709000000000003,7.546490478515626,-0.0288604736328125,6.447100830078125
2.720000000000028,7.514041137695313,0.0928619384765625,6.182870483398438
2.729000000000042,7.509854125976563,0.131292724609375,6.423025512695313
2.7390000000000327,7.4427124023437505,0.1332366943359375,6.562991333007813
2.749000000000024,7.4086181640625,0.0204864501953125,6.277526855468751
2.7590000000000146,7.526153564453126,0.05443115234375,6.292031860351563
2.769000000000013,7.485180664062501,0.1825836181640625,6.393716430664063
2.7789999999999964,7.565631103515625,0.082843017578125,6.247769165039063
2.789000000000051,7.461404418945313,-0.029010009765625,6.299359130859376
2.800000000000012,7.529293823242188,0.0514404296875,6.4363342285156255
2.8100000000000023,7.4771057128906255,0.04844970703125,6.2123291015625
2.819999999999986,7.596585083007813,-0.023626708984375,6.282162475585938
2.830000000000041,7.417141723632813,0.065496826171875,6.575851440429688
2.840000000000032,7.4181884765625,0.0838897705078125,6.432296752929688
2.850000000000016,7.466339111328126,0.0088226318359375,6.182571411132813
2.8600000000000136,7.594192504882813,0.06041259765625,6.427960205078126
2.870000000000012,7.514340209960938,0.108563232421875,6.426614379882813
2.8799999999999955,7.49295654296875,0.16568603515625,6.108251953125
2.8900000000000503,7.532733154296875,0.0067291259765625,6.370388793945313
2.900000000000041,7.563088989257813,0.1131988525390625,6.528149414062501
2.910000000000025,7.539013671875001,0.109759521484375,6.16806640625
2.920000000000016,7.459759521484376,-0.0118133544921875,6.292480468750001
2.930000000000007,7.511947631835938,0.1021331787109375,6.5712158203125
2.941000000000031,7.412506103515626,0.03289794921875,6.398052978515626
2.951000000000022,7.413403320312501,0.029010009765625,6.264517211914063
2.96100000000002,7.52286376953125,0.0324493408203125,6.429306030273438
2.9710000000000107,7.588360595703126,-0.0267669677734375,6.337640380859376
2.9809999999999945,7.553219604492188,0.0919647216796875,6.126046752929688
2.9910000000000423,7.450787353515626,0.0892730712890625,6.390875244140625
3.001000000000033,7.463348388671876,0.0037384033203125,6.429306030273438
3.011000000000024,7.551275634765625,0.0061309814453125,6.302200317382813
3.021000000000015,7.464096069335938,0.2002288818359375,6.296368408203126
3.031000000000006,7.49833984375,0.0955535888671875,6.4901672363281255
3.040999999999997,7.399346923828125,0.01854248046875,6.436782836914063
3.051000000000052,7.4923583984375,0.0186920166015625,6.415100097656251
3.0610000000000426,7.493704223632813,0.13577880859375,6.210235595703126
3.0710000000000264,7.707540893554688,0.0841888427734375,6.136364746093751
3.0810000000000173,7.4561706542968755,-0.0438140869140625,6.450241088867188
3.0920000000000414,7.449441528320313,0.1278533935546875,6.360519409179688
3.1020000000000323,7.456320190429688,-0.0097198486328125,6.229077148437501
3.112000000000016,7.594790649414063,-0.0157012939453125,6.426763916015625
3.122000000000014,7.51688232421875,0.1810882568359375,6.542803955078125
3.132000000000012,7.347607421875001,-0.009271240234375,6.344668579101563
3.141999999999996,7.480545043945313,-0.0148040771484375,6.329714965820313
3.1520000000000508,7.554714965820313,0.10228271484375,6.445007324218751
3.1620000000000417,7.573556518554688,0.1591064453125,6.210086059570313
3.172000000000025,7.4660400390625,0.0668426513671875,6.18302001953125
3.1820000000000164,7.563238525390625,-0.0034393310546875,6.436483764648438
3.192000000000008,7.521517944335938,0.057720947265625,6.3331542968750005
3.201999999999998,7.50491943359375,0.1021331787109375,6.291433715820313
3.212000000000046,7.395758056640625,0.0928619384765625,6.554168701171876
3.222000000000037,7.475311279296876,0.0079254150390625,6.498989868164063
3.233000000000011,7.46005859375,-0.01375732421875,6.239544677734376
3.242999999999995,7.524060058593751,0.093609619140625,6.337640380859376
3.25300000000005,7.523760986328125,0.1206756591796875,6.341677856445313
3.2630000000000408,7.51688232421875,-0.055328369140625,6.263619995117188
3.273000000000025,7.482788085937501,0.04306640625,6.234460449218751
3.2830000000000155,7.5737060546875,0.0919647216796875,6.258984375000001
3.2930000000000064,7.54678955078125,0.026019287109375,6.395809936523438
3.3029999999999973,7.395458984375001,0.115142822265625,6.513494873046875
3.313000000000052,7.3679443359375005,0.08194580078125,6.44859619140625
3.323000000000036,7.513742065429688,0.01256103515625,6.321041870117188
3.333000000000027,7.582827758789063,0.1015350341796875,6.408670043945313
3.3430000000000177,7.476806640625001,0.160003662109375,6.316406250000001
3.3530000000000086,7.545892333984375,0.07716064453125,6.093597412109375
3.3629999999999995,7.507611083984376,0.0028411865234375,6.327621459960938
3.374000000000024,7.483685302734376,0.0776092529296875,6.408221435546875
3.3840000000000146,7.5279479980468755,0.069085693359375,6.249862670898438
3.394000000000013,7.4564697265625,-0.0611602783203125,6.424520874023438
3.4039999999999964,7.504470825195313,0.118133544921875,6.537420654296875
3.414000000000051,7.333700561523438,0.00777587890625,6.432595825195313
3.424000000000042,7.54619140625,-0.0237762451171875,6.328219604492188
3.434000000000026,7.501779174804688,0.1407135009765625,6.295172119140625
3.444000000000017,7.649670410156251,0.0432159423828125,6.159841918945313
3.454000000000008,7.431347656250001,0.079852294921875,6.217413330078125
3.463999999999998,7.489517211914063,0.10108642578125,6.40732421875
3.4740000000000464,7.499984741210938,0.0322998046875,6.42227783203125
3.4840000000000373,7.520321655273438,0.091217041015625,6.300555419921875
3.494000000000028,7.50791015625,0.0874786376953125,6.485382080078126
3.504000000000019,7.402487182617188,0.094805908203125,6.518130493164063
3.5150000000000503,7.47142333984375,-0.0471038818359375,6.391024780273438
3.525000000000041,7.44151611328125,0.08792724609375,6.220104980468751
3.535000000000025,7.702606201171876,0.14415283203125,6.129037475585938
3.545000000000016,7.48936767578125,-0.054730224609375,6.314761352539063
3.555000000000007,7.496694946289063,0.085235595703125,6.317752075195313
3.5649999999999977,7.448394775390626,0.021533203125,6.277975463867188
3.5750000000000526,7.554116821289063,0.0554779052734375,6.487924194335938
3.5850000000000364,7.408917236328126,0.1502838134765625,6.565982055664063
3.595000000000028,7.455722045898438,0.02691650390625,6.395361328125
3.605000000000018,7.448544311523438,0.0330474853515625,6.282910156250001
3.615000000000009,7.554266357421875,0.0937591552734375,6.367697143554688
3.625,7.516583251953126,0.160003662109375,6.2721435546875
3.635000000000048,7.51688232421875,0.004486083984375,6.175842285156251
3.645000000000039,7.609744262695313,0.0198883056640625,6.272442626953126
3.6550000000000296,7.5258544921875,0.0776092529296875,6.326724243164063
3.665999999999997,7.504769897460938,-0.010467529296875,6.473867797851563
3.676000000000052,7.321289062500001,0.0940582275390625,6.621459960937501
3.6860000000000426,7.450637817382813,0.049346923828125,6.3439208984375
3.6960000000000255,7.4681335449218755,-0.0692352294921875,6.306088256835938
3.706000000000017,7.552322387695313,0.1484893798828125,6.363211059570313
3.716000000000008,7.560098266601563,0.1754058837890625,6.2362548828125
3.725999999999999,7.488320922851563,-0.04486083984375,6.229824829101563
3.736000000000047,7.600473022460938,0.0521881103515625,6.23087158203125
3.7460000000000377,7.581182861328125,0.1478912353515625,6.371435546875
3.7560000000000286,7.438076782226563,0.0542816162109375,6.413604736328126
3.76600000000002,7.372131347656251,0.0435150146484375,6.513793945312501
3.7760000000000105,7.350897216796875,0.0399261474609375,6.492260742187501
3.7870000000000417,7.54678955078125,-0.000299072265625,6.317153930664063
3.7970000000000255,7.514639282226563,0.09031982421875,6.307583618164063
3.807000000000016,7.664624023437501,0.0973480224609375,6.1764404296875
3.819000000000017,7.501779174804688,0.0040374755859375,6.210983276367188
3.826999999999998,7.469927978515625,0.0052337646484375,6.408071899414063
3.837000000000046,7.497293090820313,0.1269561767578125,6.329266357421876
3.847000000000037,7.492657470703126,0.033795166015625,6.347509765625
3.857000000000028,7.449142456054688,0.0968994140625,6.500933837890625
3.867000000000018,7.335195922851563,0.123516845703125,6.507363891601563
3.8770000000000095,7.463497924804688,0.0013458251953125,6.403585815429688
3.887000000000001,7.555014038085938,0.110357666015625,6.2697509765625
3.897000000000048,7.683166503906251,0.151629638671875,6.16806640625
3.907000000000039,7.502078247070313,0.0019439697265625,6.175692749023438
3.91900000000004,7.5138916015625,0.024822998046875,6.351397705078125
3.927000000000021,7.377365112304688,0.02332763671875,6.414202880859375
3.938000000000052,7.536022949218751,0.0109161376953125,6.313415527343751
3.948000000000036,7.425665283203125,0.0539825439453125,6.479400634765626
3.958000000000027,7.447946166992188,0.057122802734375,6.544598388671876
3.9680000000000177,7.438076782226563,0.0423187255859375,6.3678466796875
3.9780000000000086,7.497442626953125,0.0527862548828125,6.301303100585938
3.988,7.67479248046875,0.241351318359375,6.187207031250001
3.9980000000000473,7.496844482421875,0.0348419189453125,6.246273803710938
4.008000000000038,7.563986206054688,0.02572021484375,6.239993286132813
4.019000000000013,7.467385864257813,0.1954437255859375,6.323135375976563
4.02800000000002,7.470376586914063,0.05323486328125,6.510205078125001
4.038000000000011,7.389328002929688,0.04366455078125,6.546691894531251
4.048000000000002,7.495050048828125,0.015252685546875,6.420184326171875
4.05800000000005,7.53243408203125,-0.03349609375,6.266311645507813
4.0680000000000405,7.515536499023438,0.0635528564453125,6.331509399414063
4.078000000000031,7.511349487304688,0.048748779296875,6.311770629882813
4.088999999999999,7.511199951171876,0.0227294921875,6.152066040039063
4.099000000000046,7.575051879882813,-0.0354400634765625,6.19737548828125
4.109000000000037,7.551126098632813,0.0982452392578125,6.408071899414063
4.119000000000028,7.415496826171876,0.146246337890625,6.5081115722656255
4.129000000000019,7.346112060546876,0.0309539794921875,6.566729736328125
4.13900000000001,7.4564697265625,0.1338348388671875,6.355734252929688
4.149000000000001,7.598529052734375,0.0151031494140625,6.34691162109375
4.159000000000049,7.520022583007813,0.1758544921875,6.30504150390625
4.16900000000004,7.52286376953125,0.1543212890625,6.225039672851563
4.179000000000031,7.485629272460938,-0.0968994140625,6.259432983398438
4.189000000000021,7.562640380859375,0.060711669921875,6.249563598632813
4.199000000000012,7.546340942382813,0.077459716796875,6.356631469726563
4.209000000000003,7.399047851562501,0.0503936767578125,6.451885986328126
4.218999999999994,7.429104614257813,0.016748046875,6.504522705078125
4.229000000000042,7.354187011718751,0.03349609375,6.464895629882813
4.240000000000009,7.512246704101563,0.0659454345703125,6.366201782226563
4.25,7.549929809570313,0.0683380126953125,6.256292724609375
4.260000000000048,7.681222534179688,0.1499847412109375,6.142346191406251
4.271000000000015,7.479946899414063,0.044561767578125,6.269003295898438
4.28000000000003,7.455422973632813,0.006280517578125,6.428408813476563
4.2900000000000205,7.521966552734375,0.1957427978515625,6.283508300781251
4.300000000000011,7.506265258789063,0.006878662109375,6.3678466796875
4.310000000000002,7.435833740234376,0.0805999755859375,6.536224365234376
4.319999999999986,7.379458618164063,0.0794036865234375,6.442166137695313
4.330000000000041,7.497143554687501,-0.0450103759765625,6.395062255859376
4.340000000000032,7.536172485351563,0.0955535888671875,6.2601806640625
4.350000000000016,7.701409912109375,0.0456085205078125,6.1791320800781255
4.360000000000014,7.478750610351563,0.0309539794921875,6.217263793945313
4.370000000000012,7.517330932617188,0.00897216796875,6.362612915039063
4.381000000000029,7.423721313476563,0.064599609375,6.401641845703126
4.39100000000002,7.502975463867188,0.117535400390625,6.357379150390625
4.4010000000000105,7.447647094726563,0.0471038818359375,6.529196166992188
4.411000000000001,7.421926879882813,0.0940582275390625,6.469680786132813
4.421000000000049,7.523461914062499,0.0366363525390625,6.296368408203126
4.43100000000004,7.497891235351563,0.153424072265625,6.331509399414063
4.441000000000031,7.579837036132813,0.1490875244140625,6.242684936523438
4.451000000000022,7.511199951171876,-0.054730224609375,6.201712036132813
4.46100000000002,7.572061157226563,0.053533935546875,6.226086425781251
4.471000000000011,7.514788818359375,0.086431884765625,6.39476318359375
4.4809999999999945,7.416244506835938,0.0252716064453125,6.570767211914063
4.491000000000042,7.408917236328126,-0.018243408203125,6.467886352539063
4.501000000000033,7.520770263671875,0.0136077880859375,6.365155029296876
4.511000000000024,7.506265258789063,0.0394775390625,6.304891967773438
4.521000000000015,7.543350219726563,0.10706787109375,6.3319580078125
4.532000000000039,7.464993286132813,0.131890869140625,6.293228149414063
4.54200000000003,7.564434814453126,0.02392578125,6.164776611328126
4.552000000000021,7.617669677734375,0.0988433837890625,6.247320556640625
4.562000000000012,7.565032958984376,0.198883056640625,6.403585815429688
4.572000000000003,7.384094238281251,0.10946044921875,6.513046264648438
4.581999999999994,7.335195922851563,-0.01256103515625,6.561795043945313
4.592000000000041,7.4800964355468755,0.07237548828125,6.327471923828125
4.602000000000032,7.559201049804688,0.0165985107421875,6.338836669921876
4.612000000000016,7.526901245117188,0.0629547119140625,6.312966918945313
4.622000000000014,7.566528320312501,0.0107666015625,6.153561401367188
4.635000000000048,7.536172485351563,-0.0384307861328125,6.255694580078125
4.641999999999996,7.574453735351563,0.0384307861328125,6.334201049804688
4.652000000000051,7.540957641601563,0.112152099609375,6.405978393554688
4.663000000000011,7.378411865234375,0.0913665771484375,6.391921997070313
4.673000000000002,7.4322448730468755,0.057720947265625,6.493756103515626
4.68300000000005,7.319644165039063,0.082843017578125,6.537869262695313
4.6930000000000405,7.553668212890625,0.08912353515625,6.280966186523438
4.703000000000031,7.602716064453125,0.151629638671875,6.167916870117188
4.713000000000022,7.65206298828125,0.0485992431640625,6.228927612304688
4.72300000000002,7.530789184570313,0.042169189453125,6.303695678710938
4.736000000000047,7.443011474609375,0.0312530517578125,6.363809204101563
4.742999999999995,7.564883422851563,0.0650482177734375,6.301153564453125
4.75300000000005,7.404580688476563,0.011065673828125,6.442764282226563
4.763000000000041,7.438375854492188,-0.0031402587890625,6.490765380859376
4.773000000000025,7.366897583007813,0.0776092529296875,6.450390625000001
4.783000000000016,7.519424438476563,-0.0055328369140625,6.414801025390625
4.793000000000006,7.635015869140625,0.104376220703125,6.154907226562501
4.802999999999997,7.66402587890625,0.1096099853515625,6.200665283203126
4.813000000000052,7.470825195312501,0.050543212890625,6.303546142578125
4.824000000000012,7.475759887695313,0.0838897705078125,6.335995483398438
4.835000000000036,7.449142456054688,0.102880859375,6.366799926757813
4.843999999999994,7.451684570312499,0.1108062744140625,6.5021301269531255
4.854000000000042,7.386187744140625,0.035888671875,6.537869262695313
4.864000000000033,7.512246704101563,0.00897216796875,6.313714599609376
4.874000000000024,7.5856689453125,0.0488983154296875,6.315509033203125
4.884000000000015,7.515386962890625,0.0841888427734375,6.410015869140626
4.894000000000013,7.544845581054688,0.07357177734375,6.139654541015625
4.903999999999996,7.533181762695313,-0.0491973876953125,6.172103881835938
4.914000000000051,7.5369201660156255,0.0300567626953125,6.333752441406251
4.924000000000042,7.452581787109375,0.158209228515625,6.3893798828125
4.935000000000002,7.3978515625,0.0375335693359375,6.554916381835938
4.944000000000017,7.456320190429688,0.0384307861328125,6.535775756835938
4.955000000000041,7.537667846679688,0.068487548828125,6.35289306640625
4.965000000000032,7.548434448242188,0.0716278076171875,6.248965454101563
4.975000000000016,7.5638366699218755,0.18123779296875,6.367398071289063
4.985000000000014,7.405477905273438,0.026617431640625,6.29906005859375
4.995000000000012,7.572210693359375,0.0127105712890625,6.077297973632813
5.004999999999996,7.527200317382813,0.066094970703125,6.275582885742188
5.01500000000005,7.573406982421876,0.0849365234375,6.493157958984376
5.025000000000041,7.336990356445313,0.0740203857421875,6.4611572265625
5.035000000000025,7.405776977539063,-0.083740234375,6.4874755859375
5.045000000000016,7.524209594726563,0.0808990478515625,6.409866333007813
5.055000000000007,7.503274536132813,0.014654541015625,6.362762451171876
5.064999999999998,7.588211059570313,0.110955810546875,6.179730224609376
5.075000000000053,7.466937255859375,0.0898712158203125,6.190646362304688
5.085000000000036,7.552322387695313,-0.005682373046875,6.325677490234376
5.095000000000027,7.485180664062501,0.12261962890625,6.2936767578125
5.1059999999999945,7.622305297851563,0.1179840087890625,6.372781372070313
5.116000000000042,7.409066772460938,0.1126007080078125,6.471026611328125
5.126000000000033,7.436880493164063,0.009271240234375,6.52037353515625
5.136000000000024,7.328466796875,0.0007476806640625,6.474765014648438
5.146000000000015,7.569967651367188,0.0826934814453125,6.286199951171875
5.156000000000006,7.584472656250001,0.0270660400390625,6.169860839843751
5.165999999999997,7.578640747070313,0.0267669677734375,6.184664916992188
5.176000000000052,7.534527587890626,0.0276641845703125,6.282910156250001
5.186000000000043,7.469479370117188,0.0088226318359375,6.399697875976563
5.196000000000026,7.547088623046876,0.1550689697265625,6.312368774414063
5.206000000000017,7.436282348632813,0.0225799560546875,6.4515869140625
5.216000000000008,7.413552856445313,0.104376220703125,6.5484863281250005
5.225999999999999,7.379159545898438,0.107666015625,6.429455566406251
5.237000000000016,7.540957641601563,0.033197021484375,6.2972656250000005
5.247000000000014,7.639950561523438,0.1712188720703125,6.184216308593751
5.257000000000012,7.590304565429688,0.002392578125,6.249264526367188
5.266999999999996,7.5025268554687505,0.021234130859375,6.206646728515626
5.277000000000051,7.544097900390626,0.0417205810546875,6.320742797851563
5.288000000000011,7.445404052734376,0.040374755859375,6.523663330078126
5.2970000000000255,7.373028564453126,0.07177734375,6.509307861328126
5.307000000000016,7.431497192382813,-0.053533935546875,6.420184326171875
5.317000000000007,7.551275634765625,0.0478515625,6.396856689453125
5.326999999999998,7.499685668945313,0.1117034912109375,6.313415527343751
5.337000000000046,7.548733520507813,0.0698333740234375,6.285601806640625
5.347000000000037,7.54619140625,0.133087158203125,6.179580688476563
5.357000000000028,7.61258544921875,-0.02572021484375,6.225189208984376
5.367000000000019,7.517031860351563,0.14295654296875,6.312368774414063
5.3770000000000095,7.446002197265625,0.1287506103515625,6.457568359375
5.3870000000000005,7.332653808593751,0.0282623291015625,6.655404663085938
5.398000000000025,7.404431152343751,0.0299072265625,6.413006591796876
5.408000000000016,7.59224853515625,-0.00777587890625,6.283657836914063
5.418000000000006,7.511648559570313,0.097198486328125,6.328219604492188
5.427999999999997,7.57908935546875,0.0282623291015625,6.28470458984375
5.438000000000052,7.433590698242188,-0.0115142822265625,6.173300170898438
5.448000000000036,7.65086669921875,0.0177947998046875,6.228179931640626
5.458000000000027,7.520022583007813,0.0904693603515625,6.419137573242188
5.468000000000018,7.466488647460938,0.1185821533203125,6.450988769531251
5.478000000000009,7.358523559570313,0.021234130859375,6.456521606445313
5.488,7.371682739257813,0.04605712890625,6.56224365234375
5.498000000000047,7.509106445312501,0.12860107421875,6.359323120117188
5.508000000000038,7.542453002929688,0.0572723388671875,6.214871215820313
5.518000000000029,7.64847412109375,0.1117034912109375,6.214572143554688
5.52800000000002,7.477554321289063,0.0737213134765625,6.196029663085938
5.539000000000051,7.518676757812501,0.0022430419921875,6.30863037109375
5.549000000000042,7.479049682617188,0.0713287353515625,6.430801391601563
5.559000000000026,7.565481567382813,0.082244873046875,6.4168945312500005
5.569000000000017,7.362261962890625,0.0249725341796875,6.406576538085938
5.579000000000008,7.441067504882813,-0.037384033203125,6.526654052734376
5.588999999999999,7.404580688476563,0.0669921875,6.4916625976562505
5.599000000000046,7.572360229492188,0.09510498046875,6.142047119140625
5.609000000000037,7.653857421875,0.0346923828125,6.1381591796875
5.619000000000028,7.5593505859375005,0.0992919921875,6.3319580078125
5.629000000000019,7.5159851074218755,0.0785064697265625,6.284405517578126
5.63900000000001,7.43553466796875,0.090020751953125,6.359024047851563
5.649000000000001,7.545892333984375,0.12142333984375,6.451885986328126
5.659000000000049,7.407122802734375,0.0394775390625,6.525756835937501
5.66900000000004,7.377813720703125,0.058917236328125,6.375173950195313
5.680000000000007,7.473965454101563,0.0001495361328125,6.366799926757813
5.689999999999998,7.5249572753906255,0.075665283203125,6.336444091796875
5.700000000000053,7.612286376953126,0.045758056640625,6.164776611328126
5.710000000000036,7.562042236328126,-0.0174957275390625,6.239993286132813
5.720000000000027,7.542901611328125,0.016748046875,6.259133911132813
5.730000000000018,7.521218872070313,0.0370849609375,6.332855224609376
5.740000000000009,7.297213745117188,0.1263580322265625,6.546990966796876
5.75,7.409515380859376,0.0590667724609375,6.554617309570313
5.760000000000048,7.466339111328126,0.05263671875,6.385342407226563
5.770000000000039,7.610491943359375,0.1030303955078125,6.296517944335938
5.78000000000003,7.530041503906251,0.1831817626953125,6.354837036132813
5.7900000000000205,7.536022949218751,0.0801513671875,6.293228149414063
5.800000000000011,7.562789916992188,0.0381317138671875,6.125448608398438
5.810000000000002,7.569070434570313,-0.002691650390625,6.25718994140625
5.821000000000026,7.548733520507813,0.0638519287109375,6.381903076171875
5.831000000000017,7.362710571289063,0.077459716796875,6.499588012695313
5.841000000000008,7.35538330078125,-0.0626556396484375,6.582730102539063
5.850999999999999,7.46005859375,-0.0465057373046875,6.372183227539063
5.861000000000047,7.649072265625,0.076263427734375,6.284854125976563
5.871000000000038,7.511199951171876,0.133685302734375,6.270498657226563
5.881000000000029,7.542453002929688,0.01495361328125,6.25479736328125
5.89100000000002,7.431945800781251,0.055029296875,6.2123291015625
5.9010000000000105,7.585818481445313,0.1120025634765625,6.226834106445313
5.911000000000001,7.514938354492188,0.11065673828125,6.484933471679688
5.921000000000049,7.46544189453125,0.0856842041015625,6.472073364257813
5.93100000000004,7.392916870117188,0.066094970703125,6.444259643554688
5.941000000000031,7.410412597656251,0.00897216796875,6.540560913085938
5.951999999999998,7.542901611328125,0.0707305908203125,6.342276000976563
5.96100000000002,7.547537231445313,0.08433837890625,6.150720214843751
5.971000000000011,7.610491943359375,0.033795166015625,6.128289794921876
5.982000000000028,7.466937255859375,0.0261688232421875,6.310275268554688
5.992000000000019,7.474563598632813,0.0157012939453125,6.357827758789063
6.0020000000000095,7.524359130859375,0.1016845703125,6.352743530273438
6.0120000000000005,7.5043212890625,0.0634033203125,6.4647460937500005
6.022000000000048,7.4265625,0.0394775390625,6.501980590820313
6.032000000000039,7.404281616210938,0.0925628662109375,6.4850830078125
6.04200000000003,7.4531799316406255,0.08194580078125,6.383697509765626
6.052000000000021,7.563388061523438,0.1472930908203125,6.125149536132813
6.062000000000012,7.6206604003906255,0.01495361328125,6.156253051757813
6.072000000000003,7.563088989257813,0.1057220458984375,6.249713134765625
6.081999999999994,7.474114990234375,0.0737213134765625,6.330313110351563
6.092000000000041,7.497741699218751,0.01375732421875,6.443212890625
6.102000000000032,7.452581787109375,0.1514801025390625,6.463400268554688
6.112000000000016,7.400094604492188,-0.0491973876953125,6.516336059570313
6.123000000000047,7.401589965820313,-0.004486083984375,6.4079223632812505
6.135000000000048,7.496844482421875,0.0946563720703125,6.249862670898438
6.143000000000029,7.568472290039063,0.0538330078125,6.283807373046876
6.15300000000002,7.574902343750001,0.04366455078125,6.223544311523438
6.163000000000011,7.620361328125001,0.0249725341796875,6.170458984375
6.173000000000002,7.55277099609375,0.06998291015625,6.231768798828125
6.18300000000005,7.512246704101563,0.102880859375,6.514840698242188
6.1930000000000405,7.261923217773438,0.0997406005859375,6.637460327148438
6.203000000000031,7.412954711914063,0.103778076171875,6.4198852539062505
6.213000000000022,7.48936767578125,-0.03289794921875,6.345266723632813
6.22300000000002,7.610940551757813,0.100787353515625,6.32657470703125
6.235000000000014,7.547537231445313,0.16568603515625,6.223544311523438
6.242999999999995,7.525405883789063,-0.04127197265625,6.236404418945313
6.25300000000005,7.597930908203126,0.0514404296875,6.201263427734376
6.26400000000001,7.542602539062501,0.00059814453125,6.269451904296876
6.274000000000001,7.499984741210938,0.143853759765625,6.438726806640625
6.284000000000049,7.292877197265626,0.0572723388671875,6.614581298828125
6.29400000000004,7.390524291992188,-0.0683380126953125,6.520523071289063
6.304000000000031,7.461553955078125,0.0602630615234375,6.292929077148438
6.314000000000021,7.653857421875,0.0659454345703125,6.3241821289062505
6.324000000000012,7.578939819335938,0.155218505859375,6.241040039062501
6.334000000000003,7.562640380859375,-0.0270660400390625,6.17105712890625
6.343999999999994,7.483834838867188,0.0483001708984375,6.242684936523438
6.354000000000042,7.494750976562501,0.1066192626953125,6.400296020507813
6.364000000000033,7.473516845703125,0.0394775390625,6.455325317382813
6.374000000000024,7.383197021484375,0.152825927734375,6.418838500976563
6.384000000000015,7.395608520507813,-0.0028411865234375,6.49405517578125
6.395000000000039,7.425964355468751,-0.00418701171875,6.518280029296876
6.40500000000003,7.607800292968751,0.1505828857421875,6.234909057617188
6.4150000000000205,7.628585815429688,0.063702392578125,6.1238037109375005
6.425000000000011,7.60361328125,0.026019287109375,6.218609619140626
6.435000000000002,7.479498291015625,0.019439697265625,6.339584350585938
6.444999999999986,7.427758789062499,0.1081146240234375,6.370986938476563
6.455000000000041,7.464843750000001,0.0753662109375,6.4004455566406255
6.465000000000032,7.479946899414063,0.005682373046875,6.509756469726563
6.475000000000016,7.416693115234375,0.094805908203125,6.417343139648438
6.485000000000014,7.467535400390625,0.0046356201171875,6.403585815429688
6.495000000000012,7.500582885742188,0.061907958984375,6.362911987304688
6.504999999999996,7.664923095703125,0.1517791748046875,6.162533569335938
6.51500000000005,7.53482666015625,-0.010467529296875,6.1836181640625005
6.525000000000041,7.550527954101563,0.034991455078125,6.300106811523438
6.535000000000025,7.4899658203125,0.04306640625,6.360968017578125
6.546000000000049,7.441815185546876,0.060113525390625,6.434539794921876
6.55600000000004,7.388430786132813,0.1072174072265625,6.475811767578126
6.566000000000031,7.452282714843751,-0.03828125,6.489718627929688
6.576000000000022,7.527648925781251,0.0967498779296875,6.315060424804688
6.58600000000002,7.530789184570313,0.13099365234375,6.262573242187501
6.596000000000011,7.542303466796875,0.11065673828125,6.355435180664063
6.6059999999999945,7.529144287109376,0.01973876953125,6.249114990234376
6.616000000000042,7.659988403320313,0.0019439697265625,6.172103881835938
6.626000000000033,7.482189941406251,0.115142822265625,6.298312377929688
6.636000000000024,7.504470825195313,-0.0142059326171875,6.5245605468750005
6.646000000000015,7.269998168945313,0.062506103515625,6.594842529296876
6.656000000000006,7.481442260742188,0.0073272705078125,6.344070434570313
6.665999999999997,7.537667846679688,-0.043963623046875,6.352145385742188
6.676000000000052,7.6095947265625,0.1543212890625,6.289639282226563
6.686000000000043,7.571163940429688,0.1069183349609375,6.276181030273438
6.697000000000003,7.431048583984375,-0.0094207763671875,6.318649291992188
6.706999999999994,7.66043701171875,0.104376220703125,6.188702392578126
6.717000000000041,7.5264526367187505,0.1454986572265625,6.318499755859375
6.727000000000032,7.4780029296875,0.1206756591796875,6.498690795898438
6.737000000000016,7.320989990234375,0.0719268798828125,6.509906005859375
6.747000000000014,7.419235229492188,0.0423187255859375,6.377716064453126
6.757000000000012,7.481591796875,-0.0010467529296875,6.414501953125001
6.766999999999996,7.528546142578126,0.0825439453125,6.398501586914063
6.777000000000051,7.61497802734375,0.0635528564453125,6.114532470703125
6.787000000000042,7.521069335937501,-0.1140960693359375,6.176290893554688
6.7970000000000255,7.517330932617188,-0.0273651123046875,6.3406311035156255
6.807000000000016,7.5318359375,0.0829925537109375,6.288143920898438
6.817000000000007,7.545144653320313,-0.00179443359375,6.343023681640625
6.826999999999998,7.438674926757813,0.06759033203125,6.463400268554688
6.837000000000046,7.40263671875,0.0551788330078125,6.514541625976563
6.84800000000002,7.390972900390626,0.1607513427734375,6.535775756835938
6.858000000000011,7.536172485351563,0.354400634765625,6.360818481445313
6.867999999999995,7.605557250976563,0.232080078125,6.215618896484376
6.87800000000005,7.5641357421875,0.1879669189453125,6.116326904296876
6.888000000000041,7.525704956054688,0.118133544921875,6.2882934570312505
6.898000000000025,7.444805908203126,0.0366363525390625,6.386239624023438
6.908000000000016,7.500283813476563,-0.1478912353515625,6.309826660156251
6.918000000000006,7.468881225585938,-0.179144287109375,6.44859619140625
6.927999999999997,7.383944702148438,-0.1167877197265625,6.458316040039063
6.938000000000052,7.4651428222656255,-0.1303955078125,6.409567260742188
6.948000000000036,7.484881591796875,0.045159912109375,6.348556518554688
6.958000000000027,7.59703369140625,0.15850830078125,6.251058959960938
6.968999999999994,7.445254516601563,0.116339111328125,6.295770263671876
6.978000000000009,7.651763916015626,0.2998199462890625,6.245675659179688
6.989000000000033,7.577145385742188,0.425579833984375,6.38040771484375
6.999000000000024,7.462899780273438,0.220416259765625,6.478652954101563
7.009000000000015,7.429852294921876,0.156414794921875,6.37442626953125
7.019000000000013,7.403085327148438,-0.0234771728515625,6.38040771484375
7.028999999999996,7.5282470703125,-0.0586181640625,6.346762084960938
7.039000000000051,7.3822998046875,-0.05084228515625,6.291134643554688
7.051000000000052,7.559201049804688,-0.1927520751953125,6.327322387695313
7.059000000000026,7.528695678710938,-0.225201416015625,6.309078979492188
7.069000000000017,7.689297485351563,-0.20994873046875,6.249862670898438
7.079000000000008,7.562939453125001,0.045758056640625,6.2721435546875
7.088999999999999,7.519125366210938,0.0590667724609375,6.546093750000001
7.099000000000046,7.3245788574218755,0.111553955078125,6.543551635742188
7.109000000000037,7.353738403320313,0.2165283203125,6.286349487304688
7.119000000000028,7.483236694335938,0.1317413330078125,6.376071166992188
7.129000000000019,7.558004760742188,0.3273345947265625,6.427062988281251
7.14000000000005,7.569967651367188,0.2069580078125,6.226834106445313
7.1510000000000105,7.524060058593751,0.0707305908203125,6.144290161132813
7.160000000000025,7.606304931640626,0.143853759765625,6.272293090820313
7.170000000000016,7.386038208007813,-0.0330474853515625,6.463250732421876
7.180000000000007,7.345663452148438,-0.049346923828125,6.324780273437501
7.189999999999998,7.441964721679688,-0.1792938232421875,6.355734252929688
7.200000000000053,7.657147216796876,-0.189910888671875,6.439025878906251
7.210000000000036,7.6341186523437505,-0.1160400390625,6.41868896484375
7.220000000000027,7.546340942382813,0.04306640625,6.324032592773438
7.230000000000018,7.497293090820313,0.15970458984375,6.317752075195313
7.241000000000042,7.423721313476563,0.1428070068359375,6.362164306640626
7.251000000000033,7.346859741210938,0.157611083984375,6.213824462890625
7.260000000000048,7.381253051757813,0.23148193359375,6.201263427734376
7.271000000000015,7.425964355468751,0.0312530517578125,6.451437377929688
7.281000000000006,7.564584350585938,0.2121917724609375,6.4874755859375
7.290999999999997,7.604959106445313,0.1422088623046875,6.419287109375
7.301000000000052,7.601071166992188,0.00059814453125,6.461904907226563
7.311000000000043,7.568621826171875,0.0985443115234375,6.2927795410156255
7.321000000000026,7.523611450195313,-0.0369354248046875,6.249114990234376
7.331000000000017,7.377215576171875,0.0671417236328125,6.306536865234375
7.341000000000008,7.391421508789063,-0.0121124267578125,6.306387329101563
7.350999999999999,7.577593994140625,-0.0348419189453125,6.2242919921875
7.361000000000047,7.602267456054688,-0.037982177734375,6.305789184570313
7.371000000000038,7.590753173828125,-0.039178466796875,6.487924194335938
7.381000000000029,7.371682739257813,0.006878662109375,6.5200744628906255
7.3910000000000196,7.447796630859376,-0.0287109375,6.464447021484376
7.40100000000001,7.356130981445313,0.253912353515625,6.408969116210938
7.411000000000001,7.5129943847656255,0.1700225830078125,6.284255981445313
7.4220000000000255,7.526751708984375,0.006280517578125,6.201712036132813
7.432000000000016,7.619314575195313,0.0596649169921875,6.13516845703125
7.442000000000007,7.621856689453126,0.0701324462890625,6.317752075195313
7.451999999999998,7.443460083007813,0.073870849609375,6.500485229492188
7.462000000000046,7.538864135742188,0.184527587890625,6.335696411132813
7.472000000000037,7.485180664062501,0.0886749267578125,6.287994384765626
7.482000000000028,7.516134643554688,0.072674560546875,6.314163208007813
7.492000000000019,7.434936523437501,0.13218994140625,6.401940917968751
7.5020000000000095,7.38768310546875,0.0417205810546875,6.453530883789063
7.512,7.368542480468751,0.066094970703125,6.367248535156251
7.522000000000048,7.5593505859375005,-0.0025421142578125,6.295321655273438
7.532000000000039,7.605258178710938,0.0490478515625,6.325378417968751
7.54200000000003,7.554266357421875,-0.1595550537109375,6.499139404296876
7.552000000000021,7.395458984375001,-0.288006591796875,6.450839233398438
7.563000000000052,7.404132080078125,-0.189312744140625,6.275433349609376
7.573000000000036,7.481442260742188,-0.069085693359375,6.321041870117188
7.583000000000027,7.514639282226563,0.1646392822265625,6.294573974609375
7.593000000000018,7.551275634765625,-0.073870849609375,6.03348388671875
7.603000000000009,7.433441162109376,-0.0530853271484375,6.082681274414063
7.612999999999999,7.442861938476563,0.031103515625,6.447998046875001
7.623000000000047,7.338336181640625,-0.01854248046875,6.681423950195313
7.633000000000038,7.263717651367188,-0.1179840087890625,6.474017333984375
7.643000000000029,7.268502807617188,-0.2304351806640625,6.590805053710938
7.65300000000002,7.225137329101563,-0.26796875,6.681124877929688
7.663000000000011,7.455722045898438,-0.1040771484375,6.2793212890625005
7.673000000000002,7.6819702148437505,0.2767913818359375,6.000436401367188
7.68300000000005,7.853787231445313,0.243145751953125,5.897555541992188
7.694999999999986,7.882498168945313,0.1686767578125,6.036624145507813
7.704000000000008,7.690194702148438,0.2711090087890625,6.328518676757813
7.713999999999999,7.4935546875,0.352008056640625,6.667666625976563
7.724000000000046,7.103863525390626,0.24583740234375,6.754098510742188
7.734000000000037,7.237249755859375,0.215631103515625,6.4527832031250005
7.744000000000028,7.373776245117188,0.148638916015625,6.247918701171876
7.754000000000019,7.560397338867188,0.1072174072265625,6.202011108398438
7.76400000000001,7.855282592773438,0.187518310546875,6.166122436523438
7.774000000000001,7.798159790039063,-0.00657958984375,6.399548339843751
7.784000000000049,7.87218017578125,0.1882659912109375,6.459362792968751
7.79400000000004,7.838085937500001,0.258697509765625,6.376220703125001
7.805000000000007,7.915994262695313,0.275146484375,6.432595825195313
7.814000000000021,7.647427368164063,0.47432861328125,6.489868164062501
7.824000000000012,7.577444458007813,0.7390075683593751,6.372930908203125
7.834000000000003,7.535723876953125,1.0238739013671876,6.323883056640626
7.843999999999994,7.857077026367188,1.3444793701171875,6.566580200195313
7.855000000000018,8.071661376953125,1.4739776611328126,6.287844848632813
7.865000000000009,7.54918212890625,0.95045166015625,5.699270629882813
7.875,6.567028808593751,0.14176025390625,6.182122802734376
7.885000000000048,6.451885986328126,-0.5042358398437501,6.8200439453125
7.895000000000039,6.827520751953125,-1.1233154296875,6.0031280517578125
7.90500000000003,7.219155883789063,-1.3085906982421875,5.326776123046876
7.91500000000002,7.739990234375001,-1.0515380859375,6.007464599609375
7.925000000000011,7.728775024414063,-1.1868682861328126,6.912307739257813
7.935000000000002,7.512695312500001,-1.1874664306640623,7.252951049804688
7.944999999999986,7.578491210937501,-1.1580078125000002,7.0284973144531255
7.955000000000041,7.594342041015626,-1.0777069091796876,6.6112915039062505
7.965000000000032,7.393515014648438,-0.8260375976562501,5.891275024414063
7.975000000000016,7.2886901855468755,0.4777679443359375,5.301803588867188
7.986000000000047,7.224240112304688,1.1393157958984377,5.7593841552734375
7.996000000000038,7.0165344238281255,1.103875732421875,5.715420532226563
8.006000000000029,6.464447021484376,0.974676513671875,4.835101318359375
8.01600000000002,9.83828125,1.2386077880859376,6.544598388671876
8.02600000000001,11.178274536132813,1.465753173828125,8.165719604492189
8.036000000000001,6.114981079101563,1.23636474609375,5.481845092773438
8.04600000000005,4.816259765625,0.6135467529296875,6.6166748046875
8.05600000000004,6.904083251953126,-0.6584075927734375,11.5382080078125
8.066000000000031,7.521667480468751,-0.6754547119140626,8.662030029296876
8.076000000000022,7.006515502929688,-0.0336456298828125,1.320703125
8.08600000000002,8.139550781250001,-0.7349700927734375,5.7816650390625
8.09600000000001,10.58401794433594,-1.4961090087890625,8.03248291015625
8.105999999999995,6.065185546875,-0.9194976806640626,3.732421875
8.116000000000042,5.888583374023438,-0.5148529052734375,3.5591094970703128
8.126000000000033,8.767602539062501,-0.36845703125,8.010052490234376
8.137,8.903829956054688,0.06041259765625,10.532876586914064
8.147000000000048,5.302700805664063,0.6591552734375,4.687957763671875
8.157000000000039,6.518429565429688,0.9820037841796876,4.350753784179688
8.16700000000003,8.675637817382814,1.5607086181640626,9.470571899414065
8.177000000000021,7.36973876953125,1.1297454833984375,8.755490112304688
8.187000000000012,6.802548217773438,0.4882354736328125,2.913262939453125
8.197000000000003,7.450936889648438,-0.109759521484375,4.25400390625
8.206999999999994,9.4997314453125,-1.0733703613281251,5.896209716796875
8.217000000000041,8.539410400390626,-0.8788238525390626,7.824179077148438
8.228000000000009,5.321990966796875,-0.554180908203125,4.8920745849609375
8.237000000000016,6.015988159179688,-0.582891845703125,6.810174560546876
8.247000000000014,7.868441772460938,-0.747381591796875,11.084216308593753
8.257000000000012,8.522662353515626,-0.514404296875,9.19647216796875
8.266999999999996,7.505667114257813,0.27275390625,1.8606781005859376
8.27700000000005,8.081381225585938,0.067291259765625,4.381558227539063
8.288000000000011,9.041851806640626,-0.2591461181640625,6.957916259765626
8.298000000000002,6.419436645507813,0.109759521484375,6.862213134765626
8.30800000000005,5.596090698242188,0.7400543212890626,4.269705200195313
8.31800000000004,9.177780151367188,1.266571044921875,6.123056030273438
8.328000000000031,9.576144409179689,1.0238739013671876,8.544793701171876
8.338000000000022,6.899896240234376,0.274249267578125,5.47003173828125
8.34800000000002,7.066030883789063,0.59156494140625,4.219610595703125
8.358000000000011,7.971023559570313,-0.2803802490234375,7.244876098632813
8.367999999999995,6.7721923828125,-0.9591247558593752,8.4888671875
8.37800000000005,6.036325073242188,-0.5434143066406251,5.283859252929688
8.38800000000004,8.01334228515625,-0.612799072265625,5.139108276367188
8.398000000000025,8.385836791992189,-1.1011840820312502,7.385440063476563
8.408000000000015,6.6322265625000005,-0.93609619140625,7.091302490234376
8.418000000000006,5.7481689453125,-0.228790283203125,4.412661743164063
8.42900000000003,7.345663452148438,0.8933288574218751,4.967141723632813
8.439000000000021,10.261618041992188,1.4231353759765626,7.895059204101563
8.451000000000022,8.726629638671875,1.1961395263671877,6.714471435546876
8.459000000000003,5.475714111328125,0.6682769775390626,4.10386962890625
8.468999999999994,6.097933959960938,0.945068359375,6.8140625
8.479000000000042,7.97984619140625,0.4696929931640625,11.422018432617188
8.489000000000033,7.214071655273438,0.6299957275390625,7.300802612304688
8.499000000000024,7.235006713867188,0.7134368896484375,2.6454437255859378
8.509000000000015,8.817697143554689,0.15013427734375,7.046890258789063
8.519000000000013,9.484478759765626,-0.7686157226562501,7.681222534179688
8.528999999999996,5.873629760742188,-0.366064453125,6.223992919921876
8.539000000000051,6.431698608398438,-0.3321197509765625,3.617428588867188
8.551000000000052,9.563284301757813,-1.389190673828125,7.004122924804688
8.559000000000026,8.821734619140626,-1.4718841552734376,9.045590209960938
8.569999999999986,6.595590209960938,-0.4206451416015625,4.6254516601562505
8.579000000000008,7.799655151367188,0.213238525390625,3.2027648925781254
8.590000000000032,8.44281005859375,-0.2525665283203125,7.179827880859375
8.600000000000016,6.8056884765625005,-0.04486083984375,8.298059082031251
8.610000000000014,5.997445678710938,0.7198669433593751,4.720855712890625
8.620000000000012,8.17962646484375,1.0848846435546875,5.431301879882813
8.629999999999995,8.615673828125,1.4473602294921877,7.373626708984376
8.64000000000005,6.302798461914063,0.9797607421875,6.841876220703125
8.65100000000001,6.191543579101563,1.0702301025390626,5.275036621093751
8.660000000000025,7.77647705078125,0.6613983154296875,7.723690795898438
8.670000000000016,7.590902709960938,-1.0983428955078125,8.488418579101562
8.680000000000007,5.848358154296875,-0.7846160888671876,4.808633422851563
8.689999999999998,7.797860717773438,-1.006378173828125,4.643545532226563
8.700000000000053,10.347900390625,-1.1088104248046875,7.447796630859376
8.710000000000036,7.053170776367188,-1.184625244140625,6.6097961425781255
8.720000000000027,4.431353759765625,-0.503936767578125,4.683920288085938
8.730999999999995,6.463998413085938,-0.201873779296875,7.677035522460938
8.741000000000042,9.355728149414062,-0.01734619140625,9.764410400390624
8.751000000000033,8.348452758789064,0.528759765625,3.973175048828125
8.761000000000024,7.748214721679688,0.313427734375,3.610101318359375
8.771000000000015,8.859118652343751,0.7647277832031251,7.518078613281251
8.781000000000006,7.499237060546876,0.6960906982421875,9.448141479492188
8.790999999999997,5.6183715820312505,0.7807281494140625,5.098583984375001
8.801000000000052,7.503424072265625,0.9244323730468752,4.7615295410156255
8.811000000000043,9.626089477539065,1.205560302734375,7.5025268554687505
8.821000000000026,8.214468383789063,0.6539215087890625,6.511700439453126
8.831000000000017,7.098031616210938,0.265576171875,3.759637451171875
8.841000000000008,7.990164184570313,-0.3868499755859375,5.647830200195313
8.850999999999999,7.46065673828125,-0.8818145751953126,8.697320556640626
8.862000000000016,6.073410034179688,-0.587078857421875,6.3645568847656255
8.872000000000014,7.159790039062501,-0.6581085205078125,4.823287963867188
8.882000000000012,8.571261596679689,-1.1542694091796877,6.571365356445313
8.891999999999996,7.665371704101563,-1.3947235107421876,7.364804077148438
8.90200000000005,6.733013916015626,-0.485992431640625,5.084378051757813
8.912000000000042,7.220053100585938,1.5328948974609375,6.279620361328125
8.922000000000025,7.148574829101563,0.938787841796875,9.352438354492188
8.932000000000016,6.864157104492188,0.9302642822265624,6.897653198242188
8.942000000000007,5.2579895019531255,1.088922119140625,3.0964447021484376
8.951999999999998,8.047586059570314,0.7885040283203125,4.386044311523438
8.962000000000046,10.878005981445312,1.120025634765625,7.703353881835938
8.972000000000037,6.206048583984376,-0.1888641357421875,6.5604492187500005
8.982000000000028,4.940075683593751,0.39298095703125,4.661788940429688
8.992000000000019,7.6715026855468755,-0.107666015625,9.645230102539063
9.00300000000005,9.602313232421876,-1.280328369140625,11.656939697265626
9.01300000000004,7.213024902343751,-0.334661865234375,4.684518432617188
9.023000000000025,7.398001098632813,-0.0237762451171875,3.3659088134765627
9.033000000000015,9.853085327148438,-0.9932189941406252,7.42117919921875
9.043000000000006,7.636959838867188,-0.9380401611328124,7.321139526367188
9.052999999999995,4.697079467773438,0.1888641357421875,3.9326507568359377
9.063000000000052,7.847058105468751,0.6371734619140625,4.416400146484375
9.073000000000036,10.624093627929687,-0.5211334228515625,9.639547729492188
9.083000000000029,8.381500244140625,0.422589111328125,7.369589233398438
9.093000000000018,7.293325805664063,0.7364654541015625,2.452093505859376
9.103000000000009,8.768499755859375,0.849066162109375,4.81326904296875
9.113,8.076446533203125,0.647491455078125,7.710531616210938
9.123000000000047,4.494757080078125,-0.114544677734375,5.813067626953125
9.133000000000038,5.3870391845703125,0.5236755371093751,4.732968139648438
9.143000000000027,8.680123901367189,-0.30804443359375,7.554266357421875
9.153999999999996,8.498437500000001,-1.3426849365234377,8.273834228515625
9.164000000000051,6.608898925781251,-0.275146484375,4.877120971679688
9.174000000000042,7.33145751953125,0.1598541259765625,5.8199462890625
9.184000000000026,7.807131958007813,-0.674407958984375,9.846804809570314
9.194000000000017,6.4228759765625005,-0.5467041015625,8.75982666015625
9.204000000000008,6.44261474609375,-0.13936767578125,4.426419067382813
9.214,7.89969482421875,0.3037078857421875,4.87786865234375
9.224000000000046,7.970425415039063,0.2217620849609375,5.66741943359375
9.234000000000036,7.773037719726563,0.3859527587890625,4.934094238281251
9.244000000000028,7.322036743164063,0.8049530029296875,4.501486206054688
9.25400000000002,6.6950317382812505,0.6809875488281251,6.883746337890625
9.26400000000001,7.138555908203125,0.452197265625,8.719750976562501
9.274,7.837338256835938,0.548797607421875,8.648123168945313
9.285000000000023,8.473165893554688,0.3225494384765625,6.483587646484375
9.295000000000016,8.137457275390625,-0.1401153564453125,5.106210327148438
9.305000000000009,7.685708618164063,-0.9102264404296876,5.641400146484376
9.314999999999998,7.202407836914063,-1.1216705322265623,7.390972900390626
9.325000000000053,6.869989013671876,-0.1591064453125,6.602468872070313
9.335000000000036,7.58267822265625,0.2824737548828125,4.661788940429688
9.345000000000027,8.492904663085938,-0.7454376220703125,6.11064453125
9.355000000000018,8.515185546875001,0.0557769775390625,7.691241455078125
9.367999999999997,7.981491088867188,1.103875732421875,5.866452026367188
9.375,7.837637329101563,0.8243927001953125,5.16796875
9.385000000000048,7.563238525390625,-0.1589569091796875,6.9396728515625
9.39500000000004,6.970626831054688,0.0979461669921875,6.494354248046876
9.40500000000003,6.861465454101563,0.7636810302734376,4.592254638671875
9.41500000000002,7.709185791015625,0.1786956787109375,5.662335205078126
9.425000000000011,7.380654907226563,-0.7209136962890625,7.549929809570313
9.435000000000002,7.204949951171876,-0.7105957031250001,6.735107421875001
9.446000000000026,7.5728088378906255,-0.154022216796875,5.90069580078125
9.456000000000016,7.658193969726563,-0.1332366943359375,7.529891967773438
9.46700000000004,6.920980834960938,-0.2510711669921875,8.129232788085938
9.476,6.658096313476563,0.1093109130859375,6.171804809570313
9.486000000000049,6.705200195312501,0.5480499267578125,4.886691284179688
9.496000000000038,6.069522094726563,0.7559051513671875,4.632928466796876
9.506000000000029,8.556158447265625,0.7841674804687501,5.377468872070313
9.51600000000002,9.178826904296876,0.8085418701171876,6.546243286132813
9.52600000000001,6.288143920898438,0.3240447998046875,6.179580688476563
9.536,6.309677124023438,0.4732818603515625,7.100424194335938
9.54600000000005,8.547335815429689,-0.5289093017578126,10.874267578125
9.55600000000004,8.434585571289062,-0.6081634521484376,8.972467041015626
9.56800000000004,7.174444580078125,0.305352783203125,2.9490020751953128
9.576000000000022,8.113381958007814,0.011962890625,5.074658203125001
9.587000000000046,9.3274658203125,-0.89661865234375,6.919784545898438
9.597000000000037,5.97366943359375,-0.3739898681640625,6.417193603515625
9.607000000000028,5.6108947753906255,0.34512939453125,3.850704956054688
9.61700000000002,9.363653564453124,-0.375933837890625,6.657049560546875
9.62700000000001,10.008453369140623,-1.2812255859375,10.0667724609375
9.637,7.597930908203126,0.191705322265625,5.5998291015625
9.647000000000048,7.330261230468751,0.5685363769531251,3.1593994140625004
9.65700000000004,8.564083862304688,0.6252105712890625,5.582333374023438
9.668000000000006,6.69742431640625,-0.19559326171875,7.551126098632813
9.67700000000002,5.121612548828125,0.226995849609375,4.788595581054688
9.687000000000012,7.572210693359375,0.8321685791015626,4.673751831054688
9.697000000000005,9.252847290039064,0.2627349853515625,7.22379150390625
9.706999999999994,7.368542480468751,-0.3043060302734375,7.933789062500001
9.718000000000018,6.393566894531251,0.7430450439453126,5.272195434570313
9.728000000000009,7.348056030273438,0.380718994140625,7.607949829101563
9.738,7.248464965820313,-0.432159423828125,9.475207519531253
9.748000000000047,6.418539428710938,-0.229388427734375,6.987673950195313
9.758000000000038,6.755145263671875,-0.0046356201171875,4.270602416992188
9.768000000000027,7.663278198242188,-0.0348419189453125,5.103817749023438
9.77800000000002,7.387982177734376,-0.8284301757812501,6.008062744140625
9.788000000000013,8.308078002929689,0.079254150390625,5.296270751953125
9.798000000000002,7.842123413085938,0.3276336669921875,5.913555908203126
9.80800000000005,6.029147338867188,-0.237164306640625,7.332354736328125
9.81800000000004,6.646731567382813,0.6323883056640626,8.030538940429688
9.828000000000031,8.130130004882814,0.3871490478515625,8.990859985351562
9.838000000000022,8.703302001953126,0.233575439453125,5.937631225585938
9.84800000000002,7.994949340820313,0.22430419921875,3.740646362304688
9.859000000000036,7.97685546875,-0.4533935546875,4.8153625488281255
9.869000000000028,7.660885620117188,-0.672314453125,8.150466918945312
9.87900000000002,6.387734985351563,0.44322509765625,7.105508422851563
9.88900000000001,7.226483154296876,0.8653656005859376,4.774688720703125
9.899,9.175686645507811,-0.4867401123046875,6.236553955078126
9.909000000000049,8.687600708007814,-0.9615173339843752,8.945999145507812
9.91900000000004,7.216464233398438,0.9640594482421876,5.563641357421876
9.92900000000003,7.150518798828125,0.6162384033203125,4.676443481445313
9.93900000000002,7.481292724609376,-0.34931640625,7.7770751953125
9.949000000000012,7.304541015625,-0.16688232421875,7.102368164062501
9.959000000000003,7.613632202148438,0.440234375,3.939230346679688
9.968999999999994,8.946298217773439,0.376531982421875,4.331463623046876
9.979000000000042,7.994201660156251,0.0174957275390625,6.247470092773438
9.989000000000033,6.0161376953125005,-0.4643096923828125,6.444708251953125
9.999000000000024,6.20335693359375,-0.1290496826171875,6.710433959960938
10.009000000000016,7.762869262695313,0.42049560546875,8.297012329101562
10.019000000000013,8.07794189453125,-0.1490875244140625,7.446600341796875
10.03000000000003,6.991860961914063,-0.2917449951171875,5.76431884765625
10.04000000000002,6.779071044921875,0.4287200927734375,6.091952514648438
10.050000000000011,6.835745239257813,0.4198974609375,7.66043701171875
10.060000000000002,5.877218627929688,0.2803802490234375,6.179730224609376
10.069999999999986,7.30992431640625,0.3210540771484375,4.288845825195313
10.08000000000004,9.32327880859375,0.316119384765625,5.325729370117188
10.090000000000032,7.9660888671875005,-0.2483795166015625,6.3466125488281255
10.100000000000016,5.793328857421876,-0.045159912109375,6.695330810546875
10.110000000000014,7.036721801757813,0.4490570068359375,8.565130615234375
10.120000000000012,9.503619384765626,-0.7255493164062501,10.095034790039064
10.129999999999995,9.013140869140626,0.2115936279296875,5.032788085937501
10.14000000000005,7.629931640625,0.2157806396484375,3.5643432617187503
10.15100000000001,7.816104125976563,-0.2468841552734375,5.831011962890625
10.161,6.713873291015625,-0.3180633544921875,7.726382446289063
10.17100000000005,5.100677490234375,0.112750244140625,5.379263305664063
10.18100000000004,7.809225463867188,0.16090087890625,5.424722290039063
10.191000000000033,10.278665161132814,-0.768017578125,8.251852416992188
10.201000000000022,9.240884399414064,0.3757843017578125,7.3200927734375005
10.21100000000002,7.495648193359376,0.6105560302734375,4.2052551269531255
10.22100000000001,7.901788330078125,0.4894317626953125,4.798913574218751
10.230999999999996,7.346859741210938,-0.0477020263671875,7.450189208984375
10.241000000000042,5.8127685546875005,0.1064697265625,6.392819213867188
10.251000000000031,6.634918212890626,0.6192291259765625,3.7938812255859378
10.261000000000024,8.525503540039063,0.1607513427734375,5.204306030273438
10.271000000000017,8.112185668945314,-0.8025604248046876,7.837936401367188
10.281000000000006,6.679629516601563,0.1311431884765625,6.853839111328125
10.29200000000003,6.554766845703125,0.5307037353515626,7.069619750976563
10.301000000000052,7.072760009765625,-0.384307861328125,8.760723876953126
10.312000000000012,6.236553955078126,-0.51859130859375,7.497442626953125
10.322000000000005,5.897705078125,-0.4197479248046875,4.8246337890625
10.331999999999994,8.663824462890625,-0.215032958984375,5.422030639648438
10.34200000000004,8.666964721679689,-0.5150024414062501,6.570767211914063
10.352000000000032,5.771945190429688,0.37862548828125,5.738299560546875
10.362000000000016,6.676788330078126,1.17056884765625,5.926565551757813
10.372000000000014,10.034173583984376,0.8409912109375001,8.957363891601563
10.382000000000012,9.430197143554688,0.0734222412109375,5.832955932617188
10.391999999999996,7.069021606445313,0.1344329833984375,3.223699951171876
10.40200000000005,7.2886901855468755,-0.3754852294921875,5.444012451171876
10.412000000000042,7.371981811523438,-0.4777679443359375,9.610687255859377
10.422000000000024,5.653811645507813,0.2002288818359375,7.467236328125001
10.432000000000016,6.810623168945313,0.8444305419921876,5.1507720947265625
10.442000000000007,9.646575927734377,-0.0725250244140625,7.268203735351563
10.453000000000031,9.507955932617188,-0.8299255371093751,7.826272583007813
10.463000000000022,6.851895141601563,0.278436279296875,4.669415283203126
10.47300000000002,6.740789794921875,0.5674896240234375,4.831063842773438
10.483000000000011,7.595239257812499,-0.2489776611328125,8.218206787109375
10.492999999999997,7.569070434570313,-0.38759765625,6.589309692382813
10.50300000000005,7.904180908203125,0.35948486328125,3.5344360351562503
10.51300000000004,9.35438232421875,0.21114501953125,4.250714111328126
10.523000000000025,8.565878295898438,-0.2328277587890625,5.7051025390625005
10.533000000000015,5.439077758789063,-0.3946258544921875,6.19498291015625
10.543000000000006,5.856283569335938,-0.1493865966796875,6.697274780273438
10.55400000000003,7.639352416992188,-0.099591064453125,9.0403564453125
10.563000000000052,8.037716674804688,-0.1471435546875,7.978201293945313
10.573000000000036,7.073059082031251,0.0203369140625,5.032339477539063
10.584000000000003,6.891073608398438,0.3210540771484375,6.409417724609376
10.593999999999994,6.813912963867188,0.328082275390625,8.538214111328125
10.604000000000042,6.587814331054688,0.627752685546875,6.737649536132813
10.614000000000033,6.173599243164063,0.6162384033203125,4.063494873046875
10.624000000000024,7.920330810546876,0.2549591064453125,4.653115844726563
10.634000000000016,8.043698120117188,0.53533935546875,5.574407958984375
10.644000000000013,6.203207397460938,0.582891845703125,6.481643676757813
10.653999999999996,8.589953613281251,0.0692352294921875,8.025454711914064
10.664000000000051,10.563531494140626,-0.7768402099609376,8.406024169921876
10.674000000000042,9.036468505859377,-0.9637603759765626,6.659591674804688
10.684000000000026,6.994702148437501,0.0886749267578125,4.938131713867188
10.694000000000017,6.512298583984376,0.0109161376953125,6.7219482421875005
10.704000000000008,6.028250122070313,-0.4222900390625,7.540658569335938
10.714,5.791085815429688,-0.074468994140625,5.807833862304688
10.724000000000046,8.047885131835939,0.1858734130859375,4.890280151367188
10.734000000000036,10.14273681640625,-0.1673309326171875,6.134420776367188
10.745000000000012,9.326568603515623,-0.040673828125,7.392468261718751
10.754999999999995,7.385440063476563,0.9604705810546876,6.807034301757813
10.766999999999996,7.329962158203125,0.6092102050781251,5.797515869140625
10.77500000000004,7.64249267578125,-0.24105224609375,6.587664794921875
10.785000000000023,7.176986694335938,0.3856536865234375,5.261129760742188
10.795000000000016,6.954327392578126,0.66094970703125,3.5463989257812503
10.805000000000009,7.64189453125,0.1425079345703125,4.469186401367188
10.814999999999998,7.37930908203125,-0.45518798828125,7.181173706054688
10.825000000000053,6.7892395019531255,-0.15491943359375,7.641445922851563
10.835000000000036,7.045394897460938,0.317315673828125,7.507162475585938
10.845000000000027,7.578341674804688,-0.1849761962890625,8.297311401367189
10.855000000000018,7.154855346679688,-0.6072662353515625,8.065231323242188
10.867999999999997,5.782711791992188,-0.478814697265625,5.857778930664063
10.876000000000031,6.993804931640626,-0.1308441162109375,4.876373291015625
10.885000000000048,7.546939086914063,-0.0203369140625,6.24283447265625
10.896000000000017,6.32896728515625,0.0246734619140625,6.116326904296876
10.906000000000006,7.042404174804688,0.6929504394531251,4.725790405273438
10.915999999999997,9.816299438476562,0.7165771484375001,6.660787963867188
10.926000000000052,10.425958251953126,-0.3240447998046875,7.574752807617188
10.936000000000044,8.080783081054689,0.11783447265625,5.105014038085938
10.946000000000026,6.5514770507812505,-0.17764892578125,6.229974365234376
10.956000000000016,6.75963134765625,-0.5381805419921876,9.13067626953125
10.96700000000004,6.186459350585938,-0.0243743896484375,7.9107604980468755
10.976,6.128140258789063,0.7702606201171875,5.125650024414063
10.986000000000049,8.7412841796875,0.268865966796875,5.129388427734376
10.996000000000038,10.0021728515625,-0.3037078857421875,6.8894287109375005
11.006000000000029,7.955770874023438,0.3114837646484375,5.956622314453125
11.01600000000002,6.958963012695313,0.9694427490234376,5.301504516601563
11.02600000000001,7.548583984375001,0.20516357421875,7.55516357421875
11.036,7.960855102539063,-0.6631927490234375,7.324279785156251
11.047000000000024,7.340878295898438,0.3037078857421875,4.004428100585938
11.057000000000016,7.985678100585938,0.2260986328125,3.7469268798828126
11.06800000000004,8.018576049804688,-0.4523468017578125,5.937033081054688
11.076999999999998,6.388183593750001,-0.6108551025390625,6.92412109375
11.087000000000046,5.929855346679688,-0.4176544189453125,6.542056274414063
11.097000000000037,7.545593261718751,-0.60113525390625,8.017379760742188
11.107000000000028,8.161233520507814,-0.5722747802734376,8.728424072265625
11.11700000000002,7.129882812500001,0.265277099609375,6.670208740234376
11.12700000000001,6.941467285156251,0.669921875,5.600576782226563
11.137,7.122854614257813,0.8208038330078126,6.883746337890625
11.147000000000048,6.495401000976563,0.6865203857421875,6.135617065429688
11.15700000000004,6.538616943359376,0.561956787109375,4.182376098632813
11.168000000000006,7.975958251953125,0.5030395507812501,4.608105468750001
11.17700000000002,8.185009765625,0.7248016357421876,5.668017578125
11.188000000000052,6.448745727539063,0.171368408203125,7.216015625000001
11.198000000000036,7.840777587890625,-0.094805908203125,8.405276489257814
11.208000000000029,9.99320068359375,-1.0418182373046876,9.404476928710938
11.218000000000018,8.762069702148438,-0.9634613037109376,6.677386474609375
11.228000000000009,7.061993408203126,0.051141357421875,4.079046630859375
11.238,6.551925659179688,-0.416009521484375,6.412258911132813
11.248000000000047,6.707443237304688,-0.2735015869140625,8.421127319335938
11.258000000000038,6.122158813476563,0.53533935546875,4.92930908203125
11.268000000000027,8.095587158203125,0.4302154541015625,3.775338745117188
11.27800000000002,10.090997314453126,0.3004180908203125,6.490017700195313
11.288000000000013,9.018972778320313,0.4003082275390625,8.538961791992188
11.298000000000002,7.265362548828126,1.0697814941406252,5.664129638671875
11.30800000000005,7.491610717773438,0.8246917724609376,5.2793731689453125
11.319999999999986,7.563537597656251,-0.5426666259765626,7.892068481445313
11.329000000000008,6.585421752929688,0.0617584228515625,5.643045043945313
11.339,6.806286621093751,0.3614288330078125,3.1803344726562504
11.349000000000046,7.853936767578125,-0.3976165771484375,5.06688232421875
11.359000000000036,7.420132446289063,-0.834112548828125,7.728924560546876
11.369000000000028,6.75364990234375,-0.5962005615234376,6.950588989257813
11.37900000000002,7.341326904296875,-0.1804901123046875,6.884344482421875
11.38900000000001,7.863058471679688,-0.06400146484375,8.588308715820313
11.399,7.211380004882813,-0.390887451171875,7.929153442382813
11.409000000000049,6.057110595703126,-0.17047119140625,4.766165161132813
11.41900000000004,7.014141845703126,0.4275238037109375,4.744781494140625
11.42900000000003,8.215216064453125,0.768316650390625,7.188650512695313
11.43900000000002,6.842474365234375,0.18721923828125,6.840231323242188
11.449000000000012,6.1910949707031255,0.6163879394531251,4.7193603515625
11.459000000000003,7.885787963867188,0.7273437500000001,6.8702880859375
11.470000000000027,9.707138061523438,-0.303857421875,8.585317993164063
11.480000000000018,8.280862426757814,-0.0142059326171875,5.220904541015625
11.490000000000007,7.099676513671875,-0.2355194091796875,3.903192138671875
11.5,7.314859008789063,-0.8082427978515626,7.031188964843751
11.510000000000048,6.714920043945313,-0.4562347412109375,9.0451416015625
11.52000000000004,6.271395874023438,0.4701416015625,6.576898193359376
11.53000000000003,8.078540039062501,0.6335845947265626,4.91734619140625
11.54000000000002,9.80059814453125,-0.393878173828125,6.482241821289063
11.550000000000011,8.328265380859376,-0.4335052490234375,7.364654541015626
11.560000000000002,6.607254028320313,0.9084320068359376,5.809478759765625
11.569999999999986,6.925765991210938,0.9244323730468752,6.097186279296875
11.58000000000004,7.501181030273438,0.0722259521484375,7.668362426757813
11.591000000000008,7.766906738281251,-0.029010009765625,5.661138916015625
11.601,8.207440185546876,0.4269256591796875,4.237704467773438
11.611000000000049,9.20484619140625,0.27335205078125,4.522122192382813
11.621000000000038,7.706045532226563,-0.5164978027343751,6.177337646484376
11.631000000000029,5.844769287109376,-0.4749267578125,6.254348754882813
11.64100000000002,6.23984375,-0.37982177734375,6.949990844726563
11.65100000000001,7.885937500000001,-0.6368743896484376,8.377911376953126
11.661,8.233160400390625,-0.6963897705078126,6.678582763671876
11.67100000000005,7.356130981445313,0.0880767822265625,4.850653076171875
11.684000000000026,6.58377685546875,-0.0369354248046875,6.802996826171875
11.691000000000033,6.5619445800781255,0.5147033691406251,8.453875732421876
11.701000000000022,6.875970458984376,0.9727325439453126,6.844866943359375
11.71100000000002,5.590557861328126,0.84876708984375,3.9351928710937503
11.72100000000001,6.443212890625,0.5405731201171875,3.8987060546875
11.730999999999996,9.140695190429687,0.80869140625,6.96060791015625
11.741000000000042,9.688595581054688,0.186322021484375,8.264114379882812
11.75200000000001,8.817098999023438,0.36068115234375,5.690597534179688
11.762,8.287890625000001,-0.2151824951171875,7.383645629882813
11.772000000000048,7.94754638671875,-0.93848876953125,9.966583251953123
11.784000000000049,5.9851837158203125,-0.0061309814453125,5.72783203125
11.79200000000003,5.701962280273438,0.22310791015625,2.75325927734375
11.80200000000002,7.478152465820313,-0.419000244140625,6.079391479492188
11.812000000000012,7.592846679687501,-0.8617767333984375,8.395706176757812
11.822000000000005,6.990216064453126,-0.3192596435546875,5.61358642578125
11.831999999999994,9.25015563964844,0.09749755859375,5.235708618164063
11.84200000000004,9.8394775390625,-0.5733215332031251,9.350045776367187
11.852000000000032,8.140298461914064,0.2732025146484375,8.08212890625
11.862000000000016,6.4796997070312505,0.5972473144531251,3.1637359619140626
11.872000000000014,7.375570678710938,0.6359771728515625,4.076953125
11.884000000000016,7.469180297851563,0.4272247314453125,7.138107299804688
11.893000000000027,6.335098266601563,0.0521881103515625,5.543902587890625
11.90300000000002,7.410861206054688,0.5504425048828125,3.701467895507813
11.913000000000013,9.033029174804687,0.6447998046875001,6.848306274414063
11.923000000000002,7.994949340820313,-0.52935791015625,8.735302734375
11.93300000000005,6.657199096679688,-0.3680084228515625,6.837240600585938
11.94300000000004,7.011300659179688,0.0070281982421875,6.319097900390625
11.953000000000031,7.571762084960938,-0.619976806640625,7.312765502929688
11.963000000000022,6.672003173828125,-0.646893310546875,6.042156982421876
11.97300000000002,6.60172119140625,0.222808837890625,4.908224487304688
11.984000000000036,7.2531005859375,0.304156494140625,6.3346496582031255
11.992999999999997,7.631576538085938,-0.283221435546875,7.528695678710938
12.00300000000005,7.599874877929688,0.26856689453125,6.875222778320313
12.01300000000004,7.097882080078126,0.414813232421875,5.82891845703125
12.023000000000025,7.026553344726563,0.2133880615234375,5.553323364257813
12.033000000000015,7.7776733398437505,0.3967193603515625,7.143191528320313
12.04400000000004,7.189846801757813,0.1134979248046875,7.350598144531251
12.05400000000003,6.733163452148438,0.685772705078125,5.148977661132813
12.06400000000002,8.147476196289062,0.683380126953125,6.448895263671876
12.074000000000012,9.410607910156251,-0.4400848388671875,8.502474975585939
12.084000000000003,7.662081909179688,0.12261962890625,4.742987060546875
12.093999999999994,6.827221679687501,-0.2708099365234375,3.48179931640625
12.104000000000042,7.248464965820313,-0.9936676025390626,7.505368041992188
12.114000000000033,7.009207153320313,-0.6425567626953126,9.448440551757812
12.124000000000024,6.5484863281250005,0.14176025390625,6.516784667968751
12.134000000000016,8.471969604492188,0.09271240234375,4.999591064453125
12.144000000000013,9.650164794921876,-0.5528350830078126,7.04075927734375
12.153999999999996,7.91165771484375,0.44681396484375,7.054367065429688
12.164000000000051,6.708041381835938,0.8004669189453125,4.8621673583984375
12.174000000000042,7.169509887695313,0.9017028808593752,5.8797607421875
12.185000000000002,7.842721557617188,1.0101165771484375,7.276278686523438
12.194999999999986,7.844515991210938,0.319110107421875,5.268008422851563
12.20500000000004,8.22747802734375,0.2199676513671875,4.418643188476563
12.215000000000032,8.947943115234375,0.0731231689453125,5.43533935546875
12.225000000000016,7.3224853515625,-0.6279022216796876,6.911410522460938
12.235000000000014,6.00596923828125,-0.6572113037109375,6.321041870117188
12.245000000000012,6.457867431640626,-0.6989318847656251,7.076797485351563
12.254999999999995,7.939471435546875,-0.7768402099609376,7.54619140625
12.26500000000005,7.779766845703126,-0.6210235595703125,5.7489166259765625
12.27500000000004,6.847109985351563,-0.2830718994140625,5.6620361328125
12.285000000000023,6.5329345703125,0.179742431640625,7.576397705078126
12.295000000000016,6.917391967773438,0.3742889404296875,8.018875122070312
12.30600000000004,7.145584106445313,0.8874969482421876,6.717611694335938
12.314999999999998,7.974163818359376,0.8955718994140626,5.299411010742188
12.326000000000022,5.857928466796875,0.5864807128906251,4.020877075195313
12.33600000000002,5.365206909179688,0.6147430419921875,4.2719482421875
12.34600000000001,7.858871459960938,1.1210723876953126,7.734906005859376
12.355999999999996,10.245169067382813,0.4296173095703125,7.750607299804688
12.366000000000042,10.8419677734375,-0.176153564453125,5.8666015625000005
12.376000000000031,9.445748901367187,-0.9292175292968752,6.857727050781251
12.386000000000024,6.985580444335938,-0.7660736083984375,9.304885864257812
12.396000000000017,4.865457153320313,0.066094970703125,6.315808105468751
12.406000000000006,4.886691284179688,-0.08074951171875,4.99271240234375
12.415999999999997,7.473965454101563,-0.4729827880859375,6.872232055664063
12.426000000000052,8.452978515625,0.09271240234375,6.293377685546876
12.436000000000044,8.775228881835938,0.0375335693359375,4.9768615722656255
12.446000000000026,9.721942138671876,-0.1930511474609375,6.025408935546875
12.456000000000016,8.774032592773438,-0.5644989013671875,7.816702270507813
12.466000000000008,6.665274047851563,0.0429168701171875,7.843768310546875
12.477000000000032,7.066030883789063,0.4855438232421875,5.083929443359375
12.487000000000016,8.08033447265625,0.4744781494140625,4.909719848632813
12.497000000000014,7.253399658203126,0.615789794921875,4.439578247070313
12.507000000000012,5.905181884765625,0.262286376953125,4.366604614257813
12.516999999999996,6.47850341796875,0.7484283447265625,6.115429687500001
12.52700000000005,7.783804321289063,0.39716796875,7.85184326171875
12.537000000000042,8.0881103515625,-0.38699951171875,7.39964599609375
12.547000000000024,7.966238403320313,-0.043963623046875,7.46962890625
12.557000000000016,7.558602905273438,-0.0805999755859375,8.382696533203125
12.567000000000007,6.518878173828125,-0.535040283203125,7.3096252441406255
12.576999999999998,5.594146728515625,-0.5999389648437501,5.5690246582031255
12.587000000000046,6.128887939453126,-0.676800537109375,4.796820068359375
12.597000000000037,7.869937133789063,-0.36068115234375,4.5279541015625
12.608000000000011,7.6101928710937505,-0.2112945556640625,4.895065307617188
12.617999999999997,7.302447509765625,0.337054443359375,6.339584350585938
12.62800000000005,8.742181396484376,1.0436126708984377,7.668063354492188
12.63800000000004,9.932489013671876,0.5227783203125,8.445352172851564
12.648000000000025,8.243927001953125,0.221612548828125,6.962252807617188
12.658000000000015,6.587066650390626,0.5982940673828125,5.894265747070313
12.668000000000006,6.1501220703125,-0.220416259765625,7.50731201171875
12.677999999999995,6.367098999023438,-0.378326416015625,7.521966552734375
12.688000000000052,6.550430297851563,0.430963134765625,5.277429199218751
12.698000000000036,8.55167236328125,0.3584381103515625,4.459765625
12.708000000000029,10.107296752929688,-0.354998779296875,5.847909545898438
12.718000000000018,8.709732055664062,-0.1128997802734375,7.787841796875001
12.728000000000009,7.276278686523438,0.7662231445312501,6.302349853515626
12.738,7.311569213867188,-0.204864501953125,6.211880493164063
12.748000000000047,7.626043701171875,-0.8936279296875,7.011599731445313
12.758000000000038,7.167416381835938,0.09869384765625,5.006170654296875
12.768000000000027,7.319195556640626,0.4541412353515625,3.396563720703125
12.778999999999996,7.736251831054688,-0.5641998291015625,5.614483642578126
12.789000000000051,7.020721435546876,-0.5959014892578125,7.51748046875
12.799000000000042,6.478353881835938,-0.2035186767578125,7.1107421875000005
12.809000000000026,7.483535766601563,0.242547607421875,6.9312988281250005
12.819000000000017,8.179925537109376,0.119329833984375,8.035174560546876
12.829000000000008,7.296466064453125,0.213238525390625,7.678530883789063
12.839,6.506466674804688,0.7526153564453125,5.9099670410156255
12.849000000000046,6.900344848632813,0.760540771484375,5.943911743164063
12.859000000000036,7.121957397460938,0.3832611083984375,6.695779418945313
12.869000000000028,6.355734252929688,0.5834899902343751,4.81865234375
12.87900000000002,7.598080444335938,0.3979156494140625,4.043307495117188
12.88900000000001,8.168710327148439,0.49945068359375,5.220156860351563
12.90000000000004,6.445156860351563,-0.303558349609375,7.698419189453125
12.910000000000023,7.476058959960938,-0.6226684570312501,8.437725830078126
12.920000000000016,10.054959106445311,-0.932806396484375,8.200711059570313
12.930000000000009,10.048678588867189,-0.8507110595703126,6.917840576171876
12.939999999999998,7.440618896484375,-0.1831817626953125,5.087069702148438
12.950000000000053,6.05980224609375,0.6884643554687501,5.4468536376953125
12.960000000000036,5.52506103515625,0.2827728271484375,7.2961669921875005
12.970000000000027,5.765515136718751,0.2284912109375,6.634320068359376
12.980000000000018,7.584472656250001,0.7902984619140626,5.19847412109375
12.990000000000007,10.233804321289064,0.241949462890625,5.816806030273438
13.0,10.228271484375,-0.1347320556640625,7.254147338867188
13.010000000000048,7.399197387695313,0.4646087646484375,7.962200927734376
13.02000000000004,6.176589965820313,0.284417724609375,6.682620239257813
13.03000000000003,6.927261352539063,-0.6630432128906251,6.290985107421876
13.04000000000002,7.593594360351563,-0.7098480224609376,5.707943725585938
13.051000000000052,7.592547607421875,0.043963623046875,4.140057373046876
13.061000000000044,8.318695068359375,0.1232177734375,3.7325714111328128
13.071000000000026,8.46912841796875,-0.40494384765625,5.6412506103515625
13.083000000000029,6.977355957031251,-0.2477813720703125,7.1376586914062505
13.091000000000008,6.508560180664063,0.20037841796875,7.132574462890625
13.101,7.213323974609375,0.38819580078125,8.07435302734375
13.111000000000049,8.1909912109375,0.1383209228515625,7.56533203125
13.121000000000038,7.235006713867188,0.354400634765625,5.4060302734375005
13.131000000000029,6.519177246093751,0.426776123046875,5.314065551757813
13.14100000000002,6.659442138671875,0.33675537109375,7.243978881835938
13.15100000000001,6.776229858398438,0.205462646484375,7.557406616210938
13.161,7.020272827148438,-0.088226318359375,5.7578887939453125
13.17100000000005,6.956271362304688,-0.39178466796875,4.700369262695313
13.18300000000005,8.458810424804689,-0.4074859619140625,5.9563232421875005
13.192000000000007,8.490362548828125,-0.3904388427734375,7.768402099609376
13.201999999999998,6.829165649414063,-0.0669921875,6.938027954101563
13.212000000000046,7.104013061523438,0.6950439453125,5.493508911132813
13.222000000000037,8.40333251953125,-0.064300537109375,8.199365234375001
13.232000000000028,8.679376220703126,-0.2319305419921875,6.938476562500001
13.24200000000002,6.851296997070313,0.3114837646484375,3.27843017578125
13.25200000000001,7.072610473632813,-0.11903076171875,4.1427490234375
13.262,7.524209594726563,-0.548199462890625,8.772537231445312
13.272000000000048,6.872830200195313,0.139666748046875,8.884539794921876
13.283000000000015,7.282559204101563,1.101931762695313,6.046194458007813
13.29200000000003,9.5416015625,0.4681976318359375,6.014492797851563
13.30200000000002,9.001626586914064,-0.21114501953125,7.82193603515625
13.312000000000012,6.793576049804688,0.6401641845703125,5.7593841552734375
13.322000000000005,6.4901672363281255,0.627752685546875,4.395913696289063
13.331999999999994,7.336242675781251,0.466851806640625,7.016085815429688
13.343000000000018,7.871282958984375,-0.3677093505859375,6.937579345703125
13.353000000000009,7.992855834960938,0.160601806640625,4.247723388671876
13.363,9.1504150390625,0.0814971923828125,4.601376342773438
13.373000000000047,8.871231079101562,-0.6465942382812501,6.333901977539063
13.384000000000016,6.643441772460938,-0.6343322753906251,6.775482177734376
13.393000000000027,5.681924438476563,-0.4021026611328125,6.064886474609375
13.40300000000002,6.886886596679688,-0.4720855712890625,7.325177001953126
13.413000000000013,7.878909301757813,-0.1664337158203125,7.491610717773438
13.423000000000002,7.506863403320313,0.3964202880859375,5.080490112304688
13.43300000000005,7.274484252929688,0.469842529296875,5.23974609375
13.44300000000004,7.082180786132813,0.2675201416015625,7.831356811523438
13.453000000000031,6.829763793945313,0.28411865234375,8.538961791992188
13.463000000000022,6.865203857421876,0.9680969238281252,7.043899536132813
13.47300000000002,8.234954833984375,0.6114532470703126,5.415301513671875
13.484000000000036,6.294125366210938,0.364569091796875,4.69244384765625
13.494000000000028,5.094097900390626,0.088525390625,3.903341674804688
13.50400000000002,7.083676147460938,-0.0478515625,6.441418457031251
13.51400000000001,9.624444580078126,-0.9529937744140624,8.454025268554688
13.524,10.646823120117189,-0.3624755859375,5.891424560546875
13.534000000000049,9.470422363281251,-0.4678985595703125,6.651068115234375
13.54400000000004,8.049829101562501,-1.1129974365234376,9.429299926757814
13.55400000000003,5.781964111328126,0.2044158935546875,7.159939575195313
13.56400000000002,4.63262939453125,0.7029693603515625,3.248971557617188
13.574000000000012,6.7413879394531255,0.4517486572265625,5.771496582031251
13.584000000000003,7.999136352539063,0.6280517578125,8.042950439453126
13.593999999999994,8.426211547851564,0.3386993408203125,4.71995849609375
13.604000000000042,9.248959350585938,0.3180633544921875,5.291635131835938
13.614000000000033,9.470123291015623,-0.2524169921875,8.756686401367189
13.624000000000024,7.449142456054688,-0.3087921142578125,9.280810546875
13.635000000000048,6.222348022460938,0.2142852783203125,4.735211181640626
13.64500000000004,7.162182617187501,-0.13697509765625,4.446606445312501
13.65500000000003,7.846310424804688,-0.7381103515625,6.3176025390625
13.66500000000002,6.859072875976563,-0.51978759765625,4.742687988281251
13.675000000000011,7.208090209960938,-0.130096435546875,3.652420043945313
13.685000000000002,8.754144287109376,-0.2214630126953125,6.468634033203125
13.694999999999986,8.09229736328125,-0.0814971923828125,8.657992553710939
13.70500000000004,7.1107421875000005,0.6446502685546875,6.0771484375
13.715000000000032,7.220352172851563,0.708502197265625,6.576449584960938
13.725000000000016,7.342074584960938,0.47313232421875,8.346658325195314
13.735000000000014,6.3585754394531255,0.5461059570312501,6.385791015625
13.745000000000012,6.3481079101562505,0.6039764404296876,4.9170471191406255
13.754999999999995,7.22020263671875,0.5136566162109375,6.723144531250001
13.76500000000005,7.460208129882813,-0.1604522705078125,7.31351318359375
13.77500000000004,7.798757934570313,-0.23746337890625,5.794525146484375
13.786,7.319046020507813,-0.1945465087890625,5.356533813476563
13.79600000000005,6.791632080078125,-0.7397552490234376,5.878713989257813
13.80600000000004,7.239941406250001,-0.4556365966796875,7.020272827148438
13.816000000000033,7.60062255859375,-0.6231170654296876,7.341326904296875
13.826000000000022,8.027847290039062,0.4858428955078125,5.4498443603515625
13.83600000000002,8.797659301757813,0.3793731689453125,6.6681152343750005
13.84600000000001,8.541653442382813,-0.541021728515625,8.052969360351563
13.855999999999996,6.950289916992188,0.41630859375,4.8995513916015625
13.866000000000042,6.2329650878906255,-0.2304351806640625,4.749716186523438
13.876000000000031,6.665274047851563,-0.3195587158203125,8.221047973632814
13.886000000000024,7.2528015136718755,0.31163330078125,8.547933959960938
13.896000000000017,7.811917114257813,0.9209930419921876,5.876919555664063
13.90700000000004,9.027795410156251,0.697735595703125,5.509808349609376
13.915999999999997,8.958111572265626,0.6603515625,6.963897705078126
13.926000000000052,7.242184448242188,0.5715270996093751,7.145135498046876
13.937000000000012,6.52396240234375,0.69384765625,5.001983642578125
13.947000000000005,7.154705810546876,-0.01435546875,6.014044189453125
13.956999999999994,8.104708862304689,-0.44801025390625,6.522317504882813
13.96700000000004,8.290881347656251,-0.0157012939453125,4.554721069335938
13.977000000000032,8.746368408203125,-0.03529052734375,3.90050048828125
13.987000000000016,8.319891357421875,-0.7270446777343751,6.442465209960938
13.997000000000014,6.902438354492188,-0.6584075927734375,7.497741699218751
14.007000000000012,5.998342895507813,-0.5307037353515626,6.544448852539063
14.016999999999996,6.825576782226563,-0.6416595458984375,6.919485473632813
14.02700000000005,7.801150512695313,-0.3192596435546875,7.281063842773438
14.037000000000042,7.797262573242188,0.4182525634765625,5.361169433593751
14.047000000000024,7.155154418945313,0.475225830078125,5.292980957031251
14.057000000000016,6.66153564453125,0.3695037841796875,7.587164306640625
14.06800000000004,6.766659545898438,0.7119415283203125,8.517727661132813
14.078000000000031,7.213623046875001,1.1150909423828126,6.535626220703126
14.088000000000022,7.004122924804688,1.0026397705078125,4.89940185546875
14.100000000000016,6.595889282226563,0.8949737548828126,4.83719482421875
14.108000000000011,5.600277709960938,0.6255096435546875,5.405731201171875
14.117999999999997,7.225436401367188,-0.7050628662109375,7.100872802734376
14.12800000000005,10.599569702148438,-0.7101470947265626,6.794024658203125
14.13800000000004,11.479888916015623,-0.0961517333984375,6.667666625976563
14.148000000000025,9.625640869140623,-0.9872375488281252,7.399047851562501
14.158000000000015,6.647479248046875,-0.986639404296875,8.037567138671875
14.168000000000006,4.980001831054688,-0.1256103515625,6.12320556640625
14.177999999999995,4.904486083984375,-0.0474029541015625,5.705999755859375
14.188000000000052,6.42825927734375,0.2406036376953125,6.379510498046876
14.200000000000053,8.497390747070312,0.210845947265625,5.397656250000001
14.209000000000003,9.628482055664064,0.13218994140625,5.281167602539063
14.218999999999994,9.989761352539062,-0.0088226318359375,5.998043823242188
14.229000000000042,8.018276977539063,-0.283819580078125,8.221945190429688
14.239000000000033,6.92711181640625,0.0468048095703125,8.043997192382813
14.249000000000024,7.437030029296875,0.26019287109375,5.141351318359376
14.259000000000016,7.513442993164063,-0.106170654296875,4.687359619140626
14.269000000000013,6.721649169921876,-0.1327880859375,4.61468505859375
14.278999999999996,6.1671691894531255,0.0992919921875,4.321295166015625
14.289000000000051,7.001730346679688,0.3129791259765625,5.637960815429688
14.300000000000011,7.667614746093751,0.30565185546875,7.873825073242188
14.309000000000026,8.146279907226564,0.3802703857421875,7.7776733398437505
14.319000000000017,8.045642089843751,0.1864715576171875,7.584921264648438
14.329000000000008,7.579986572265626,0.1912567138671875,8.413052368164063
14.339,6.536224365234376,0.11962890625,7.57669677734375
14.350000000000016,5.9398742675781255,-0.142059326171875,5.7354583740234375
14.360000000000014,5.6261474609375,-0.283819580078125,4.307687377929688
14.370000000000012,7.165921020507813,-0.0849365234375,4.34312744140625
14.379999999999995,8.436380004882814,-0.042767333984375,5.148977661132813
14.39000000000005,8.115625000000001,-0.59036865234375,6.397006225585938
14.40000000000004,8.4230712890625,0.8390472412109375,6.502578735351563
14.410000000000023,9.230267333984376,0.5549285888671875,9.116320800781253
14.420000000000016,8.497241210937501,-0.325390625,9.358120727539063
14.430000000000009,6.526205444335938,0.262286376953125,4.9945068359375
14.439999999999998,6.139654541015625,-0.6216217041015626,4.107757568359375
14.450000000000053,6.451138305664063,-0.9072357177734376,7.419085693359375
14.460000000000036,6.495999145507813,-0.0880767822265625,7.6550537109375005
14.470000000000027,7.567425537109376,0.9084320068359376,5.532986450195313
14.480000000000018,9.360214233398438,0.7285400390625001,5.780618286132813
14.490000000000007,9.465338134765624,0.582891845703125,7.811169433593751
14.501000000000031,7.954125976562499,0.6059204101562501,7.545742797851563
14.511000000000024,7.415496826171876,0.8160186767578126,4.828372192382813
14.521000000000017,7.395758056640625,0.0729736328125,5.5974365234375005
14.531000000000006,7.177734375000001,-0.299072265625,6.255545043945313
14.540999999999997,7.182818603515625,0.1822845458984375,4.066036987304688
14.551000000000052,7.753897094726563,0.35948486328125,4.143048095703126
14.561000000000044,8.03726806640625,-0.8435333251953125,7.126742553710938
14.571000000000026,7.143789672851563,-1.0204345703125002,7.620361328125001
14.583000000000029,6.815408325195313,-0.7708587646484376,6.6471801757812505
14.591000000000008,7.734906005859376,-0.883160400390625,7.189547729492188
14.601,8.127139282226564,-0.2926422119140625,7.367196655273438
14.611000000000049,6.806884765625001,0.2619873046875,5.872134399414063
14.622000000000014,6.088513183593751,0.508123779296875,5.665625
14.631000000000029,6.483587646484375,0.707305908203125,7.185659790039063
14.64100000000002,7.026852416992188,0.91217041015625,7.219604492187501
14.65200000000005,6.927560424804688,0.8848052978515626,5.570669555664063
14.662000000000042,6.237002563476563,0.685772705078125,4.02611083984375
14.672000000000024,7.714120483398438,1.0056304931640625,4.691845703125001
14.682000000000016,8.697918701171876,0.8689544677734375,8.07196044921875
14.692000000000007,9.793420410156251,-0.1060211181640625,8.349050903320313
14.701999999999998,10.271636962890623,-0.121722412109375,5.743832397460938
14.712000000000046,8.178878784179688,-1.196588134765625,8.489614868164063
14.722000000000037,5.206399536132813,-0.7751953125000001,7.611090087890625
14.732000000000028,4.535281372070313,-0.144451904296875,4.8247833251953125
14.74200000000002,5.926565551757813,-0.3521575927734375,4.283462524414063
14.75200000000001,8.305386352539063,-0.728240966796875,7.052273559570313
14.762,8.605953979492188,-0.323297119140625,6.6636291503906255
14.772000000000048,9.046188354492188,0.2775390625,5.251260375976563
14.78200000000004,9.52051696777344,-0.307745361328125,7.581182861328125
14.79200000000003,7.955770874023438,-0.169873046875,10.647421264648438
14.802999999999995,6.388931274414063,0.8963195800781251,6.164328002929688
14.813000000000052,6.520223999023438,0.4762725830078125,3.189157104492188
14.823000000000036,7.824777221679688,0.5411712646484376,4.998394775390626
14.833000000000029,7.224240112304688,0.6732116699218751,6.5978332519531255
14.843000000000018,7.075302124023438,0.2260986328125,3.757394409179688
14.853000000000009,8.097680664062501,-0.389990234375,5.468386840820313
14.863,8.589654541015626,-0.4185516357421875,9.121255493164064
14.873000000000047,7.923171997070313,-0.21353759765625,7.536172485351563
14.883000000000038,7.311569213867188,0.036785888671875,4.5989837646484375
14.893000000000027,7.353588867187501,-0.0509918212890625,6.342276000976563
14.90300000000002,6.786398315429688,-0.2667724609375,7.1944824218750005
14.913000000000013,6.03946533203125,-0.1858734130859375,5.073760986328125
14.924000000000042,6.760678100585938,0.5314514160156251,5.320944213867188
14.934000000000026,7.671951293945313,0.3781768798828125,7.789935302734375
14.944000000000017,7.937677001953125,-0.1828826904296875,7.6460815429687505
14.954000000000008,7.941714477539063,0.1478912353515625,6.413156127929688
14.964,7.528994750976563,0.3541015625,6.093148803710938
14.974000000000046,6.772491455078126,-0.0189910888671875,5.23077392578125
14.984000000000036,7.715167236328125,0.185125732421875,4.990917968750001
14.994000000000028,7.071862792968751,-0.0411224365234375,6.139953613281251
15.00400000000002,4.847811889648438,-0.0287109375,5.5926513671875
15.01400000000001,6.888381958007813,0.7858123779296876,7.259381103515626
15.024,9.712820434570313,-0.268865966796875,10.505810546875
15.034000000000049,10.212420654296876,-0.37862548828125,7.598529052734375
15.04400000000004,8.241085815429688,0.4753753662109375,3.866256713867188
15.05400000000003,8.196075439453125,-0.512310791015625,5.14822998046875
15.06400000000002,7.012496948242188,-0.7177734375,8.683862304687501
15.075000000000053,4.632031250000001,0.0919647216796875,5.977557373046875
15.085000000000036,5.646334838867188,0.5613586425781251,3.719113159179688
15.095000000000027,9.392663574218751,-0.226995849609375,6.3406311035156255
15.105000000000018,10.010247802734376,-0.4149627685546875,8.364453125
15.115000000000007,7.687353515625,1.027163696289063,6.433792114257813
15.125,7.409664916992188,0.9093292236328124,5.828768920898438
15.135000000000048,7.629632568359375,0.2872589111328125,8.819940185546876
15.14500000000004,6.836642456054688,-0.1131988525390625,7.714718627929688
15.15500000000003,7.032833862304688,0.419598388671875,3.3688995361328127
15.16500000000002,8.219403076171876,0.24344482421875,4.189852905273438
15.175000000000011,8.886932373046875,0.04306640625,4.3503051757812505
15.185000000000002,6.43424072265625,-0.44202880859375,5.373281860351563
15.194999999999986,6.407174682617188,-0.4131683349609375,6.152963256835938
15.20500000000004,8.276974487304688,-0.3940277099609375,8.327517700195314
15.216000000000008,8.334396362304688,-0.6759033203125,9.0642822265625
15.226,7.32906494140625,-0.8170654296875001,5.922677612304688
15.236000000000049,7.01982421875,-0.1131988525390625,5.058956909179688
15.246000000000038,6.51798095703125,0.4092803955078125,7.494451904296875
15.256000000000029,6.055166625976563,0.2986236572265625,7.381103515625001
15.26600000000002,6.634469604492188,0.7070068359375,5.383450317382813
15.27600000000001,8.124896240234376,0.677398681640625,5.225689697265626
15.286,6.934439086914063,0.7419982910156251,4.95084228515625
15.29600000000005,4.177142333984375,0.6750061035156251,3.471481323242188
15.30600000000004,6.554019165039063,1.0777069091796876,5.832806396484376
15.316000000000033,12.36484375,0.587677001953125,10.024603271484375
15.326000000000022,14.086602783203126,-0.4089813232421875,7.936929321289063
15.33600000000002,9.620706176757814,-0.5573211669921876,5.6457366943359375
15.34600000000001,5.051181030273438,-1.12032470703125,8.281011962890625
15.355999999999996,3.558810424804688,-0.7750457763671875,9.250454711914063
15.366000000000042,2.8129241943359378,-0.1272552490234375,5.974417114257813
15.37700000000001,6.145785522460938,0.1567138671875,1.334161376953125
15.387,10.243972778320312,-0.3153717041015625,5.858526611328125
15.397000000000048,10.517175292968751,-0.082244873046875,8.931045532226562
15.40700000000004,8.342919921875001,0.08553466796875,4.275836181640625
15.41700000000003,8.188897705078126,-0.0426177978515625,8.674740600585938
15.42700000000002,8.190093994140625,-0.2071075439453125,10.621701049804688
15.437000000000012,7.240539550781251,0.5136566162109375,6.72972412109375
15.447000000000005,6.198721313476563,0.32359619140625,2.415457153320313
15.456999999999994,7.210931396484375,0.18123779296875,4.558010864257813
15.46700000000004,7.36973876953125,0.306549072265625,4.085177612304688
15.478000000000009,5.892172241210938,-0.288006591796875,4.785903930664063
15.487000000000016,7.576397705078126,-0.0300567626953125,6.095989990234376
15.5,9.549526977539063,-0.3680084228515625,8.941363525390626
15.507000000000012,9.039608764648438,-0.32239990234375,7.979397583007813
15.518000000000027,7.590603637695313,0.65137939453125,5.695233154296876
15.52800000000002,6.428558349609376,0.4462158203125,6.917990112304688
15.538000000000013,5.987127685546875,-0.0566741943359375,6.620114135742188
15.548000000000002,5.592800903320313,-0.1499847412109375,5.765066528320313
15.55800000000005,6.342874145507813,0.4397857666015625,5.815908813476563
15.56800000000004,8.609243774414063,0.6305938720703126,5.805291748046876
15.578000000000031,9.1432373046875,0.0285614013671875,6.274685668945313
15.588000000000022,6.871932983398438,-0.1706207275390625,5.602969360351563
15.599000000000046,7.173248291015626,0.1766021728515625,5.504873657226563
15.608000000000011,8.557952880859375,0.1290496826171875,7.368991088867188
15.617999999999997,5.79901123046875,-0.8025604248046876,7.17235107421875
15.62800000000005,5.008413696289063,-0.3207550048828125,5.815908813476563
15.63800000000004,8.523260498046875,0.128302001953125,8.335443115234376
15.648000000000025,10.22513122558594,-1.1272033691406251,9.099273681640623
15.658000000000015,8.586215209960939,0.115142822265625,5.0102081298828125
15.66900000000004,7.088909912109376,0.4161590576171875,4.053326416015626
15.67900000000003,8.359518432617188,-0.193798828125,6.407772827148438
15.68900000000002,6.725836181640625,-0.014654541015625,8.733358764648438
15.700000000000053,5.204754638671876,0.7080535888671875,4.922579956054688
15.709000000000003,7.876516723632813,0.98035888671875,4.49505615234375
15.718999999999994,10.20838317871094,0.67530517578125,7.892367553710938
15.729000000000042,8.261572265625,0.8215515136718751,8.4039306640625
15.739000000000033,6.834698486328126,0.7825225830078125,4.6872100830078125
15.749000000000024,7.60301513671875,0.5594146728515625,5.562594604492188
15.759000000000016,7.602117919921875,-0.6192291259765625,8.621057128906251
15.769000000000013,6.813015747070313,-0.4227386474609375,5.819647216796875
15.778999999999996,7.53123779296875,0.153424072265625,3.106314086914063
15.789000000000051,9.188397216796876,-0.2890533447265625,4.571618652343751
15.800000000000011,7.556210327148438,-0.829327392578125,6.641647338867188
15.810000000000002,5.639007568359375,-0.4242340087890625,5.808880615234376
15.819999999999986,6.657797241210938,-0.4251312255859375,7.113134765625
15.83000000000004,8.371929931640626,-0.4783660888671875,9.384140014648438
15.840000000000032,7.808926391601563,-0.2654266357421875,7.2387451171875
15.850000000000016,6.649722290039063,0.1404144287109375,4.456326293945313
15.860000000000014,7.179080200195313,0.698333740234375,6.37083740234375
15.870000000000012,6.230422973632813,0.8033081054687501,7.340878295898438
15.879999999999995,3.5351837158203128,0.66094970703125,3.608905029296875
15.89000000000005,6.660488891601563,0.8261871337890626,3.582586669921876
15.90000000000004,11.536862182617188,1.012359619140625,7.383047485351563
15.910000000000023,12.801190185546876,0.4640106201171875,7.588809204101563
15.920000000000016,10.07559509277344,0.6003875732421875,6.194384765625
15.930000000000009,6.593496704101563,-0.696240234375,9.614126586914065
15.939999999999998,4.204058837890625,-0.8863006591796876,10.140344238281251
15.950000000000053,3.5224731445312503,0.0662445068359375,6.629684448242188
15.96100000000002,5.49395751953125,0.0548797607421875,0.9305633544921876
15.97100000000001,9.606948852539062,-0.7113433837890626,4.414456176757813
15.980999999999996,8.837884521484376,-1.023724365234375,10.98612060546875
15.991000000000042,8.399743652343751,-0.6041259765625,2.678192138671875
16.001000000000033,8.365649414062501,-0.5677886962890626,7.575051879882813
16.011000000000024,9.196173095703124,-0.514105224609375,12.01477966308594
16.021000000000015,7.629632568359375,0.413018798828125,8.058651733398438
16.031000000000006,6.281863403320313,0.368157958984375,1.21363525390625
16.040999999999997,7.173397827148438,0.024224853515625,4.0614013671875
16.05100000000005,7.6789794921875005,0.4559356689453125,5.666821289062501
16.061000000000043,6.122308349609376,0.5359375000000001,5.095294189453125
16.072000000000003,7.407421875000001,0.7868591308593751,4.469036865234376
16.081999999999994,9.997537231445314,0.44561767578125,7.850347900390625
16.09200000000004,9.1587890625,-0.5417694091796875,9.196023559570314
16.102000000000032,6.689050292968751,0.11544189453125,5.78465576171875
16.112000000000016,6.731369018554688,0.423187255859375,5.295822143554688
16.122000000000014,6.374127197265626,-0.131292724609375,7.900891113281251
16.132000000000012,5.73321533203125,-0.392083740234375,6.323434448242188
16.141999999999996,6.43065185546875,-0.1658355712890625,4.139309692382813
16.15200000000005,8.663973999023439,0.398065185546875,5.849853515625
16.16200000000004,8.534176635742188,-0.036785888671875,8.040707397460938
16.172000000000025,7.5832763671875005,-0.208453369140625,7.349102783203126
16.182000000000016,7.8494506835937505,0.5698822021484375,6.297564697265625
16.192000000000007,7.929302978515626,0.3392974853515625,7.387384033203125
16.201999999999998,6.931747436523438,-0.049346923828125,6.312069702148438
16.212000000000046,4.631134033203125,-0.23148193359375,3.693841552734375
16.222000000000037,6.398501586914063,0.01495361328125,4.11583251953125
16.232000000000028,8.425762939453126,-0.012261962890625,6.32298583984375
16.24200000000002,6.98453369140625,-0.7907470703125,6.644937133789063
16.25300000000005,8.511895751953126,0.5156005859375,6.294125366210938
16.26300000000004,10.06976318359375,0.7804290771484376,9.91005859375
16.273000000000025,8.646627807617188,-0.4598236083984375,10.68704833984375
16.283000000000015,6.958364868164063,0.5991912841796876,5.8685455322265625
16.293000000000006,6.444409179687501,0.1951446533203125,3.929660034179688
16.302999999999997,7.277175903320313,-0.9223388671875,6.911709594726563
16.313000000000052,6.383547973632813,-0.043963623046875,6.593646240234375
16.323000000000036,6.2960693359375,0.5163482666015625,3.350357055664063
16.333000000000027,9.212921142578123,0.406439208984375,4.6961822509765625
16.343000000000018,9.851141357421875,0.0300567626953125,9.109292602539064
16.35300000000001,8.146578979492189,0.5776580810546875,8.429800415039063
16.363,7.523461914062499,0.9024505615234376,4.753753662109375
16.373000000000047,7.947396850585938,-0.0270660400390625,6.543701171875001
16.383000000000038,6.913952636718751,-0.1167877197265625,7.6565490722656255
16.394000000000013,5.901144409179688,0.377728271484375,3.5152954101562504
16.403999999999996,7.12509765625,0.010467529296875,3.027508544921876
16.41400000000005,8.158541870117189,-0.7307830810546876,6.941915893554688
16.424000000000042,7.473367309570313,-0.7271942138671875,7.443011474609375
16.434000000000026,7.304989624023438,-0.5061798095703125,5.655755615234376
16.444000000000017,8.207440185546876,-0.16688232421875,7.59464111328125
16.454000000000008,8.168560791015626,-0.1057220458984375,9.038412475585938
16.464,6.580487060546876,-0.098394775390625,6.365902709960938
16.474000000000046,6.182272338867188,0.298773193359375,4.915103149414063
16.484000000000037,6.757388305664063,0.6762023925781251,6.800155639648438
16.494000000000028,6.90318603515625,0.4299163818359375,6.709686279296876
16.50400000000002,7.375271606445313,0.705810546875,4.990319824218751
16.51600000000002,7.075152587890625,1.1216705322265623,4.651620483398438
16.52500000000004,6.248516845703126,1.077557373046875,4.261331176757813
16.535000000000025,6.791183471679688,0.6204254150390626,5.890826416015625
16.545000000000016,8.997738647460938,-0.9411804199218752,8.74906005859375
16.555000000000007,11.348297119140623,-0.1105072021484375,6.991711425781251
16.564999999999998,10.021612548828124,-0.4732818603515625,6.925018310546876
16.575000000000053,6.737649536132813,-1.2154296875,9.466085815429688
16.585000000000036,5.029797363281251,-0.66932373046875,8.281460571289063
16.595000000000027,4.319351196289063,0.032598876953125,4.822540283203125
16.605000000000018,7.123303222656251,-0.325091552734375,3.7520111083984378
16.61700000000002,9.551620483398438,-0.0095703125,6.824081420898438
16.625,8.843716430664063,0.5214324951171876,5.5280517578125
16.635000000000048,7.683914184570313,0.3772796630859375,5.088116455078126
16.64500000000004,8.228973388671875,-0.2794830322265625,9.819140625
16.65500000000003,7.562042236328126,0.1422088623046875,10.8922119140625
16.665999999999997,7.412954711914063,0.624462890625,4.714724731445313
16.67600000000005,7.205548095703126,0.0136077880859375,3.4494995117187504
16.686000000000043,8.55167236328125,-0.24105224609375,4.977011108398438
16.696000000000026,7.392169189453125,-0.3081939697265625,5.086621093750001
16.706000000000017,6.148477172851563,-0.305950927734375,3.552081298828125
16.71700000000004,7.370486450195313,-0.38699951171875,5.898751831054688
16.726,8.385687255859375,0.0348419189453125,8.962448120117188
16.736000000000047,8.02650146484375,0.1006378173828125,7.088909912109376
16.746000000000038,7.578491210937501,0.6881652832031251,5.374478149414063
