time,ax,ay,az
0.0,6.865951538085938,1.5586151123046876,6.602169799804688
0.0099999999999909,6.84097900390625,1.6480377197265623,6.848605346679688
0.0200000000000102,6.900643920898438,1.535586547851563,6.826922607421875
0.0300000000000011,7.1705566406250005,1.1162872314453125,6.730471801757813
0.0399999999999849,7.282409667968751,0.5221801757812501,6.48209228515625
0.0500000000000113,6.793426513671876,0.1514801025390625,5.342626953125
0.0600000000000022,7.003375244140625,0.0351409912109375,4.271649169921876
0.0699999999999931,9.199462890625,0.201275634765625,6.909017944335938
0.0800000000000054,9.212771606445314,-0.1072174072265625,9.298455810546876
0.0910000000000081,5.705252075195313,-0.8617767333984375,8.731265258789064
0.100999999999999,5.205950927734375,-1.1231658935546875,7.916891479492188
0.11099999999999,7.429852294921876,-1.3038055419921877,4.940524291992188
0.1219999999999856,9.65704345703125,-1.3247406005859377,3.2210083007812504
0.1310000000000002,10.36524658203125,-0.8249908447265626,3.8716400146484378
0.1409999999999911,8.999832153320312,0.7271942138671875,5.589959716796876
0.1510000000000104,6.641796875000001,1.6194763183593752,8.271441650390626
0.1610000000000013,4.263873291015625,1.28541259765625,9.04215087890625
0.1709999999999851,4.198526000976563,1.5798492431640627,8.181121826171875
0.1810000000000116,6.40074462890625,1.592410278320313,6.658993530273438
0.1910000000000025,8.609991455078125,1.2248504638671875,5.277877807617188
0.2009999999999934,9.8442626953125,0.6287994384765625,5.10635986328125
0.2110000000000056,9.562985229492188,-0.41212158203125,5.592053222656251
0.2210000000000036,7.836740112304688,-0.9236846923828126,5.884097290039063
0.2309999999999945,6.399996948242188,-0.7916442871093751,6.362014770507813
0.2419999999999902,6.224142456054688,-0.2208648681640625,6.578991699218751
0.2520000000000095,6.644338989257813,-0.7763916015625001,7.3978515625
0.2620000000000004,7.004721069335938,-1.5563720703125,7.016384887695313
0.2719999999999913,6.677236938476563,-0.3626251220703125,5.714971923828125
0.2849999999999966,7.663278198242188,0.6283508300781251,6.379360961914063
0.2920000000000016,8.519372558593751,0.9196472167968752,7.661334228515625
0.3019999999999854,7.4086181640625,0.9514984130859376,7.108200073242188
0.3120000000000118,7.187155151367188,1.6525238037109375,6.594094848632813
0.3220000000000027,8.592645263671876,1.4295654296875,5.765515136718751
0.3319999999999936,8.934036254882812,-0.08134765625,4.918841552734375
0.3420000000000129,8.355929565429689,-0.7726531982421876,6.095541381835938
0.3520000000000038,7.245025634765626,-1.3615264892578125,7.047488403320313
0.3619999999999947,6.567178344726563,-0.52576904296875,7.298858642578126
0.3719999999999857,6.300704956054688,-0.16748046875,6.884194946289063
0.3849999999999909,6.3466125488281255,-0.2100982666015625,6.02630615234375
0.3930000000000007,6.903036499023438,0.2238555908203125,6.213973999023438
0.4029999999999916,7.169659423828126,0.4689453125,6.773538208007813
0.4130000000000109,7.427908325195313,0.80390625,7.317251586914063
0.4230000000000018,7.595538330078125,0.97677001953125,6.857876586914063
0.4329999999999856,7.690194702148438,0.9800598144531252,6.086419677734376
0.4430000000000049,7.549630737304688,1.3166656494140625,5.612539672851563
0.4530000000000029,7.312167358398438,1.5438110351562502,5.33604736328125
0.4629999999999938,7.455422973632813,0.9015533447265626,6.19139404296875
0.4730000000000132,7.363607788085938,0.1158905029296875,7.051077270507813
0.4849999999999852,7.549331665039063,-0.3034088134765625,7.268353271484376
0.492999999999995,7.6834655761718755,-0.5090209960937501,6.952981567382813
0.5029999999999859,7.32188720703125,-0.8945251464843751,6.144290161132813
0.5130000000000052,7.195828247070313,-1.32608642578125,6.184664916992188
0.5240000000000009,6.703704833984376,-1.4168548583984375,6.35648193359375
0.5339999999999918,6.566879272460938,-0.4050933837890625,5.960211181640625
0.5440000000000111,7.3248779296875,0.6108551025390625,5.549285888671875
0.554000000000002,8.98712158203125,1.1922515869140626,6.539962768554688
0.563999999999993,8.11981201171875,1.999148559570313,7.129284667968751
0.5740000000000052,5.820993041992188,1.5879241943359377,7.515686035156251
0.585000000000008,6.331359863281251,0.6168365478515625,7.767056274414063
0.5939999999999941,8.135513305664062,-0.06280517578125,6.123355102539063
0.603999999999985,9.410159301757814,-0.6717163085937501,5.5455474853515625
0.6140000000000043,9.641641235351564,-0.7034179687500001,5.844021606445313
0.6239999999999952,8.500082397460938,-0.485693359375,5.887686157226563
0.6339999999999861,7.3224853515625,-0.74169921875,6.856082153320313
0.6440000000000055,6.018081665039063,-1.0445098876953125,6.546990966796876
0.6550000000000011,5.755645751953125,-0.4595245361328125,5.955575561523438
0.6649999999999849,6.729275512695313,0.542816162109375,6.344967651367188
0.6750000000000114,7.067526245117188,1.2203643798828123,6.622207641601563
0.6850000000000023,7.512246704101563,1.7347686767578123,7.501480102539063
0.6949999999999932,7.262371826171876,1.3933776855468751,7.383795166015625
0.7050000000000054,7.018179321289063,0.7318298339843751,6.480447387695313
0.7150000000000034,7.485330200195313,0.114544677734375,5.968884277343751
0.7249999999999943,7.604360961914063,-0.28172607421875,5.19608154296875
0.7349999999999852,7.999136352539063,-0.0381317138671875,5.700018310546875
0.7450000000000045,8.060595703125001,0.1449005126953125,6.660787963867188
0.7549999999999955,7.488320922851563,0.2546600341796875,7.024310302734375
0.7649999999999864,6.884344482421875,0.2711090087890625,7.316204833984376
0.7750000000000057,6.255844116210938,-0.0387298583984375,6.884194946289063
0.7849999999999966,5.944061279296875,-0.4098785400390625,5.260083007812501
0.7959999999999852,7.416543579101563,-0.44202880859375,4.9765625
0.8060000000000116,8.992803955078125,-0.30445556640625,5.7967681884765625
0.8160000000000025,8.944354248046876,0.0985443115234375,7.277175903320313
0.8259999999999934,7.433441162109376,0.712689208984375,7.99180908203125
0.8360000000000056,6.6190673828125,1.0368835449218752,7.701559448242188
0.8460000000000036,6.533831787109375,0.563153076171875,6.566580200195313
0.8559999999999945,7.149771118164063,0.2247528076171875,5.944509887695313
0.8659999999999854,7.937078857421875,0.242547607421875,5.921331787109375
0.8760000000000048,8.570364379882813,0.350811767578125,6.696527099609376
0.8859999999999957,8.383892822265626,-0.2213134765625,6.984982299804688
0.8959999999999866,7.659091186523438,-0.8025604248046876,6.653610229492188
0.9070000000000108,7.163827514648438,-0.887646484375,6.213674926757813
0.9170000000000016,6.994253540039063,-0.5286102294921875,5.941668701171875
0.9269999999999854,7.174893188476563,0.13936767578125,6.114083862304688
0.9370000000000118,7.242782592773438,0.587078857421875,6.372183227539063
0.9470000000000028,7.169808959960938,0.949853515625,6.532186889648438
0.9569999999999936,7.02879638671875,1.2984222412109376,6.594692993164063
0.967000000000013,6.809576416015625,1.3851531982421876,6.616824340820313
0.977000000000004,6.858026123046876,1.3639190673828123,6.778024291992188
0.9869999999999948,6.919186401367188,1.023126220703125,6.719854736328125
0.9969999999999856,7.133621215820313,0.495263671875,6.604412841796876
1.007000000000005,7.542752075195313,-0.2223602294921875,6.521868896484375
1.016999999999996,7.455572509765625,-1.1092590332031251,5.865853881835938
1.0269999999999868,7.2258850097656255,-1.2990203857421876,5.235409545898438
1.037000000000006,7.809375,-1.1909057617187502,5.8262268066406255
1.046999999999997,7.878012084960938,-0.252117919921875,6.937579345703125
1.056999999999988,6.568972778320313,0.2863616943359375,7.448992919921875
1.068000000000005,6.236553955078126,0.12979736328125,7.9660888671875005
1.0769999999999982,7.267007446289063,0.6428558349609376,7.416543579101563
1.087999999999994,8.142242431640625,0.973779296875,6.042904663085938
1.0980000000000132,8.692385864257814,0.7867095947265625,5.8773681640625
1.108000000000004,8.325125122070313,0.659454345703125,5.99041748046875
1.117999999999995,7.534527587890626,0.177349853515625,6.27513427734375
1.127999999999986,7.315158081054688,-0.232977294921875,6.9746643066406255
1.1380000000000052,7.167266845703126,-0.4696929931640625,6.828268432617188
1.147999999999996,7.601968383789063,-0.353802490234375,6.975860595703126
1.157999999999987,7.867544555664063,-0.0705810546875,6.698620605468751
1.1680000000000064,7.663876342773438,0.2920440673828125,5.979052734375
1.1779999999999973,7.760028076171875,0.4079345703125,5.457769775390625
1.1879999999999882,7.534378051757813,0.23985595703125,4.834054565429688
1.1980000000000075,7.149920654296875,0.341241455078125,5.26785888671875
1.2090000000000032,6.821688842773438,0.37144775390625,6.606655883789063
1.218999999999994,6.755294799804688,0.3554473876953125,7.759579467773438
1.228999999999985,6.91275634765625,0.387298583984375,8.405276489257814
1.2390000000000043,6.805987548828125,-0.0165985107421875,7.792776489257813
1.2489999999999952,7.169061279296876,-0.2740997314453125,6.598580932617188
1.258999999999986,7.609295654296876,-0.2800811767578125,5.42816162109375
1.2690000000000057,7.874273681640625,-0.1670318603515625,4.975216674804688
1.2789999999999964,8.196823120117188,0.3739898681640625,5.564688110351563
1.2889999999999873,8.093942260742189,1.0038360595703126,6.259582519531251
1.2990000000000066,7.636810302734376,1.1769989013671875,6.923822021484376
1.3089999999999975,6.310125732421875,0.4581787109375,6.845016479492188
1.3189999999999884,4.839437866210938,-0.7225585937500001,5.613436889648438
1.3290000000000075,5.9228271484375,-0.5275634765625,5.522219848632813
1.3389999999999986,8.338583374023438,0.3541015625,6.847708129882813
1.3489999999999895,8.937774658203125,0.8779266357421875,7.650268554687501
1.3599999999999852,8.7939208984375,1.2852630615234375,8.19697265625
1.3700000000000043,8.079885864257813,1.1880645751953125,7.271044921875
1.3799999999999957,6.898550415039063,0.4414306640625,5.367449951171875
1.3899999999999864,6.533532714843751,0.1502838134765625,5.106509399414063
1.4000000000000057,7.229623413085938,-0.1945465087890625,6.361865234375
1.4099999999999966,8.162728881835939,-0.3327178955078125,7.748364257812501
1.4199999999999875,8.4063232421875,-0.7189697265625,8.210580444335939
1.4300000000000068,7.627838134765626,-1.5927093505859375,7.092648315429688
1.4399999999999975,7.071862792968751,-1.5400726318359377,5.879910278320313
1.4499999999999886,6.872082519531251,-0.8679077148437501,5.348458862304688
1.460000000000008,7.141397094726563,-0.175555419921875,5.516387939453125
1.4699999999999989,8.009005737304689,0.7153808593750001,6.208889770507813
1.4799999999999898,8.249459838867189,1.14783935546875,6.527850341796875
1.490000000000009,7.623202514648438,1.4745758056640623,6.420782470703125
1.5010000000000048,6.707144165039063,1.6570098876953123,6.351547241210938
1.5109999999999957,6.19139404296875,1.568035888671875,6.211431884765625
1.5209999999999866,6.381604003906251,1.4442199707031251,6.447250366210938
1.531000000000006,6.779818725585938,1.3058990478515626,6.947149658203125
1.5409999999999968,7.456320190429688,0.7973266601562501,7.1215087890625
1.5509999999999875,7.9915100097656255,-0.03648681640625,7.031637573242188
1.561000000000007,8.0952880859375,-0.7974761962890625,6.244778442382813
1.570999999999998,7.713671875,-1.3220489501953123,5.719607543945313
1.5809999999999889,7.3843933105468755,-1.5792510986328123,5.8730316162109375
1.5910000000000082,6.742733764648438,-1.56534423828125,5.848208618164063
1.600999999999999,6.842324829101563,-1.15023193359375,6.141000366210938
1.61099999999999,7.507611083984376,-0.217425537109375,6.578692626953125
1.621000000000009,7.685260009765625,0.5842376708984376,6.487326049804688
1.632000000000005,7.981491088867188,1.2709075927734377,7.727279663085938
1.641999999999996,6.582580566406251,1.134829711914063,7.574902343750001
1.6519999999999868,4.906280517578125,1.3361053466796875,6.271395874023438
1.662000000000006,6.765164184570313,1.6665802001953127,6.56583251953125
1.671999999999997,8.929101562500001,1.5170440673828125,6.05621337890625
1.6850000000000025,9.4231689453125,1.0638000488281252,6.183468627929688
1.6920000000000073,8.748760986328126,0.0494964599609375,7.156948852539063
1.7019999999999982,6.950588989257813,-0.8275329589843751,6.678433227539063
1.711999999999989,6.504074096679688,-1.2107940673828126,6.677536010742188
1.7220000000000084,7.006515502929688,-1.7195159912109377,6.677386474609375
1.731999999999999,7.882049560546876,-1.7316284179687502,6.425866699218751
1.7419999999999902,8.496044921875,-1.1025299072265626,6.891372680664063
1.7520000000000095,7.792626953125,-0.5384796142578125,6.638507080078125
1.7620000000000005,7.284652709960938,0.172265625,6.38280029296875
1.7719999999999914,7.204800415039063,0.6220703125,5.870190429687501
1.7849999999999966,7.382150268554688,1.083987426757813,5.399749755859375
1.7930000000000064,7.735354614257813,1.9992980957031248,5.5926513671875
1.8029999999999973,7.380953979492188,2.0831878662109378,5.946304321289063
1.812999999999988,6.865203857421876,2.0396728515625,6.747817993164063
1.8230000000000075,6.457418823242188,1.5723724365234375,7.270297241210938
1.8329999999999984,6.5664306640625005,0.7762420654296875,7.327270507812501
1.842999999999989,7.092947387695313,0.1006378173828125,6.9193359375000005
1.8530000000000089,7.510153198242188,-0.554779052734375,6.360818481445313
1.8629999999999995,7.912704467773438,-0.8936279296875,6.170458984375
1.8729999999999905,7.866647338867188,-1.6783935546875002,6.0210723876953125
1.884999999999991,7.764364624023438,-1.6585052490234375,6.2123291015625
1.893000000000001,7.595239257812499,-1.4682952880859377,6.5559631347656255
1.9039999999999964,7.043899536132813,-0.6769500732421876,6.335995483398438
1.9139999999999875,6.2210021972656255,0.0776092529296875,5.510855102539063
1.9240000000000064,6.242684936523438,0.7574005126953125,5.040264892578126
1.9339999999999973,8.33035888671875,2.0930572509765626,6.740939331054688
1.9439999999999884,8.707788085937501,2.6539672851562504,8.245571899414063
1.954000000000008,6.638357543945313,2.0123077392578126,7.880404663085938
1.9639999999999984,5.38988037109375,2.1071136474609378,7.101171875
1.973999999999989,6.531738281250001,2.356988525390625,5.463153076171875
1.9849999999999848,8.625244140625,-0.2699127197265625,5.466143798828125
1.994,9.57330322265625,-0.8339630126953126,6.543402099609375
2.0039999999999907,8.439968872070313,-1.639215087890625,7.463348388671876
2.01400000000001,7.226333618164063,-1.6445983886718751,7.715316772460938
2.024000000000001,6.481793212890626,-1.3603302001953126,6.892718505859375
2.033999999999992,6.773239135742188,-1.7522644042968751,6.005520629882813
2.044000000000011,7.926162719726563,-1.8662109375,6.225338745117188
2.055000000000007,8.316452026367188,-1.934249877929688,6.632376098632813
2.0649999999999977,7.905078125,-0.7373626708984375,6.867745971679688
2.0749999999999886,7.383645629882813,2.20894775390625,6.581384277343751
2.085000000000008,7.087863159179688,1.9744750976562504,5.941220092773438
2.094999999999999,7.174295043945313,2.333810424804688,5.6337738037109375
2.1049999999999898,7.194631958007813,2.6013305664062503,5.571865844726563
2.115000000000009,7.272091674804688,2.5208801269531254,5.852096557617188
2.125,7.271044921875,2.086627197265625,6.517083740234376
2.134999999999991,7.206744384765625,-0.342138671875,6.988272094726563
2.1450000000000102,7.099676513671875,-1.1485870361328123,7.043450927734376
2.155000000000001,7.210183715820313,-1.6854217529296875,6.893765258789063
2.164999999999985,7.364205932617188,-1.8572387695312504,6.599179077148438
2.175999999999988,7.378860473632813,-1.7042633056640626,6.434091186523438
2.186000000000007,7.449142456054688,-1.7135345458984377,6.39835205078125
2.195999999999998,7.780963134765625,-1.3854522705078125,6.419287109375
2.205999999999989,7.73759765625,0.566741943359375,6.313265991210938
2.216000000000008,7.457217407226563,1.355694580078125,6.352294921875001
2.225999999999999,7.1191162109375,2.005279541015625,6.429306030273438
2.23599999999999,6.913055419921876,2.43026123046875,6.4635498046875
2.2460000000000093,6.420483398437501,2.285958862304688,5.9507904052734375
2.256,6.607254028320313,2.213433837890625,5.631082153320313
2.265999999999991,7.518527221679688,1.7326751708984376,5.699270629882813
2.2760000000000105,8.327966308593751,0.865216064453125,6.236703491210938
2.2860000000000014,8.173944091796876,-0.149237060546875,7.518527221679688
2.295999999999985,6.7147705078125,-1.12271728515625,7.769299316406251
2.306000000000012,5.459564208984375,-1.612298583984375,7.104910278320313
2.3160000000000025,7.294372558593751,-1.831668090820313,7.219305419921875
2.326999999999998,8.61746826171875,-1.374237060546875,6.122607421875
2.3360000000000056,9.029739379882812,-1.8554443359375,6.312817382812501
2.3470000000000084,8.484530639648439,-1.9399322509765624,6.915298461914063
2.357,7.177136230468751,-1.254458618164063,6.2987609863281255
2.3669999999999902,6.9540283203125,1.364666748046875,6.501980590820313
2.377000000000009,7.217510986328126,1.941427612304688,6.267208862304688
2.3870000000000005,7.482040405273438,2.613143920898437,6.0535217285156255
2.396999999999992,7.758831787109376,2.6358734130859376,6.7087890625
2.4070000000000107,7.2856994628906255,1.76632080078125,6.481793212890626
2.4170000000000016,7.255493164062501,0.9577789306640626,6.321640014648438
2.4269999999999854,7.60899658203125,-0.122320556640625,6.0484375
2.437000000000012,7.778271484375001,-0.811383056640625,5.516687011718751
2.4470000000000027,8.013790893554688,-1.3241424560546875,5.7888427734375005
2.4569999999999936,7.403982543945313,-1.7326751708984376,6.223992919921876
2.467000000000013,6.884045410156251,-1.4820526123046875,6.880606079101563
2.4780000000000086,6.660488891601563,-0.9939666748046876,7.462002563476563
2.4879999999999995,6.816754150390626,-0.395672607421875,7.338934326171875
2.4979999999999905,7.239193725585938,0.3521575927734375,7.053469848632813
2.5080000000000098,7.386337280273438,0.983349609375,6.498092651367188
2.5180000000000007,7.351046752929688,1.613345336914063,5.9503417968750005
2.527999999999992,7.5877624511718755,1.8028076171875,5.791683959960938
2.538000000000011,7.732662963867188,1.6173828125,5.768206787109375
2.548000000000002,7.350747680664063,1.343133544921875,5.666671752929688
2.5579999999999856,6.460409545898438,0.6075653076171875,5.1717071533203125
2.568000000000005,7.106405639648438,0.3395965576171875,5.840283203125001
2.578000000000003,8.626739501953125,0.2883056640625,7.8599182128906255
2.587999999999994,7.21781005859375,-0.2906982421875,8.55765380859375
2.598000000000013,5.146734619140625,-0.74110107421875,8.204150390625001
2.609000000000009,5.750711059570313,-0.9942657470703126,6.779220581054688
2.619,8.362210083007813,-1.269412231445313,4.9107666015625
2.6289999999999907,10.6266357421875,-0.98753662109375,4.981497192382813
2.63900000000001,9.714764404296876,-0.535040283203125,5.999240112304688
2.649000000000001,7.295718383789063,0.247332763671875,7.328466796875
2.658999999999992,5.491864013671876,0.5145538330078125,7.955770874023438
2.669000000000011,5.540313720703125,0.2965301513671875,7.201062011718751
2.679000000000002,7.268353271484376,0.7514190673828125,6.551776123046875
2.688999999999993,8.551821899414064,1.374087524414063,6.026455688476563
2.703000000000003,8.609841918945314,1.6496826171875,6.081484985351563
2.709000000000003,7.892965698242188,1.0730712890625,6.229376220703125
2.719999999999999,7.127340698242188,0.314923095703125,5.926116943359375
2.728999999999985,7.272091674804688,0.1380218505859375,5.890228271484375
2.7390000000000043,7.60361328125,-0.1314422607421875,5.924172973632813
2.75,7.690643310546876,-0.514404296875,6.416146850585938
2.759999999999991,7.3978515625,-0.6557159423828125,6.826922607421875
2.7700000000000102,6.907971191406251,-0.6440521240234376,6.912905883789063
2.780000000000001,6.877316284179688,-0.3695037841796875,6.776678466796875
2.789999999999985,7.025656127929688,-0.2166778564453125,6.319546508789063
2.8029999999999973,7.446002197265625,0.0088226318359375,6.186907958984375
2.8100000000000023,7.652511596679688,0.5357879638671875,6.4647460937500005
2.819999999999993,7.320391845703125,0.9651062011718752,6.627890014648438
2.8300000000000054,7.129583740234375,1.0534820556640625,6.813015747070313
2.8400000000000034,7.270895385742188,0.9346008300781252,6.530990600585938
2.8499999999999943,7.468283081054688,0.744091796875,6.128738403320313
2.859999999999985,7.510751342773438,0.578704833984375,6.18541259765625
2.8700000000000045,7.42117919921875,0.2657257080078125,6.2882934570312505
2.8799999999999955,7.261474609375001,-0.04366455078125,6.521121215820313
2.8899999999999864,6.432745361328125,0.0157012939453125,5.788543701171875
2.902999999999992,6.549383544921875,0.26796875,5.403488159179688
2.9110000000000014,8.035324096679688,0.471636962890625,6.066830444335938
2.920999999999985,8.70240478515625,0.6866699218750001,7.065283203125
2.931000000000012,7.225735473632813,0.2788848876953125,7.840628051757813
2.9410000000000025,5.836245727539063,-0.0299072265625,7.957864379882813
2.9509999999999934,6.299658203125,-0.3098388671875,7.32547607421875
2.9610000000000056,7.8763671875,-0.6989318847656251,6.366949462890625
2.971000000000004,8.74307861328125,-0.9274230957031252,5.856732177734376
2.9809999999999945,9.076394653320314,-0.8082427978515626,6.032586669921876
2.990999999999985,8.434136962890626,-0.43724365234375,6.3630615234375005
3.002000000000009,7.3105224609375,-0.2739501953125,6.461605834960938
3.010999999999996,6.87926025390625,-0.19798583984375,6.624899291992188
3.021999999999992,6.885540771484376,0.2026214599609375,6.501232910156251
3.0320000000000107,7.333700561523438,0.7348205566406251,6.626992797851563
3.0420000000000016,7.641744995117188,0.995611572265625,6.793426513671876
3.0519999999999854,7.797412109375,1.0250701904296875,6.3944641113281255
3.062000000000012,7.737896728515626,0.8190093994140626,5.871087646484376
3.0720000000000027,7.519125366210938,0.620574951171875,5.32767333984375
3.0819999999999936,7.181771850585938,0.4580291748046875,5.331561279296875
3.092000000000013,7.059451293945313,0.3074462890625,5.928060913085938
3.1030000000000086,7.017581176757813,0.316717529296875,6.870138549804688
3.1119999999999948,7.116275024414063,0.3587371826171875,7.795767211914063
3.1219999999999857,7.05870361328125,0.1915557861328125,7.880554199218751
3.132000000000005,6.802996826171875,-0.1543212890625,7.16038818359375
3.141999999999996,6.99888916015625,-0.4574310302734375,6.256741333007813
3.151999999999987,7.586566162109375,-0.417803955078125,5.567828369140625
3.162000000000006,8.165570068359376,-0.1730133056640625,5.329019165039063
3.171999999999997,8.274133300781251,0.051141357421875,5.9911651611328125
3.1829999999999856,7.859170532226563,0.3327178955078125,6.586468505859376
3.193000000000005,7.093395996093751,0.5618072509765626,6.924569702148438
3.203000000000003,5.902041625976563,0.3575408935546875,6.307882690429688
3.212999999999994,5.701663208007813,0.2504730224609375,5.612988281250001
3.223000000000013,7.479199218750001,0.5954528808593751,5.935089111328125
3.233000000000004,9.428701782226565,0.99112548828125,7.352243041992188
3.242999999999995,8.212673950195313,0.93489990234375,8.033529663085938
3.252999999999986,5.884246826171875,0.46116943359375,7.642343139648438
3.263000000000005,5.110995483398438,0.0982452392578125,6.185711669921876
3.272999999999996,7.004272460937501,-0.078057861328125,4.919439697265625
3.282999999999987,9.575247192382813,0.021533203125,5.496798706054688
3.2930000000000064,9.940713500976564,0.277239990234375,6.752902221679688
3.305000000000007,8.152410888671875,0.140264892578125,8.005267333984376
3.313999999999993,6.328369140625001,-0.6311920166015625,8.012445068359376
3.324000000000005,5.705999755859375,-1.6140930175781252,6.553720092773438
3.334000000000003,6.936831665039063,-1.3673583984375002,5.5570617675781255
3.343999999999994,8.600271606445313,-0.26258544921875,5.578744506835938
3.353999999999985,8.9422607421875,0.8109344482421875,6.172402954101563
3.3640000000000043,8.234356689453126,1.1541198730468751,6.880905151367188
3.3739999999999952,7.025057983398438,0.9045440673828126,6.741986083984376
3.383999999999986,6.802249145507813,0.99591064453125,6.167318725585938
3.3959999999999866,6.999786376953126,1.0346405029296877,5.615679931640625
3.4039999999999964,7.345214843750001,0.8810668945312501,5.530892944335938
3.413999999999988,7.541555786132813,0.7677185058593751,6.178833007812501
3.4240000000000066,7.217062377929688,0.5097686767578126,6.823333740234376
3.433999999999997,6.990664672851563,0.2555572509765625,7.279867553710938
3.4439999999999884,6.998291015625001,-0.2860626220703125,7.105209350585938
3.4550000000000054,7.270297241210938,-0.8142242431640626,6.634469604492188
3.4650000000000034,7.251754760742188,-0.834112548828125,6.360968017578125
3.4749999999999943,7.262820434570313,-0.5988922119140625,6.232815551757813
3.484999999999985,7.663577270507813,-0.2648284912109375,6.477905273437501
3.4950000000000045,7.810272216796876,-0.0949554443359375,6.387884521484375
3.5049999999999955,7.675540161132813,0.1410125732421875,6.360220336914063
3.5149999999999864,7.520919799804688,0.5713775634765625,6.388333129882813
3.5250000000000057,6.999935913085938,0.8913848876953125,6.244628906250001
3.5349999999999966,6.150271606445313,1.2445892333984376,5.713177490234376
3.5449999999999875,6.472372436523438,1.586428833007813,5.561846923828125
3.555000000000007,7.897750854492188,1.6984313964843751,6.175692749023438
3.5649999999999977,8.695675659179688,1.4377899169921875,7.20943603515625
3.5749999999999886,7.055413818359376,0.3880462646484375,7.436431884765626
3.585000000000008,6.009857177734375,-0.716278076171875,7.410861206054688
3.594999999999999,6.769949340820313,-1.2214111328125,7.229025268554688
3.6059999999999945,7.821636962890626,-1.5478485107421875,6.228179931640626
3.6159999999999854,8.342770385742188,-1.6694213867187502,6.148178100585938
3.6260000000000048,8.637655639648438,-1.32728271484375,6.706845092773438
3.635999999999996,8.212823486328126,-0.736614990234375,6.737350463867188
3.6459999999999866,7.626791381835938,-0.208154296875,6.694732666015626
3.656000000000006,7.204949951171876,0.1123016357421875,6.307284545898438
3.665999999999997,7.126742553710938,0.8164672851562501,6.094195556640625
3.675999999999988,7.376766967773438,1.5617553710937502,6.440371704101563
3.686000000000007,7.359869384765625,1.759442138671875,6.610992431640626
3.695999999999998,7.732962036132813,1.648187255859375,6.543402099609375
3.705999999999989,7.766757202148438,1.16937255859375,6.09569091796875
3.717000000000013,7.661782836914063,0.6836791992187501,5.540463256835938
3.727000000000004,7.509255981445313,0.204266357421875,5.535079956054688
3.7369999999999934,6.985879516601563,-0.294586181640625,5.681326293945313
3.7469999999999857,6.815856933593751,-0.4990020751953125,6.617572021484375
3.757000000000005,6.881353759765625,-0.54132080078125,7.486376953125
3.766999999999996,7.129284667968751,-0.584686279296875,7.706195068359375
3.776999999999987,7.288092041015625,-0.602630615234375,7.491461181640625
3.787000000000006,7.144088745117188,-0.615789794921875,6.640451049804688
3.796999999999997,7.281661987304688,-0.2071075439453125,5.970529174804688
3.806999999999988,7.719952392578126,0.35828857421875,5.491714477539063
3.8170000000000073,7.959359741210938,0.6642395019531251,5.603567504882813
3.826999999999998,7.995547485351563,0.9703399658203126,6.26317138671875
3.836999999999989,7.535723876953125,1.1793914794921876,6.666171264648438
3.847000000000008,6.968084716796875,1.200625610351563,7.015338134765625
3.8569999999999993,6.556710815429688,0.871197509765625,6.9462524414062505
3.8669999999999902,5.9503417968750005,0.3046051025390625,5.8670501708984375
3.8770000000000095,6.44261474609375,0.122320556640625,5.1323791503906255
3.888000000000005,7.64249267578125,0.06998291015625,5.209240722656251
3.897999999999996,9.07684326171875,0.190509033203125,6.646432495117188
3.907999999999987,9.138003540039064,0.30206298828125,8.667712402343751
3.9180000000000064,7.322933959960938,-0.0897216796875,8.569766235351564
3.927999999999997,5.148977661132813,-0.5374328613281251,6.6217590332031255
3.937999999999988,5.6141845703125,-0.4505523681640625,5.14105224609375
3.948000000000008,7.760327148437501,-0.0279632568359375,5.061947631835938
3.9579999999999984,9.7007080078125,0.6712677001953126,6.772790527343751
3.967999999999989,9.383990478515626,0.6608001708984376,8.15809326171875
3.9780000000000086,7.595837402343751,-0.2643798828125,7.923919677734376
3.988,6.222497558593751,-1.3408905029296876,6.619815063476563
3.9979999999999913,6.075802612304688,-1.519287109375,5.354739379882813
4.008999999999986,7.488021850585938,-0.4083831787109375,5.290737915039063
4.0190000000000055,8.677880859375001,0.689361572265625,6.170159912109376
4.028999999999996,8.769097900390626,1.031201171875,7.013095092773438
4.038999999999987,7.971023559570313,0.7905975341796876,7.181024169921876
4.049000000000007,7.017730712890626,0.6030792236328125,6.347061157226563
4.0589999999999975,6.521868896484375,0.693548583984375,5.56573486328125
4.068999999999988,6.761276245117188,0.6605010986328126,5.405133056640626
4.079000000000008,7.101171875,0.6966888427734376,5.7055511474609375
4.088999999999999,7.505667114257813,0.8320190429687501,6.632077026367188
4.102000000000004,7.6086975097656255,0.6769500732421876,7.440020751953125
4.109000000000009,7.321737670898438,0.23985595703125,7.4181884765625
4.119,7.006365966796875,-0.360980224609375,6.859970092773438
4.128999999999991,6.807931518554688,-0.627752685546875,6.233712768554688
4.13900000000001,7.086517333984376,-0.4053924560546875,5.842227172851563
4.149000000000001,7.810122680664063,-0.1481903076171875,6.0535217285156255
4.159999999999997,8.152859497070313,-0.0925628662109375,6.429455566406251
4.169999999999988,7.924966430664063,-0.0330474853515625,6.785202026367188
4.180000000000007,7.35299072265625,0.1631439208984375,6.73331298828125
4.189999999999998,6.834100341796876,0.3769805908203125,6.462054443359375
4.201999999999998,6.761126708984375,0.4493560791015625,6.4049316406250005
4.210000000000008,6.638357543945313,0.6941467285156251,5.887237548828125
4.219999999999999,6.535476684570313,1.3917327880859376,5.049685668945313
4.22999999999999,7.879806518554688,1.5409698486328127,5.637362670898438
4.240000000000009,8.812463378906251,1.2907958984375,6.622207641601563
4.25,7.57071533203125,0.7739990234375,7.140948486328125
4.2620000000000005,6.324929809570313,0.03409423828125,8.262319946289063
4.27000000000001,5.917892456054688,-0.437841796875,7.893264770507813
4.280000000000001,6.875671386718751,-0.9033477783203124,6.845315551757813
4.290999999999997,8.176486206054689,-1.3455261230468751,6.254348754882813
4.301999999999985,9.097927856445311,-1.3769287109375,6.002081298828125
4.311000000000007,9.147274780273438,-1.20526123046875,6.290237426757813
4.320999999999998,8.181121826171875,-1.027313232421875,6.350051879882813
4.330999999999989,7.034628295898438,-0.6548187255859376,6.367248535156251
4.341000000000008,6.950140380859375,0.1126007080078125,6.652413940429688
4.350999999999999,6.937429809570313,0.974676513671875,6.675442504882813
4.36099999999999,7.289138793945313,1.433901977539063,6.774884033203126
4.371000000000009,7.769897460937501,1.5322967529296876,6.760678100585938
4.381,7.8225341796875005,1.517642211914063,6.010754394531251
4.390999999999991,7.7316162109375,1.2436920166015626,5.464947509765626
4.401999999999987,7.356579589843751,0.7943359375000001,5.147183227539063
4.411000000000001,7.003973388671875,0.3566436767578125,5.372235107421876
4.421999999999997,6.851745605468751,0.082244873046875,6.501980590820313
4.431000000000012,6.901242065429688,-0.027215576171875,7.388580322265626
4.442000000000007,7.14005126953125,-0.2764923095703125,8.059698486328125
4.451999999999998,7.207940673828125,-0.6485382080078126,7.730419921875001
4.461999999999989,6.907821655273438,-0.8734405517578125,6.697872924804688
4.472000000000008,7.309326171875001,-0.727642822265625,5.9048828125
4.481999999999999,7.825973510742188,-0.31881103515625,5.301055908203125
4.49199999999999,8.141943359375,0.080450439453125,5.4737701416015625
4.5020000000000095,8.160934448242188,0.4960113525390625,6.303695678710938
4.5120000000000005,7.585369873046876,0.9274230957031252,6.818847656250001
4.521999999999991,6.936233520507813,1.1772979736328126,7.093395996093751
4.532000000000011,6.423773193359375,1.0292572021484376,6.989617919921876
4.542000000000002,6.142196655273438,0.7213623046875001,6.019427490234375
4.551999999999985,6.232516479492188,0.322698974609375,4.98673095703125
4.562000000000012,7.742681884765625,0.2229583740234375,5.037124633789063
4.573000000000008,9.832000732421877,0.410626220703125,6.816903686523438
4.582999999999998,8.821884155273438,0.2693145751953125,8.125643920898439
4.592999999999989,5.956921386718751,-0.0897216796875,8.33753662109375
4.603000000000009,4.426119995117188,-0.1637420654296875,7.152911376953125
4.613,5.419338989257813,-0.375634765625,5.382403564453125
4.622999999999991,8.881250000000001,0.0940582275390625,5.692691040039063
4.63300000000001,10.897296142578126,0.48270263671875,6.603665161132813
4.643000000000001,9.702203369140626,0.3195587158203125,7.353588867187501
4.652999999999992,7.389178466796875,-0.3529052734375,7.471273803710938
4.663000000000011,5.455526733398438,-1.4865386962890623,6.157150268554688
4.673000000000002,6.191693115234376,-1.2239532470703125,5.731570434570313
4.682999999999986,7.649819946289063,-0.2011260986328125,5.91026611328125
4.693000000000005,8.558551025390626,0.8257385253906251,6.574655151367188
4.704000000000008,8.505465698242189,1.3453765869140626,7.486825561523438
4.713999999999999,7.27822265625,0.839794921875,6.858773803710938
4.7239999999999895,6.884793090820313,0.8466735839843751,6.127392578125001
4.734000000000009,6.9755615234375,0.9082824707031252,5.2793731689453125
4.744,7.234259033203125,0.7221099853515626,4.990768432617188
4.753999999999991,7.771841430664063,0.79373779296875,5.966940307617188
4.76400000000001,7.514190673828126,0.5543304443359376,6.564636230468751
4.774000000000001,7.335644531250001,0.2857635498046875,7.405926513671876
4.783999999999992,6.941018676757813,-0.2956329345703125,7.425964355468751
4.794000000000011,6.63760986328125,-0.8593841552734376,6.749911499023438
4.804000000000002,6.994552612304688,-0.8045043945312501,6.553121948242188
4.813999999999993,7.153210449218751,-0.4912261962890625,6.159991455078125
4.824000000000005,7.810571289062499,-0.0988433837890625,6.374874877929688
4.835000000000008,8.138204956054688,0.0761138916015625,6.4348388671875005
4.844999999999999,7.831207275390626,0.128302001953125,6.247320556640625
4.85499999999999,7.525106811523438,0.432757568359375,6.376370239257813
4.865000000000009,6.9312988281250005,0.7198669433593751,6.170458984375
4.875,6.85892333984375,0.9082824707031252,6.5114013671875
4.884999999999991,6.486578369140625,1.0800994873046876,6.166271972656251
4.89500000000001,6.4168945312500005,1.5098663330078126,5.35159912109375
4.905000000000001,7.646530151367188,1.4943145751953126,5.8834991455078125
4.914999999999985,8.781210327148438,1.02581787109375,7.015487670898438
4.925000000000011,7.550976562500001,0.3108856201171875,7.330410766601563
4.935000000000002,6.1955810546875005,-0.552685546875,7.5728088378906255
4.944999999999993,6.508709716796876,-1.1641387939453125,7.435385131835938
4.955000000000005,7.776327514648438,-1.4974548339843752,6.488223266601563
4.965000000000003,8.231814575195314,-1.6931976318359376,6.015838623046875
4.974999999999994,8.610589599609376,-1.2326263427734376,6.81705322265625
4.984999999999985,7.975509643554688,-0.6428558349609376,6.761425781250001
4.996000000000009,7.651016235351563,-0.073272705078125,6.6441894531250005
5.006,7.49295654296875,0.2121917724609375,6.282312011718751
5.0190000000000055,7.37930908203125,0.7393066406250001,5.874526977539063
5.0260000000000105,7.646829223632813,1.4256774902343752,6.456372070312501
5.037000000000006,7.22139892578125,1.5041839599609377,6.493756103515626
5.045999999999985,7.3129150390625,1.460818481445313,6.525756835937501
5.056000000000012,7.720849609375,1.1092590332031251,6.26676025390625
5.0660000000000025,7.736550903320313,0.67530517578125,5.471975708007813
5.075999999999993,7.487124633789063,0.284716796875,5.503677368164063
5.086000000000006,6.927261352539063,-0.3004180908203125,5.875274658203125
5.096000000000004,6.740640258789063,-0.4101776123046875,6.770846557617188
5.1059999999999945,6.993057250976563,-0.37384033203125,7.536621093750001
5.11699999999999,7.150967407226563,-0.5016937255859375,7.582827758789063
5.126000000000005,7.350299072265625,-0.44920654296875,7.256390380859376
5.135999999999996,7.131228637695313,-0.4294677734375,6.401193237304688
5.145999999999987,7.339682006835938,-0.1170867919921875,5.963949584960938
5.157000000000011,7.715466308593751,0.3282318115234375,5.696728515625001
5.167000000000002,7.874722290039063,0.5994903564453126,5.7098876953125
5.176999999999985,8.006613159179688,0.9199462890625,6.357827758789063
5.187000000000012,7.437179565429688,1.0159484863281252,6.6696105957031255
5.197000000000003,6.656301879882813,0.9009552001953126,6.567178344726563
5.206999999999994,6.063241577148438,0.3850555419921875,6.015988159179688
5.218999999999994,6.193936157226563,-0.2002288818359375,5.079592895507813
5.227000000000004,8.137008666992188,-0.14295654296875,6.073858642578125
5.236999999999995,8.775827026367189,0.4306640625,7.689147949218751
5.246999999999986,6.962551879882813,0.305950927734375,8.044744873046875
5.257000000000005,5.968585205078125,0.5656951904296875,7.61318359375
5.268000000000001,7.340579223632813,0.7707092285156251,6.471624755859375
5.277999999999992,8.682666015625001,0.0611602783203125,5.313018798828125
5.288000000000011,8.580084228515625,-0.248529052734375,5.803497314453125
5.298000000000002,7.508657836914063,-0.5507415771484375,7.113433837890626
5.307999999999986,7.198220825195313,-0.7197174072265625,7.82193603515625
5.318999999999988,7.340130615234376,-0.99351806640625,7.246371459960938
5.328000000000003,7.637557983398438,-1.149932861328125,6.178085327148438
5.337999999999994,7.956219482421876,-0.12501220703125,5.6771392822265625
5.348000000000013,7.658792114257813,0.8746368408203126,5.8546386718750005
5.358000000000004,7.219903564453125,1.2583465576171875,6.538168334960938
5.367999999999995,7.213623046875001,1.286907958984375,6.775033569335938
5.377999999999986,7.665521240234375,1.2741973876953123,6.42825927734375
5.388000000000005,7.866049194335938,1.2677673339843751,6.010305786132813
5.397999999999996,7.436880493164063,0.925927734375,5.647830200195313
5.408999999999992,6.933392333984376,0.421392822265625,5.930004882812501
5.419999999999988,6.714172363281251,0.0689361572265625,6.350350952148438
5.429000000000002,6.889129638671876,-0.250323486328125,6.796267700195313
5.438999999999993,7.418936157226563,-0.6174346923828126,7.14603271484375
5.449000000000005,7.633221435546876,-0.9873870849609376,6.996047973632813
5.459000000000003,7.531536865234376,-1.0229766845703123,6.775930786132813
5.468999999999994,7.123004150390625,-0.6437530517578125,6.4124084472656255
5.478999999999985,7.063937377929688,-0.1030303955078125,6.0807373046875
5.489000000000004,7.633221435546876,0.2558563232421875,6.086569213867188
5.498999999999995,7.867694091796875,0.5860321044921876,6.218310546875
5.508999999999986,7.691091918945313,1.0059295654296876,6.471325683593751
5.5190000000000055,7.31351318359375,1.271954345703125,6.724490356445313
5.528999999999996,6.909017944335938,1.21363525390625,6.677685546875001
5.538999999999987,6.813314819335938,0.8816650390625,6.519027709960938
5.550000000000011,6.6232543945312505,0.7034179687500001,5.627642822265625
5.560000000000002,6.802249145507813,0.77100830078125,4.853195190429688
5.569999999999993,7.790383911132813,0.492572021484375,5.35997314453125
5.580000000000005,9.08985290527344,0.3204559326171875,7.250408935546876
5.590000000000003,8.093344116210938,-0.13936767578125,8.613580322265626
5.599999999999994,5.606857299804688,-0.8705993652343751,8.177233886718751
5.609999999999985,4.888336181640625,-1.47322998046875,7.049581909179688
5.6200000000000045,7.040609741210938,-1.6206726074218751,5.818002319335938
5.629999999999996,9.181668090820311,-1.1639892578125002,5.443563842773438
5.639999999999986,9.905123901367189,-0.3007171630859375,6.607254028320313
5.650000000000006,8.561093139648438,0.405242919921875,7.155453491210938
5.661000000000001,7.301849365234376,0.916058349609375,6.978253173828126
5.669999999999988,6.558654785156251,0.8952728271484376,6.295471191406251
5.680000000000007,6.637460327148438,1.051089477539063,5.670111083984375
5.6910000000000025,7.496395874023438,1.3818634033203123,6.198571777343751
5.700999999999993,7.872927856445313,1.2058593750000002,6.864007568359376
5.711000000000006,7.8033935546875,0.9064880371093752,6.968832397460938
5.721000000000004,7.793225097656251,0.2932403564453125,6.552972412109376
5.7309999999999945,7.709933471679688,-0.285614013671875,5.5694732666015625
5.7409999999999854,7.563537597656251,-0.6060699462890625,5.206100463867188
5.751000000000005,7.095339965820313,-0.8619262695312501,5.434442138671876
5.760999999999996,6.885092163085938,-0.657958984375,6.418090820312501
5.771999999999991,7.015188598632813,-0.273052978515625,7.387982177734376
5.781000000000006,7.117919921875001,-0.00657958984375,7.686605834960938
5.790999999999997,7.229623413085938,0.247332763671875,7.425964355468751
5.801999999999985,7.1062561035156255,0.4954132080078125,6.634170532226563
5.811000000000007,7.004272460937501,0.7925415039062501,5.942416381835938
5.822000000000003,7.273437500000001,0.9621154785156252,5.716915893554688
5.831999999999994,7.851992797851563,0.8957214355468751,5.8510498046875
5.842000000000013,8.176187133789064,0.7846160888671876,6.210235595703126
5.852000000000004,7.796664428710938,0.6066680908203126,6.588262939453125
5.861999999999995,7.1615844726562505,0.337353515625,6.805239868164063
5.871999999999986,6.529046630859376,-0.079852294921875,6.641049194335938
5.882000000000005,6.121411132812501,-0.6392669677734375,5.840582275390625
5.891999999999996,6.728826904296875,-0.8803192138671876,5.428311157226563
5.901999999999987,8.280563354492188,-0.651678466796875,6.408071899414063
5.912000000000006,8.365499877929688,-0.0946563720703125,7.554116821289063
5.921999999999997,6.7533508300781255,0.30684814453125,7.628884887695313
5.931999999999988,6.173599243164063,0.9772186279296876,6.671405029296875
5.943000000000005,7.798458862304688,1.6613464355468752,5.960958862304688
5.951999999999998,9.030636596679688,1.4596221923828123,5.681924438476563
5.962999999999994,8.099923706054689,0.9338531494140626,6.423025512695313
5.973000000000013,6.755743408203125,0.221612548828125,7.774383544921876
5.983000000000004,6.662432861328125,-0.7068572998046876,7.978948974609375
5.992999999999995,7.30992431640625,-1.5409698486328127,6.753948974609376
6.002999999999986,8.306283569335939,-1.8240417480468751,5.731719970703125
6.013000000000005,8.712274169921876,-0.992919921875,5.3701416015625005
6.022999999999996,8.105157470703126,-0.02213134765625,5.955575561523438
6.032999999999987,7.056460571289063,0.2959320068359375,6.794772338867188
6.043000000000006,6.686657714843751,0.554779052734375,6.890325927734375
6.052999999999997,7.322335815429688,1.1481384277343751,6.659741210937501
6.062999999999988,7.711727905273438,1.5293060302734376,6.14354248046875
6.073000000000008,7.508059692382813,1.5311004638671877,5.840731811523438
6.082999999999998,7.174743652343751,1.296328735351563,6.00238037109375
6.092999999999989,6.852792358398438,0.9917236328125,6.04425048828125
6.103999999999985,7.06767578125,0.5809478759765625,6.3481079101562505
6.114000000000004,7.457366943359376,-0.144451904296875,6.619515991210938
6.123999999999995,7.547088623046876,-0.7822235107421875,6.755743408203125
6.133999999999986,7.400244140625,-1.0283599853515626,7.089358520507813
6.1440000000000055,6.899746704101563,-0.9745269775390626,7.022665405273438
6.153999999999996,6.897354125976563,-0.737213134765625,6.754547119140626
6.163999999999987,7.454824829101563,-0.5776580810546875,6.321340942382813
6.174000000000007,7.938873291015626,-0.2480804443359375,5.92581787109375
6.1839999999999975,8.028744506835938,0.3264373779296875,6.033782958984375
6.193999999999988,7.575350952148438,0.8453277587890625,6.243582153320313
6.204000000000008,6.987374877929688,1.1831298828125,6.4037353515625
6.213999999999999,6.145935058593751,1.59046630859375,5.613885498046876
6.2239999999999895,6.167617797851563,2.2102935791015628,4.565338134765625
6.234999999999985,8.595486450195313,2.1872650146484376,6.2853027343750005
6.244,8.58157958984375,1.5101654052734377,7.851394653320313
6.254999999999996,5.888882446289063,0.4649078369140625,8.1192138671875
6.264999999999986,5.439376831054688,-0.8049530029296875,8.626739501953125
6.275000000000006,7.0114501953125,-1.5327453613281252,6.97197265625
6.284999999999997,8.839678955078126,-1.9287170410156247,5.17813720703125
6.294999999999988,9.804037475585938,-2.2409484863281253,5.6542602539062505
6.305000000000007,8.686553955078125,-1.7585449218750002,6.0831298828125
6.314999999999998,7.468283081054688,-1.093109130859375,7.136761474609376
6.324999999999989,6.733013916015626,-0.7899993896484375,7.529293823242188
6.335000000000008,6.652862548828126,-0.0160003662109375,6.635067749023438
6.344999999999999,7.5369201660156255,0.95224609375,6.640151977539063
6.35499999999999,7.707241821289063,1.7003753662109375,6.369940185546875
6.365000000000009,7.498788452148438,2.133880615234375,6.133224487304688
6.375,7.703204345703125,1.8002655029296877,6.261077880859376
6.385999999999996,7.629333496093751,1.3872467041015626,5.576202392578125
6.395999999999987,7.813262939453126,1.0638000488281252,5.399151611328126
6.406000000000006,7.497891235351563,0.3778778076171875,5.550631713867188
6.415999999999997,6.88284912109375,-0.140863037109375,6.100625610351563
6.425999999999988,6.699069213867188,-0.3739898681640625,7.240689086914063
6.436000000000007,6.635665893554688,-0.5685363769531251,7.59404296875
6.445999999999998,7.114331054687501,-0.7283905029296875,7.638455200195313
6.455999999999989,7.4651428222656255,-0.9727325439453126,7.038067626953126
6.466000000000008,7.406973266601563,-0.8088409423828126,6.040811157226563
6.475999999999999,7.620062255859375,-0.23267822265625,5.777478027343751
6.48599999999999,7.781561279296875,0.2423980712890625,5.6357177734375
6.496000000000009,7.836740112304688,0.75784912109375,5.9635009765625
6.507000000000005,7.730120849609375,1.024322509765625,6.606805419921876
6.5190000000000055,7.1959777832031255,1.2970764160156252,6.858026123046876
6.526999999999987,6.824829101562501,1.350161743164063,6.975112915039063
6.537000000000006,6.499887084960938,0.90260009765625,6.581234741210938
6.546999999999997,6.2912841796875005,0.3584381103515625,5.483489990234375
6.556999999999988,6.7653137207031255,-0.05562744140625,4.554122924804688
6.567000000000007,8.665469360351564,-0.002093505859375,5.53582763671875
6.576999999999998,9.897946166992188,0.322698974609375,8.042651367187501
6.586999999999989,6.993804931640626,-0.12142333984375,8.515335083007812
6.597000000000008,4.026858520507813,-0.1389190673828125,7.577593994140625
6.606999999999999,5.500088500976563,0.2715576171875,6.744827270507813
6.619,9.008206176757811,0.1637420654296875,5.4662933349609375
6.6270000000000095,10.361807250976565,-0.0073272705078125,5.620016479492188
6.6370000000000005,9.119012451171876,-0.3650177001953125,7.096536254882813
6.646999999999991,7.054217529296875,-0.6926513671875001,7.550976562500001
6.657999999999987,5.975314331054688,-1.1315399169921876,6.94505615234375
6.668000000000006,6.4109130859375005,-1.4733795166015626,6.098980712890626
6.677999999999997,7.985977172851563,-0.2651275634765625,5.656802368164063
6.687999999999988,8.901287841796876,1.1925506591796875,6.237600708007813
6.698000000000008,8.093792724609376,1.5791015625000002,6.929803466796876
6.707999999999998,6.881802368164063,1.21722412109375,6.936383056640626
6.718999999999994,6.752453613281251,0.8788238525390626,6.461904907226563
6.728000000000009,7.268353271484376,1.0159484863281252,5.612390136718751
6.738,7.70469970703125,0.9392364501953124,5.2759338378906255
6.747999999999991,7.904779052734375,0.478515625,5.845816040039063
6.75800000000001,7.486676025390626,0.0871795654296875,6.492410278320313
6.768000000000001,6.936083984375,-0.125909423828125,7.018627929687501
6.777999999999992,6.5951416015625,-0.4880859375,7.216015625000001
6.788000000000011,6.773239135742188,-0.8824127197265625,6.944906616210938
6.798000000000002,7.3583740234375,-0.8474212646484376,6.6561523437500005
6.8089999999999975,7.56712646484375,-0.3828125,6.340332031250001
6.819999999999993,7.575201416015625,0.102880859375,6.256741333007813
6.829000000000008,7.708438110351563,0.366961669921875,6.323883056640626
6.838999999999999,7.674194335937501,0.457879638671875,6.133673095703125
6.8489999999999895,7.491610717773438,0.7280914306640626,6.219058227539063
6.859000000000009,7.264465332031251,0.9658538818359376,6.453680419921875
6.869,7.040609741210938,1.04017333984375,6.617123413085938
6.878999999999991,6.866400146484375,0.8782257080078125,6.582281494140625
6.88900000000001,6.516485595703125,0.88046875,5.7544494628906255
6.899000000000001,6.935784912109376,1.0128082275390626,5.162435913085938
6.908999999999992,8.310769653320314,0.8424865722656251,5.917742919921875
6.919999999999988,8.846408081054689,0.433056640625,7.437329101562501
6.930000000000007,7.085919189453126,-0.179742431640625,7.867095947265626
6.939999999999998,5.406777954101563,-0.8680572509765626,7.457815551757813
6.949999999999989,5.872433471679688,-1.3630218505859375,6.8463623046875
6.960000000000008,7.739541625976563,-1.4853424072265626,6.094494628906251
6.969999999999999,9.155349731445312,-1.170718383789063,6.31102294921875
6.97999999999999,9.174789428710938,-0.5241241455078125,6.99888916015625
6.990000000000009,8.120709228515626,0.0109161376953125,6.951486206054688
7.0,7.30394287109375,0.3542510986328125,6.400296020507813
7.009999999999991,6.798062133789063,0.5058807373046875,5.676840209960938
7.02000000000001,7.101171875,0.9422271728515624,5.77568359375
7.030000000000001,7.656698608398438,1.3015625000000002,6.6935363769531255
7.039999999999985,7.562640380859375,1.218719482421875,7.137509155273438
7.050000000000011,7.530041503906251,0.8973663330078125,7.133322143554688
7.060000000000002,7.496246337890626,0.34752197265625,6.380258178710938
7.069999999999993,7.504769897460938,0.0019439697265625,5.433993530273438
7.080999999999989,7.601220703125,-0.270361328125,5.187408447265625
7.091000000000008,7.538265991210938,-0.48389892578125,5.47362060546875
7.100999999999999,7.507461547851563,-0.3105865478515625,6.408071899414063
7.11099999999999,7.1932861328125,-0.1567138671875,7.15799560546875
7.121000000000009,6.851296997070313,-0.056524658203125,7.505517578125
7.131,6.741238403320313,0.08134765625,7.39964599609375
7.140999999999991,6.786846923828126,0.3198577880859375,6.746173095703125
7.1510000000000105,7.039263916015625,0.6634918212890626,6.260629272460938
7.161000000000001,7.477255249023438,0.7723541259765626,5.988623046875
7.171999999999997,8.03009033203125,0.8070465087890626,5.941519165039063
7.181000000000012,8.198318481445312,0.6883148193359375,6.041708374023438
7.1910000000000025,7.703952026367188,0.4266265869140625,6.244180297851563
7.200999999999993,6.924420166015626,0.2130889892578125,6.246273803710938
7.211000000000006,6.405978393554688,-0.149237060546875,6.036923217773438
7.222000000000008,6.52396240234375,-0.470440673828125,5.917294311523438
7.231999999999999,7.768701171875,-0.329278564453125,6.791033935546875
7.24199999999999,8.135363769531251,0.256903076171875,7.909115600585938
7.2520000000000095,6.23685302734375,0.357391357421875,7.448394775390626
7.262,5.887985229492188,0.6207244873046875,6.689797973632813
7.271999999999991,8.384341430664064,0.8548980712890626,5.943911743164063
7.282000000000011,9.469076538085938,0.22430419921875,4.985684204101563
7.292000000000002,8.525653076171876,-0.037384033203125,6.1327758789062505
7.301999999999985,6.672750854492188,-0.0560760498046875,7.644137573242188
7.312000000000012,5.911761474609375,-0.101385498046875,8.035922241210939
7.322000000000003,6.82303466796875,-0.3147735595703125,7.512695312500001
7.331999999999994,8.237197875976562,-0.699530029296875,6.105111694335938
7.342000000000013,8.982186889648439,-0.2773895263671875,5.429058837890626
7.352000000000004,8.277871704101564,0.1792938232421875,5.714672851562501
7.362999999999999,7.028198242187501,0.26138916015625,6.289190673828125
7.3729999999999905,6.749313354492188,0.4388885498046875,6.779669189453125
7.38300000000001,7.255642700195313,0.7026702880859376,6.563739013671875
7.393000000000001,7.872329711914063,1.1022308349609375,6.270797729492188
7.402999999999992,7.891171264648438,1.0244720458984375,6.204104614257813
7.413000000000011,7.284652709960938,0.5486480712890626,6.245526123046876
7.423000000000002,6.913952636718751,0.349615478515625,6.294424438476563
7.432999999999986,6.896456909179688,0.134881591796875,6.166421508789063
7.443000000000005,7.305587768554688,-0.09749755859375,6.229226684570313
7.453000000000003,7.618417358398438,-0.2106964111328125,6.483737182617188
7.462999999999994,7.485330200195313,-0.3034088134765625,6.883746337890625
7.473000000000013,7.171902465820313,-0.2053131103515625,7.216464233398438
7.483000000000004,6.727182006835938,-0.253314208984375,6.912008666992188
7.492999999999995,7.014141845703126,-0.25540771484375,6.508709716796876
7.503999999999991,7.703802490234375,-0.004486083984375,6.108999633789063
7.51400000000001,7.998089599609376,0.3494659423828125,5.835797119140626
7.524000000000001,7.870086669921876,0.6646881103515625,6.202609252929688
7.537000000000006,7.361065673828126,0.6760528564453125,6.531887817382813
7.544000000000011,7.022665405273438,0.6616973876953125,6.6397033691406255
7.554000000000002,6.525009155273438,0.7684661865234376,6.073410034179688
7.563999999999993,6.230422973632813,1.096099853515625,5.119070434570313
7.574000000000005,7.407272338867188,1.36676025390625,5.5316406250000005
7.584000000000003,8.974710083007814,1.268365478515625,7.388430786132813
7.593999999999994,7.7911315917968755,0.7547088623046876,8.181420898437501
7.603999999999985,5.725289916992188,-0.3632232666015625,7.7316162109375
7.614000000000004,5.7960205078125,-1.5701293945312502,6.932345581054688
7.623999999999995,7.78245849609375,-1.86142578125,5.6763916015625
7.637,9.246267700195313,-1.6106536865234375,5.684317016601563
7.64500000000001,9.2987548828125,-1.0047332763671877,7.01683349609375
7.655000000000001,7.805337524414063,-0.2286407470703125,7.176986694335938
7.664999999999985,6.942813110351563,0.170172119140625,6.915597534179688
7.675000000000011,6.797164916992188,0.237164306640625,6.306835937500001
7.685000000000002,7.046591186523438,0.600537109375,5.677737426757813
7.694999999999993,7.797860717773438,1.2140838623046877,6.381304931640625
7.705000000000005,7.76451416015625,1.4467620849609375,6.79552001953125
7.715000000000003,7.687503051757813,1.3628723144531252,6.794473266601563
7.724999999999994,7.713671875,0.7801300048828126,6.4049316406250005
7.736999999999995,7.44869384765625,0.2591461181640625,5.4304046630859375
7.745000000000003,7.54320068359375,0.0055328369140625,5.462704467773438
7.756,7.264465332031251,-0.3433349609375,5.6935882568359375
7.764999999999986,7.070816040039063,-0.344830322265625,6.450988769531251
7.775000000000006,7.124948120117188,-0.22310791015625,7.428805541992188
7.786000000000001,6.923522949218751,-0.1999298095703125,7.400991821289063
7.795999999999985,7.09818115234375,-0.0921142578125,7.225735473632813
7.806000000000012,7.186407470703125,-0.0861328125,6.636862182617188
7.816000000000002,7.133172607421876,0.2286407470703125,6.043353271484375
7.825999999999993,7.452880859375001,0.5854339599609375,5.942715454101563
7.836999999999989,7.831356811523438,0.7095489501953125,5.941070556640625
7.846000000000004,8.107400512695314,0.7663726806640626,6.216217041015626
7.855999999999994,7.646978759765625,0.6144439697265626,6.533682250976563
7.8659999999999854,7.005767822265626,0.5740692138671876,6.673199462890626
7.876000000000005,6.521868896484375,0.3170166015625,6.534729003906251
7.885999999999996,6.286050415039063,-0.1447509765625,5.806488037109375
7.895999999999987,6.9635986328125,-0.35230712890625,5.424273681640625
7.907000000000011,8.60670166015625,-0.0662445068359375,6.566580200195313
7.917000000000002,8.560046386718751,0.2735015869140625,7.739691162109375
7.926999999999985,6.241040039062501,0.15252685546875,7.656997680664063
7.937000000000012,5.399151611328126,0.403448486328125,7.012646484375001
7.947000000000003,7.224987792968751,0.7582977294921875,5.983837890625001
7.956999999999994,9.243276977539065,0.6515289306640626,5.355038452148438
7.967000000000013,9.318643188476564,0.5630035400390625,6.151766967773438
7.977000000000004,7.523013305664063,0.2047149658203125,7.207492065429688
7.986999999999995,6.498840332031251,-0.178546142578125,7.815805053710938
7.996999999999986,6.632824707031251,-0.95882568359375,7.148873901367188
8.007000000000005,7.533032226562501,-1.507623291015625,5.9986419677734375
8.016999999999996,8.583074951171875,-0.8006164550781251,5.773590087890625
8.026999999999987,8.326470947265626,0.0719268798828125,5.974566650390625
8.038000000000011,7.348205566406251,0.4807586669921875,6.592300415039063
8.046999999999997,6.811520385742188,0.5531341552734376,6.781314086914063
8.057999999999986,7.123303222656251,0.8480194091796875,6.442016601562501
8.068000000000005,7.69931640625,1.3399932861328123,6.0405120849609375
8.078000000000003,7.739392089843751,1.2919921875,5.819348144531251
8.087999999999994,7.511798095703125,0.989630126953125,6.138308715820313
8.098000000000013,7.137957763671875,0.7603912353515625,6.301004028320313
8.108000000000004,6.970626831054688,0.4592254638671875,6.406576538085938
8.119,7.182818603515625,-0.0228790283203125,6.616824340820313
8.127999999999986,7.23515625,-0.5991912841796876,6.580337524414063
8.138000000000005,7.379458618164063,-0.8172149658203126,6.874026489257813
8.147999999999996,7.199267578125,-0.66693115234375,7.0234130859375
8.157999999999987,7.020272827148438,-0.5016937255859375,6.854437255859375
8.168000000000006,7.38170166015625,-0.358587646484375,6.512298583984376
8.177999999999997,7.7791687011718755,-0.1463958740234375,6.014044189453125
8.188999999999993,7.90567626953125,0.2717071533203125,5.9373321533203125
8.198000000000008,7.578939819335938,0.7292877197265626,6.154309082031251
8.209000000000003,7.191342163085938,0.9449188232421876,6.471176147460938
8.218999999999994,7.046292114257813,1.0445098876953125,6.784603881835938
8.228999999999985,6.505419921875,1.1983825683593752,6.096737670898438
8.239000000000004,6.410614013671876,1.5527832031250002,5.283261108398438
8.248999999999995,7.598529052734375,1.468743896484375,5.6692138671875005
8.258999999999986,8.639300537109376,1.094903564453125,6.9659912109375
8.269000000000005,7.479797363281251,0.409429931640625,7.774981689453125
8.278999999999996,5.76431884765625,-0.6428558349609376,7.805636596679688
8.288999999999987,6.146383666992188,-1.6477386474609377,7.475311279296876
8.299000000000007,8.15211181640625,-1.9605682373046875,6.371136474609376
8.308999999999997,9.075048828125,-1.8931274414062504,5.656353759765626
8.318999999999988,8.985476684570314,-1.2418975830078125,6.431549072265626
8.329000000000008,7.903134155273438,-0.4203460693359375,6.621459960937501
8.340000000000003,7.182968139648438,0.216229248046875,6.541607666015626
8.349999999999994,7.006814575195313,0.4750762939453125,6.556411743164063
8.359999999999985,7.105358886718751,0.9123199462890624,6.2003662109375
8.370000000000005,7.541256713867188,1.5526336669921876,6.670806884765626
8.379999999999995,7.337887573242188,1.5852325439453123,6.750360107421876
8.389999999999986,7.439572143554688,1.41162109375,6.469680786132813
8.400000000000006,7.821188354492188,0.9316101074218752,6.07535400390625
8.409999999999997,7.816702270507813,0.3792236328125,5.275335693359375
8.419999999999987,7.8488525390625,-0.020635986328125,5.4120117187500005
8.430000000000007,7.34940185546875,-0.5244232177734376,5.8023010253906255
8.439999999999998,6.804791259765626,-0.6162384033203125,6.667068481445313
8.449999999999989,6.659890747070313,-0.454888916015625,7.556509399414063
8.460000000000008,6.736901855468751,-0.390887451171875,7.6700073242187505
8.469999999999999,7.204949951171876,-0.1368255615234375,7.411907958984376
8.47999999999999,7.30513916015625,-0.059814453125,6.589459228515626
8.490999999999985,7.313812255859376,0.234173583984375,5.9252197265625
8.501000000000005,7.670904541015625,0.5535827636718751,5.680728149414063
8.510999999999996,7.904928588867188,0.721661376953125,5.665475463867188
8.520999999999987,8.015585327148438,0.8830108642578126,6.168515014648438
8.531000000000006,7.540658569335938,0.8912353515625001,6.623403930664063
8.540999999999997,6.9253173828125005,0.8205047607421876,6.786398315429688
8.550999999999988,6.293975830078126,0.3560455322265625,6.552523803710938
8.561000000000007,5.996249389648438,-0.28770751953125,5.737103271484376
8.570999999999998,7.443310546875001,-0.286810302734375,5.950042724609375
8.580999999999989,9.002822875976562,0.1111053466796875,7.0658813476562505
8.591000000000008,7.910910034179688,0.101983642578125,7.465740966796876
8.600999999999999,5.472872924804688,0.1383209228515625,7.032235717773438
8.611999999999995,6.203506469726563,0.4605712890625,6.705648803710938
8.621999999999986,8.704797363281251,0.387896728515625,5.923126220703125
8.632000000000005,9.4542724609375,0.0061309814453125,5.841928100585938
8.641999999999996,8.070315551757814,-0.1640411376953125,6.8439697265625
8.651999999999987,6.70938720703125,-0.0656463623046875,7.336093139648438
8.662000000000006,6.630432128906251,-0.196490478515625,7.253250122070313
8.671999999999997,7.327270507812501,-0.6346313476562501,6.480447387695313
8.681999999999988,8.151065063476564,-0.438739013671875,5.686709594726563
8.692000000000007,8.447296142578125,0.4098785400390625,5.963650512695313
8.701999999999998,7.5880615234375,0.735418701171875,6.430502319335938
8.711999999999989,6.7428833007812505,0.6014343261718751,6.745574951171876
8.722000000000008,7.022366333007813,0.547003173828125,6.716265869140625
8.732,7.567575073242188,0.71597900390625,6.0968872070312505
8.74199999999999,8.018426513671876,0.8318695068359375,5.814862060546876
8.75200000000001,7.772140502929688,0.4173553466796875,5.929705810546875
8.763000000000005,7.2528015136718755,0.08553466796875,6.175991821289063
8.772999999999996,6.9088684082031255,0.1351806640625,6.513494873046875
8.782999999999987,6.863259887695313,0.087628173828125,6.599478149414063
8.793000000000006,7.247268676757813,-0.161199951171875,6.815856933593751
8.802999999999997,7.408468627929688,-0.3590362548828125,6.941467285156251
8.812999999999988,7.2393432617187505,-0.180340576171875,6.883746337890625
8.823000000000008,7.016384887695313,0.036785888671875,6.798959350585938
8.832999999999998,7.1490234375,0.0112152099609375,6.430502319335938
8.84299999999999,7.666717529296876,0.1072174072265625,6.0592041015625
8.853000000000009,8.011398315429688,0.2842681884765625,5.86600341796875
8.863,7.838235473632813,0.5461059570312501,6.131130981445313
8.87299999999999,7.337738037109376,0.6593048095703126,6.534729003906251
8.88300000000001,6.61607666015625,0.5804992675781251,6.498242187500001
8.893,6.0774475097656255,0.8937774658203126,5.782113647460938
8.903999999999996,6.737200927734375,1.3253387451171876,5.445358276367188
8.913999999999987,8.450735473632813,1.3836578369140626,6.687106323242188
8.924000000000007,8.364303588867188,0.82364501953125,7.866647338867188
8.933999999999997,6.353042602539063,-0.08673095703125,7.653259277343751
8.943999999999988,6.006118774414063,-1.1568115234375,7.205099487304688
8.954000000000008,7.67598876953125,-1.5553253173828123,6.310125732421875
8.963999999999999,8.580981445312501,-1.5438110351562502,5.436535644531251
8.97399999999999,8.860165405273438,-1.1536712646484375,6.555514526367188
8.984000000000009,7.9182373046875005,-0.282623291015625,7.015487670898438
8.994,7.217660522460938,0.261090087890625,6.943859863281251
9.00399999999999,7.271343994140626,0.194097900390625,6.895260620117188
9.014999999999986,7.102966308593751,0.2444915771484375,5.848208618164063
9.025000000000006,7.494302368164063,0.8611785888671876,6.16507568359375
9.038000000000013,7.629483032226563,1.2387573242187502,6.584823608398438
9.044999999999987,7.453329467773438,1.337750244140625,6.346463012695313
9.055000000000009,7.842721557617188,0.957928466796875,6.470428466796876
9.064999999999998,7.712326049804688,0.43843994140625,5.707196044921876
9.074999999999989,7.632772827148438,0.265875244140625,5.572015380859376
9.085000000000008,7.294073486328125,-0.1804901123046875,5.9283599853515625
9.095,6.724490356445313,-0.427374267578125,6.312966918945313
9.10499999999999,6.999038696289063,-0.2358184814453125,7.230670166015625
9.115000000000007,7.108050537109375,-0.1514801025390625,7.346560668945313
9.125,7.265213012695313,-0.054730224609375,7.140200805664063
9.137,7.349252319335938,-0.1434051513671875,6.833053588867188
9.145999999999988,7.113284301757813,0.0518890380859375,6.096438598632813
9.155,7.303643798828125,0.466552734375,5.933444213867188
9.164999999999983,7.672698974609376,0.58917236328125,5.961557006835938
9.175000000000011,7.975808715820313,0.6747070312500001,6.112887573242188
9.185000000000002,7.819842529296875,0.710296630859375,6.579589843750001
9.195999999999998,7.188201904296876,0.6249114990234376,6.770248413085938
9.205999999999989,6.802249145507813,0.5045349121093751,6.874026489257813
9.216000000000008,6.540560913085938,0.0432159423828125,6.39835205078125
9.226,6.056512451171876,-0.6093597412109375,5.239297485351563
9.238,6.683367919921875,-0.7850646972656251,4.990917968750001
9.24600000000001,8.97156982421875,0.029010009765625,6.891522216796876
9.256,8.59832763671875,0.6739593505859376,7.621408081054688
9.265999999999991,7.289288330078126,1.18133544921875,8.160784912109376
9.27600000000001,7.089208984375,1.7796295166015623,7.826272583007813
9.286,6.704302978515625,0.74708251953125,5.566033935546876
9.295999999999983,7.275082397460938,-0.48988037109375,5.359524536132813
9.306999999999988,8.002276611328126,-1.1680267333984375,6.26676025390625
9.317000000000007,8.153607177734376,-1.102978515625,7.026553344726563
9.326999999999998,8.414697265625001,-0.5443115234375,7.687353515625
9.337999999999994,7.696026611328126,-0.777288818359375,6.643740844726563
9.347000000000008,7.254296875,-0.5562744140625,5.8251800537109375
9.357,6.935186767578125,0.1655364990234375,5.78226318359375
9.36699999999999,6.725836181640625,0.8623748779296876,5.977706909179688
9.37700000000001,7.559799194335938,1.5260162353515625,7.010702514648438
9.387,7.952780151367188,1.4702392578125,6.910812377929688
9.396999999999991,8.1048583984375,1.4650054931640626,6.381604003906251
9.40700000000001,7.708737182617188,1.2320281982421877,5.895611572265626
9.417000000000002,6.881054687500001,0.505133056640625,5.40423583984375
9.426999999999984,6.722845458984375,0.0240753173828125,5.95751953125
9.437999999999988,6.828268432617188,-0.4412811279296875,6.393417358398438
9.448000000000008,7.503723144531251,-0.5438629150390626,7.021618652343751
9.457999999999998,7.916592407226563,-0.68128662109375,7.375421142578125
9.46799999999999,7.464993286132813,-0.9655548095703126,6.981842041015626
9.478000000000009,7.06229248046875,-0.8359069824218751,6.816156005859376
9.488,6.652413940429688,-0.419598388671875,6.178234863281251
9.49799999999999,7.078591918945313,0.1245635986328125,5.956024169921875
9.50800000000001,7.996444702148438,0.6084625244140626,6.145935058593751
9.518,8.186505126953126,0.9449188232421876,6.193936157226563
9.527999999999992,7.895208740234375,1.2776367187500002,6.666320800781251
9.538000000000013,7.018777465820313,1.2577484130859375,6.702359008789063
9.548000000000002,6.532186889648438,0.9893310546875,6.504074096679688
9.557999999999986,6.418988037109376,0.7170257568359375,6.076998901367188
9.568000000000003,6.327770996093751,0.8230468750000001,5.091107177734376
9.578000000000005,7.796664428710938,0.8806182861328126,5.597586059570313
9.587999999999994,9.2197998046875,0.606817626953125,7.024459838867188
9.59899999999999,7.824627685546876,-0.1015350341796875,7.532135009765626
9.609000000000009,5.637362670898438,-1.08084716796875,7.877713012695313
9.619,5.63870849609375,-1.6679260253906252,7.584024047851563
9.62899999999999,7.8150573730468755,-1.4766693115234375,6.537420654296875
9.63900000000001,8.948989868164062,-1.2015228271484375,5.766860961914063
9.649,9.129180908203123,-0.49586181640625,6.424819946289063
9.658999999999992,8.272787475585938,0.360382080078125,6.478652954101563
9.669000000000011,7.299755859375001,0.711492919921875,6.229376220703125
9.679000000000002,6.934588623046875,0.6560150146484376,6.35947265625
9.688999999999991,6.999636840820313,0.9052917480468752,6.1327758789062505
9.699000000000003,7.461404418945313,1.448855590820313,6.787295532226563
9.710000000000008,7.324728393554688,1.31531982421875,6.968533325195313
9.718999999999994,7.374673461914063,0.7858123779296876,6.669161987304688
9.728999999999983,7.806533813476563,0.1996307373046875,6.27274169921875
9.740000000000007,7.807131958007813,-0.143853759765625,5.332009887695313
9.75,7.780813598632813,-0.3007171630859375,5.353094482421875
9.759999999999993,7.444656372070313,-0.6392669677734375,5.7903381347656255
9.77000000000001,7.000085449218751,-0.5112640380859376,6.442016601562501
9.78,7.038516235351563,-0.1718170166015625,7.356280517578125
9.789999999999983,6.87327880859375,-0.0136077880859375,7.502676391601563
9.800000000000011,6.9301025390625,0.182135009765625,7.256539916992188
9.810000000000002,7.063488769531251,0.3285308837890625,6.799557495117188
9.819999999999991,7.1334716796875,0.6436035156250001,6.177188110351563
9.830000000000004,7.499386596679688,0.9431243896484376,5.890377807617188
9.840000000000003,7.920480346679688,0.8574401855468751,5.785403442382813
9.849999999999994,8.089755249023439,0.64599609375,6.00238037109375
9.859999999999983,7.725335693359375,0.4828521728515625,6.425567626953126
9.87100000000001,7.112387084960938,0.3440826416015625,6.608599853515625
9.879999999999995,6.529794311523438,-0.01375732421875,6.629684448242188
9.890999999999991,6.124850463867188,-0.629547119140625,6.0352783203125
9.90100000000001,6.752453613281251,-0.7687652587890625,5.753552246093751
9.911,8.624945068359375,-0.201275634765625,6.9396728515625
9.920999999999983,8.574850463867188,0.1616485595703125,7.806085205078125
9.931000000000012,5.886489868164063,0.1804901123046875,7.017132568359376
9.941000000000004,6.0041748046875005,0.9652557373046876,6.616226196289063
9.950999999999992,8.64259033203125,1.26986083984375,5.898751831054688
9.961000000000006,9.280810546875,0.6913055419921875,5.265466308593751
9.971000000000004,8.04444580078125,0.30146484375,6.798809814453126
9.980999999999996,6.365304565429688,-0.1066192626953125,7.630828857421876
9.990999999999984,6.214871215820313,-0.276043701171875,7.709783935546875
10.001000000000005,7.412655639648438,-0.837103271484375,6.964346313476563
10.012,8.357125854492189,-1.117333984375,5.455975341796876
10.021999999999991,8.959158325195313,-0.1685272216796875,5.500238037109376
10.03200000000001,8.012445068359376,0.31163330078125,6.1048126220703125
10.042000000000002,6.6875549316406255,0.3587371826171875,6.601571655273438
10.055000000000009,6.766958618164063,0.4526458740234375,6.922775268554688
10.062000000000012,7.3440185546875005,0.7091003417968751,6.38878173828125
10.072000000000005,8.040109252929689,1.2460845947265626,6.021221923828126
10.081999999999994,7.825674438476563,0.96600341796875,5.918041992187501
10.092000000000011,7.229473876953126,0.554180908203125,6.05322265625
10.102000000000004,6.846212768554688,0.48509521484375,6.434988403320313
10.111999999999997,6.719256591796875,0.2452392578125,6.4841857910156255
10.121999999999986,7.271493530273438,-0.0623565673828125,6.7668090820312505
10.132000000000003,7.551275634765625,-0.438739013671875,6.855484008789063
10.141999999999996,7.461254882812501,-0.50543212890625,6.867446899414063
10.155,7.084274291992188,-0.28890380859375,6.935037231445313
10.163000000000013,6.922775268554688,-0.3425872802734375,6.518280029296876
10.173000000000002,7.471722412109376,-0.297576904296875,6.2135253906250005
10.182999999999986,7.938723754882813,-0.0545806884765625,5.8740783691406255
10.193000000000003,7.972219848632813,0.398065185546875,6.0714660644531255
10.203000000000005,7.590304565429688,0.8045043945312501,6.528747558593751
10.212999999999994,6.890625000000001,0.8214019775390625,6.5448974609375
10.223000000000011,6.178234863281251,0.9150115966796876,5.9937072753906255
10.233000000000004,5.5567626953125,1.622317504882813,4.648928833007813
10.242999999999997,7.904180908203125,2.0378784179687504,6.386090087890626
10.254999999999995,9.564480590820311,1.544110107421875,8.527896118164064
10.263000000000003,6.8969055175781255,0.47791748046875,7.748962402343751
10.272999999999996,5.664279174804688,-1.3654144287109375,7.526751708984375
10.282999999999989,7.491461181640625,-2.3650634765625003,6.349005126953125
10.294000000000011,8.336190795898439,-2.08453369140625,4.559356689453125
10.304000000000002,9.12529296875,-1.4255279541015626,6.479998779296875
10.313999999999991,8.274282836914063,-0.2723052978515625,7.322036743164063
10.324000000000003,7.067227172851563,0.3482696533203125,7.12808837890625
10.334000000000003,7.302896118164063,-0.244342041015625,7.430300903320313
10.343999999999994,6.7482666015625,-0.174658203125,5.777478027343751
10.35499999999999,7.254745483398438,0.8882446289062501,5.745028686523438
10.364000000000004,7.796813964843751,1.4656036376953123,6.581085205078126
10.373999999999995,7.49295654296875,1.7548065185546875,6.180178833007813
10.383999999999986,8.021716308593751,1.4143127441406251,6.680377197265625
10.394000000000004,7.782009887695313,0.7274932861328125,6.07236328125
10.403999999999996,7.328018188476563,0.5565734863281251,5.480648803710938
10.413999999999987,7.3009521484375,-0.175555419921875,6.097933959960938
10.425000000000011,6.73331298828125,-0.6237152099609375,6.126794433593751
10.435000000000002,7.080386352539063,-0.3351104736328125,6.880157470703126
10.444999999999991,7.32547607421875,-0.3360076904296875,7.302896118164063
10.455000000000004,7.227529907226563,-0.3324188232421875,6.961804199218751
10.465000000000003,7.389178466796875,-0.487188720703125,6.9866271972656255
10.474999999999994,7.094741821289063,-0.327484130859375,6.413604736328126
10.484999999999983,7.059899902343751,0.4103271484375,6.046194458007813
10.495000000000005,7.568920898437501,0.6492858886718751,6.121859741210938
10.504999999999995,7.978051757812499,0.8212524414062501,6.058905029296875
10.514999999999986,7.866946411132813,0.95404052734375,6.288891601562501
10.525000000000006,7.371682739257813,0.8997589111328126,6.633273315429688
10.534999999999997,6.86131591796875,0.8870483398437501,6.726882934570313
10.544999999999987,6.610244750976563,0.3222503662109375,6.488821411132813
10.556000000000012,6.332705688476563,-0.348419189453125,5.706298828125
10.564999999999998,6.483438110351563,-0.696240234375,5.177239990234376
10.575999999999992,8.39495849609375,-0.3644195556640625,6.7174621582031255
10.586000000000006,8.708087158203126,0.1879669189453125,7.590304565429688
10.596000000000004,7.174145507812501,0.2127899169921875,7.6700073242187505
10.605999999999996,7.024310302734375,1.1626434326171875,7.647427368164063
10.615999999999984,7.34940185546875,0.9902282714843752,5.864657592773438
10.626000000000005,7.463497924804688,-0.31282958984375,5.30853271484375
10.635999999999996,7.870684814453125,-0.7056610107421876,6.572711181640625
10.645999999999988,7.4325439453125,-0.682781982421875,6.994253540039063
10.656000000000006,7.870983886718751,-0.0136077880859375,7.499536132812499
10.665999999999997,7.966537475585938,-0.157611083984375,6.802099609375
10.675999999999988,7.772888183593751,-0.3799713134765625,5.60521240234375
10.686000000000009,7.654605102539063,0.3739898681640625,5.745477294921876
10.695999999999998,6.729125976562501,0.8003173828125001,5.853292846679688
10.707999999999998,6.990066528320313,1.0974456787109377,6.890625000000001
10.717000000000011,7.543350219726563,1.0083221435546876,7.1932861328125
10.727000000000004,7.827618408203126,0.9413299560546876,6.4468017578125005
10.736999999999997,8.0928955078125,1.0415191650390625,6.119915771484376
10.746999999999986,7.410113525390625,0.3491668701171875,5.536874389648438
10.757000000000003,6.963299560546876,-0.23148193359375,5.843423461914063
10.766999999999996,6.798660278320313,-0.3949249267578125,6.303546142578125
10.776999999999989,7.086965942382813,-0.443524169921875,6.675741577148438
10.787000000000006,7.755990600585938,-0.3491668701171875,7.2052490234375
10.796999999999995,7.496844482421875,-0.581396484375,6.993804931640626
10.806999999999988,7.2172119140625,-0.4870391845703125,6.993954467773438
10.817000000000007,6.785501098632813,-0.04486083984375,6.598580932617188
10.826999999999998,6.774136352539063,0.237762451171875,6.11004638671875
10.836999999999987,7.722195434570313,0.4616180419921875,6.204104614257813
10.847000000000008,8.127438354492188,0.6646881103515625,5.9747161865234375
10.858000000000004,8.0869140625,0.9834991455078126,6.262274169921875
10.867999999999997,7.416094970703125,1.0238739013671876,6.621160888671875
10.877999999999986,6.583029174804688,0.672613525390625,6.489270019531251
10.888000000000003,5.861218261718751,0.5834899902343751,5.7170654296875005
10.897999999999996,5.674896240234375,1.141259765625,4.608105468750001
10.907999999999989,8.494250488281251,1.5219787597656251,6.664675903320313
10.918000000000006,9.7007080078125,0.8915344238281251,8.376266479492188
10.927999999999995,6.879409790039063,-0.265277099609375,7.767654418945313
10.937999999999988,5.896209716796875,-1.9430725097656247,7.966387939453125
10.948000000000008,7.109396362304688,-2.4313079833984377,6.330462646484375
10.957999999999998,8.000631713867188,-1.5611572265625002,4.629788208007813
10.96799999999999,9.176583862304687,-0.6543701171875,6.139355468750001
10.978000000000009,8.493801879882813,0.36187744140625,6.71776123046875
10.988,7.45048828125,0.9000579833984376,7.115078735351563
10.998999999999995,7.02939453125,0.1798919677734375,7.630081176757813
11.008999999999986,6.2721435546875,0.1999298095703125,6.114981079101563
11.019000000000004,7.067077636718751,0.8601318359375001,6.197674560546876
11.028999999999996,7.822085571289063,1.122866821289063,6.384893798828125
11.038999999999987,7.834646606445313,1.32369384765625,5.866900634765625
11.049000000000008,8.298059082031251,0.7520172119140626,6.510653686523438
11.058999999999996,7.739093017578125,0.190509033203125,6.031091308593751
11.068999999999988,7.17235107421875,0.1323394775390625,5.789739990234375
11.079000000000008,7.160836791992188,-0.50064697265625,6.273788452148438
11.089,6.857427978515625,-0.5464050292968751,6.126345825195313
11.09899999999999,7.298260498046876,-0.0566741943359375,6.6980224609375005
11.109000000000009,7.383944702148438,0.0716278076171875,7.162631225585938
11.120000000000005,7.079937744140626,0.217425537109375,6.966439819335938
11.12899999999999,7.098629760742188,0.030206298828125,6.969131469726563
11.139999999999986,6.995449829101563,0.1377227783203125,6.413455200195313
11.150000000000006,7.2626708984375,0.58438720703125,6.070867919921875
11.159999999999997,7.762719726562499,0.6138458251953125,6.127542114257813
11.169999999999987,7.926461791992188,0.67530517578125,6.053671264648438
11.180000000000009,7.742233276367188,0.5905181884765626,6.3944641113281255
11.189999999999998,7.313961791992188,0.4299163818359375,6.706246948242188
11.199999999999989,6.804641723632813,0.325091552734375,6.569421386718751
11.210000000000008,6.380108642578126,-0.2265472412109375,6.026007080078125
11.22,5.995950317382813,-0.7496246337890625,5.2564941406250005
11.22999999999999,7.147229003906251,-0.35948486328125,5.890228271484375
11.240000000000007,8.929849243164064,0.700726318359375,7.60361328125
11.25,8.540307617187501,0.8915344238281251,7.978948974609375
11.260999999999996,7.605258178710938,1.2451873779296876,7.683166503906251
11.270999999999988,7.008010864257813,0.8795715332031251,6.3600708007812505
11.281000000000006,6.6166748046875,-0.4589263916015625,4.990768432617188
11.290999999999997,7.292877197265626,-1.054080200195313,5.9036865234375
11.300999999999988,7.720999145507813,-1.096099853515625,6.933840942382813
11.311000000000009,8.247515869140626,-0.2115936279296875,7.801898193359375
11.320999999999998,8.334844970703125,0.1208251953125,7.593295288085938
11.330999999999989,7.5019287109375,-0.313427734375,6.0629425048828125
11.341000000000008,6.963150024414063,0.0521881103515625,5.414404296875
11.351,6.766958618164063,0.5950042724609376,5.4837890625000005
11.36099999999999,7.252203369140625,1.2490753173828126,6.391622924804688
11.37100000000001,7.951434326171875,1.4030975341796876,7.115377807617188
11.381,8.091549682617188,1.0645477294921877,6.943560791015625
11.390999999999991,7.9349853515625,0.959423828125,6.440371704101563
11.401999999999989,7.130780029296876,0.4071868896484375,5.729626464843751
11.412000000000006,6.714321899414063,-0.221014404296875,5.659344482421876
11.421999999999995,6.81346435546875,-0.487188720703125,5.972622680664063
11.431999999999988,7.367196655273438,-0.5508911132812501,6.510055541992188
11.442000000000007,7.9529296875,-0.32359619140625,7.133770751953126
11.455000000000004,7.602566528320313,-0.4110748291015625,7.068722534179688
11.461999999999987,7.201361083984375,-0.523077392578125,7.043301391601563
11.472000000000008,6.685610961914063,-0.1843780517578125,6.549832153320313
11.482,6.637759399414063,0.20635986328125,6.031240844726563
11.49199999999999,7.455572509765625,0.5700317382812501,6.206497192382813
11.50200000000001,8.109194946289064,0.8516082763671876,6.175244140625001
11.512,8.171252441406251,0.984844970703125,6.435885620117188
11.521999999999991,7.5638366699218755,0.928021240234375,6.6908447265625
11.53200000000001,6.756341552734376,0.67889404296875,6.4515869140625
11.542000000000002,6.462802124023438,0.3273345947265625,6.1851135253906255
11.555000000000009,5.872433471679688,0.438739013671875,4.989572143554688
11.562999999999988,6.66392822265625,1.0310516357421875,4.9982452392578125
11.573000000000008,9.61622009277344,1.2182708740234376,7.712774658203125
11.582999999999998,9.098974609375,0.5656951904296875,8.461801147460939
11.59299999999999,5.576950073242188,-0.8979644775390626,7.472021484375
11.603000000000009,5.406927490234375,-2.22509765625,7.387982177734376
11.613,7.548434448242188,-2.022775268554688,5.5555664062500005
11.62299999999999,8.8525390625,-1.1864196777343752,5.2349609375
11.63300000000001,9.762765502929687,0.012261962890625,7.218557739257813
11.643,8.055810546875001,1.182681274414063,6.66990966796875
11.655,6.940719604492188,1.2475799560546876,6.711929321289063
11.663000000000013,6.655404663085938,0.2693145751953125,6.676190185546876
11.673000000000002,6.345864868164063,0.2352203369140625,5.543154907226563
11.682999999999986,7.732662963867188,1.0089202880859376,6.669461059570313
11.693000000000003,7.976406860351563,1.1309417724609376,6.960906982421876
11.704000000000008,7.825076293945313,0.9108245849609377,6.552673339843751
11.716000000000008,7.999584960937501,0.04725341796875,6.602169799804688
11.72399999999999,7.255792236328125,-0.3521575927734375,5.308831787109376
11.734000000000009,7.316802978515626,-0.246734619140625,5.494406127929688
11.744,7.317849731445313,-0.6779968261718751,5.964398193359376
11.756,7.067974853515626,-0.390289306640625,6.306835937500001
11.76400000000001,7.540509033203126,0.236566162109375,7.405178833007813
11.774,7.153060913085938,0.367559814453125,7.300503540039063
11.783999999999992,6.868942260742188,0.49466552734375,6.975262451171876
11.794000000000011,6.882998657226563,0.2277435302734375,6.670358276367188
11.804000000000002,6.9088684082031255,0.4167572021484375,6.070568847656251
11.813999999999991,7.518078613281251,0.8912353515625001,6.108102416992188
11.824000000000003,7.949191284179688,0.7047637939453125,6.147280883789063
11.834000000000003,8.150167846679688,0.4987030029296875,6.271096801757813
11.845,7.70828857421875,0.2609405517578125,6.5036254882812505
11.855999999999996,6.9627014160156255,0.1048248291015625,6.441717529296875
11.865000000000007,6.319396972656251,-0.1389190673828125,6.172851562500001
11.875,5.898452758789063,-0.9012542724609376,5.4493957519531255
11.884999999999993,6.901541137695313,-0.8459259033203126,5.8296661376953125
11.89500000000001,9.059347534179688,0.3587371826171875,7.789785766601563
11.905,7.98343505859375,0.77579345703125,7.669259643554688
11.914999999999983,6.620861816406251,1.2045135498046875,7.372879028320313
11.925000000000011,7.341177368164063,1.7386566162109376,6.635815429687501
11.935000000000002,7.7770751953125,0.7840179443359375,5.021572875976563
11.944999999999991,8.093942260742189,-0.1508819580078125,5.803347778320313
11.955999999999989,7.483236694335938,-0.9917236328125,7.00487060546875
11.966000000000008,7.1310791015625,-0.99710693359375,7.621109008789063
11.976,7.691390991210938,-0.5471527099609376,7.707540893554688
11.98599999999999,7.754495239257813,-0.91695556640625,6.248516845703126
11.99600000000001,7.879208374023438,-0.5446105957031251,5.518780517578126
12.006,7.530490112304688,0.0610107421875,5.696130371093751
12.015999999999991,7.02281494140625,0.7378112792968751,6.189450073242188
12.02600000000001,7.2632690429687505,1.3250396728515623,6.977804565429688
12.036,7.5638366699218755,1.2152801513671876,6.759182739257813
12.045999999999983,8.01453857421875,1.4407806396484375,6.4408203125000005
12.056000000000012,7.664474487304688,1.395022583007813,5.918939208984376
12.066000000000004,6.9755615234375,0.7195678710937501,5.7362060546875
12.075999999999992,6.880307006835938,0.1831817626953125,6.18541259765625
12.086000000000006,6.916494750976563,-0.4062896728515625,6.328518676757813
12.096000000000004,7.566528320312501,-0.5677886962890626,6.7653137207031255
12.108000000000004,7.8189453125,-0.6658843994140625,6.870437622070313
12.11699999999999,7.475460815429688,-0.9323577880859376,6.838735961914063
12.12700000000001,7.08621826171875,-0.7017730712890625,6.898699951171875
12.137,6.690994262695313,-0.313128662109375,6.421530151367188
12.146999999999991,7.110293579101563,0.0145050048828125,6.35050048828125
12.15700000000001,7.703802490234375,0.3766815185546875,6.236553955078126
12.167000000000002,8.006762695312501,0.7523162841796875,6.1372619628906255
12.176999999999984,7.899246215820313,1.085931396484375,6.5843750000000005
12.187000000000012,7.114031982421875,1.198681640625,6.473568725585938
12.197000000000005,6.797763061523438,1.0503417968750002,6.397006225585938
12.206999999999994,6.2936767578125,0.8217010498046876,5.624502563476563
12.217000000000011,5.924920654296876,1.17535400390625,4.556365966796875
12.227000000000004,7.856329345703125,1.4726318359375,6.0225677490234375
12.236999999999997,9.874468994140626,1.0038360595703126,8.590252685546876
12.246999999999986,7.126293945312501,-0.075067138671875,7.986724853515626
12.25800000000001,5.224942016601563,-1.815817260742188,7.845712280273438
12.268,7.15799560546875,-2.5341888427734376,7.203305053710938
12.277999999999992,8.123101806640626,-2.023223876953125,4.567730712890626
12.288000000000013,9.321334838867188,-1.136474609375,5.8894805908203125
12.298000000000002,8.773733520507813,0.0877777099609375,6.627142333984375
12.307999999999986,7.293026733398438,0.9520965576171876,6.545046997070313
12.318000000000003,7.062142944335938,0.5706298828125,7.565930175781251
12.328000000000005,6.392819213867188,0.2953338623046875,6.3199951171875
12.337999999999994,6.9001953125,1.1016326904296876,6.229226684570313
12.34899999999999,7.767355346679688,1.4255279541015626,6.897503662109376
12.358000000000004,7.420132446289063,1.3866485595703126,6.104214477539063
12.367999999999997,8.142840576171876,0.9093292236328124,6.3810058593750005
12.37899999999999,8.009454345703126,0.01854248046875,5.891275024414063
12.38900000000001,7.537667846679688,-0.0459075927734375,5.368646240234376
12.399,7.615426635742188,-0.45638427734375,6.130682373046875
12.408999999999992,6.911410522460938,-0.8010650634765626,6.096139526367188
12.419000000000011,7.078143310546875,-0.279931640625,6.858474731445313
12.429000000000002,7.163229370117188,-0.1230682373046875,7.37691650390625
12.438999999999991,6.941915893554688,0.094207763671875,6.922775268554688
12.449000000000003,7.137808227539063,0.1075164794921875,7.006515502929688
12.459000000000003,7.160238647460938,0.0767120361328125,6.488522338867188
12.468999999999994,7.336242675781251,0.7333251953125001,6.08731689453125
12.478999999999983,7.662231445312501,0.925927734375,6.0089599609375
12.489000000000004,7.804290771484376,0.8348602294921875,5.9762115478515625
12.498999999999995,7.756588745117188,0.7801300048828126,6.271994018554688
12.508999999999986,7.341326904296875,0.49825439453125,6.557757568359375
12.519000000000004,6.88524169921875,0.370849609375,6.757089233398438
12.53,6.362014770507813,-0.1727142333984375,6.102719116210938
12.539999999999983,5.959912109375001,-0.8359069824218751,5.177838134765626
12.550000000000011,7.530938720703125,-0.5970977783203125,6.0819335937500005
12.560000000000002,9.128582763671876,0.38759765625,7.961004638671875
12.573000000000008,7.534378051757813,0.58319091796875,7.741336059570313
12.580000000000004,6.686358642578125,1.2070556640625,7.411459350585938
12.590000000000003,7.909115600585938,1.3126281738281251,6.073260498046875
12.599999999999994,8.072259521484376,-0.017645263671875,4.526309204101563
12.609999999999983,7.805636596679688,-0.9422271728515624,5.97845458984375
12.620000000000005,6.792230224609376,-1.2806274414062502,7.405477905273438
12.629999999999995,6.853390502929688,-0.383111572265625,8.337686157226564
12.639999999999986,7.611389160156251,0.034393310546875,7.870983886718751
12.650000000000006,8.073605346679688,-0.4257293701171875,5.895013427734376
12.659999999999997,8.370135498046876,-0.0605621337890625,5.13507080078125
12.673000000000002,7.4427124023437505,0.4080841064453125,5.275784301757813
12.681000000000012,6.858474731445313,1.0717254638671876,6.219207763671876
12.691000000000004,7.172500610351563,1.2374114990234375,7.208538818359376
12.700999999999992,7.617520141601563,1.0424163818359375,6.983935546875
12.711000000000006,8.0952880859375,1.2691131591796876,6.577645874023438
12.721000000000004,7.530490112304688,0.8605804443359376,5.90787353515625
12.730999999999996,6.960757446289063,0.1045257568359375,5.882452392578125
12.740999999999984,6.808828735351563,-0.37503662109375,6.184963989257813
12.751000000000005,6.988870239257813,-0.6470428466796876,6.182421875
12.760999999999996,7.8464599609375005,-0.5372833251953125,6.608001708984376
12.772999999999996,8.024856567382812,-0.5837890625000001,6.639105224609375
12.781000000000006,7.48458251953125,-0.6210235595703125,6.762472534179688
12.792000000000002,6.818997192382813,-0.1769012451171875,6.986029052734375
12.800999999999988,6.401193237304688,0.23507080078125,6.645385742187501
12.812000000000012,6.950439453125001,0.461767578125,6.561047363281251
12.822000000000005,7.705447387695313,0.6488372802734376,6.266311645507813
12.831999999999994,8.187701416015626,0.9526947021484377,6.102569580078125
12.842000000000011,7.996444702148438,1.170718383789063,6.315359497070313
12.852000000000004,7.143640136718751,0.9251800537109376,6.260928344726563
12.861999999999997,6.919784545898438,0.457879638671875,6.476858520507813
12.87299999999999,6.758435058593751,0.2193695068359375,6.234310913085938
12.882000000000003,5.945108032226563,0.4988525390625,5.0247131347656255
12.891999999999996,6.653311157226563,1.033294677734375,5.235858154296875
12.901999999999989,9.2245849609375,0.8222991943359376,7.798309326171876
12.913000000000013,8.263516235351563,0.349615478515625,7.8871337890625
12.921999999999995,6.431997680664063,-0.7901489257812501,7.863955688476563
12.931999999999988,7.035675048828126,-2.086328125,8.026950073242189
12.942000000000007,7.313961791992188,-1.825387573242188,5.3551879882812505
12.953000000000005,8.017678833007814,-0.7348205566406251,5.127743530273438
12.962999999999994,8.927606201171876,0.250921630859375,6.464596557617188
12.97399999999999,8.025006103515626,0.98753662109375,6.315658569335938
12.983000000000004,7.628286743164063,0.4317108154296875,7.312466430664063
12.992999999999997,6.967037963867188,-0.13697509765625,7.072760009765625
13.002999999999986,6.315060424804688,0.4361968994140625,6.1197662353515625
13.013000000000003,7.226632690429688,0.7143341064453126,6.782061767578125
13.022999999999996,7.372579956054688,0.7452880859375001,6.154309082031251
13.032999999999989,8.068072509765626,0.7212127685546875,6.061596679687501
13.043000000000006,8.522064208984375,0.1921539306640625,6.488372802734376
13.052999999999995,7.644287109375001,0.1646392822265625,5.633026123046875
13.062999999999988,7.350448608398438,-0.12501220703125,6.134719848632813
13.074000000000003,6.958065795898438,-0.49705810546875,6.199917602539063
13.082999999999998,6.863259887695313,0.1063201904296875,6.108251953125
13.093999999999994,7.287942504882813,0.4269256591796875,6.965542602539063
13.103999999999983,7.078591918945313,0.4373931884765625,6.916195678710938
13.114000000000004,7.122256469726563,0.443524169921875,7.06468505859375
13.123999999999995,7.260427856445313,0.23387451171875,6.943411254882813
13.133999999999986,7.0736572265625,0.434552001953125,6.22489013671875
13.144000000000004,7.529592895507813,0.5036376953125,6.08133544921875
13.153999999999996,7.733859252929688,0.297576904296875,5.8954620361328125
13.163999999999987,7.831356811523438,0.3392974853515625,6.0609985351562505
13.175999999999988,7.643988037109375,0.1948455810546875,6.635964965820313
13.183999999999996,7.137060546875,0.0943572998046875,6.782958984375001
13.193999999999988,6.93309326171875,-0.02811279296875,6.795819091796876
13.204000000000008,6.503475952148438,-0.4071868896484375,6.061447143554688
13.214,6.403884887695313,-0.3935791015625,5.224343872070313
13.224999999999994,7.456768798828126,-0.036785888671875,5.95213623046875
13.234999999999983,8.1957763671875,0.6703704833984375,7.117172241210938
13.245000000000005,7.397103881835938,1.275244140625,7.716064453125001
13.254999999999995,7.459609985351563,2.00557861328125,7.9556213378906255
13.264999999999986,7.944256591796876,1.6937957763671876,6.676040649414063
13.275000000000006,7.717709350585938,-0.0503936767578125,5.280718994140625
13.284999999999997,7.445553588867188,-1.4016021728515626,5.757440185546876
13.294999999999987,7.053768920898438,-1.7234039306640627,6.396109008789063
13.305000000000009,7.671652221679688,-1.1877655029296876,7.4803955078125
13.314999999999998,8.274581909179688,-0.8934783935546876,7.649819946289063
13.324999999999989,8.088409423828125,-0.8457763671875,6.373080444335938
13.335000000000008,7.601519775390625,-0.2884552001953125,5.935238647460938
13.345,6.639553833007813,0.5184417724609376,5.687905883789063
13.35499999999999,6.530392456054688,1.2891510009765623,6.250460815429688
13.365000000000007,7.478152465820313,1.7117401123046876,6.842324829101563
13.376000000000005,8.091549682617188,1.954736328125,6.582281494140625
13.385999999999996,8.348153686523439,1.918399047851563,6.29666748046875
13.395999999999988,7.696475219726563,1.1624938964843752,5.835797119140626
13.406000000000006,6.846212768554688,0.2477813720703125,5.759832763671875
13.415999999999997,6.526803588867188,-0.4831512451171875,6.163281250000001
13.425999999999988,6.762921142578126,-0.7837188720703125,6.487026977539063
13.436000000000009,7.663726806640626,-0.8022613525390626,6.9268127441406255
13.445999999999998,7.882647705078125,-1.0663421630859375,7.165023803710938
13.455999999999989,7.531686401367188,-1.0877258300781252,7.067227172851563
13.466000000000008,6.956271362304688,-0.728240966796875,6.814361572265626
13.476,6.706845092773438,-0.2507720947265625,6.2936767578125
13.48599999999999,7.19627685546875,0.26796875,6.019577026367188
13.49600000000001,7.9586120605468755,0.8967681884765626,5.924322509765625
13.506,8.15689697265625,1.4647064208984375,6.152365112304688
13.516999999999996,7.657296752929688,1.6471405029296875,6.674246215820313
13.526999999999989,6.894064331054688,1.4048919677734375,6.691741943359376
13.537000000000006,6.295770263671876,0.9888824462890624,6.2553955078125005
13.546999999999995,5.673101806640625,0.9598724365234376,5.06927490234375
13.556999999999988,6.713574218750001,1.2445892333984376,5.204605102539063
13.567000000000007,9.64149169921875,1.067987060546875,7.571911621093751
13.576999999999998,8.544793701171876,0.168377685546875,7.762271118164063
13.586999999999987,5.767758178710938,-1.4413787841796877,7.604510498046875
13.597000000000008,6.357379150390625,-2.7792785644531253,7.950238037109376
13.607,7.746420288085938,-2.537030029296876,5.667269897460938
13.61699999999999,8.775677490234376,-1.7287872314453123,5.565435791015625
13.62700000000001,9.338830566406251,-0.3129791259765625,6.801800537109376
13.637,7.824777221679688,1.056622314453125,6.148925781250001
13.647999999999996,7.079190063476563,1.1473907470703126,6.791333007812501
13.657999999999989,6.778622436523438,0.5793029785156251,6.73271484375
13.668000000000006,6.52396240234375,1.1494842529296876,5.9563232421875005
13.677999999999995,7.517031860351563,1.629345703125,6.893017578125001
13.687999999999988,7.514340209960938,1.5448577880859375,6.632824707031251
13.698000000000008,7.759130859375,1.184326171875,6.287545776367188
13.707999999999998,8.019921875000001,0.09630126953125,6.385791015625
13.71799999999999,7.431347656250001,-0.339447021484375,5.4109649658203125
13.728000000000009,7.503872680664063,-0.5673400878906251,5.816656494140625
13.738,7.2865966796875,-1.1874664306640623,6.122457885742188
13.74799999999999,7.172500610351563,-0.8163177490234376,6.4288574218750005
13.75800000000001,7.488470458984375,-0.2962310791015625,7.239193725585938
13.768,7.151565551757813,0.0160003662109375,7.013095092773438
13.777999999999992,6.899746704101563,0.35469970703125,6.922625732421875
13.788999999999987,6.925616455078125,0.341839599609375,6.802099609375
13.799000000000008,6.912457275390626,0.8303741455078125,6.274087524414063
13.808999999999996,7.479647827148438,1.2392059326171876,6.133224487304688
13.818999999999988,7.947994995117188,1.07965087890625,6.11602783203125
13.829000000000008,8.043698120117188,0.9724334716796876,6.108551025390625
13.839,7.596884155273438,0.6135467529296875,6.311322021484376
13.84899999999999,7.054217529296875,0.3102874755859375,6.527700805664063
13.859000000000009,6.7189575195312505,-0.1102081298828125,6.570468139648438
13.869,6.151916503906251,-0.8744873046875,5.86241455078125
13.87899999999999,6.279769897460938,-1.1686248779296875,5.473919677734376
13.88900000000001,8.047885131835939,-0.5929107666015625,6.915447998046876
13.899,8.64019775390625,0.1658355712890625,7.5638366699218755
13.908999999999992,7.592697143554688,0.61907958984375,7.530938720703125
13.919000000000011,7.598678588867188,1.543511962890625,7.282559204101563
13.930000000000009,7.462301635742188,1.444818115234375,5.686709594726563
13.939999999999998,7.263418579101563,0.3814666748046875,5.3332061767578125
13.949999999999989,7.396057128906251,-0.41331787109375,6.542355346679688
13.960000000000008,7.322634887695313,-0.7117919921875,7.187454223632813
13.97,7.9660888671875005,-0.296978759765625,7.7881408691406255
13.97999999999999,7.960855102539063,-0.509619140625,6.920233154296875
13.990000000000007,7.634716796875001,-0.708203125,5.640951538085938
14.0,7.441067504882813,-0.2380615234375,5.5974365234375005
14.009999999999993,6.976159667968751,0.3536529541015625,5.71646728515625
14.02000000000001,7.290933227539063,0.9676483154296877,6.730471801757813
14.03,7.739392089843751,0.9900787353515624,7.082180786132813
14.039999999999983,7.852142333984376,1.1092590332031251,6.699218750000001
14.050000000000011,7.737448120117188,1.2552062988281252,6.190795898437501
14.061000000000009,7.108648681640625,0.7615875244140625,5.657101440429688
14.069999999999991,6.870736694335938,0.2851654052734375,5.896209716796875
14.080999999999989,6.844717407226563,-0.0680389404296875,6.145635986328125
14.091000000000008,7.335794067382813,-0.23626708984375,6.628936767578126
14.101,7.888180541992188,-0.2935394287109375,7.136312866210938
14.11099999999999,7.460955810546875,-0.7004272460937501,6.947000122070313
14.12100000000001,7.177584838867188,-0.7288391113281251,6.942813110351563
14.131,6.750808715820313,-0.425579833984375,6.513046264648438
14.140999999999991,6.898101806640626,-0.16927490234375,6.155804443359376
14.15100000000001,7.646380615234375,0.1930511474609375,6.280517578125001
14.161,8.062240600585938,0.53175048828125,6.132327270507813
14.175000000000011,8.055062866210939,0.886151123046875,6.512149047851563
14.181999999999988,7.320989990234375,1.0878753662109375,6.521420288085938
14.192000000000007,6.769949340820313,0.9278717041015626,6.3690429687500005
14.201999999999998,6.291882324218751,0.8100372314453126,5.960211181640625
14.211999999999987,5.705252075195313,1.203616333007813,4.653115844726563
14.222000000000008,7.354336547851563,1.6640380859375,5.6707092285156255
14.232,10.135858154296876,1.4258270263671875,8.4230712890625
14.24199999999999,8.0928955078125,0.495263671875,8.111437988281251
14.25200000000001,5.006320190429688,-1.35479736328125,7.479348754882813
14.262,6.057708740234375,-2.5847320556640625,7.299008178710938
14.275000000000006,7.900891113281251,-2.1474884033203128,4.88504638671875
14.28200000000001,9.456964111328126,-2.2028167724609378,5.786599731445313
14.292000000000002,9.673641967773438,-0.5266662597656251,7.210632324218751
14.301999999999984,7.7044006347656255,0.9814056396484376,6.570169067382813
14.312000000000012,6.831558227539063,0.7630828857421875,7.021768188476563
14.322000000000005,6.219207763671876,0.2791839599609375,6.210235595703126
14.331999999999994,6.442764282226563,0.942974853515625,5.7194580078125
14.342000000000011,7.988220214843751,1.655215454101563,7.033282470703125
14.353000000000009,7.805786132812501,1.8084899902343752,6.689199829101563
14.363,8.029342651367188,1.376031494140625,6.535177612304688
14.375,7.9589111328125,0.24703369140625,6.271994018554688
14.38300000000001,7.143490600585938,-0.05802001953125,5.022021484375
14.393,7.340130615234376,-0.3901397705078125,5.662783813476563
14.402999999999992,7.1071533203125,-1.006378173828125,6.040213012695313
14.413000000000013,7.297363281250001,-0.6518280029296876,6.680825805664063
14.423000000000002,7.681521606445313,-0.3063995361328125,7.620361328125001
14.432999999999986,7.137808227539063,-0.160302734375,7.187155151367188
14.443000000000003,6.832305908203126,-0.0737213134765625,7.035974121093751
14.453000000000005,6.767108154296875,-0.0432159423828125,6.475213623046876
14.462999999999994,6.904382324218751,0.6060699462890625,5.900247192382813
14.474999999999994,7.737896728515626,1.0893707275390625,6.122607421875
14.484000000000009,8.125643920898439,1.1131469726562502,6.134420776367188
14.494,8.11622314453125,1.0866790771484376,6.283209228515625
14.50399999999999,7.516134643554688,0.7602416992187501,6.564337158203125
14.51400000000001,6.723144531250001,0.5072265625000001,6.5066162109375005
14.524,6.612338256835938,0.142657470703125,6.555664062500001
14.533999999999992,6.339434814453125,-0.5586669921875,5.907125854492188
14.544000000000011,6.216964721679688,-0.8903381347656251,5.2400451660156255
14.554000000000002,7.811618041992188,-0.5686859130859375,6.66392822265625
14.563999999999991,9.251052856445312,0.1111053466796875,7.807281494140626
14.575999999999992,7.765261840820313,0.31522216796875,7.308728027343751
14.584000000000003,7.100125122070313,1.0045837402343751,7.225735473632813
14.595,7.323980712890625,1.5182403564453126,5.837292480468751
14.603999999999983,7.221099853515626,0.6817352294921876,5.0375732421875
14.614000000000004,7.70828857421875,-0.2657257080078125,6.907223510742188
14.625,7.245623779296875,-0.7849151611328126,7.541107177734376
14.634999999999993,7.603912353515626,-0.558966064453125,7.843618774414063
14.64500000000001,8.061642456054688,-0.6754547119140626,7.080685424804688
14.655,7.742382812500001,-0.9912750244140626,5.095892333984375
14.664999999999983,7.978649902343751,-0.2938385009765625,5.2313720703125
14.675000000000011,7.263867187500001,0.355596923828125,5.6859619140625
14.685000000000002,6.976608276367188,1.0323974609375002,6.817352294921876
14.694999999999991,7.399496459960938,1.1043243408203125,7.684661865234376
14.705000000000004,7.358523559570313,0.9975555419921877,6.948345947265626
14.715000000000003,7.696475219726563,1.3851531982421876,6.351248168945313
14.724999999999994,7.4307495117187505,1.0229766845703123,5.511303710937501
14.734999999999983,7.180276489257813,0.5586669921875,5.433993530273438
14.745000000000005,7.189099121093751,0.08074951171875,6.027951049804688
14.756,7.24532470703125,-0.2615386962890625,6.407025146484376
14.765999999999991,7.821636962890626,-0.2572021484375,7.001281738281251
14.77600000000001,7.520919799804688,-0.739605712890625,6.986477661132813
14.786,7.054815673828125,-0.9199462890625,7.008609008789063
14.795999999999983,6.747219848632813,-0.5163482666015625,6.8894287109375005
14.806000000000012,6.6157775878906255,-0.2045654296875,6.310574340820313
14.816000000000004,7.444058227539063,0.1033294677734375,6.456671142578125
14.825999999999992,8.103363037109375,0.323297119140625,6.153561401367188
14.836000000000006,8.27353515625,0.772503662109375,6.087615966796875
14.846000000000004,7.748663330078125,1.114044189453125,6.359921264648438
14.855999999999996,6.846212768554688,1.014154052734375,6.265115356445313
14.865999999999984,6.612637329101563,0.880169677734375,6.488522338867188
14.876000000000005,5.836544799804688,1.0516876220703126,5.402740478515625
14.885999999999996,6.441268920898438,1.5352874755859376,5.348159790039063
14.896999999999991,8.893511962890626,1.49715576171875,7.355084228515626
14.90700000000001,8.538812255859376,0.7206146240234376,7.553219604492188
14.917000000000002,6.672900390625,-0.649884033203125,7.423870849609376
14.927999999999995,6.770397949218751,-2.171563720703125,7.5354248046875005
14.937000000000012,7.418637084960938,-2.314071655273437,5.821591186523438
14.947000000000005,7.976556396484375,-1.5807464599609375,5.666372680664063
14.956999999999994,8.511895751953126,-0.7315307617187501,6.927261352539063
14.967000000000011,7.82432861328125,0.3273345947265625,6.695928955078125
14.977000000000004,7.641744995117188,0.4155609130859375,7.059750366210938
14.986999999999997,7.439871215820313,0.01435546875,6.798211669921876
14.996999999999986,6.897354125976563,0.5079742431640626,5.8087310791015625
15.007000000000003,7.352243041992188,1.097894287109375,6.336294555664063
15.016999999999996,7.4292541503906255,1.3299743652343752,6.347808837890626
15.027999999999992,7.6275390625,1.31292724609375,6.263919067382813
15.038000000000013,8.013641357421875,0.7256988525390625,6.533532714843751
15.048000000000002,7.603463745117188,0.4218414306640625,5.79302978515625
15.057999999999986,7.49654541015625,0.0853851318359375,5.978604125976563
15.068000000000003,7.158444213867188,-0.5136566162109375,6.092550659179688
15.078000000000005,6.866549682617188,-0.384906005859375,6.073858642578125
15.087999999999994,7.386785888671875,-0.13876953125,6.8984008789062505
15.098000000000011,7.28001708984375,-0.0994415283203125,6.982440185546875
15.108000000000004,7.1481262207031255,-0.0417205810546875,7.050180053710938
15.117999999999997,7.150369262695313,-0.153424072265625,7.085171508789063
15.127999999999986,6.884494018554688,0.21114501953125,6.407473754882813
15.138000000000003,7.265362548828126,0.648388671875,6.201861572265625
15.147999999999996,7.696475219726563,0.6207244873046875,5.994754028320313
15.157999999999989,7.994201660156251,0.7113433837890626,5.958267211914063
15.168000000000006,7.84346923828125,0.71597900390625,6.357827758789063
15.177999999999995,7.124798583984376,0.582891845703125,6.436184692382813
15.187999999999988,6.305789184570313,0.1861724853515625,6.189450073242188
15.199000000000003,5.671307373046876,-0.4708892822265625,5.3581787109375005
15.209000000000003,7.445553588867188,-0.0968994140625,6.64658203125
15.218999999999994,8.604159545898439,0.6099578857421876,7.805337524414063
15.228999999999983,7.507611083984376,0.6736602783203125,7.488171386718751
15.239000000000004,7.504769897460938,1.1903076171875,7.281961059570313
15.248999999999995,7.936181640625,0.7079040527343751,5.635269165039063
15.258999999999986,7.675390625,-0.4897308349609375,4.9638519287109375
15.269000000000004,7.382150268554688,-1.1774475097656252,6.289788818359376
15.278999999999996,6.788342285156251,-1.2430938720703126,7.389627075195313
15.293000000000006,7.4412170410156255,-0.27694091796875,8.288638305664064
15.299000000000008,7.9924072265625,-0.231781005859375,7.562042236328126
15.308999999999996,8.052969360351563,-0.45458984375,5.762673950195313
15.319999999999991,7.900741577148438,0.0004486083984375,5.245278930664063
15.330000000000004,6.9926086425781255,0.437542724609375,5.325878906250001
15.340000000000003,7.049133300781251,1.2309814453125,6.384893798828125
15.349999999999994,7.438525390625,1.3453765869140626,7.037170410156251
15.359999999999983,7.888629150390625,1.2526641845703126,6.927859497070313
15.370000000000005,7.971322631835938,1.272402954101563,6.696377563476563
15.379999999999995,7.1885009765625005,0.6717163085937501,5.939425659179688
15.393,6.831558227539063,0.028411865234375,5.952883911132813
15.400000000000006,6.907971191406251,-0.445318603515625,6.005520629882813
15.409999999999997,7.358673095703126,-0.6267059326171875,6.097485351562501
15.419999999999987,8.040707397460938,-0.483599853515625,6.577346801757813
15.430000000000009,7.847656250000001,-0.5860321044921876,6.689947509765625
15.441000000000004,7.271792602539063,-0.5299560546875001,7.034329223632813
15.450999999999992,6.656900024414063,-0.202471923828125,7.0090576171875005
15.461000000000006,6.432745361328125,0.1591064453125,6.654357910156251
15.471000000000004,7.109695434570313,0.4550384521484375,6.531439208984375
15.480999999999996,7.820440673828125,0.7734008789062501,6.1656738281250005
15.492999999999997,8.25977783203125,1.0585662841796877,6.088812255859375
15.501000000000005,7.918685913085938,1.071875,6.289788818359376
15.510999999999996,7.117022705078125,0.8064483642578125,6.189151000976563
15.520999999999988,6.918588256835938,0.4797119140625,6.422576904296876
15.531000000000006,6.334500122070313,0.36427001953125,5.86600341796875
15.540999999999997,5.954229736328125,0.7603912353515625,5.150173950195313
15.550999999999988,7.541256713867188,1.1161376953125002,6.359622192382813
15.561000000000009,9.369036865234376,0.8275329589843751,8.115924072265626
15.570999999999998,7.572210693359375,0.04246826171875,7.589108276367188
15.580999999999989,5.8438720703125,-1.4805572509765623,7.240240478515625
15.59299999999999,7.100125122070313,-2.3822601318359378,7.012347412109375
15.602000000000004,8.0354736328125,-1.8032562255859377,5.239596557617188
15.611999999999997,8.671450805664064,-0.7672698974609375,6.246273803710938
15.621999999999986,8.576644897460938,0.5001983642578125,7.150070190429688
15.632000000000003,7.456320190429688,1.1441009521484375,6.519027709960938
15.641999999999996,7.357028198242188,0.560760498046875,6.896456909179688
15.651999999999989,6.848754882812501,0.184228515625,6.074456787109376
15.662000000000006,6.845315551757813,0.7995697021484376,5.954229736328125
15.671999999999995,7.797561645507813,1.1073150634765625,6.974813842773438
15.681999999999988,7.4875732421875005,1.01265869140625,6.392669677734376
15.693000000000003,8.00736083984375,0.6619964599609376,6.426165771484375
15.701999999999998,8.025155639648439,-0.000299072265625,6.147430419921876
15.711999999999987,7.344915771484375,-0.116339111328125,5.355636596679688
15.722000000000008,7.342224121093751,-0.43126220703125,6.058306884765625
15.732,6.860269165039063,-0.6851745605468751,6.123355102539063
15.742999999999997,7.129284667968751,-0.0478515625,6.7279296875000005
15.752999999999986,7.411758422851563,0.2854644775390625,7.334896850585938
15.763000000000003,7.069320678710938,0.3505126953125,6.932345581054688
15.772999999999996,7.138107299804688,0.3241943359375,7.107452392578126
15.782999999999989,6.914999389648438,0.2426971435546875,6.501232910156251
15.793000000000006,7.016384887695313,0.6685760498046875,5.974118041992188
15.802999999999995,7.790682983398438,0.758148193359375,6.0236145019531255
15.812999999999988,8.093493652343751,0.56763916015625,5.9552764892578125
15.823000000000008,7.99539794921875,0.5058807373046875,6.290985107421876
15.832999999999998,7.321289062500001,0.2788848876953125,6.686209106445313
15.84299999999999,6.7413879394531255,0.072076416015625,6.777874755859376
15.853000000000009,6.115579223632813,-0.375634765625,6.138458251953126
15.863,5.796917724609376,-0.8394958496093751,5.346514892578125
15.873999999999995,7.457217407226563,-0.21951904296875,6.15311279296875
15.88300000000001,8.840725708007813,0.657958984375,7.195678710937501
15.894000000000004,8.263815307617188,0.989630126953125,7.378112792968751
15.903999999999996,7.940518188476563,1.6529724121093752,7.781112670898438
15.913999999999987,7.312316894531251,1.2288879394531251,6.525009155273438
15.924000000000008,6.542803955078125,-0.0100189208984375,5.489022827148438
15.933999999999996,6.925616455078125,-1.0682861328125002,6.161337280273438
15.943999999999988,7.536621093750001,-1.4769683837890626,6.788043212890625
15.954000000000008,8.499334716796875,-0.7261474609375,7.554116821289063
15.964,8.488568115234376,-0.593658447265625,7.175790405273438
15.97399999999999,7.726531982421876,-0.7292877197265626,6.062045288085938
15.984000000000009,7.090405273437501,-0.2740997314453125,5.621960449218751
15.995000000000005,6.553121948242188,0.3787750244140625,5.686260986328126
16.00399999999999,7.069171142578125,1.3986114501953126,6.489718627929688
16.014999999999986,7.764813232421876,1.6114013671875,7.029693603515626
16.025000000000006,8.136410522460938,1.5572692871093752,6.924420166015626
16.033999999999992,7.928256225585938,1.5252685546875,6.376220703125001
16.044999999999987,7.215118408203126,0.8611785888671876,5.672354125976563
16.055000000000007,6.925765991210938,0.204266357421875,5.665625
16.064999999999998,6.788790893554688,-0.3792236328125,5.806637573242188
16.07499999999999,7.276278686523438,-0.6494354248046875,6.475213623046876
16.085000000000008,7.825973510742188,-0.53653564453125,7.158892822265625
16.095,7.567724609375,-0.7479797363281251,7.19986572265625
16.10499999999999,7.203305053710938,-0.8641693115234376,7.250259399414063
16.11500000000001,6.756042480468751,-0.5878265380859375,6.629684448242188
16.125,6.822586059570313,-0.11065673828125,6.1190185546875
16.13499999999999,7.453927612304688,0.3617279052734375,6.044549560546876
16.145999999999987,8.046987915039063,0.7639801025390626,5.989669799804688
16.156000000000006,8.248114013671875,1.1512786865234377,6.393267822265625
16.165999999999997,7.519573974609376,1.2969268798828126,6.573309326171875
16.175999999999988,6.761724853515625,1.1752044677734377,6.493905639648438
16.186000000000007,6.0345306396484375,0.8915344238281251,5.81217041015625
16.195999999999998,5.4479003906250005,1.2311309814453126,4.471578979492188
16.20599999999999,7.7657104492187505,1.660150146484375,5.998043823242188
16.216000000000008,10.235150146484376,1.24234619140625,8.711526489257814
16.226,7.37332763671875,0.1924530029296875,7.770944213867188
16.23599999999999,5.17454833984375,-1.9136138916015624,7.615277099609376
16.24600000000001,7.037170410156251,-2.912216186523437,7.12210693359375
16.256,7.958462524414063,-2.1181793212890625,4.4908691406250005
16.26599999999999,9.285296630859376,-1.7772369384765627,6.191842651367188
16.27600000000001,9.099273681640623,-0.003887939453125,7.34940185546875
16.286,7.195678710937501,1.0193878173828126,6.734060668945313
16.296999999999997,6.971224975585938,0.42109375,7.425964355468751
16.306999999999988,6.480895996093751,0.1550689697265625,5.959014892578125
16.317000000000007,6.907821655273438,1.1189788818359376,5.594744873046875
16.326999999999998,8.097232055664064,1.5837371826171875,6.860119628906251
16.33699999999999,7.576846313476563,1.7413482666015627,6.204104614257813
16.34700000000001,7.984481811523438,1.223504638671875,6.572113037109376
16.357,7.850198364257813,0.162396240234375,6.356781005859376
16.36699999999999,7.062741088867188,0.012261962890625,5.295523071289063
16.37700000000001,7.345962524414063,-0.4553375244140625,6.034381103515625
16.387,6.963897705078126,-0.983648681640625,6.114532470703125
16.39699999999999,7.202557373046876,-0.4936187744140625,6.6322265625000005
16.40700000000001,7.655352783203125,-0.2151824951171875,7.403384399414063
16.418000000000006,7.145883178710938,-0.0817962646484375,6.884045410156251
16.426999999999985,7.053469848632813,-0.0408233642578125,6.944458007812501
16.437999999999988,6.947448730468751,-0.03768310546875,6.557608032226563
16.448000000000008,6.969580078125,0.6796417236328125,5.996099853515625
16.458,7.651763916015626,1.11553955078125,6.214422607421875
16.46799999999999,7.993603515625001,1.128399658203125,6.109896850585938
16.47800000000001,7.960556030273438,1.0969970703125,6.238348388671875
16.488,7.462002563476563,0.683380126953125,6.592001342773438
16.49799999999999,6.729574584960938,0.461767578125,6.458914184570313
16.50800000000001,6.079989624023438,-0.161199951171875,5.8550872802734375
16.518,5.851348876953125,-1.069482421875,5.219110107421876
16.52799999999999,7.758981323242188,-0.6566131591796875,6.519625854492188
16.53800000000001,9.056506347656253,0.283221435546875,7.84586181640625
16.548000000000002,7.849002075195313,0.4308135986328125,7.765859985351563
16.557999999999986,7.230670166015625,1.0128082275390626,7.531088256835938
16.568000000000005,7.301251220703126,0.7980743408203126,5.823983764648438
16.579000000000008,7.365103149414063,-0.0620574951171875,4.866204833984376
16.587999999999994,7.7911315917968755,-0.5746673583984375,6.256143188476563
16.59899999999999,7.368841552734375,-0.8803192138671876,7.3021484375
16.60900000000001,7.605856323242188,-0.1610504150390625,8.082577514648438
16.619,7.774832153320313,-0.095703125,7.377066040039063
16.62899999999999,7.650418090820313,-0.3964202880859375,5.745028686523438
16.63900000000001,7.631576538085938,0.0270660400390625,5.3047943115234375
16.649,7.162631225585938,0.5000488281250001,5.485134887695313
16.658999999999992,7.322036743164063,1.2571502685546876,6.543402099609375
16.670999999999985,7.590005493164063,1.218719482421875,7.188800048828125
16.679000000000002,7.763168334960938,0.8658142089843751,6.859820556640625
16.688999999999993,7.83031005859375,0.9423767089843752,6.3893798828125
16.699000000000005,7.237548828125001,0.485693359375,5.723944091796875
16.709000000000003,6.905429077148438,0.00059814453125,5.815460205078125
16.718999999999994,6.865802001953125,-0.3273345947265625,6.103167724609375
16.72999999999999,7.311270141601563,-0.4942169189453125,6.464895629882813
16.74000000000001,7.969976806640625,-0.296978759765625,6.951934814453126
16.75,7.634268188476563,-0.3967193603515625,6.853689575195313
16.75999999999999,7.159490966796875,-0.4821044921875,6.952981567382813
16.77000000000001,6.70579833984375,-0.1984344482421875,6.70938720703125
16.78,6.648974609375,0.19918212890625,6.28111572265625
16.789999999999985,7.444058227539063,0.48389892578125,6.338986206054688
16.80000000000001,8.115325927734375,0.6851745605468751,6.188851928710938
16.810000000000002,8.195477294921876,0.8505615234375,6.296368408203126
