time,ax,ay,az
0.0,6.968832397460938,-0.113348388671875,6.671255493164063
0.0099999999999909,7.11552734375,-0.07237548828125,6.499588012695313
0.0199999999999818,7.382598876953126,0.0336456298828125,6.237899780273438
0.0299999999999727,7.813262939453126,0.2702117919921875,6.234759521484375
0.0400000000000204,8.123849487304689,0.477020263671875,6.085522460937501
0.0500000000000113,7.998687744140626,0.73870849609375,6.237301635742188
0.0609999999999786,7.472470092773438,0.8516082763671876,6.315658569335938
0.0709999999999695,6.8430725097656255,0.9256286621093752,6.570318603515625
0.0810000000000172,6.752902221679688,0.8560943603515626,6.807931518554688
0.0910000000000081,6.812716674804688,0.7001281738281251,6.803445434570313
0.100999999999999,6.6112915039062505,0.6769500732421876,6.549234008789063
0.11099999999999,6.389080810546876,0.2361175537109375,5.960958862304688
0.1209999999999809,7.365850830078125,-0.1290496826171875,5.319000244140625
0.1309999999999718,9.282904052734375,-0.142657470703125,6.871932983398438
0.1410000000000195,9.9818359375,-0.203070068359375,8.781658935546876
0.1510000000000104,6.955972290039063,-0.5698822021484375,7.023861694335938
0.1610000000000013,4.23486328125,-1.045556640625,5.944061279296875
0.1709999999999922,6.043951416015625,-1.4425750732421876,5.55975341796875
0.1809999999999902,8.469427490234375,-1.42657470703125,6.26676025390625
0.194999999999986,8.7293212890625,-0.74708251953125,6.551776123046875
0.2010000000000218,7.959359741210938,0.090020751953125,7.454525756835938
0.211999999999989,6.819744873046876,1.0347900390625,6.866101074218751
0.22199999999998,6.08612060546875,1.91824951171875,5.843273925781251
0.2319999999999709,6.660040283203125,2.099786376953125,6.060549926757813
0.2420000000000186,8.178729248046876,2.0211303710937503,6.010903930664063
0.2520000000000095,9.4135986328125,2.004830932617188,6.252703857421875
0.2620000000000004,9.4781982421875,1.3328155517578126,5.834451293945313
0.2719999999999913,8.833847045898438,0.8387481689453126,4.977459716796876
0.2819999999999822,8.093643188476562,0.26138916015625,5.0067687988281255
0.2950000000000159,7.0524230957031255,-0.5770599365234376,5.6393066406250005
0.3020000000000209,6.308779907226563,-0.9622650146484376,7.317700195312501
0.3120000000000118,6.184515380859375,-1.2692626953125,8.37222900390625
0.3220000000000027,6.232366943359375,-0.8260375976562501,8.503671264648439
0.3319999999999865,6.456372070312501,-0.3742889404296875,7.489218139648438
0.3419999999999916,7.4187866210937505,-0.3288299560546875,6.0388671875
0.3530000000000086,8.744873046875,-0.4550384521484375,4.933197021484375
0.3629999999999995,9.324176025390626,-0.3384002685546875,4.649676513671875
0.3729999999999904,8.741433715820314,-0.0073272705078125,5.155856323242188
0.3829999999999813,6.976907348632813,0.1638916015625,5.882601928710938
0.3949999999999818,4.60989990234375,0.2729034423828125,6.190048217773438
0.40300000000002,5.2340637207031255,0.8505615234375,9.7557373046875
0.4130000000000109,6.4587646484375005,1.1309417724609376,11.47061767578125
0.4230000000000018,5.757290649414063,1.05692138671875,7.215866088867188
0.4329999999999927,7.937527465820313,0.6150421142578125,4.412213134765626
0.4429999999999907,10.488165283203124,0.4843475341796875,4.599581909179688
0.4529999999999816,10.349844360351565,1.160400390625,3.014498901367188
0.4630000000000223,9.373971557617187,1.0898193359375,3.3403381347656254
0.4730000000000061,7.780514526367188,0.548797607421875,8.961251831054689
0.4839999999999804,6.382949829101563,0.4460662841796875,6.128439331054688
0.4959999999999809,5.2016143798828125,-0.1816864013671875,9.14862060546875
0.5040000000000191,5.1129394531250005,-0.587078857421875,7.0284973144531255
0.51400000000001,6.641796875000001,-0.3868499755859375,7.482189941406251
0.5240000000000009,8.522213745117188,-0.5710784912109376,6.31700439453125
0.5339999999999918,8.761770629882813,-0.1311431884765625,5.4084228515625
0.5439999999999827,8.784201049804688,0.6512298583984375,5.1432952880859375
0.5539999999999736,8.029641723632814,0.6688751220703125,5.593099975585938
0.5640000000000214,7.393066406250001,0.8305236816406251,5.266961669921876
0.5740000000000123,6.6561523437500005,0.9615173339843752,7.691839599609375
0.5840000000000032,6.369342041015625,0.3828125,7.447796630859376
0.5949999999999704,6.8026977539062505,-0.1209747314453125,7.745971679687501
0.6039999999999921,7.378561401367188,-0.6751556396484375,7.099377441406251
0.6150000000000091,7.697521972656251,-1.2617858886718751,5.798263549804688
0.625,8.111437988281251,-1.42178955078125,5.493060302734375
0.6349999999999909,7.396804809570313,-0.8303741455078125,5.789141845703125
0.6449999999999818,5.850750732421876,-0.7059600830078125,5.055517578125
0.6549999999999727,6.355435180664063,-0.38699951171875,6.905728149414063
0.6650000000000205,7.262969970703126,0.5000488281250001,8.930447387695313
0.6750000000000114,7.089358520507813,1.1103057861328125,8.365200805664063
0.6850000000000023,7.981192016601563,1.364666748046875,7.214520263671876
0.6959999999999695,9.071609497070312,1.3130767822265623,5.612689208984375
0.7049999999999912,9.119461059570312,0.9930694580078124,3.752310180664063
0.7149999999999821,8.954672241210938,0.804205322265625,4.08233642578125
0.7250000000000227,8.097232055664064,0.34154052734375,6.616226196289063
0.7350000000000065,7.298410034179688,-0.0503936767578125,6.617871093750001
0.7450000000000045,6.710433959960938,-0.1924530029296875,8.088409423828125
0.7549999999999955,6.371435546875,-0.51141357421875,6.456372070312501
0.7660000000000196,6.981692504882813,-0.5148529052734375,6.251806640625
0.7760000000000105,7.352691650390626,-0.3964202880859375,5.9533325195312505
0.7860000000000014,7.303643798828125,-0.13876953125,5.41619873046875
0.7959999999999923,7.678082275390626,0.4556365966796875,7.042852783203125
0.8059999999999903,7.506713867187501,1.0413696289062502,7.072012329101563
0.8159999999999812,7.127041625976563,1.5257171630859376,7.109695434570313
0.8260000000000218,6.842623901367188,1.7652740478515627,7.078143310546875
0.8360000000000127,6.424819946289063,1.4934173583984376,6.295321655273438
0.8460000000000036,6.953878784179688,0.8812164306640625,6.085223388671875
0.8559999999999945,7.668212890625001,0.2618377685546875,6.259432983398438
0.8659999999999926,7.828665161132813,-0.35589599609375,5.91026611328125
0.8759999999999764,7.559500122070313,-0.6602020263671875,5.918939208984376
0.8870000000000005,6.407772827148438,-0.5703308105468751,4.845419311523438
0.8969999999999914,6.595291137695313,-0.517095947265625,6.438726806640625
0.9069999999999824,7.269400024414063,-0.3937286376953125,9.356924438476565
0.9169999999999732,6.741088867187501,0.09989013671875,7.820141601562501
0.9270000000000208,7.835842895507813,0.01973876953125,7.9110595703125
0.9370000000000118,8.827865600585938,0.1179840087890625,6.761874389648438
0.9479999999999792,8.09827880859375,0.4415802001953125,4.1817779541015625
0.9569999999999864,8.555261230468751,0.6521270751953125,4.358828735351563
0.9669999999999916,8.549429321289063,0.8399444580078126,7.301699829101563
0.9769999999999824,8.019174194335939,1.0772583007812502,5.565286254882813
0.9869999999999663,7.580883789062501,1.0104156494140626,8.346957397460939
0.997000000000014,6.39775390625,0.3572418212890625,6.101821899414063
1.007000000000005,6.2242919921875,0.3213531494140625,6.599926757812501
1.016999999999996,6.9970947265625005,0.2059112548828125,6.415100097656251
1.0269999999999868,7.384094238281251,0.16209716796875,5.366702270507813
1.0369999999999775,8.374920654296876,0.0719268798828125,5.492312622070313
1.0469999999999686,8.340377807617188,-0.6477905273437501,5.968585205078125
1.0579999999999927,7.061993408203126,-0.8758331298828126,6.162683105468751
1.0679999999999907,6.109448242187501,-0.6416595458984375,7.903582763671875
1.0779999999999816,5.98443603515625,-0.7777374267578125,8.30224609375
1.0880000000000225,6.575552368164063,-0.7105957031250001,7.684063720703126
1.098000000000006,7.583126831054688,-0.5072265625000001,6.730770874023438
1.108000000000004,8.492605590820313,-0.16568603515625,5.525360107421875
1.117999999999995,9.10660095214844,0.3050537109375,4.859625244140625
1.127999999999993,8.813809204101563,0.509918212890625,5.170361328125001
1.1379999999999768,7.651016235351563,0.4296173095703125,5.939425659179688
1.1479999999999675,6.668713378906251,0.52935791015625,6.878213500976563
1.1580000000000157,5.844769287109376,0.2660247802734375,7.291680908203125
1.1680000000000064,4.5877685546875,-0.1810882568359375,5.977557373046875
1.1779999999999973,5.955575561523438,0.133685302734375,6.1013732910156255
1.1890000000000214,8.297610473632814,0.9514984130859376,8.435482788085938
1.1990000000000125,8.372677612304688,1.2013732910156252,7.815206909179688
1.2090000000000032,8.08990478515625,1.6625427246093751,7.470227050781251
1.218999999999994,8.22867431640625,1.6831787109375,6.300106811523438
1.228999999999992,7.601220703125,1.03419189453125,4.433746337890625
1.238999999999983,7.789785766601563,0.549993896484375,4.455130004882813
1.2489999999999668,7.982388305664063,-0.325689697265625,7.481591796875
1.2590000000000146,7.7328125,-1.161297607421875,7.045095825195313
1.2690000000000057,7.476507568359375,-1.341189575195313,8.275778198242188
1.2789999999999964,7.174145507812501,-1.3485168457031251,6.104364013671876
1.2889999999999873,7.341925048828125,-0.772802734375,5.333953857421875
1.2989999999999782,7.760775756835938,0.077459716796875,5.653811645507813
1.308999999999969,7.580734252929688,0.6403137207031251,5.026956176757813
1.319999999999986,7.904779052734375,1.5541290283203126,5.600277709960938
1.3290000000000075,7.344168090820313,2.330072021484375,6.653012084960938
1.339999999999982,6.367547607421876,2.2378082275390625,6.34691162109375
1.3500000000000227,6.283657836914063,1.7062072753906252,7.8967041015625
1.3600000000000063,6.009408569335938,1.1444000244140626,8.025604248046875
1.3700000000000043,6.189151000976563,0.442926025390625,7.880105590820313
1.3799999999999957,7.524359130859375,-0.5239746093750001,7.222445678710938
1.3899999999999864,8.993850708007812,-1.4156585693359376,5.392572021484376
1.3999999999999773,9.900338745117187,-2.0444580078125,4.314715576171875
1.4099999999999682,9.3657470703125,-1.803854370117188,4.393670654296876
1.420000000000016,7.803842163085938,-0.8151214599609375,5.638858032226563
1.4300000000000068,6.392071533203126,0.249127197265625,7.458563232421875
1.4399999999999975,5.050134277343751,1.1366241455078123,8.088858032226563
1.4499999999999886,4.153366088867188,1.2267944335937502,7.559649658203125
1.4599999999999795,4.915402221679688,1.665234375,5.475714111328125
1.4699999999999704,8.164971923828126,1.90748291015625,6.100625610351563
1.4809999999999943,10.4412109375,1.29677734375,7.117620849609375
1.4909999999999926,9.760821533203126,0.8689544677734375,6.67349853515625
1.5009999999999764,8.597879028320314,-0.0826934814453125,6.634918212890626
1.5109999999999673,7.359121704101563,-1.2427947998046875,5.423675537109375
1.521000000000015,6.189151000976563,-1.9678955078125,5.6835693359375
1.531000000000006,6.673199462890626,-2.1020294189453126,8.116671752929689
1.5409999999999968,7.637109375,-1.8896881103515624,8.457614135742189
1.5509999999999875,8.430548095703125,-1.200177001953125,7.303643798828125
1.5609999999999786,8.669955444335939,-0.6551177978515625,6.05382080078125
1.5709999999999695,7.995547485351563,-0.1571624755859375,4.441073608398438
1.5810000000000173,7.451834106445313,1.1565124511718752,4.937982177734376
1.5919999999999916,6.745425415039063,2.201171875,6.390127563476563
1.600999999999999,7.076947021484376,2.397662353515625,5.5280517578125
1.6129999999999995,8.083773803710939,2.6476867675781253,6.352743530273438
1.622000000000014,7.828515625,2.3042022705078127,5.506817626953126
1.632000000000005,6.712078857421876,1.6420562744140623,6.312667846679688
1.641999999999996,5.696429443359375,0.8827117919921875,7.837338256835938
1.6519999999999868,5.568576049804688,-0.0701324462890625,8.432791137695313
1.6619999999999775,6.536972045898438,-1.0652954101562502,8.035324096679688
1.6719999999999686,7.526004028320313,-1.7995178222656252,7.05870361328125
1.6820000000000164,8.46673583984375,-2.0787017822265628,5.574108886718751
1.6920000000000073,9.033627319335938,-1.586279296875,4.8871398925781255
1.7019999999999982,8.565130615234375,-0.9710876464843752,5.012002563476563
1.711999999999989,7.598828125000001,-0.1478912353515625,5.955126953125
1.72199999999998,6.853988647460938,0.96121826171875,7.1376586914062505
1.731999999999971,5.899649047851563,1.5789520263671877,7.063488769531251
1.7420000000000186,4.480999755859376,1.155764770507813,5.163632202148438
1.7520000000000095,6.833203125000001,1.3486663818359377,5.926565551757813
1.7629999999999768,8.233758544921876,1.5636993408203126,7.795318603515626
1.7729999999999675,7.659988403320313,1.1701202392578125,7.467086791992188
1.7830000000000157,8.944952392578125,1.57730712890625,9.512142944335938
1.7959999999999925,8.988467407226564,0.750372314453125,6.235955810546876
1.8029999999999973,7.108050537109375,-0.68128662109375,3.1996246337890626
1.812999999999988,6.688751220703126,-1.3618255615234376,3.6875610351562496
1.822999999999979,6.798211669921876,-1.980157470703125,9.284548950195314
1.83299999999997,8.133868408203126,-1.8448272705078128,8.034426879882814
1.8430000000000173,8.602813720703125,-0.757550048828125,10.03985595703125
1.8530000000000089,7.238446044921876,-0.2121917724609375,4.838540649414063
1.8629999999999995,7.224987792968751,0.627752685546875,5.191296386718751
1.8729999999999905,6.808679199218751,1.0548278808593752,5.773739624023438
1.8840000000000143,7.196426391601563,1.2622344970703123,5.047741699218751
1.896000000000015,8.631375122070313,2.004830932617188,7.282858276367188
1.9039999999999964,8.662927246093751,2.003634643554688,5.636315917968751
1.9139999999999875,8.255441284179689,1.7616851806640623,4.418643188476563
1.9239999999999784,7.338784790039063,1.1195770263671876,6.310574340820313
1.933999999999969,5.792730712890625,-0.02572021484375,5.2943267822265625
1.9440000000000168,6.0340820312500005,-0.6174346923828126,7.307232666015626
1.954000000000008,6.606057739257813,-1.0180419921875,8.36505126953125
1.9639999999999984,7.0569091796875005,-1.3716949462890626,8.267105102539062
1.973999999999989,7.9690795898437505,-1.3181610107421875,8.29267578125
1.9839999999999804,7.204501342773438,-1.200775146484375,6.556710815429688
1.995999999999981,7.243380737304688,-0.8104858398437501,4.8636627197265625
2.004000000000019,7.977154541015626,-0.137872314453125,5.302999877929688
2.01400000000001,8.12698974609375,0.295184326171875,4.619171142578125
2.024000000000001,8.497091674804688,0.9437225341796877,5.566033935546876
2.034999999999968,7.342224121093751,1.4955108642578123,7.279269409179688
2.045000000000016,4.978506469726563,1.8292755126953129,4.324136352539063
2.055000000000007,6.315359497070313,2.063897705078125,5.271746826171875
2.0649999999999977,8.344265747070313,2.582937622070313,10.037911987304687
2.0749999999999886,6.441268920898438,1.950250244140625,8.813809204101563
2.0849999999999795,6.174795532226563,-0.259893798828125,8.59952392578125
2.09699999999998,7.913601684570313,-1.308291625976563,7.231716918945313
2.106999999999971,8.447744750976563,-1.3417877197265626,3.730776977539063
2.115000000000009,9.552069091796875,-1.6952911376953126,3.0040313720703127
2.125,9.179873657226564,-1.682131958007813,7.527200317382813
2.134999999999991,6.913504028320313,-1.4845947265625,7.8479553222656255
2.144999999999982,6.567626953125001,-1.129296875,7.7531494140625
2.1549999999999727,6.167019653320313,-0.76383056640625,8.407818603515626
2.165999999999997,6.660787963867188,0.428570556640625,4.541412353515625
2.175999999999988,8.298956298828125,1.2761413574218752,7.980294799804688
2.185999999999978,8.071661376953125,1.806396484375,5.181875610351563
2.1970000000000027,8.218356323242189,2.3305206298828125,5.77568359375
2.2060000000000173,8.183663940429689,1.68258056640625,6.295172119140625
2.216000000000008,7.005169677734376,1.1306427001953123,4.54051513671875
2.225999999999999,7.484133911132813,1.1336334228515623,4.9657958984375
2.23599999999999,7.4786010742187505,0.382513427734375,5.971276855468751
2.245999999999981,7.106704711914063,0.116339111328125,5.02142333984375
2.255999999999972,7.463198852539063,0.058917236328125,8.44520263671875
2.26600000000002,6.460708618164063,-0.611602783203125,8.233010864257814
2.2760000000000105,5.885592651367188,-0.8551971435546876,8.973214721679689
2.2860000000000014,6.174346923828126,-1.2538604736328125,8.13416748046875
2.2969999999999686,6.809725952148438,-1.4742767333984377,5.683868408203125
2.3070000000000164,8.874969482421875,-0.6338836669921876,4.774240112304688
2.317000000000008,9.5332275390625,0.051739501953125,4.6015258789062505
2.326999999999998,8.770593261718751,0.438140869140625,4.638162231445313
2.336999999999989,7.609744262695313,1.0818939208984375,7.449890136718751
2.34699999999998,6.17344970703125,1.155764770507813,6.874774169921875
2.356999999999971,5.900994873046876,1.468743896484375,7.703204345703125
2.367000000000018,6.178982543945313,1.457977294921875,6.786248779296876
2.377000000000009,5.331710815429688,0.356494140625,3.9591186523437503
2.3870000000000005,7.205697631835938,0.16688232421875,3.1296417236328127
2.396999999999992,10.109689331054687,0.7719055175781251,8.400640869140625
2.4069999999999823,9.49793701171875,0.3518585205078125,10.675982666015626
2.416999999999973,6.761724853515625,0.21234130859375,8.385238647460938
2.427000000000021,5.415301513671875,0.10826416015625,5.707345581054688
2.437000000000012,5.870339965820313,-0.248828125,4.451840209960938
2.447999999999979,7.799206542968751,-0.5432647705078125,5.9578186035156255
2.45799999999997,9.994546508789064,-1.3658630371093752,8.631674194335938
2.4680000000000177,9.566125488281251,-1.5457550048828126,7.213174438476563
2.4780000000000086,7.680026245117188,-0.4915252685546875,5.814413452148438
2.4879999999999995,6.222796630859375,0.311932373046875,5.445806884765625
2.4979999999999905,5.831610107421875,0.7747467041015625,5.922378540039063
2.5079999999999814,7.0748535156250005,1.3359558105468752,7.427758789062499
2.5179999999999723,8.441015625,1.323245239257813,7.736550903320313
2.52800000000002,8.632421875,1.32728271484375,6.421081542968751
2.538000000000011,8.094839477539063,1.236962890625,5.49993896484375
2.548000000000002,7.121359252929688,0.5348907470703126,4.768408203125
2.5579999999999927,6.2817138671875,0.3931304931640625,4.692742919921876
2.5679999999999907,6.7294250488281255,0.29010009765625,5.9347900390625
2.579000000000008,7.9556213378906255,-0.176751708984375,6.430203247070313
2.588999999999998,8.743975830078126,-0.5498443603515626,7.078741455078125
2.598000000000006,7.7196533203125,-1.027163696289063,7.305886840820313
2.6089999999999804,6.294723510742188,-1.0697814941406252,7.678829956054688
2.618999999999972,5.551528930664063,-0.4197479248046875,7.550677490234375
2.629000000000019,5.700765991210938,-0.0418701171875,7.017431640625
2.63900000000001,7.234857177734375,0.1437042236328125,6.426016235351563
2.649000000000001,9.005215454101563,0.6823333740234375,5.890078735351563
2.658999999999992,9.4949462890625,0.8785247802734376,5.2195587158203125
2.6689999999999827,8.535671997070313,0.98155517578125,5.5271545410156255
2.6789999999999736,6.840081787109376,0.9209930419921876,5.8989013671875
2.6890000000000214,5.971875000000001,0.9437225341796877,6.720452880859376
2.6990000000000123,6.1611877441406255,1.0247711181640626,7.304241943359376
2.709000000000003,6.738995361328126,0.7035675048828125,7.117770385742188
2.718999999999994,6.726284790039063,0.2093505859375,5.320196533203125
2.728999999999992,6.5807861328125,0.0231781005859375,3.3735351562500004
2.740000000000009,9.168209838867188,0.1206756591796875,4.083233642578126
2.75,9.662576293945314,-0.36666259765625,11.867935180664062
2.759999999999991,6.506466674804688,-1.1919525146484375,8.751452636718751
2.769999999999982,5.250662231445313,-1.7583953857421877,9.690838623046876
2.7799999999999727,6.606207275390625,-1.4660522460937502,5.761178588867188
2.7900000000000205,7.953079223632813,-0.508123779296875,3.684271240234376
2.800000000000012,10.485623168945311,0.6865203857421875,4.1264495849609375
2.8100000000000023,9.3705322265625,1.5515869140625,8.5594482421875
2.819999999999986,7.245922851562501,2.0906646728515628,5.67100830078125
2.829999999999991,6.326126098632813,1.902398681640625,8.103512573242188
2.839999999999982,5.121163940429688,0.777288818359375,6.51199951171875
2.8500000000000227,6.229226684570313,0.9607696533203126,5.47362060546875
2.8600000000000065,8.247366333007813,0.8426361083984376,9.194079589843753
2.870999999999981,8.609094238281251,0.3916351318359375,4.708444213867188
2.880999999999972,9.33389587402344,-0.5809478759765625,6.326275634765626
2.89100000000002,8.120410156250001,-1.5817932128906251,5.371188354492188
2.9010000000000105,6.346313476562501,-1.2946838378906251,4.4430175781250005
2.913999999999988,6.509906005859375,-0.68607177734375,6.420034790039063
2.9209999999999923,7.216165161132813,-0.7421478271484375,6.15550537109375
2.9309999999999903,8.331405639648438,-0.069384765625,6.006118774414063
2.940999999999981,8.373873901367189,0.8589355468750001,7.712924194335938
2.951000000000022,6.347808837890626,1.2900482177734376,7.302297973632813
2.9610000000000127,5.399600219726563,1.520632934570313,7.977752685546876
2.971000000000004,5.819647216796875,0.7687652587890625,7.25609130859375
2.9809999999999945,6.974365234375001,0.563153076171875,5.823983764648438
2.990999999999993,8.747265625,1.1100067138671876,5.718112182617188
3.0009999999999764,9.226678466796876,0.8525054931640625,5.2935791015625
3.01400000000001,8.66053466796875,0.22071533203125,5.330514526367188
3.021999999999992,7.343121337890626,-0.581097412109375,6.6549560546875
3.0319999999999823,6.098233032226563,-0.8046539306640625,6.824530029296875
3.041999999999973,6.197225952148438,-0.4987030029296875,7.362860107421875
3.052000000000021,6.7363037109375,-0.6282012939453125,6.990216064453126
3.062000000000012,6.349603271484376,-1.301263427734375,4.674798583984376
3.0720000000000027,7.790982055664063,-0.8870483398437501,4.055270385742188
3.0819999999999865,9.7198486328125,0.541021728515625,8.248712158203126
3.091999999999992,7.650418090820313,0.6733612060546875,8.161831665039063
3.1019999999999825,5.568426513671875,0.948956298828125,8.338433837890626
3.113999999999983,6.692190551757813,2.0558227539062504,7.625744628906251
3.122000000000014,7.427908325195313,1.6736083984375,5.444461059570313
3.1329999999999814,8.216412353515626,1.2296356201171876,4.202264404296876
3.141999999999996,8.598925781250001,0.325390625,7.378860473632813
3.15300000000002,7.9720703125,-0.4212432861328125,6.236703491210938
3.163000000000011,7.584622192382813,0.2041168212890625,7.866049194335938
3.173000000000002,6.803594970703125,-0.07716064453125,6.4602600097656255
3.1829999999999927,6.652114868164063,-0.6267059326171875,6.305789184570313
3.1929999999999907,7.745523071289063,-0.5568725585937501,6.928906250000001
3.2029999999999816,7.787991333007813,-0.6911560058593751,6.378613281250001
3.214999999999982,8.142391967773438,-0.2260986328125,6.329415893554688
3.223000000000006,8.20474853515625,0.2890533447265625,6.163580322265625
3.233000000000004,7.509405517578125,0.2190704345703125,5.025759887695313
3.242999999999995,7.425067138671875,0.689361572265625,5.417245483398438
3.252999999999993,7.0419555664062505,1.0672393798828126,5.954229736328125
3.262999999999977,7.169210815429688,0.91695556640625,5.78226318359375
3.272999999999968,7.780215454101563,0.8732910156250001,7.257736206054688
3.2830000000000155,7.132125854492188,0.4581787109375,6.757687377929688
3.2939999999999827,6.543701171875001,0.165985107421875,7.126443481445313
3.3039999999999736,6.488372802734376,0.23507080078125,7.604061889648438
3.3149999999999977,6.489569091796875,-0.02452392578125,6.796566772460938
3.3240000000000123,7.361962890625,-0.3026611328125,6.94864501953125
3.334000000000003,7.903134155273438,-0.4127197265625,6.303097534179688
3.343999999999994,8.260675048828126,-0.419598388671875,5.398403930664063
3.353999999999992,8.557952880859375,-0.37802734375,5.783010864257813
3.363999999999983,7.70828857421875,-0.305950927734375,5.682522583007813
3.373999999999967,6.9627014160156255,0.0393280029296875,6.434689331054688
3.3840000000000146,6.451885986328126,0.6129486083984376,7.132873535156251
3.394000000000005,4.95921630859375,0.9275726318359376,4.9708801269531255
3.4039999999999964,5.588613891601563,1.4989501953125002,3.483444213867188
3.4150000000000205,11.02081298828125,1.6271026611328123,7.763467407226563
3.425000000000012,10.284646606445314,1.0404724121093751,12.520510864257814
3.4350000000000023,4.787249755859375,-0.223406982421875,7.245025634765626
3.444999999999986,4.358380126953126,-1.284814453125,6.185263061523438
3.454999999999991,7.028048706054688,-0.959423828125,5.028750610351563
3.464999999999982,9.467880249023438,-0.3635223388671875,3.087173461914063
3.4750000000000227,11.472412109375,0.2636322021484375,6.484783935546876
3.4850000000000065,8.146728515625,0.2812774658203125,10.858566284179688
3.4950000000000045,5.367898559570313,0.2954833984375,3.5465484619140626
3.5049999999999955,5.742037963867188,-0.195294189453125,10.010397338867188
3.5149999999999864,5.778524780273438,-0.4562347412109375,4.295425415039063
3.5249999999999773,8.367593383789064,0.5929107666015625,4.600180053710938
3.534999999999968,9.536068725585938,0.9598724365234376,11.334539794921875
3.545000000000016,8.123849487304689,1.0247711181640626,3.7277862548828127
3.555000000000007,7.969528198242188,0.587677001953125,6.788940429687501
3.565999999999981,6.5114013671875,-0.259295654296875,6.389828491210938
3.576000000000022,5.942864990234376,0.2806793212890625,2.86690673828125
3.5860000000000127,7.85423583984375,0.7101470947265626,6.706246948242188
3.596000000000004,8.296115112304689,0.19678955078125,6.6516662597656255
3.6059999999999945,9.18555603027344,0.4607208251953125,3.9610626220703127
3.615999999999993,8.303292846679689,0.372943115234375,9.60904235839844
3.625999999999976,5.661587524414063,0.072674560546875,5.124603271484375
3.6359999999999673,5.033236694335938,0.128900146484375,8.02052001953125
3.646000000000015,5.789889526367188,-0.3401947021484375,7.848104858398438
3.656000000000006,6.8969055175781255,-0.2534637451171875,6.844418334960938
3.665999999999997,8.616571044921876,0.19080810546875,7.42476806640625
3.675999999999988,8.584420776367189,-0.0841888427734375,6.0968872070312505
3.685999999999978,8.40811767578125,-0.0363372802734375,4.752108764648438
3.6959999999999695,7.8153564453125,0.169573974609375,5.6527648925781255
3.7069999999999865,6.639553833007813,0.0593658447265625,5.40184326171875
3.716999999999992,7.05870361328125,0.5417694091796875,6.314013671875
3.726999999999983,7.326971435546875,0.7437927246093751,7.703652954101563
3.7369999999999663,5.867498779296875,0.20755615234375,5.50592041015625
3.747000000000014,5.539865112304688,-0.4200469970703125,4.4083251953125
3.757000000000005,8.528344726562501,0.13876953125,5.7936279296875
3.766999999999996,9.634613037109377,0.8978149414062501,10.32203063964844
3.776999999999987,7.803244018554688,0.8391967773437501,8.970074462890626
3.7869999999999777,6.132177734375,1.12630615234375,7.682568359375001
3.7969999999999686,5.7877960205078125,0.5700317382812501,5.438629150390625
3.807000000000016,6.8678955078125,-0.7077545166015625,3.496453857421875
3.8170000000000073,9.725979614257811,-0.8553466796875001,5.2355590820312505
3.826999999999998,9.722540283203124,-0.844281005859375,10.020864868164065
3.8380000000000223,7.971023559570313,0.029010009765625,5.743234252929688
3.84699999999998,6.11124267578125,0.8279815673828126,8.500381469726562
3.858000000000004,5.405133056640626,0.50662841796875,4.257293701171875
3.867999999999995,6.992758178710938,0.3961212158203125,6.540560913085938
3.877999999999993,8.456716918945313,0.5866302490234375,7.2647644042968755
3.887999999999977,8.909512329101563,0.7944854736328125,5.9433135986328125
3.897999999999968,8.845510864257813,1.036285400390625,7.070068359375001
3.908000000000016,7.177883911132813,0.6963897705078126,5.039816284179688
3.9180000000000064,6.385342407226563,0.19200439453125,4.845718383789063
3.927999999999997,6.597683715820313,0.179742431640625,5.875125122070313
3.937999999999988,7.093695068359375,-0.0225799560546875,5.5679779052734375
3.947999999999979,8.521166992187501,-0.3276336669921875,6.708489990234376
3.95799999999997,8.43323974609375,-0.5443115234375,7.640548706054688
3.9680000000000177,6.819894409179688,-0.6433044433593751,7.084573364257813
3.9780000000000086,5.988623046875,-0.3766815185546875,7.828216552734376
3.988,5.6288391113281255,-0.0871795654296875,6.898999023437501
3.998999999999967,6.580935668945313,0.149835205078125,6.350949096679688
4.009000000000015,8.315255737304689,0.364569091796875,6.401492309570313
4.0190000000000055,8.886184692382812,0.6944458007812501,5.705700683593751
4.028999999999996,8.82203369140625,0.8073455810546876,5.598333740234375
4.038999999999987,7.7196533203125,0.7086517333984376,6.239544677734376
4.048999999999978,6.344219970703126,0.57840576171875,5.828320312500001
4.058999999999969,6.279022216796876,0.8051025390625001,7.188949584960938
4.069000000000017,6.638507080078125,0.70880126953125,7.099826049804688
4.079000000000008,7.284054565429688,0.402252197265625,6.785650634765625
4.088999999999999,6.859222412109376,0.0518890380859375,5.405880737304688
4.100000000000023,6.157897949218751,-0.000299072265625,3.0470977783203126
4.110000000000007,9.356027221679687,0.4308135986328125,4.236657714843751
4.1200000000000045,10.636654663085938,0.04246826171875,12.798648071289064
4.129999999999996,6.267956542968751,-1.090118408203125,7.358074951171876
4.139999999999986,3.935641479492188,-1.5735687255859376,9.303390502929688
4.149999999999977,5.6621856689453125,-1.131689453125,6.255096435546876
4.159999999999968,7.683016967773438,-0.3422882080078125,4.102224731445313
4.170000000000016,11.174835205078123,0.5010955810546875,5.024264526367188
4.180000000000007,10.438967895507814,1.2293365478515623,8.492007446289064
4.189999999999998,7.398001098632813,1.941427612304688,4.581338500976563
4.199999999999989,6.126644897460938,1.7027679443359376,7.164425659179688
4.20999999999998,5.028750610351563,0.383111572265625,6.793576049804688
4.21999999999997,6.2494140625000005,0.6470428466796876,5.047293090820313
4.230000000000018,8.398696899414062,0.9953125,10.481436157226565
4.240000000000009,8.432192993164064,0.566143798828125,5.241091918945313
4.25,8.947195434570313,-0.1963409423828125,6.512149047851563
4.259999999999991,8.023809814453125,-1.36556396484375,5.628390502929688
4.271000000000015,6.237301635742188,-1.2018218994140626,3.760833740234376
4.281000000000006,6.793576049804688,-0.2331268310546875,5.560052490234376
4.290999999999997,7.71068115234375,-0.4400848388671875,6.500186157226563
4.300999999999988,9.130377197265624,-0.07955322265625,4.520477294921875
4.310999999999979,8.895755004882814,0.68009033203125,8.213272094726562
4.3209999999999695,6.125897216796876,0.9529937744140624,6.863409423828125
4.331000000000017,4.6468353271484375,1.262384033203125,8.959457397460938
4.341000000000008,5.063592529296876,0.6455474853515626,8.034725952148438
4.350999999999999,6.145037841796875,0.2151824951171875,6.6591430664062505
4.36099999999999,8.610589599609376,0.8208038330078126,6.01434326171875
4.370999999999981,9.570910644531253,0.7212127685546875,5.446255493164063
4.380999999999972,9.419131469726564,0.2926422119140625,4.225442504882813
4.39100000000002,8.114578247070312,-0.30146484375,6.013446044921875
4.4010000000000105,6.231619262695313,-0.7206146240234376,6.392071533203126
4.411999999999978,6.026605224609376,-0.2130889892578125,6.882101440429688
4.421999999999969,6.798809814453126,-0.1093109130859375,7.612435913085938
4.432000000000016,7.290036010742188,-0.42169189453125,6.736901855468751
4.442999999999991,6.481045532226563,-0.639715576171875,5.016488647460938
4.451999999999998,6.6441894531250005,-0.294586181640625,4.1929931640625
4.461999999999989,8.647225952148439,0.77100830078125,7.818795776367188
4.47199999999998,8.57081298828125,0.8402435302734376,9.366494750976564
4.481999999999971,7.107302856445313,0.94267578125,7.746270751953125
4.492000000000019,6.957916259765626,1.8244903564453123,6.811221313476563
4.502999999999993,6.102569580078125,1.837200927734375,5.147482299804688
4.514999999999986,7.189547729492188,1.4171539306640626,4.619769287109375
4.521999999999991,9.169256591796875,0.0064300537109375,8.667263793945313
4.533000000000016,8.871829223632814,-1.2565521240234376,6.626693725585938
4.541999999999973,8.17484130859375,-1.048248291015625,6.385342407226563
4.552999999999997,7.23336181640625,-0.9393859863281252,6.603515625000001
4.562999999999988,6.071017456054688,-1.00189208984375,4.955776977539063
4.572999999999979,6.9061767578125,-0.6054718017578126,7.689895629882813
4.58299999999997,7.71666259765625,-0.4583282470703125,7.029693603515626
4.593000000000018,8.387332153320314,0.10108642578125,6.223843383789063
4.603000000000009,8.91175537109375,0.6492858886718751,5.952883911132813
4.6159999999999926,7.76212158203125,0.715679931640625,4.533038330078125
4.622999999999991,7.018478393554688,1.3600311279296875,4.2999114990234375
4.632999999999981,6.51439208984375,1.6831787109375,6.5724121093750005
4.642999999999972,6.646432495117188,1.341339111328125,6.03946533203125
4.65300000000002,7.566079711914063,1.000396728515625,7.953826904296876
4.663000000000011,7.366448974609375,0.36427001953125,7.979098510742188
4.673000000000002,6.576300048828125,-0.0094207763671875,7.813861083984375
4.682999999999993,6.271096801757813,-0.0773101806640625,7.710382080078125
4.692999999999991,6.106906127929688,-0.6102569580078125,6.085223388671875
4.704000000000008,7.618417358398438,-0.7825225830078125,5.442965698242188
4.716000000000008,9.223239135742189,-0.65736083984375,5.3272247314453125
4.7239999999999895,9.443057250976564,-0.7463348388671875,5.0291992187500005
4.7339999999999804,8.563186645507812,-0.563751220703125,6.296368408203126
4.743999999999971,6.812417602539063,-0.14833984375,7.047189331054688
4.754000000000019,5.530145263671876,0.427374267578125,7.177435302734375
4.76400000000001,4.990469360351563,1.057070922851563,6.300704956054688
4.774000000000001,4.827923583984376,1.4406311035156252,4.035980224609375
4.783999999999992,8.907119750976562,1.911669921875,3.972128295898438
4.793999999999983,12.058892822265626,1.640261840820313,12.096426391601565
4.803999999999974,7.518527221679688,0.6645385742187501,8.325872802734375
4.815999999999981,3.801657104492188,-0.8946746826171875,7.069619750976563
4.824999999999989,5.981893920898438,-1.2478790283203125,6.1851135253906255
4.83499999999998,7.286148071289063,-0.8581878662109376,3.7337677001953127
4.84499999999997,10.7127685546875,-0.188116455078125,4.8617187500000005
4.855000000000018,10.365994262695311,0.1096099853515625,11.788980102539064
4.865000000000009,6.597982788085938,0.036785888671875,4.524813842773438
4.875999999999976,6.256741333007813,0.032598876953125,6.542056274414063
4.884999999999991,5.774188232421875,-0.4987030029296875,7.354635620117188
4.894999999999982,6.735855102539063,0.0777587890625,2.7732971191406253
4.904999999999973,9.33404541015625,0.9748260498046876,9.879702758789064
4.915999999999997,8.250955200195314,0.9927703857421876,7.5488830566406255
4.925000000000011,7.953677368164063,1.1913543701171876,3.784011840820313
4.935000000000002,7.473068237304688,0.3505126953125,9.10779724121094
4.944999999999986,5.855386352539063,0.0620574951171875,2.901898193359376
4.954999999999991,7.171304321289063,0.7822235107421875,3.104071044921876
4.966000000000008,8.149420166015625,0.445916748046875,8.753695678710939
4.975999999999999,8.797659301757813,0.3446807861328125,4.3417816162109375
4.98599999999999,9.070562744140624,0.5298065185546875,6.241488647460938
4.995999999999981,6.235656738281251,-0.089422607421875,10.084716796875
5.005999999999972,4.737155151367188,-0.0444122314453125,4.811026000976563
5.01600000000002,5.426815795898438,-0.2830718994140625,10.79949951171875
5.0260000000000105,6.287994384765626,-0.895123291015625,4.784259033203125
5.036000000000001,8.41529541015625,-0.350811767578125,7.475161743164063
5.045999999999992,9.452478027343751,0.0031402587890625,5.986380004882813
5.05599999999999,8.768350219726564,0.1864715576171875,4.588815307617188
5.065999999999981,8.166915893554688,0.402252197265625,5.998941040039063
5.076000000000022,6.542953491210938,0.1685272216796875,5.97965087890625
5.086000000000013,6.344668579101563,0.6002380371093751,5.624353027343751
5.096000000000004,7.0105529785156255,1.1273529052734377,8.210580444335939
5.106999999999971,7.326672363281251,0.7334747314453125,6.654806518554688
5.117000000000019,7.434338378906251,0.6276031494140626,7.60361328125
5.1270000000000095,5.4179931640625005,-0.093609619140625,4.781567382812501
5.1370000000000005,4.713827514648438,-0.8333648681640625,2.1310394287109378
5.146999999999991,11.167657470703126,0.4251312255859375,5.438778686523438
5.156999999999982,11.374166870117188,0.4533935546875,14.390460205078126
5.166999999999973,6.930999755859376,-0.0131591796875,5.433245849609375
5.177000000000021,4.666873168945313,0.9341522216796876,10.090847778320311
5.187000000000012,3.91964111328125,0.5354888916015625,3.7828155517578126
5.197000000000003,6.776678466796875,-0.3644195556640625,1.69454345703125
5.2069999999999865,11.705538940429689,-0.6231170654296876,9.3753173828125
5.216999999999992,10.314404296875,-1.197186279296875,8.216860961914064
5.226999999999983,8.092446899414064,0.349615478515625,5.696728515625001
5.236999999999966,5.490368652343751,1.0295562744140625,8.715414428710938
5.247999999999991,3.8006103515625,0.383111572265625,2.7417449951171875
5.257999999999981,7.337139892578126,0.6392669677734375,6.708938598632813
5.267999999999972,9.208584594726563,0.705511474609375,9.295764160156253
5.27800000000002,9.641940307617189,0.9304138183593752,4.2623779296875
5.288000000000011,9.22578125,1.094903564453125,8.907418823242189
5.298000000000002,6.18541259765625,0.15491943359375,4.069625854492188
5.307999999999993,5.599081420898438,0.1347320556640625,3.587521362304688
5.317999999999991,6.3929687500000005,0.267071533203125,8.323629760742188
5.327999999999982,7.331756591796876,-0.191107177734375,4.378866577148438
5.338000000000022,10.095782470703126,-0.2699127197265625,4.964450073242188
5.348000000000006,9.356027221679687,-0.6063690185546875,9.831253051757812
5.358000000000004,6.792379760742188,-0.7113433837890626,3.930108642578125
5.367999999999995,5.276083374023438,-0.288006591796875,9.7294189453125
5.377999999999993,4.295425415039063,-0.21353759765625,6.765014648437501
5.387999999999977,6.299658203125,0.30086669921875,6.559402465820313
5.399000000000001,8.626141357421876,0.7415496826171876,7.99599609375
5.408999999999992,8.730517578125001,0.7421478271484375,5.1911468505859375
5.418999999999983,9.046337890625,0.92772216796875,6.097634887695313
5.428999999999974,7.917938232421876,0.7261474609375,5.619119262695313
5.439000000000021,6.366949462890625,0.511114501953125,4.708294677734376
5.449000000000012,6.737948608398438,0.68427734375,6.5843750000000005
5.459000000000003,7.0114501953125,0.542816162109375,7.102966308593751
5.468999999999994,7.522564697265626,0.2083038330078125,7.127191162109376
5.478999999999992,7.625595092773438,-0.0919647216796875,7.848553466796876
5.488999999999983,5.335000610351563,-0.26258544921875,4.643844604492188
5.498999999999967,6.255844116210938,0.317315673828125,3.2969726562500004
5.509000000000015,9.84246826171875,0.436346435546875,6.154309082031251
5.519999999999982,9.192584228515626,-0.0849365234375,10.874118041992189
5.528999999999996,6.429605102539063,-0.5912658691406251,7.543798828125
5.5400000000000205,6.017483520507813,-1.1094085693359377,9.309671020507814
5.550000000000011,6.279171752929688,-0.7917938232421876,4.271798706054688
5.560000000000002,7.923171997070313,0.1568634033203125,3.957174682617188
5.569999999999986,9.620706176757814,0.8166168212890625,6.139953613281251
5.579999999999991,8.562887573242188,1.4850433349609375,8.19398193359375
5.589999999999982,7.6359130859375,1.4641082763671875,6.578543090820313
5.600000000000023,6.7578369140625005,0.1601531982421875,7.763616943359375
5.610000000000007,6.043203735351563,-0.1694244384765625,4.501934814453126
5.6200000000000045,6.91514892578125,0.4122711181640625,6.837838745117188
5.634000000000015,7.672100830078126,0.44561767578125,7.279718017578125
5.639999999999986,8.356527709960938,0.4320098876953125,6.333004760742188
5.649999999999977,8.895156860351562,-0.2938385009765625,7.055264282226563
5.659999999999968,7.593145751953125,-0.98155517578125,5.096041870117188
5.670999999999992,6.952233886718751,-0.3072967529296875,4.6093017578125
5.68099999999999,7.035076904296876,-0.055926513671875,5.579641723632813
5.690999999999981,7.505068969726563,-0.0315521240234375,5.0894622802734375
5.701000000000022,8.662179565429689,0.7499237060546875,5.936434936523438
5.711000000000013,7.952182006835938,1.05751953125,7.859170532226563
5.721000000000004,6.302349853515626,1.2272430419921876,7.665521240234375
5.7339999999999804,5.372683715820313,1.0862304687500002,8.685208129882813
5.7409999999999926,5.310925292968751,0.192303466796875,7.535275268554688
5.750999999999976,6.485830688476563,0.0414215087890625,6.43663330078125
5.760999999999967,8.260974121093751,0.3150726318359375,6.045297241210938
5.771000000000015,9.381298828125,0.0488983154296875,4.80728759765625
5.781000000000006,9.623098754882813,-0.140863037109375,5.14105224609375
5.790999999999997,7.9924072265625,-0.541021728515625,6.132327270507813
5.800999999999988,6.465045166015625,-0.6000885009765625,6.049484252929688
5.810999999999979,6.080587768554688,-0.1203765869140625,7.700064086914063
5.822000000000003,6.0041748046875005,-0.175555419921875,6.659890747070313
5.834000000000003,5.817254638671876,-0.5217315673828126,5.193389892578125
5.841999999999992,7.414151000976563,-0.0288604736328125,4.814465332031251
5.851999999999983,9.792373657226562,1.0992401123046875,9.126040649414064
5.861999999999966,8.244525146484376,1.1581573486328125,8.2603759765625
5.872000000000014,5.667269897460938,1.2143829345703123,7.405776977539063
5.882000000000005,6.93369140625,1.6019805908203126,6.152963256835938
5.891999999999996,7.226931762695313,1.0946044921875,5.117724609375
5.901999999999987,7.800851440429688,0.307147216796875,4.432699584960938
5.911999999999978,9.1288818359375,-0.7523162841796875,9.717156982421876
5.921999999999969,8.149270629882814,-1.188214111328125,6.732415771484376
5.933999999999969,7.1585937500000005,-0.266473388671875,6.870587158203126
5.942999999999991,6.851147460937501,-0.252117919921875,6.463101196289063
5.952999999999982,6.689050292968751,-0.4559356689453125,4.363912963867188
5.963000000000022,8.047885131835939,-0.2232574462890625,7.497293090820313
5.973000000000006,8.165420532226562,-0.0719268798828125,7.100723266601563
5.983000000000004,7.939321899414063,0.6480895996093751,5.983837890625001
5.992999999999995,8.227627563476563,1.0060791015625,6.365155029296876
6.002999999999993,7.299905395507813,0.6184814453125,4.558908081054688
6.012999999999977,7.150219726562501,1.062603759765625,4.026858520507813
6.022999999999968,7.1361633300781255,1.1094085693359377,6.314761352539063
6.033999999999992,7.255941772460938,0.5386291503906251,6.253900146484376
6.043000000000006,7.828067016601563,0.3398956298828125,7.77109375
6.052999999999997,6.955523681640625,-0.2250518798828125,8.19158935546875
6.062999999999988,5.936135864257813,-0.29010009765625,8.027697753906251
6.072999999999979,6.0580078125000005,-0.073870849609375,7.553219604492188
6.08299999999997,6.283956909179688,-0.4433746337890625,6.436483764648438
6.093999999999994,7.910461425781251,-0.5052825927734376,5.331860351562501
6.103999999999992,9.249856567382814,-0.11903076171875,5.673849487304688
6.113999999999983,9.181668090820311,-0.107366943359375,4.839886474609376
6.123999999999967,8.431445312500001,0.013458251953125,6.014492797851563
6.134999999999991,6.8296142578125005,0.27275390625,6.7817626953125005
6.1440000000000055,5.924920654296876,0.7093994140625001,6.900045776367188
6.153999999999996,5.989370727539063,1.0962493896484375,7.757934570312501
6.163999999999987,6.568075561523438,0.9980041503906252,7.09219970703125
6.173999999999978,6.835446166992188,0.6901092529296875,5.403338623046875
6.183999999999969,6.239544677734376,0.872991943359375,3.1909515380859377
6.194000000000017,8.81964111328125,1.1904571533203123,3.106314086914063
6.204000000000008,11.3216796875,0.9057403564453126,10.636953735351565
6.213999999999999,7.117022705078125,-0.1610504150390625,10.161578369140626
6.225000000000023,3.689056396484376,-1.4709869384765626,7.900592041015625
6.235000000000007,5.421133422851563,-1.7112915039062502,8.383294677734376
6.2450000000000045,7.165621948242188,-1.394873046875,2.821746826171875
6.254999999999996,11.204144287109376,-1.0564727783203125,4.691845703125001
6.264999999999986,11.272781372070312,0.4089813232421875,8.96917724609375
6.274999999999977,7.555014038085938,1.0286590576171877,4.352996826171875
6.284999999999968,6.031240844726563,1.128399658203125,6.840679931640626
6.295000000000016,4.858728027343751,0.2989227294921875,7.878460693359376
6.305000000000007,5.704803466796875,0.8218505859375,4.052728271484376
6.314999999999998,8.808276367187501,1.519586181640625,10.622149658203126
6.324999999999989,8.340228271484376,1.3776763916015626,5.7122802734375
6.336999999999989,8.718704223632812,0.8883941650390625,5.680728149414063
6.34499999999997,8.155551147460939,-0.3542510986328125,6.23685302734375
6.3559999999999945,6.091503906250001,-0.744091796875,3.6800842285156254
6.3659999999999926,6.921728515625,-0.0342437744140625,4.652069091796875
6.375999999999976,7.831207275390626,-0.3270355224609375,6.82901611328125
6.385999999999967,8.759527587890625,-0.22490234375,4.440026855468751
6.396000000000015,8.792575073242189,0.2811279296875,8.794967651367188
6.406000000000006,6.17105712890625,0.1493865966796875,7.699465942382813
6.415999999999997,4.585076904296876,0.30924072265625,8.945550537109376
6.425999999999988,5.2195587158203125,-0.0509918212890625,8.035025024414063
6.435999999999979,6.279769897460938,-0.49466552734375,5.936285400390625
6.4459999999999695,9.094338989257814,0.4629638671875,5.236605834960938
6.456000000000017,9.929498291015626,0.8843566894531251,5.486630249023438
6.466000000000008,9.21680908203125,0.744091796875,4.453485107421876
6.475999999999999,7.822683715820313,0.44083251953125,6.734060668945313
6.48599999999999,5.947799682617188,0.0886749267578125,6.32298583984375
6.495999999999981,5.684017944335938,0.490777587890625,7.21123046875
6.505999999999972,6.778173828125,0.566143798828125,7.376467895507813
6.516999999999996,7.639651489257813,0.0234771728515625,6.855633544921876
6.526999999999987,8.073455810546875,-0.0348419189453125,7.025057983398438
6.536999999999978,5.88095703125,-0.3007171630859375,5.021871948242188
6.546999999999969,4.282565307617188,-0.8661132812500001,2.108908081054688
6.557000000000016,9.970770263671875,-0.067889404296875,4.039868164062501
6.567000000000007,12.489407348632811,0.385205078125,14.710317993164065
6.576999999999998,7.867694091796875,0.279034423828125,6.7626220703125
6.588000000000022,3.698477172851563,1.2649261474609377,9.183612060546876
6.59699999999998,3.3988067626953127,1.242645263671875,5.628240966796875
6.606999999999971,6.055615234375001,1.072024536132813,2.6297424316406253
6.617000000000019,11.832943725585938,0.0665435791015625,6.976458740234375
6.6270000000000095,11.359811401367187,-0.9458160400390626,8.633319091796876
6.637999999999977,8.495446777343751,-0.294287109375,5.088565063476563
6.646999999999991,6.145935058593751,0.2785858154296875,7.557257080078125
6.658000000000016,3.7723480224609376,-0.2995208740234375,4.572665405273438
6.668000000000006,6.120663452148438,0.1673309326171875,6.875073242187501
6.677999999999997,8.968728637695314,0.1152923583984375,8.685208129882813
6.687999999999988,9.48343200683594,-0.0560760498046875,5.956024169921875
6.697999999999979,9.751101684570314,0.5764617919921875,6.514541625976563
6.70799999999997,7.228427124023438,0.2612396240234375,5.01962890625
6.718000000000018,5.473171997070313,0.497357177734375,3.818106079101563
6.728000000000009,6.054269409179688,1.056024169921875,6.166271972656251
6.738,6.714471435546876,0.471337890625,5.8775177001953125
6.747999999999991,9.297857666015624,0.4266265869140625,5.74039306640625
6.757999999999981,9.303091430664065,0.1003387451171875,9.075048828125
6.767999999999972,6.652264404296876,-0.3970184326171875,6.5155883789062505
6.77800000000002,5.247970581054688,-0.021533203125,8.87467041015625
6.788000000000011,4.451242065429688,0.0913665771484375,7.225585937500001
6.798999999999978,6.174496459960938,-0.0849365234375,5.54180908203125
6.808999999999969,9.330157470703126,0.2005279541015625,6.23087158203125
6.819000000000017,10.10071716308594,0.1197784423828125,4.870391845703125
6.829000000000008,9.562237548828126,0.1538726806640625,5.01962890625
6.838999999999999,7.532882690429688,0.0641510009765625,7.559948730468751
6.8489999999999895,5.352944946289063,0.05682373046875,5.5125
6.8589999999999804,5.679531860351563,0.695343017578125,7.986126708984376
6.868999999999971,6.537420654296875,0.8396453857421876,6.85892333984375
6.879000000000019,7.267605590820313,0.5359375000000001,6.128140258789063
6.88900000000001,6.884793090820313,0.3183624267578125,4.5765533447265625
6.899000000000001,6.948495483398438,0.6166870117187501,3.5679321289062504
6.908999999999992,10.248907470703124,1.0328460693359376,7.152462768554688
6.920000000000016,8.701956176757813,0.2643798828125,12.359609985351565
6.928999999999974,4.942916870117188,-1.054080200195313,5.801104736328125
6.939999999999998,6.111541748046875,-1.6096069335937502,8.978448486328126
6.949999999999989,6.692190551757813,-1.225,4.763174438476563
6.95999999999998,8.503073120117188,-0.2788848876953125,3.664382934570313
6.971000000000004,11.115319824218751,0.7505218505859376,8.587112426757812
6.980000000000018,8.221646118164063,1.12750244140625,6.875521850585938
6.990000000000009,6.835745239257813,1.5219787597656251,3.907827758789063
7.0,6.573159790039063,0.5576202392578126,9.814505004882813
7.009999999999991,5.304046630859375,0.0474029541015625,3.6211669921875
7.019999999999982,7.594940185546876,0.9745269775390626,6.665872192382813
7.029999999999973,8.316751098632814,0.95882568359375,10.404425048828124
7.0400000000000205,8.017230224609376,0.7158294677734376,3.523818969726563
7.050999999999988,8.796463012695312,-0.122021484375,8.277572631835938
7.060999999999979,6.872232055664063,-1.117333984375,4.3716888427734375
7.0709999999999695,6.420932006835938,-0.361279296875,3.290093994140625
7.081000000000017,7.721148681640625,-0.0094207763671875,7.336691284179688
7.091000000000008,8.09827880859375,-0.354998779296875,4.8931213378906255
7.100999999999999,9.2054443359375,0.3887939453125,4.69603271484375
7.11099999999999,7.360018920898438,0.55029296875,10.377658081054689
7.120999999999981,5.035778808593751,0.62147216796875,6.08372802734375
7.130999999999972,5.238101196289063,0.6027801513671875,10.707833862304687
7.14100000000002,5.451040649414063,-0.1855743408203125,6.398052978515626
7.1510000000000105,7.290933227539063,0.146844482421875,5.906976318359376
7.161000000000001,9.554910278320314,0.91217041015625,5.710186767578126
7.170999999999992,9.511843872070314,0.6060699462890625,4.486233520507813
7.18099999999999,9.003570556640625,0.33914794921875,4.526010131835938
7.190999999999981,7.125994873046875,-0.210546875,7.589706420898438
7.201999999999998,5.774786376953125,-0.204266357421875,5.646185302734375
7.211999999999989,6.352145385742188,0.151031494140625,8.394509887695314
7.22199999999998,7.117770385742188,-0.1284515380859375,6.744079589843751
7.231999999999971,7.706195068359375,-0.117236328125,7.087115478515625
7.242000000000019,7.259530639648438,0.1449005126953125,6.752902221679688
7.2520000000000095,4.94127197265625,-0.41212158203125,3.69832763671875
7.262,6.965692138671876,-0.19140625,2.7957275390625003
7.271999999999991,10.670449829101564,0.6093597412109375,7.767953491210938
7.281999999999982,9.38369140625,0.6933990478515626,10.27432861328125
7.291999999999973,6.648675537109376,1.439883422851563,9.057254028320314
7.302000000000021,5.201016235351563,1.5967468261718751,8.314807128906251
7.312000000000012,4.642349243164063,0.5957519531250001,3.494061279296876
7.322000000000003,7.667614746093751,-0.0560760498046875,4.299313354492188
7.336000000000013,10.409509277343751,-0.9434234619140626,7.541256713867188
7.341999999999992,10.1552978515625,-0.90738525390625,6.583029174804688
7.353999999999992,8.492605590820313,-0.0638519287109375,8.374322509765626
7.362999999999999,5.528201293945313,-0.134283447265625,5.687905883789063
7.3729999999999905,5.043853759765625,0.026318359375,5.850601196289063
7.382999999999981,6.973019409179688,0.194696044921875,7.073507690429688
7.392999999999972,8.200112915039064,0.0342437744140625,6.306686401367188
7.40300000000002,9.55042419433594,0.7430450439453126,6.961804199218751
7.413000000000011,8.953176879882813,1.029107666015625,6.130981445312501
7.423000000000002,7.050778198242188,0.7943359375000001,4.650125122070313
7.435999999999979,6.388183593750001,0.8463745117187501,5.340982055664063
7.442999999999991,5.935537719726563,0.46416015625,5.3047943115234375
7.452999999999982,7.406973266601563,0.3168670654296875,5.205203247070313
7.463000000000022,9.027346801757814,0.2770904541015625,7.79801025390625
7.473000000000006,8.039959716796876,-0.426776123046875,7.168463134765625
7.4839999999999804,6.696975708007813,-0.5991912841796876,8.524755859375
7.493999999999971,5.313317871093751,-0.2570526123046875,8.192187500000001
7.504000000000019,4.91734619140625,-0.052337646484375,6.588562011718751
7.51400000000001,7.082778930664063,-0.05323486328125,6.338986206054688
7.524000000000001,9.103909301757811,-0.0849365234375,5.081536865234376
7.536000000000001,10.090997314453126,0.0527862548828125,4.604815673828125
7.543999999999983,9.269146728515626,0.441131591796875,6.39775390625
7.553999999999974,6.6755920410156255,0.5307037353515626,6.056512451171876
7.564000000000021,5.695083618164063,0.667828369140625,7.379010009765626
7.574000000000012,5.8989013671875,0.8197570800781251,7.287045288085938
7.584000000000003,6.401043701171876,0.93011474609375,6.784603881835938
7.593999999999994,7.222595214843751,0.7929901123046875,6.514990234375
7.603999999999992,6.273040771484376,0.4031494140625,3.833956909179688
7.613999999999983,7.789187622070313,0.5268157958984375,3.1116973876953127
7.625,11.132217407226562,0.693548583984375,8.982635498046875
7.637,7.837338256835938,-0.04605712890625,10.856173706054689
7.644999999999982,4.787997436523438,-1.0935577392578126,6.752453613281251
7.654999999999973,6.115579223632813,-1.6875152587890627,8.429501342773438
7.66500000000002,6.372781372070313,-1.3090393066406252,3.4933135986328128
7.675000000000011,9.352737426757812,-0.3234466552734375,4.562347412109375
7.685000000000002,10.560690307617188,0.729437255859375,10.42850036621094
7.694999999999986,7.8359924316406255,0.954638671875,4.959664916992188
7.704999999999991,7.284652709960938,1.0340423583984375,5.774935913085938
7.714999999999982,6.238497924804688,0.1878173828125,7.814459228515625
7.725000000000023,5.548687744140626,0.6575103759765626,3.1010803222656254
7.73599999999999,8.104708862304689,1.319805908203125,9.47401123046875
7.745000000000003,8.03607177734375,0.9888824462890624,7.452282714843751
7.7549999999999955,8.420678710937501,0.8324676513671876,5.429058837890626
7.764999999999986,8.37821044921875,-0.1224700927734375,7.167715454101563
7.77600000000001,6.362014770507813,-0.8169158935546875,3.600531005859376
7.786000000000001,6.811370849609376,-0.1607513427734375,4.367501831054688
7.795999999999992,7.74058837890625,-0.3231475830078125,6.817352294921876
7.80599999999999,8.386883544921876,-0.285614013671875,4.476364135742188
7.815999999999981,9.123348999023438,0.4421783447265625,7.658193969726563
7.826000000000022,6.881054687500001,0.2666229248046875,7.998538208007813
7.836000000000013,4.990618896484375,0.4068878173828125,8.020370483398438
7.84699999999998,5.23077392578125,0.4197479248046875,8.567074584960938
7.855999999999994,5.44012451171875,-0.203070068359375,6.670956420898438
7.865999999999992,7.923919677734376,0.367559814453125,5.8894805908203125
7.875999999999976,9.5607421875,0.72315673828125,5.924472045898438
7.885999999999967,9.558798217773438,0.49705810546875,4.359426879882813
7.896999999999991,8.661880493164062,0.4185516357421875,5.805142211914063
7.906999999999982,6.522167968750001,0.0183929443359375,6.524111938476563
7.916999999999973,5.8247314453125005,0.1583587646484375,6.0592041015625
7.927000000000021,6.555813598632813,0.426776123046875,7.947845458984376
7.937000000000012,7.286297607421876,-0.03170166015625,6.7114807128906255
7.947000000000003,7.586566162109375,-0.019439697265625,6.917391967773438
7.956999999999986,5.195333862304688,-0.6929504394531251,4.40294189453125
7.966999999999992,5.847012329101563,-1.2152801513671876,2.5160949707031253
7.9769999999999825,11.581423950195314,0.3647186279296875,8.5857666015625
7.986999999999966,10.01578063964844,0.6258087158203125,11.675482177734375
7.997000000000014,6.12320556640625,0.6374725341796875,5.482144165039063
8.007000000000005,5.2733917236328125,1.8078918457031248,9.83349609375
8.016999999999996,4.3054443359375005,0.8329162597656251,2.5554229736328127
8.026999999999987,8.16885986328125,0.207855224609375,3.452041625976563
8.036999999999978,11.047879028320311,-0.3049041748046875,11.284893798828126
8.046999999999969,9.279763793945314,-0.475823974609375,5.222998046875
8.057999999999993,7.8150573730468755,0.9343017578125,7.615725708007813
8.06799999999999,5.183969116210938,0.5610595703125001,6.577047729492188
8.077999999999982,5.005572509765625,-0.212939453125,3.108108520507813
8.088000000000022,8.231814575195314,0.2035186767578125,9.466983032226564
8.098000000000006,8.637506103515626,0.024224853515625,6.428109741210938
8.108000000000004,9.567620849609376,0.3647186279296875,5.663830566406251
8.117999999999995,8.551223754882812,0.4122711181640625,8.04923095703125
8.127999999999993,5.906378173828125,-0.12860107421875,3.0918090820312503
8.137999999999977,6.394314575195313,0.446514892578125,5.2768310546875
8.147999999999968,6.416595458984376,0.500946044921875,7.761822509765626
8.158000000000015,7.679278564453125,0.1870697021484375,3.335104370117188
8.168000000000006,9.733157348632814,0.11544189453125,8.222543334960939
8.177999999999997,8.048931884765626,-0.1383209228515625,7.434487915039063
8.189000000000021,6.192889404296875,-0.0405242919921875,5.205950927734375
8.199000000000012,5.492761230468751,0.0883758544921875,10.577288818359376
8.209000000000003,4.910916137695313,0.0028411865234375,4.875924682617188
8.218999999999994,7.380355834960938,0.1996307373046875,7.613333129882813
8.228999999999992,8.952877807617188,0.290997314453125,6.180477905273438
8.238999999999983,8.97515869140625,0.2534637451171875,4.996600341796875
8.248999999999967,9.08402099609375,0.2974273681640625,6.066680908203125
8.259000000000015,7.073507690429688,0.1036285400390625,6.084625244140625
8.269000000000005,6.044100952148438,0.4047943115234375,5.2868499755859375
8.278999999999996,6.508859252929688,0.600836181640625,8.254244995117189
8.288999999999987,6.915447998046876,0.343634033203125,6.277227783203125
8.298999999999978,7.585968017578126,0.2277435302734375,7.35
8.308999999999969,6.312069702148438,0.1290496826171875,5.131182861328125
8.319999999999986,5.2792236328125,0.6362762451171875,2.618826293945313
8.329999999999991,10.9831298828125,1.042117309570313,5.668765258789063
8.339999999999982,10.109091186523438,0.0728240966796875,13.651602172851565
8.350000000000023,5.351300048828126,-0.8967681884765626,5.596090698242188
8.360000000000007,5.030545043945313,-1.1088104248046875,9.32208251953125
8.370000000000005,6.170458984375,-0.7819244384765626,4.667620849609375
8.379999999999995,8.068072509765626,0.1957427978515625,2.5404693603515627
8.389999999999986,10.988662719726562,0.9577789306640626,8.300003051757812
8.399999999999977,8.491259765625001,0.98394775390625,9.1049560546875
8.409999999999968,6.677536010742188,1.128399658203125,3.8753784179687503
8.420000000000016,6.643142700195313,0.0025421142578125,9.645828247070312
8.430000000000007,5.634072875976563,-0.4003082275390625,3.302804565429688
8.439999999999998,7.78604736328125,0.7958312988281251,5.060153198242188
8.449999999999989,8.591149902343751,0.8015136718750001,11.19248046875
8.461000000000013,8.075549316406251,0.4940673828125,4.092654418945313
8.471000000000004,8.465838623046876,-0.1227691650390625,8.170355224609375
8.480999999999995,6.886288452148438,-0.923834228515625,5.3631134033203125
8.490999999999993,6.244329833984375,-0.082244873046875,3.2168212890625
8.500999999999976,7.445852661132813,0.3614288330078125,7.050180053710938
8.510999999999967,7.868890380859375,-0.0901702880859375,5.61717529296875
8.521000000000015,9.301446533203126,0.5754150390625,4.086822509765625
8.531000000000006,8.525503540039063,0.817364501953125,9.598574829101564
8.540999999999997,5.8476104736328125,0.539227294921875,5.042208862304688
8.553999999999974,5.277429199218751,0.6210235595703125,9.003421020507814
8.560999999999979,5.4004974365234375,-0.0294586181640625,7.527648925781251
8.57099999999997,6.473269653320313,0.133087158203125,6.913204956054688
8.581000000000017,8.303143310546876,0.5097686767578126,7.294970703125
8.591000000000008,8.71436767578125,0.032598876953125,5.609249877929688
8.601999999999983,8.927456665039063,-0.1242645263671875,4.841082763671875
8.611999999999966,8.17364501953125,-0.203369140625,5.632577514648438
8.622000000000014,6.640750122070313,-0.3587371826171875,5.477658081054688
8.632000000000005,6.840231323242188,0.1401153564453125,6.648825073242188
8.641999999999996,7.0593017578125,0.14534912109375,7.638156127929688
8.654999999999973,6.583029174804688,-0.05084228515625,6.487176513671876
8.661999999999978,5.471975708007813,-0.257501220703125,5.02142333984375
8.671999999999969,6.451885986328126,-0.045159912109375,3.516790771484376
8.682000000000016,10.184906005859377,1.0932586669921875,8.695974731445313
8.692000000000007,9.67139892578125,1.3175628662109375,10.2797119140625
8.701999999999998,6.4791015625,1.26986083984375,7.909713745117188
8.711999999999989,5.597735595703125,1.481304931640625,6.670208740234376
8.72199999999998,5.350253295898438,0.3461761474609375,4.333706665039063
8.731999999999971,8.114279174804688,-0.7086517333984376,3.676046752929688
8.742000000000019,10.650860595703126,-1.2679168701171877,9.198715209960938
8.754000000000019,9.111984252929688,-1.0717254638671876,7.479199218750001
8.762999999999977,7.242483520507813,0.02332763671875,6.106008911132813
8.772999999999968,5.630932617187501,0.07476806640625,7.648025512695313
8.783000000000015,5.41021728515625,-0.1416107177734375,3.6332794189453126
8.793000000000006,7.802944946289063,0.260791015625,8.248861694335938
8.802999999999997,8.962448120117188,0.638519287109375,6.881054687500001
8.812999999999988,9.130227661132814,1.0561737060546876,6.069821166992188
8.822999999999979,8.26934814453125,1.106866455078125,6.647628784179688
8.83299999999997,6.423773193359375,0.6984832763671875,4.434942626953125
8.843000000000018,6.065634155273438,0.8200561523437501,5.277130126953125
8.853999999999992,6.460858154296876,0.63941650390625,6.345715332031251
8.863,7.8958068847656255,0.149237060546875,5.31571044921875
8.873999999999967,9.458010864257814,-0.031103515625,7.270745849609375
8.882999999999981,8.213571166992189,-0.5072265625000001,6.830511474609375
8.894000000000005,6.012249755859376,-0.6014343261718751,7.203604125976563
8.903999999999996,5.474966430664063,-0.4565338134765625,7.879058837890626
8.913999999999987,5.6064086914062505,-0.4293182373046875,6.952832031250001
8.923999999999978,7.329962158203125,-0.2178741455078125,6.553570556640626
8.933999999999969,8.665917968750001,0.1326385498046875,6.598880004882813
8.944000000000017,8.956167602539063,0.392083740234375,5.421731567382813
8.954000000000008,8.636160278320313,0.5912658691406251,5.789739990234375
8.963999999999999,7.171752929687501,0.5455078125,5.7230468750000005
8.97399999999999,6.2643676757812505,0.7760925292968751,5.840283203125001
8.98399999999998,6.542654418945313,1.1421569824218751,7.355532836914063
8.993999999999971,7.007412719726563,0.8827117919921875,6.997244262695313
9.004000000000019,7.502078247070313,0.4939178466796875,7.326373291015625
9.01400000000001,6.835446166992188,0.1996307373046875,5.59384765625
9.024999999999975,5.672204589843751,0.39178466796875,3.353048706054688
9.033999999999992,9.256585693359376,0.6869689941406251,4.268807983398438
9.045000000000016,9.600070190429689,0.0174957275390625,11.300146484375
9.055000000000009,6.361416625976563,-0.908880615234375,7.059899902343751
9.064999999999998,5.616726684570313,-1.2565521240234376,10.633514404296877
9.074999999999989,6.638058471679688,-1.3105346679687502,5.890078735351563
9.08499999999998,7.224539184570313,-0.7720550537109375,4.1454406738281255
9.09499999999997,9.69293212890625,-0.151031494140625,4.866802978515626
9.105000000000018,9.306231689453126,0.7391571044921875,7.550527954101563
9.115000000000007,7.821786499023438,1.7552551269531251,5.550183105468751
9.125,7.027600097656251,1.5548767089843751,8.660385131835938
9.134999999999993,5.632577514648438,0.365167236328125,5.667120361328125
9.144999999999982,6.469232177734376,0.605621337890625,6.2015625000000005
9.154999999999973,7.608248901367188,0.7910461425781251,8.229421997070313
9.16500000000002,7.77049560546875,0.7825225830078125,5.567678833007813
9.175999999999988,8.906820678710938,0.4457672119140625,6.858624267578126
9.18599999999998,8.319293212890626,-0.8046539306640625,5.653363037109376
9.19599999999997,7.139453125,-0.8273834228515625,4.330267333984375
9.206000000000016,7.2139221191406255,-0.276641845703125,5.757290649414063
9.216000000000008,7.154855346679688,-0.4964599609375,5.843722534179688
9.226,8.277572631835938,-0.1614990234375,4.8521484375
9.23599999999999,8.6515625,0.3826629638671875,7.955322265625001
9.24599999999998,6.9582153320312505,0.6422576904296875,6.2643676757812505
9.255999999999972,5.7783752441406255,1.164736938476563,8.847305297851562
9.26600000000002,5.11832275390625,0.7049133300781251,7.919583129882813
9.276999999999989,5.796170043945313,0.285015869140625,7.084423828125001
9.286,7.696176147460938,0.6241638183593751,6.833203125000001
9.295999999999992,8.636907958984375,0.4556365966796875,5.424722290039063
9.307000000000016,9.313858032226562,0.35469970703125,4.619320678710938
9.317000000000007,8.815753173828126,0.05682373046875,5.74876708984375
9.326999999999998,7.102368164062501,-0.459375,5.61478271484375
9.336999999999987,6.409866333007813,-0.2190704345703125,6.929953002929688
9.34699999999998,6.211880493164063,-0.097198486328125,7.371832275390625
9.356999999999973,5.029498291015625,-0.8601318359375001,4.763922119140625
9.36700000000002,6.402688598632813,-1.119876098632813,3.682177734375
9.37700000000001,10.370330810546877,0.6156402587890626,8.420529174804688
9.387,9.874618530273438,1.5219787597656251,10.740432739257812
9.396999999999991,6.271844482421876,1.5638488769531251,8.840277099609375
9.408000000000015,5.33963623046875,1.5313995361328123,6.293228149414063
9.416999999999971,5.80618896484375,0.5969482421875001,4.239349365234375
9.42700000000002,8.188449096679689,-0.257501220703125,3.069528198242188
9.437000000000012,10.577737426757814,-0.75665283203125,6.901989746093751
9.447000000000005,9.23340759277344,-0.9017028808593752,10.183709716796876
9.456999999999988,6.762771606445313,0.1978363037109375,5.74637451171875
9.468000000000018,5.202960205078125,0.57720947265625,8.331106567382813
9.478000000000009,5.567379760742188,-0.011962890625,3.3048980712890628
9.488,8.124148559570314,-0.1846771240234375,6.783706665039063
9.49799999999999,9.235650634765626,-0.0393280029296875,7.644137573242188
9.50799999999998,9.158340454101562,0.5402740478515625,5.610446166992188
9.517999999999972,8.218356323242189,0.8798706054687501,7.606454467773438
9.52800000000002,6.3989501953125005,0.352606201171875,4.260583496093751
9.538000000000013,6.216815185546875,0.4269256591796875,5.251260375976563
9.548000000000002,6.845764160156251,0.6540710449218751,6.364257812500001
9.557999999999993,7.666717529296876,0.4574310302734375,5.2529052734375
9.56799999999999,8.836837768554688,0.2950347900390625,7.4771057128906255
9.579000000000008,8.112634277343751,0.0070281982421875,6.929803466796876
9.589999999999982,6.475064086914063,-0.062506103515625,6.717163085937501
9.59899999999999,5.929107666015625,0.0438140869140625,7.239642333984375
9.610000000000008,5.899649047851563,-0.146844482421875,6.591552734375001
9.618999999999971,7.320391845703125,-0.2428466796875,6.560299682617188
9.62900000000002,8.275180053710939,-0.0743194580078125,7.219454956054688
9.63900000000001,8.112185668945314,0.0249725341796875,6.201861572265625
9.649,8.117419433593751,0.282623291015625,6.407772827148438
9.658999999999992,7.49534912109375,0.243145751953125,5.628240966796875
9.668999999999984,6.967486572265625,0.3174652099609375,5.2938781738281255
9.678999999999974,7.139752197265626,0.575714111328125,6.598880004882813
9.68900000000002,7.142742919921876,0.655865478515625,6.986029052734375
9.699000000000012,7.3009521484375,0.5389282226562501,7.324279785156251
9.709000000000003,6.657797241210938,0.4813568115234375,6.229376220703125
9.718999999999994,4.924673461914063,0.593658447265625,3.2506164550781254
9.730000000000018,7.996594238281251,1.167279052734375,3.169866943359376
9.740000000000007,10.886828613281253,0.5464050292968751,11.24197692871094
9.75,8.395556640625001,-0.450701904296875,10.061688232421876
9.759999999999993,5.388385009765625,-1.422088623046875,9.076992797851563
9.769999999999982,5.67041015625,-1.4240325927734376,5.809478759765625
9.779999999999973,6.099578857421875,-0.8447296142578126,2.369699096679688
9.79000000000002,9.588406372070311,0.40733642578125,3.6157836914062496
9.800000000000011,10.279861450195312,0.8864501953125,10.59254150390625
9.810000000000002,8.122653198242189,1.20645751953125,6.494503784179688
9.819999999999986,6.806286621093751,0.6407623291015625,8.204449462890626
9.829999999999991,5.385095214843751,-0.298175048828125,5.934490966796876
9.839999999999982,5.616128540039063,0.4689453125,3.518136596679688
9.850000000000025,7.798907470703125,0.99830322265625,9.301446533203126
9.86099999999999,8.676235961914063,0.9256286621093752,6.152813720703126
9.87099999999998,9.426458740234375,0.5202362060546876,6.691143798828126
9.880999999999972,8.613729858398438,-0.5205352783203125,6.335397338867188
9.89100000000002,6.464297485351563,-0.472833251953125,3.78087158203125
9.90100000000001,6.139953613281251,0.2283416748046875,5.7125793457031255
9.911,6.6217590332031255,-0.1051239013671875,6.152365112304688
9.920999999999992,8.13297119140625,0.020635986328125,5.222848510742188
9.93099999999999,9.235650634765626,0.5480499267578125,7.946350097656251
9.94099999999998,7.654605102539063,0.5610595703125001,6.707443237304688
9.951000000000022,6.013745117187501,0.7062591552734375,7.8150573730468755
9.961000000000013,5.323037719726563,0.082244873046875,7.456320190429688
9.971000000000004,5.667269897460938,-0.2782867431640625,6.5993286132812505
9.980999999999996,7.477853393554688,0.374139404296875,6.660488891601563
9.990999999999993,8.805285644531251,0.5036376953125,6.080288696289063
10.000999999999976,9.301596069335938,0.2561553955078125,5.444461059570313
10.012,8.728723144531251,0.0542816162109375,5.904135131835938
10.021999999999991,6.843222045898438,-0.2226593017578125,5.775982666015626
10.031999999999982,5.980099487304688,0.1105072021484375,6.508709716796876
10.041999999999971,6.400146484375001,0.3195587158203125,7.247866821289063
10.055000000000009,7.193435668945313,0.05323486328125,6.936831665039063
10.062000000000012,6.732116699218751,-0.056524658203125,5.9507904052734375
10.072000000000005,5.98563232421875,-0.2483795166015625,3.964501953125
10.081999999999988,8.574252319335939,0.5849853515625001,5.410366821289063
10.091999999999992,10.092343139648438,0.92054443359375,11.395401000976562
10.101999999999984,7.721896362304688,0.7974761962890625,6.588711547851563
10.111999999999966,6.207095336914063,1.2477294921875002,7.914947509765626
10.122000000000014,5.8917236328125,1.045108032226563,5.218960571289063
10.13299999999998,5.7903381347656255,-0.1643402099609375,3.8834533691406254
10.141999999999996,8.785696411132813,-1.059014892578125,6.453680419921875
10.154999999999973,9.606799316406253,-1.498651123046875,10.018621826171875
10.163000000000013,8.4182861328125,-0.3458770751953125,5.813366699218751
10.173000000000002,7.372131347656251,0.38341064453125,7.963696289062501
10.182999999999993,5.758636474609375,0.066693115234375,3.9120147705078128
10.19299999999999,6.5140930175781255,0.20516357421875,5.182623291015625
10.202999999999982,7.997640991210938,0.3025115966796875,8.526101684570314
10.213000000000022,8.498736572265626,0.6791931152343751,6.1073547363281255
10.223000000000006,8.92252197265625,1.1746063232421875,7.5043212890625
10.233000000000004,7.708438110351563,0.8245422363281251,5.54539794921875
10.242999999999997,6.3331542968750005,0.7894012451171876,4.636068725585938
10.254999999999995,6.494802856445313,0.8374023437500001,5.94974365234375
10.262999999999977,6.647030639648438,0.1179840087890625,5.835946655273438
10.272999999999968,8.409164428710938,-0.0243743896484375,5.285205078125
10.283000000000015,9.508255004882812,-0.23507080078125,7.550079345703126
10.293000000000006,8.196075439453125,-0.5339935302734375,5.575454711914063
10.303999999999974,6.387286376953125,-0.32359619140625,7.852142333984376
10.31400000000002,4.998843383789063,-0.5052825927734376,7.484133911132813
10.324000000000012,5.272494506835938,-0.3123809814453125,7.597930908203126
10.334000000000003,7.067376708984376,0.206658935546875,7.64189453125
10.343999999999994,8.213870239257814,0.2404541015625,6.4647460937500005
10.355000000000018,9.0858154296875,0.48868408203125,5.390927124023438
10.363999999999985,8.940316772460939,0.796728515625,5.467788696289063
10.373999999999969,7.3574768066406255,0.6201263427734376,4.851101684570313
10.384000000000016,6.664077758789063,0.7307830810546876,6.078793334960938
10.394000000000004,6.489419555664063,0.8106353759765625,6.924270629882813
10.403999999999996,6.0783447265625,0.704315185546875,5.802899169921876
10.413999999999987,5.971276855468751,0.9184509277343752,4.7350616455078125
10.425000000000011,8.969326782226563,0.959722900390625,6.578244018554688
10.435000000000002,9.673941040039065,0.1876678466796875,11.303585815429688
10.444999999999986,5.887387084960938,-0.6787445068359376,8.107101440429688
10.454999999999991,4.9888244628906255,-1.6320373535156252,6.038418579101563
10.464999999999982,7.963696289062501,-1.535137939453125,5.411264038085938
10.475000000000025,8.308825683593751,-0.6690246582031251,3.7935821533203127
10.485000000000008,9.67080078125,0.2343231201171875,4.891476440429688
10.495000000000005,8.567523193359376,0.5558258056640626,12.82347106933594
10.504999999999995,5.926715087890625,0.9052917480468752,4.599880981445313
10.514999999999986,6.555813598632813,0.4589263916015625,7.945303344726563
10.524999999999975,6.852044677734376,0.055029296875,5.15421142578125
10.534999999999968,7.457666015625,0.9814056396484376,3.344375610351563
10.545000000000016,8.802294921875001,1.280926513671875,9.773980712890626
10.55599999999999,7.882348632812499,1.0726226806640626,6.697573852539063
10.56599999999998,7.646679687500001,0.5939575195312501,5.670858764648438
10.576000000000022,7.462600708007813,-0.4143646240234375,7.447796630859376
10.586000000000013,6.474465942382813,-0.4116729736328125,3.225045776367188
10.596000000000004,7.536471557617188,0.1090118408203125,4.743734741210938
10.605999999999996,8.131027221679688,-0.3201568603515625,7.352243041992188
10.615999999999993,8.512344360351562,-0.213836669921875,4.649078369140625
10.625999999999976,8.518325805664062,0.30625,8.170504760742189
10.635999999999967,6.621908569335938,0.23447265625,6.733761596679688
10.646000000000017,5.425619506835938,0.371746826171875,7.011151123046876
10.656000000000006,5.867947387695313,0.22071533203125,7.984332275390625
10.665999999999997,6.280368041992188,0.17047119140625,6.9779541015625
10.675999999999988,7.434637451171875,0.7259979248046875,7.124948120117188
10.68599999999998,8.231814575195314,0.60352783203125,6.903036499023438
10.69599999999997,8.574850463867188,0.2008270263671875,4.996450805664063
10.706000000000016,8.696722412109375,0.2462860107421875,5.200418090820313
10.716999999999992,7.387533569335938,0.04246826171875,5.371337890625
10.726999999999984,6.811370849609376,0.1084136962890625,5.667718505859376
10.736999999999966,6.978851318359376,0.145050048828125,7.804141235351563
10.747000000000014,7.056161499023438,-0.210546875,7.334298706054688
10.757000000000003,6.631478881835938,-0.0910675048828125,7.368841552734375
10.766999999999996,5.13507080078125,-0.5641998291015625,4.555020141601563
10.776999999999989,6.743182373046875,-0.7008758544921876,3.4840423583984377
10.786999999999978,10.9388671875,0.4296173095703125,8.21671142578125
10.796999999999969,9.446197509765623,0.5354888916015625,9.412551879882812
10.807999999999993,6.722247314453125,1.2463836669921875,7.402038574218751
10.817000000000007,5.6621856689453125,1.831967163085937,8.03128662109375
10.826999999999998,4.6463867187500005,0.509619140625,3.3642639160156254
10.836999999999987,7.410113525390625,-0.229388427734375,4.717416381835938
10.84699999999998,10.025201416015626,-0.6805389404296875,9.631921386718751
10.858000000000004,9.533078002929688,-0.3369049072265625,6.009408569335938
10.867999999999997,8.288937377929688,0.7409515380859375,8.234805297851564
10.877999999999991,6.079241943359375,0.429168701171875,5.283560180664063
10.887999999999977,5.546145629882813,-0.0052337646484375,4.054373168945313
10.897999999999968,7.121957397460938,0.155218505859375,8.361013793945313
10.908000000000015,7.874124145507813,0.0336456298828125,6.3107238769531255
10.918000000000006,9.250753784179688,0.6107055664062501,7.577444458007813
10.927999999999995,8.848800659179688,0.7215118408203125,6.462802124023438
10.937999999999988,6.975262451171876,0.3720458984375,4.089364624023438
10.94799999999998,6.604861450195313,0.5271148681640625,5.393618774414063
10.95799999999997,6.012548828125,0.2513702392578125,5.946005249023438
10.968000000000018,7.393515014648438,0.0291595458984375,4.643545532226563
10.978999999999992,9.459207153320314,0.0825439453125,8.042950439453126
10.988999999999985,8.554214477539062,-0.1712188720703125,6.351696777343751
10.998999999999969,6.680227661132813,-0.156414794921875,7.622753906250001
11.009000000000016,5.3930206298828125,-0.0171966552734375,8.176336669921875
11.019000000000004,4.726388549804688,-0.080450439453125,6.899597167968751
11.028999999999996,6.737948608398438,0.083740234375,7.070217895507813
11.038999999999987,8.282806396484375,0.1305450439453125,6.4243713378906255
11.048999999999978,9.3824951171875,0.258099365234375,4.976712036132813
11.058999999999967,9.577191162109376,0.3775787353515625,5.77269287109375
11.07299999999998,7.587463378906251,0.24404296875,5.6883544921875
11.079000000000008,6.15909423828125,0.3718963623046875,5.6408020019531255
11.091000000000008,6.127243041992188,0.6910064697265625,7.813262939453126
11.09899999999999,6.499288940429688,0.5837890625000001,6.608151245117188
11.110000000000008,7.087713623046875,0.53175048828125,6.941616821289063
11.120000000000005,5.911611938476563,0.6316406250000001,4.15770263671875
11.129999999999995,7.551275634765625,1.1967376708984376,3.427069091796876
11.139999999999986,10.658786010742189,0.862225341796875,9.7700927734375
11.149999999999975,7.530789184570313,-0.069384765625,9.995742797851562
11.159999999999968,4.842578125,-1.3853027343750002,7.304241943359376
11.173000000000002,7.162332153320313,-1.7563018798828127,8.151513671875001
11.180000000000009,7.0404602050781255,-1.083837890625,3.11214599609375
11.189999999999998,9.743624877929689,0.1158905029296875,3.6450927734375
11.199999999999989,9.899591064453126,0.5000488281250001,10.311862182617189
11.20999999999998,6.851895141601563,0.6925018310546875,5.626895141601563
11.21999999999997,6.967636108398438,0.6440521240234376,5.960809326171876
11.230000000000018,6.276031494140626,-0.1924530029296875,9.153555297851565
11.240000000000007,5.932696533203125,0.5806488037109375,2.307940673828125
11.25,8.449090576171876,1.2849639892578126,9.247763061523438
11.259999999999993,7.837936401367188,0.9299652099609376,7.6849609375
11.272999999999968,8.182467651367189,0.9199462890625,3.512603759765625
11.281000000000006,8.454623413085939,-0.1700225830078125,9.132620239257813
11.290999999999997,6.724789428710938,-0.5748168945312501,3.343927001953125
11.300999999999988,7.289437866210938,0.248828125,2.8866455078125
11.31099999999998,7.706195068359375,-0.1834808349609375,8.688198852539063
11.32099999999997,7.7914306640625,-0.1399658203125,4.44481201171875
11.331000000000016,8.39495849609375,0.6111541748046876,6.0868682861328125
11.341000000000008,6.504821777343751,0.2667724609375,10.732058715820314
11.351,5.448797607421875,0.529058837890625,5.307037353515625
11.36099999999999,5.92821044921875,0.1801910400390625,10.6338134765625
11.37299999999999,6.209637451171876,-0.529058837890625,4.3971099853515625
11.380999999999972,7.994650268554688,0.17884521484375,6.752154541015625
11.39100000000002,9.28125915527344,0.5970977783203125,5.427413940429688
11.40100000000001,8.91654052734375,0.3826629638671875,4.501336669921876
11.411999999999978,8.441613769531251,0.3010162353515625,6.368594360351563
11.421999999999969,6.795819091796876,-0.0512908935546875,6.516784667968751
11.432000000000016,6.09808349609375,0.2340240478515625,6.389080810546876
11.442000000000007,6.417642211914063,0.64300537109375,8.088558959960938
11.451999999999998,6.901989746093751,0.0841888427734375,6.705349731445313
11.461999999999987,7.837786865234375,0.1140960693359375,7.169808959960938
11.473000000000006,7.473815917968751,0.31043701171875,6.264816284179688
11.481999999999973,5.283111572265625,-0.1873687744140625,3.420040893554688
11.49200000000002,6.91275634765625,-0.1416107177734375,2.2258453369140625
11.50200000000001,10.206588745117188,0.3348114013671875,5.950491333007813
11.512,10.125540161132813,0.5298065185546875,13.009494018554689
11.521999999999991,6.766659545898438,1.41640625,10.079034423828126
11.531999999999982,3.8430786132812496,1.230682373046875,8.110540771484375
11.541999999999971,4.1608428955078125,0.763531494140625,4.0666351318359375
11.55200000000002,7.812216186523438,0.119329833984375,3.851153564453125
11.562999999999988,11.825915527343753,-1.1699707031250002,5.160641479492188
11.57299999999998,11.534170532226565,-1.6749542236328123,8.076446533203125
11.58299999999997,8.336639404296875,-1.0075744628906251,6.590057373046876
11.593000000000018,5.075106811523438,-0.488983154296875,6.814810180664063
11.603000000000009,3.9770629882812494,0.2582489013671875,6.4542785644531255
11.613,5.595193481445313,0.5206848144531251,7.043002319335938
11.62299999999999,8.519223022460938,0.3698028564453125,7.362411499023438
11.63299999999998,10.159185791015624,0.916058349609375,6.562991333007813
11.642999999999972,9.464141845703123,1.246533203125,5.3043457031250005
11.65300000000002,7.592098999023438,1.1680267333984375,4.748370361328125
11.663000000000013,5.8677978515625,1.112847900390625,4.5171875
11.673999999999978,5.915200805664063,0.8031585693359375,5.112640380859375
11.682999999999993,7.505517578125,0.500347900390625,6.020025634765625
11.694000000000017,8.567373657226563,0.223406982421875,7.132574462890625
11.704000000000008,8.09708251953125,-0.4797119140625,8.606253051757813
11.714,6.688751220703126,-0.8898895263671875,8.830407714843751
11.72399999999999,5.015142822265625,-0.609808349609375,7.954425048828125
11.73399999999998,5.019778442382813,-0.490777587890625,6.641946411132813
11.743999999999971,7.111340332031251,-0.3910369873046875,5.62076416015625
11.75400000000002,9.565377807617187,-0.078656005859375,4.399951171875
11.76400000000001,10.571755981445314,0.164788818359375,5.020526123046875
11.774,9.117068481445314,0.40733642578125,6.083578491210938
11.783999999999992,6.792529296875,0.7998687744140626,6.694134521484376
11.793999999999984,5.325280761718751,1.026715087890625,7.303643798828125
11.803999999999974,5.30015869140625,1.160400390625,7.253399658203126
11.81400000000002,6.530093383789063,1.0898193359375,7.006515502929688
11.824999999999989,7.940667724609375,0.6304443359375,6.739743041992188
11.83499999999998,7.117471313476563,0.2872589111328125,4.787698364257813
11.84499999999997,6.454428100585938,0.322998046875,3.081192016601563
11.855000000000018,8.974261474609376,0.4230377197265625,5.147930908203126
11.865000000000007,9.709231567382814,0.0861328125,11.647668457031251
11.875,6.695779418945313,-0.8030090332031251,8.283255004882813
11.884999999999993,5.475115966796875,-1.7225067138671877,8.931643676757814
11.894999999999982,6.074307250976563,-1.5901672363281252,6.241488647460938
11.904999999999973,7.482638549804688,-1.118829345703125,3.1860168457031253
11.91500000000002,10.469323730468751,0.177947998046875,4.628741455078125
11.925000000000011,9.560592651367188,1.352703857421875,9.247613525390626
11.935000000000002,7.46304931640625,1.956231689453125,4.9
11.944999999999986,6.5592529296875,1.4330047607421876,8.849996948242188
11.954999999999991,5.243783569335938,0.3467742919921875,4.814465332031251
11.964999999999982,6.250460815429688,0.87568359375,6.469830322265626
11.976,8.033978271484376,1.1435028076171876,7.8509460449218755
11.98599999999999,8.376416015625,0.9773681640625,6.205450439453125
11.99599999999998,9.149966430664064,0.237762451171875,6.275283813476563
12.005999999999972,7.972967529296875,-1.04854736328125,5.336944580078125
12.01600000000002,6.639105224609375,-0.8767303466796875,4.026858520507813
12.02600000000001,7.093994140625001,-0.4342529296875,5.587716674804688
12.036,7.470227050781251,-0.6998291015625,5.747720336914063
12.045999999999992,8.508306884765625,-0.098992919921875,6.152813720703126
12.05599999999999,7.9445556640625,0.487188720703125,8.754592895507812
12.06599999999998,5.838937377929688,0.672314453125,8.137158203125
12.076000000000022,5.0949951171875005,0.9111236572265624,8.478250122070314
12.086000000000013,5.500836181640626,0.186920166015625,7.189099121093751
12.09699999999998,7.140948486328125,0.0581695556640625,5.313766479492188
12.105999999999996,9.106002807617188,0.863720703125,5.464498901367188
12.11700000000002,9.527395629882813,0.9302642822265624,4.7186126708984375
12.12700000000001,9.05830078125,0.7128387451171876,5.6228576660156255
12.137,7.516583251953126,0.0179443359375,6.600524902343751
12.146999999999991,5.896359252929688,-0.3557464599609375,6.692788696289063
12.156999999999982,5.877667236328126,0.0189910888671875,7.475311279296876
12.166999999999971,6.490615844726563,-0.106170654296875,7.340878295898438
12.17700000000002,7.388131713867188,-0.508123779296875,6.644638061523438
12.187000000000012,5.77867431640625,-0.883160400390625,4.608255004882813
12.197000000000005,6.024362182617188,-0.9256286621093752,2.803802490234375
12.206999999999988,11.603555297851564,0.8892913818359376,8.355331420898438
12.216999999999992,10.681964111328126,1.0400238037109375,11.36295166015625
12.226999999999984,6.174496459960938,0.753363037109375,4.683920288085938
12.236999999999966,5.218661499023438,1.7881530761718751,9.483132934570314
12.24799999999999,3.704608154296875,1.0645477294921877,3.7871520996093753
12.257000000000003,6.9755615234375,0.8553466796875001,3.3968627929687503
12.267999999999972,11.576040649414065,-0.7146331787109376,11.973507690429688
12.27800000000002,9.805084228515623,-1.3797698974609376,5.463900756835938
12.288000000000013,8.193383789062501,0.38759765625,5.5630432128906255
12.298000000000002,5.838937377929688,0.3384002685546875,7.458413696289063
12.308999999999967,4.711285400390626,-0.6183319091796875,2.810382080078125
12.31799999999999,7.792626953125,-0.3398956298828125,7.814459228515625
12.327999999999982,8.367144775390626,-0.10587158203125,9.135760498046876
12.338000000000022,9.27542724609375,0.8309722900390626,4.341931152343751
12.348000000000006,8.809771728515626,0.9317596435546877,9.469525146484376
12.358000000000004,6.000286865234376,0.213238525390625,3.059957885742188
12.367999999999997,6.055017089843751,0.8794219970703125,3.802703857421875
12.377999999999991,6.340182495117188,1.0014434814453126,8.934634399414064
12.38900000000001,7.598379516601563,0.474627685546875,3.1060150146484378
12.399,10.505062866210938,0.34154052734375,5.417245483398438
12.408999999999992,8.961999511718751,-0.2953338623046875,9.606051635742189
12.418999999999984,6.165524291992188,-0.3623260498046875,3.9226318359375
12.428999999999974,4.9290100097656255,0.063702392578125,11.716604614257813
12.43900000000002,4.180581665039063,-0.35469970703125,5.634521484375
12.449000000000012,6.634918212890626,-0.28770751953125,7.878909301757813
12.459000000000003,8.882894897460938,-0.0370849609375,6.640750122070313
12.468999999999994,9.354830932617189,0.084039306640625,4.5327392578125005
12.478999999999992,9.6432861328125,0.2878570556640625,5.778076171875
12.488999999999985,7.6718017578125,0.040972900390625,5.692691040039063
12.498999999999969,5.9926605224609375,0.2213134765625,5.0680786132812505
12.509000000000016,6.347061157226563,1.0108642578125,8.041305541992188
12.519000000000004,6.600225830078125,0.99830322265625,6.687704467773438
12.528999999999996,7.674044799804688,0.8006164550781251,7.585519409179688
12.54000000000002,8.157644653320313,0.4200469970703125,7.378561401367188
12.550000000000011,6.5090087890625,0.214434814453125,5.534182739257813
12.560000000000002,4.581338500976563,0.411822509765625,3.2540557861328128
12.569999999999986,6.312966918945313,0.5997894287109375,2.6762481689453126
12.579999999999991,11.8994873046875,0.453094482421875,8.519372558593751
12.589999999999982,10.627383422851564,-0.32718505859375,12.823321533203126
12.600000000000025,5.323635864257813,-1.4168548583984375,8.110391235351564
12.610000000000008,4.664630126953125,-1.5216796875,7.732064819335938
12.620000000000005,4.771548461914063,-1.01026611328125,3.402545166015625
12.629999999999995,8.700610351562501,-0.9094787597656252,2.00438232421875
12.639999999999986,12.107342529296876,1.57431640625,7.754345703125001
12.649999999999975,9.585714721679688,2.047149658203125,9.282305908203126
12.659999999999968,7.209585571289063,1.8594818115234373,5.942715454101563
12.670000000000016,5.1432952880859375,0.303857421875,7.346112060546876
12.68099999999999,3.880313110351562,0.353802490234375,3.444265747070313
12.69099999999998,6.867446899414063,1.18671875,7.781710815429688
12.701000000000022,8.944503784179688,1.0104156494140626,7.670156860351563
12.711000000000013,9.9710693359375,0.411822509765625,6.515139770507813
12.721000000000004,9.696371459960938,-0.8466735839843751,6.51199951171875
12.730999999999996,6.621011352539063,-1.323394775390625,4.458270263671875
12.740999999999993,5.707196044921876,-0.5926116943359375,3.887789916992188
12.750999999999976,6.480447387695313,-0.606817626953125,6.124700927734375
12.760999999999967,7.89012451171875,-0.312530517578125,5.074359130859375
12.774,9.34241943359375,0.7556060791015625,7.950238037109376
12.781000000000006,7.941415405273438,0.8436828613281251,8.809472656250001
12.790999999999997,5.415899658203125,0.8172149658203126,8.659637451171875
12.800999999999988,4.763922119140625,0.400457763671875,7.798757934570313
12.81099999999998,5.278176879882813,-0.106170654296875,6.066680908203125
12.822000000000005,7.775579833984375,0.6720153808593751,4.596142578125001
12.831999999999988,9.946844482421875,1.0400238037109375,5.199221801757813
12.841999999999992,10.19178466796875,0.6539215087890625,5.113238525390625
12.851999999999984,8.802444458007812,0.2930908203125,6.756192016601563
12.861999999999966,6.292630004882813,-0.322998046875,6.839782714843751
12.873999999999969,5.045050048828125,-0.3019134521484375,7.088012695312501
12.882000000000003,5.73082275390625,-0.0575714111328125,6.94505615234375
12.891999999999996,7.334298706054688,-0.2642303466796875,6.760528564453126
12.901999999999989,8.0390625,-0.27813720703125,6.590057373046876
12.911999999999978,6.273489379882813,-0.521282958984375,4.312472534179688
12.921999999999969,6.545196533203126,-0.1287506103515625,3.859976196289063
12.932000000000016,9.904525756835938,0.6896606445312501,9.613079833984376
12.942000000000007,9.066525268554688,0.5239746093750001,8.099325561523438
12.951999999999998,6.882101440429688,1.1213714599609377,8.0761474609375
12.963000000000022,6.2302734375,2.0099151611328128,7.262521362304688
12.97399999999999,4.855587768554688,1.4799591064453126,4.753155517578126
12.983000000000004,7.423272705078125,0.46236572265625,4.375277709960938
12.992999999999997,10.481585693359376,-1.090118408203125,9.30518493652344
13.002999999999991,9.42974853515625,-1.53543701171875,5.166622924804688
13.012999999999977,8.064782714843751,-0.1861724853515625,7.526602172851563
13.022999999999968,5.974865722656251,-0.1939483642578125,6.093746948242188
13.033000000000015,5.159445190429688,-0.3213531494140625,5.514443969726563
13.043000000000006,7.338934326171875,-0.170172119140625,7.934088134765625
13.052999999999995,8.186056518554688,-0.1613494873046875,6.414950561523438
13.062999999999988,9.086264038085938,0.7194183349609375,6.0711669921875
13.074999999999989,8.908914184570314,0.9679473876953124,5.953033447265625
13.084000000000003,7.235006713867188,0.7490264892578126,4.309780883789063
13.093999999999994,6.678134155273438,1.2137847900390626,4.922430419921875
13.103999999999992,6.2329650878906255,1.035089111328125,6.257638549804688
13.113999999999985,7.2528015136718755,0.6328369140625001,5.535678100585938
13.123999999999969,8.527447509765626,0.3991119384765625,8.371780395507812
13.134000000000016,7.51329345703125,-0.32120361328125,7.753298950195313
13.144000000000004,6.222946166992188,-0.4486083984375,8.272637939453126
13.153999999999996,5.386740112304688,-0.1574615478515625,8.044146728515626
13.163999999999987,5.409320068359375,-0.43006591796875,5.994155883789063
13.175000000000011,7.983734130859376,-0.33017578125,5.733514404296876
13.183999999999967,9.739736938476565,-0.207855224609375,5.012899780273438
13.194000000000017,9.880899047851564,-0.130096435546875,4.62664794921875
13.204000000000008,8.658889770507812,0.0776092529296875,6.694882202148438
13.214,6.304891967773438,0.2833709716796875,6.4755126953125
13.225000000000025,5.334103393554688,0.7210632324218751,7.4086181640625
13.235000000000008,5.8685455322265625,1.1325866699218752,7.7196533203125
13.245000000000005,6.785052490234375,1.0149017333984376,6.62803955078125
13.254999999999995,7.685559082031251,0.7617370605468751,6.499288940429688
13.264999999999986,6.43424072265625,0.6024810791015626,3.7001220703125
13.274999999999975,7.496694946289063,0.8852539062500001,3.281121826171875
13.284999999999968,10.142886352539064,0.97557373046875,8.253945922851564
13.295000000000016,8.286245727539063,0.2905487060546875,10.429098510742188
13.305000000000009,5.810226440429688,-0.8658142089843751,7.5144897460937505
13.314999999999998,5.839535522460938,-1.8503601074218752,8.864801025390626
13.324999999999989,5.470330810546876,-1.3217498779296877,4.832559204101563
13.33499999999998,8.937026977539062,-1.505828857421875,3.7588897705078126
13.34499999999997,11.317343139648438,-0.7819244384765626,8.286993408203125
13.355000000000018,9.24970703125,1.28302001953125,5.1298370361328125
13.365000000000007,7.464993286132813,1.7083007812500002,6.325827026367188
13.375999999999976,5.579193115234375,0.8362060546875001,6.985281372070313
13.385999999999967,4.8007080078125,0.6096588134765626,5.262026977539063
13.396000000000017,7.077694702148438,1.280029296875,8.548831176757814
13.406000000000006,7.88175048828125,1.4931182861328125,7.103414916992188
13.415999999999997,8.748013305664063,1.5571197509765626,6.154608154296875
13.425999999999988,9.075048828125,0.4547393798828125,6.137710571289063
13.43599999999998,7.165023803710938,-0.9078338623046877,3.8987060546875
13.44599999999997,6.818099975585938,-0.5639007568359375,4.309182739257813
13.456000000000016,7.105957031250001,-0.5179931640625001,6.355136108398438
13.466000000000008,7.97147216796875,-0.646893310546875,4.939178466796875
13.476,8.7939208984375,-0.1562652587890625,8.547186279296875
13.48599999999999,7.129135131835938,-0.0530853271484375,8.054614257812501
13.49599999999998,5.334103393554688,0.1347320556640625,8.785247802734375
13.505999999999972,4.8333068847656255,0.152825927734375,8.3393310546875
13.516999999999996,5.489022827148438,-0.3557464599609375,6.127243041992188
13.526999999999989,8.372528076171875,0.2328277587890625,5.296121215820313
13.536999999999978,10.076043701171876,1.0636505126953126,4.927066040039063
13.546999999999969,9.719400024414064,1.203466796875,4.481149291992188
13.557000000000016,8.463296508789064,1.011761474609375,6.728826904296875
13.567000000000007,6.199319458007813,0.39537353515625,6.305340576171876
13.576999999999998,5.3390380859375,0.35589599609375,7.26566162109375
13.586999999999987,6.108999633789063,0.438739013671875,7.367794799804688
13.59699999999998,7.245175170898438,0.0865814208984375,6.911859130859376
13.606999999999973,7.46962890625,-0.404046630859375,6.076550292968751
13.61700000000002,6.09210205078125,-0.8272338867187501,4.168020629882813
13.62900000000002,7.555014038085938,-0.227593994140625,4.749716186523438
13.637,10.080828857421876,0.2546600341796875,10.257431030273438
13.646999999999991,8.22867431640625,-0.15013427734375,7.013394165039063
13.658000000000015,6.522467041015625,0.453094482421875,8.004220581054689
13.668000000000006,6.369790649414063,1.1118011474609375,6.31700439453125
13.677999999999995,5.64468994140625,1.1219696044921876,5.084378051757813
13.687999999999988,7.686605834960938,0.5914154052734375,5.97247314453125
13.69799999999998,9.481338500976562,-0.5283111572265625,9.041851806640626
13.70799999999997,8.952578735351564,-0.56644287109375,5.416348266601563
13.718000000000018,8.193084716796875,0.103778076171875,6.9958984375
13.728000000000009,6.452932739257813,-0.02093505859375,5.206997680664063
13.738,5.935836791992188,0.186322021484375,5.702709960937501
13.74799999999999,7.234259033203125,0.133984375,7.823132324218751
13.75799999999998,7.885638427734375,-0.10108642578125,6.644338989257813
13.767999999999972,8.796014404296876,0.4059906005859375,6.4901672363281255
13.77800000000002,8.619561767578126,0.3587371826171875,5.528201293945313
13.788000000000013,7.481143188476563,0.3375030517578125,4.421334838867188
13.798999999999978,7.012048339843751,0.7379608154296875,4.79412841796875
13.808999999999967,6.433792114257813,0.5286102294921875,6.183917236328125
13.819000000000017,7.231866455078125,0.4269256591796875,6.259582519531251
13.829000000000008,8.069119262695313,0.4725341796875,8.222094726562501
13.839,7.272390747070313,-0.0216827392578125,7.7537475585937505
13.84899999999999,6.363809204101563,0.0091217041015625,8.142840576171876
13.85899999999998,5.60880126953125,0.123516845703125,7.425665283203125
13.868999999999971,5.8337036132812505,-0.0450103759765625,6.129336547851563
13.87900000000002,7.86978759765625,0.0157012939453125,5.859274291992188
13.891999999999996,9.380999755859376,0.0234771728515625,5.136117553710938
13.899,9.632369995117188,0.013458251953125,5.109649658203125
13.908999999999992,8.525802612304688,0.0375335693359375,6.341827392578126
13.918999999999984,6.497494506835938,0.0378326416015625,6.313565063476563
13.930000000000009,5.669064331054688,0.3385498046875,7.3440185546875005
13.939999999999998,5.912808227539063,0.6603515625,7.5967346191406255
13.949999999999989,6.90677490234375,0.59814453125,7.038815307617188
13.95999999999998,7.689297485351563,0.493170166015625,6.493008422851563
13.96999999999997,6.06578369140625,0.5324981689453125,3.6500274658203127
13.980000000000018,6.7602294921875,1.084136962890625,2.479608154296875
13.99200000000002,11.1960693359375,1.1973358154296876,7.569219970703125
14.0,9.476104736328123,0.5969482421875001,12.64761657714844
14.009999999999993,5.35458984375,-0.7419982910156251,5.76611328125
14.019999999999982,4.738351440429688,-1.7286376953125002,9.861758422851564
14.029999999999973,4.9538330078125,-1.0606597900390626,3.490621948242188
14.04000000000002,9.147573852539065,-1.3724426269531251,4.172955322265626
14.050000000000011,11.98487243652344,0.2103973388671875,9.71805419921875
14.060000000000002,9.032730102539062,1.111053466796875,5.209390258789063
14.069999999999986,7.201361083984375,1.096099853515625,5.637811279296876
14.081000000000016,5.797665405273438,0.1404144287109375,7.248913574218751
14.091999999999992,4.584478759765625,0.22071533203125,3.849658203125
14.101,7.681222534179688,1.245486450195313,8.809024047851564
14.11099999999999,8.439669799804689,1.257598876953125,8.290133666992189
14.12099999999998,8.575897216796875,1.227691650390625,5.614483642578126
14.130999999999972,8.933886718750001,0.1472930908203125,6.840829467773438
14.14100000000002,6.479849243164063,-0.895123291015625,4.160693359375
14.15100000000001,6.30264892578125,-0.137274169921875,3.7352630615234377
14.161,7.434338378906251,-0.183929443359375,6.795968627929688
14.170999999999992,8.079586791992188,-0.25540771484375,4.386343383789063
14.18099999999999,9.179275512695312,0.368756103515625,7.837637329101563
14.19299999999999,7.475460815429688,0.1888641357421875,8.418136596679688
14.201000000000022,5.28759765625,0.2857635498046875,8.103213500976564
14.211999999999987,5.043405151367188,0.2669219970703125,8.51458740234375
14.22199999999998,5.268606567382813,-0.542218017578125,6.428707885742188
14.231999999999973,7.80997314453125,0.1383209228515625,5.483639526367188
14.24200000000002,9.854879760742188,0.8828613281250001,5.636914062500001
14.25200000000001,9.708334350585938,0.7029693603515625,4.574160766601563
14.262,8.71795654296875,0.6072662353515625,6.230123901367188
14.271999999999991,6.605908203125001,0.0814971923828125,6.283358764648438
14.281999999999982,5.394964599609375,0.122021484375,6.826324462890626
14.293000000000006,6.1327758789062505,0.47791748046875,7.429702758789063
14.30200000000002,7.218109130859376,0.131292724609375,6.930252075195313
14.312000000000012,8.261422729492189,0.03529052734375,7.105508422851563
14.322000000000005,7.963995361328125,0.1897613525390625,6.9659912109375
14.33299999999997,5.5208740234375,-0.3386993408203125,4.7799224853515625
14.341999999999992,5.36834716796875,-0.9658538818359376,2.4181488037109378
14.353000000000009,8.920428466796876,-0.3171661376953125,3.882257080078125
14.363,10.854080200195312,0.3198577880859375,11.282351684570314
14.37299999999999,9.027795410156251,1.0368835449218752,9.895703125
14.38299999999998,5.677438354492188,1.6923004150390626,10.429248046875
14.392999999999972,2.905636596679688,1.2472808837890623,4.764520263671876
14.40300000000002,5.0191802978515625,0.6470428466796876,3.3729370117187503
14.413000000000013,9.802392578125,-0.061907958984375,4.8991027832031255
14.423000000000002,12.233251953125,-0.9416290283203126,7.667016601562499
14.432999999999993,10.97296142578125,-0.3841583251953125,7.894161987304688
14.44299999999999,6.54429931640625,0.0695343017578125,6.474914550781251
14.452999999999982,3.3675537109375004,0.1239654541015625,5.4289093017578125
14.463000000000022,4.556216430664063,0.1435546875,6.845614624023438
14.473000000000006,7.371383666992188,-0.2962310791015625,6.7069946289062505
14.483000000000004,10.355227661132814,0.118731689453125,7.306335449218751
14.493999999999971,10.46693115234375,0.9334045410156252,6.794473266601563
14.50400000000002,7.972518920898438,0.7760925292968751,4.690948486328125
14.51400000000001,6.213076782226563,0.499151611328125,4.992413330078126
14.524,5.0879669189453125,0.327783203125,5.053723144531251
14.533999999999992,6.184515380859375,0.5565734863281251,5.05791015625
14.543999999999984,8.950784301757814,0.7532135009765626,6.880157470703126
14.553999999999974,9.427206420898438,0.23387451171875,7.128985595703125
14.56400000000002,8.13297119140625,-0.5118621826171875,8.087661743164062
14.574000000000012,5.829965209960938,-0.5265167236328125,8.551522827148439
14.584000000000003,3.915753173828125,-0.053533935546875,7.258782958984375
14.593999999999994,5.160491943359375,-0.011065673828125,6.7123779296875
14.603999999999992,8.023660278320314,-0.0707305908203125,5.598184204101563
14.613999999999985,10.350442504882814,0.0095703125,4.5795440673828125
14.625,10.652505493164064,0.2739501953125,5.940621948242188
14.634999999999993,8.148971557617188,0.3156707763671875,6.073559570312501
14.644999999999982,5.730673217773438,0.333465576171875,6.626095581054688
14.654999999999973,5.257241821289063,0.4797119140625,7.124649047851563
14.66500000000002,5.798861694335938,0.8423370361328125,6.83739013671875
14.675000000000011,7.503573608398438,0.962713623046875,7.052871704101563
14.685000000000002,8.602215576171876,0.5375823974609375,7.192089843750001
14.694999999999986,7.110891723632813,-0.0079254150390625,4.959515380859376
14.704999999999991,5.310476684570313,0.0267669677734375,2.871392822265625
14.714999999999982,7.873825073242188,0.5476013183593751,4.037026977539063
14.725000000000025,10.941857910156251,0.65496826171875,11.563180541992187
14.735000000000008,7.982986450195313,-0.52576904296875,9.026748657226562
14.745000000000005,4.631881713867188,-1.5910644531250002,9.181967163085938
14.754999999999995,5.0734619140625,-1.5925598144531252,6.68187255859375
14.764999999999986,6.3833984375,-0.9200958251953124,3.687261962890626
14.77600000000001,10.511193847656251,0.2259490966796875,3.426620483398438
14.786,11.443252563476562,1.2166259765625,9.669454956054688
14.795999999999992,8.369686889648438,1.9430725097656247,5.050433349609375
14.80599999999999,6.282760620117188,2.061056518554688,7.766906738281251
14.81599999999998,4.574908447265625,0.5333953857421876,6.085522460937501
14.826000000000022,5.33963623046875,0.335260009765625,4.795474243164063
14.836000000000013,8.212374877929689,1.1783447265625,8.9183349609375
14.846000000000004,8.80408935546875,1.1699707031250002,6.499887084960938
14.855999999999996,9.467431640625,0.5534332275390625,6.370986938476563
14.865999999999993,8.483782958984376,-0.9664520263671876,5.708242797851563
14.875999999999976,6.259283447265625,-1.5550262451171877,3.926968383789063
14.885999999999967,6.401791381835938,-0.6890625,4.802502441406251
14.896999999999991,7.222445678710938,-0.5505920410156251,5.961856079101563
14.906999999999982,8.694329833984376,-0.3186614990234375,5.1911468505859375
14.916999999999971,8.983831787109375,0.363671875,8.87586669921875
14.92700000000002,6.536672973632813,0.65496826171875,8.390621948242188
14.937000000000012,4.777230834960938,0.8870483398437501,8.776126098632814
14.947000000000005,4.640554809570313,0.39537353515625,7.881002807617188
14.956999999999988,6.098532104492188,-0.04964599609375,5.360870361328125
14.966999999999992,8.93927001953125,0.8169158935546875,5.298214721679688
14.976999999999984,10.1313720703125,1.137820434570313,4.70560302734375
14.986999999999966,9.70489501953125,0.8895904541015626,5.26666259765625
14.997000000000014,8.036968994140626,0.194696044921875,6.673797607421876
15.007000000000003,5.822488403320313,-0.335858154296875,6.604412841796876
15.016999999999996,5.37432861328125,-0.0399261474609375,7.189846801757813
15.026999999999989,6.3152099609375005,-0.03050537109375,7.26805419921875
15.036999999999978,7.688400268554688,-0.3923828125,6.837689208984376
15.048000000000002,8.300152587890626,-0.353802490234375,6.991412353515625
15.057999999999993,5.839385986328125,-0.6990814208984375,4.414306640625
15.06799999999999,5.419937133789063,-0.729736328125,2.6704162597656254
15.077999999999982,9.854730224609376,0.439337158203125,6.421380615234376
15.088000000000022,10.9424560546875,0.545208740234375,11.941506958007814
15.098000000000006,7.596286010742188,0.9619659423828124,7.428506469726563
15.108000000000004,4.996600341796875,2.06658935546875,8.156747436523439
15.117999999999997,3.73421630859375,1.7406005859375002,5.573809814453125
15.127999999999991,6.326873779296876,0.9423767089843752,3.2414947509765626
15.137999999999977,11.016326904296877,-0.236566162109375,8.053717041015625
15.147999999999968,10.746115112304688,-1.2556549072265626,6.854736328125001
15.158000000000015,8.541204833984375,-0.4269256591796875,6.314462280273438
15.168999999999984,6.247171020507813,-0.1069183349609375,6.627441406250001
15.177999999999995,4.4539337158203125,-0.51380615234375,5.337393188476563
15.18900000000002,6.360818481445313,-0.061309814453125,7.269400024414063
15.199000000000012,8.447146606445314,-0.272454833984375,7.56712646484375
15.209000000000003,9.430645751953126,0.0043365478515625,6.360220336914063
15.218999999999994,9.296661376953123,0.7786346435546876,6.395510864257813
15.228999999999992,7.074404907226563,0.5923126220703125,4.844821166992188
15.238999999999985,6.11602783203125,0.92293701171875,4.77139892578125
15.248999999999969,6.11124267578125,1.1061187744140626,6.175393676757813
15.259000000000016,6.999636840820313,0.7704101562500001,5.003778076171876
15.269000000000004,9.069964599609376,0.8333648681640625,7.204052734375001
15.278999999999996,8.765658569335939,0.2773895263671875,6.983636474609376
15.288999999999987,7.006515502929688,-0.4711883544921875,7.2722412109375005
15.298999999999978,5.780020141601563,-0.39298095703125,8.1551025390625
15.308999999999967,4.7724456787109375,-0.2271453857421875,7.113882446289063
15.319000000000017,6.129486083984376,-0.2812774658203125,6.7593322753906255
15.329000000000008,8.458361816406251,-0.2729034423828125,6.516934204101563
15.339,9.497637939453126,-0.3946258544921875,5.1201171875
15.350000000000025,9.6600341796875,-0.128302001953125,5.659942626953125
15.360000000000008,7.813113403320313,0.156414794921875,5.872433471679688
15.370000000000005,5.923126220703125,0.3629241943359375,6.030343627929688
15.379999999999995,6.0121002197265625,0.744091796875,7.244577026367188
15.389999999999986,6.427511596679688,1.0651458740234376,7.192239379882813
15.399999999999975,7.463497924804688,1.056024169921875,7.06827392578125
15.409999999999968,7.658493041992188,0.7898498535156251,6.57420654296875
15.420000000000016,5.4912658691406255,0.5414703369140625,3.4494995117187504
15.430000000000009,7.357028198242188,0.8391967773437501,3.386245727539063
15.439999999999998,10.00501403808594,0.8146728515625,9.629080200195313
15.449999999999989,8.240786743164064,0.0785064697265625,8.673843383789062
15.45999999999998,6.620413208007813,-0.9980041503906252,9.463543701171876
15.46999999999997,6.305789184570313,-1.741796875,7.095938110351563
15.480999999999996,5.483340454101563,-1.2282897949218752,4.025961303710938
15.490999999999993,8.6575439453125,-1.2846649169921875,3.756796264648438
15.500999999999976,10.023855590820313,0.357391357421875,9.111087036132814
15.510999999999967,8.795864868164063,1.28421630859375,6.0475402832031255
15.521000000000017,7.882348632812499,1.200775146484375,7.962051391601563
15.531000000000006,5.71885986328125,0.32000732421875,5.709439086914063
15.540999999999997,5.447750854492188,0.6975860595703125,5.083779907226563
15.550999999999988,7.4083190917968755,1.185223388671875,7.6598388671875
15.56099999999998,7.961453247070313,1.2239532470703125,6.621459960937501
15.57099999999997,9.091049194335938,1.1506805419921875,6.914401245117188
15.581000000000016,8.768499755859375,0.0746185302734375,6.1644775390625
15.593000000000018,6.804940795898438,-0.65137939453125,4.54649658203125
15.601,6.5873657226562505,-0.2878570556640625,5.17813720703125
15.61099999999999,6.895260620117188,-0.4625152587890625,5.24871826171875
15.622000000000014,8.161083984375,-0.279931640625,5.063742065429688
15.632000000000003,9.11871337890625,0.1924530029296875,7.547537231445313
15.641999999999996,7.221249389648438,0.112451171875,7.760476684570313
15.651999999999989,5.848956298828125,0.3255401611328125,8.562738037109376
15.661999999999978,5.020675659179688,0.1039276123046875,8.812612915039063
15.671999999999969,5.146286010742188,-0.3587371826171875,6.44560546875
15.682000000000016,7.638604736328125,0.2465850830078125,5.983837890625001
15.694000000000017,9.508404541015626,0.754559326171875,5.002880859375001
15.701999999999998,9.842169189453124,0.8599822998046875,4.499990844726563
15.711999999999987,8.960653686523438,0.765325927734375,6.430053710937501
15.72199999999998,6.583926391601563,0.2118927001953125,5.928659057617188
15.731999999999973,5.6876068115234375,0.299072265625,7.291082763671875
15.74200000000002,6.058755493164063,0.3512603759765625,7.295269775390626
15.75200000000001,7.004421997070313,0.04366455078125,6.73929443359375
15.762999999999977,7.552621459960938,-0.092413330078125,6.600375366210938
15.772999999999968,5.780917358398438,-0.7798309326171876,4.216320800781251
15.783000000000015,6.7832580566406255,-0.6042755126953125,3.653765869140625
15.793999999999984,10.416238403320314,0.4533935546875,10.08875427246094
15.802999999999995,9.332998657226565,0.3114837646484375,8.433090209960938
15.812999999999988,7.120761108398438,0.9126190185546876,7.672998046875
15.82299999999998,5.841030883789063,1.4380889892578126,6.980496215820313
15.83299999999997,4.420437622070313,0.6276031494140626,4.229330444335938
15.843000000000018,7.344766235351563,0.0765625,4.725790405273438
15.853000000000009,10.248159790039065,-0.8332153320312501,10.070361328125
15.863,9.622500610351564,-0.700726318359375,5.783758544921875
15.87299999999999,8.199365234375001,0.500347900390625,6.993356323242188
15.88299999999998,5.814712524414063,0.4661041259765625,5.662335205078126
15.894000000000004,5.236605834960938,0.261090087890625,4.96519775390625
15.903999999999996,7.45347900390625,0.3536529541015625,7.907620239257813
15.913999999999987,8.379257202148438,0.0671417236328125,6.803295898437501
15.923999999999978,9.338531494140623,0.572723388671875,6.734658813476563
15.933999999999967,8.627487182617188,0.6383697509765626,6.170010375976563
15.944000000000017,6.59873046875,0.291595458984375,4.566085815429688
15.954000000000008,6.27274169921875,0.5821441650390625,5.708541870117188
15.964,6.264517211914063,0.30325927734375,5.73321533203125
15.97399999999999,7.7417846679687505,0.0850860595703125,5.641400146484376
15.98399999999998,9.497039794921877,0.176153564453125,7.082479858398438
15.995000000000005,8.1957763671875,-0.20576171875,6.591552734375001
16.00400000000002,6.575701904296875,-0.35230712890625,7.261624145507813
16.014999999999986,5.500985717773438,-0.093011474609375,8.263217163085939
16.024,4.990319824218751,0.0219818115234375,6.695181274414063
16.034999999999968,6.839184570312501,0.343035888671875,7.242932128906251
16.045000000000016,8.389874267578126,0.3349609375,6.317303466796876
16.055000000000007,9.326419067382814,0.2397064208984375,5.161389160156251
16.064999999999998,9.285745239257814,0.386700439453125,5.960211181640625
16.07499999999999,7.308728027343751,0.3422882080078125,5.270849609375
16.08499999999998,6.195431518554688,0.398065185546875,6.146234130859376
16.09499999999997,6.394314575195313,0.5299560546875001,7.32547607421875
16.105000000000018,6.737200927734375,0.4194488525390625,6.904232788085938
16.11500000000001,7.748065185546875,0.371746826171875,7.740887451171876
16.125,6.833950805664063,0.2160797119140625,6.034381103515625
16.13499999999999,4.490719604492188,0.4472625732421875,2.860177612304688
16.144999999999982,8.094689941406251,1.00069580078125,2.7182678222656254
16.154999999999973,11.351736450195313,0.7032684326171875,12.455313110351565
16.165999999999997,8.513839721679688,0.0342437744140625,8.827716064453126
16.175999999999988,5.7963195800781255,-1.380517578125,9.246566772460938
16.18599999999998,5.302700805664063,-1.579998779296875,6.562094116210938
16.19599999999997,5.665625,-1.0319488525390623,2.458224487304688
16.206000000000017,9.901535034179688,0.1021331787109375,3.541314697265625
16.216000000000008,10.317245483398438,1.095501708984375,10.836135864257812
16.226,8.447744750976563,1.457827758789063,5.461508178710938
16.23599999999999,7.2722412109375005,0.466552734375,8.492306518554688
16.24599999999998,4.908074951171876,-0.346923828125,4.940075683593751
16.255999999999972,5.395712280273438,0.67530517578125,4.794427490234376
16.26600000000002,7.985379028320313,1.0706787109375,8.79990234375
16.27600000000001,8.45716552734375,1.018341064453125,6.341229248046876
16.286,9.56971435546875,0.6853240966796875,6.947149658203125
16.295999999999992,8.506213378906251,-0.662445068359375,5.8476104736328125
16.305999999999983,6.256143188476563,-0.6258087158203125,4.038522338867188
16.317000000000007,6.314462280273438,-0.02811279296875,5.567379760742188
16.326999999999998,6.785501098632813,-0.4185516357421875,5.307934570312501
16.33699999999999,8.445950317382813,0.1792938232421875,5.7130279541015625
16.34699999999998,9.20350036621094,0.705511474609375,7.850497436523438
16.35699999999997,7.100424194335938,0.5879760742187501,7.629034423828125
16.36700000000002,5.613137817382813,0.837103271484375,8.258731079101564
16.37700000000001,4.9963012695312505,0.129498291015625,7.956369018554688
16.387,5.6143341064453125,-0.2965301513671875,6.036624145507813
16.39699999999999,8.0833251953125,0.5151519775390625,6.112139892578125
16.406999999999982,9.427655029296876,0.5378814697265626,5.204006958007813
16.416999999999973,9.735699462890626,0.2962310791015625,5.170660400390625
16.42700000000002,8.530886840820314,0.1136474609375,6.360220336914063
16.437000000000012,6.232366943359375,-0.302362060546875,6.199768066406251
16.44799999999998,5.620166015625,0.0059814453125,7.13048095703125
16.45799999999997,6.275732421875,0.1888641357421875,7.293774414062501
16.468000000000018,7.379757690429688,-0.0324493408203125,6.803146362304688
16.47800000000001,8.332901000976562,0.2959320068359375,7.229922485351563
16.488,7.351495361328125,0.40673828125,6.203955078125
16.49799999999999,5.2704010009765625,-0.261688232421875,3.498098754882813
16.50799999999998,6.731518554687501,-0.1356292724609375,2.7109405517578127
16.517999999999972,10.267300415039063,0.678594970703125,7.500881958007813
16.52800000000002,9.998583984375,1.0325469970703125,10.967129516601563
16.53800000000001,6.565234375,1.39906005859375,9.702053833007811
16.548000000000002,4.280023193359376,1.1240631103515626,7.162033081054688
16.557999999999993,4.256246948242188,0.2435943603515625,4.726089477539063
16.567999999999984,7.309326171875001,-0.2908477783203125,3.3609741210937503
16.577999999999975,11.350091552734376,-1.1744567871093752,7.946499633789063
16.588000000000022,11.3025390625,-1.1674285888671876,7.518078613281251
16.59899999999999,8.283853149414064,-0.4173553466796875,6.466390991210938
16.611999999999966,5.5017333984375005,-0.05682373046875,6.055914306640625
16.61899999999997,4.36466064453125,0.10826416015625,5.559304809570313
16.62900000000002,6.137860107421876,0.272454833984375,7.034179687500001
16.63900000000001,8.728424072265625,0.4472625732421875,7.815206909179688
16.649,9.83648681640625,1.10238037109375,7.032086181640626
16.658999999999992,9.03003845214844,1.3515075683593751,5.981594848632813
16.668999999999983,7.031039428710938,1.0132568359375,4.809979248046876
16.678999999999974,5.760580444335938,0.8125793457031251,4.529598999023438
16.68900000000002,5.964846801757813,0.511114501953125,5.210885620117188
16.699000000000012,7.614080810546875,0.29189453125,5.453433227539063
16.709000000000003,9.709979248046876,0.1655364990234375,6.588412475585938
16.718999999999994,9.476553344726565,-0.4089813232421875,7.313064575195313
16.728999999999985,6.788641357421875,-0.9455169677734376,7.67479248046875
16.738999999999976,4.6109466552734375,-0.8194580078125001,8.467034912109376
16.75,4.081289672851563,-0.40015869140625,7.812664794921876
