time,ax,ay,az
0.0,7.529592895507813,0.7765411376953125,6.231320190429688
0.0099999999999909,9.65823974609375,1.0663421630859375,4.433297729492188
0.0199999999999818,10.04688415527344,1.11793212890625,4.865307617187501
0.0299999999999975,8.289535522460938,0.7597930908203125,5.940921020507813
0.039999999999992,6.811221313476563,0.6362762451171875,6.704602050781251
0.0499999999999829,6.468334960937501,-0.2361175537109375,7.5847717285156255
0.0599999999999738,6.256143188476563,-1.409976196289063,6.660339355468751
0.0699999999999931,7.056161499023438,-1.3968170166015623,6.805538940429688
0.079999999999984,7.643389892578125,-1.0615570068359377,6.8012023925781255
0.0899999999999749,7.645184326171876,-0.412420654296875,6.197225952148438
0.0999999999999943,8.069418334960938,-0.2453887939453125,6.451437377929688
0.1099999999999816,8.081829833984376,-0.1810882568359375,5.9208831787109375
0.1209999999999844,7.560098266601563,0.5429656982421875,5.825030517578125
0.1310000000000002,7.041058349609376,0.8809173583984375,6.617422485351563
0.1409999999999911,6.715069580078126,1.2499725341796877,6.827520751953125
0.150999999999982,7.062142944335938,1.4621643066406251,6.9516357421875
0.1610000000000013,7.602416992187501,1.2051116943359377,6.733163452148438
0.1709999999999922,7.927957153320313,0.94267578125,5.995501708984375
0.1809999999999831,8.0928955078125,0.4520477294921875,5.753552246093751
0.190999999999974,7.808926391601563,0.1577606201171875,5.886489868164063
0.2009999999999934,7.117919921875001,0.186920166015625,6.207693481445313
0.2109999999999843,6.533084106445313,-0.4110748291015625,7.07425537109375
0.2209999999999752,6.067727661132813,-0.7883544921875001,7.556060791015626
0.2309999999999945,6.192141723632813,-0.8508605957031251,7.243829345703125
0.2409999999999854,6.795071411132813,-0.934002685546875,6.2912841796875005
0.2509999999999799,7.592697143554688,-0.4215423583984375,5.836544799804688
0.2609999999999957,8.408865356445313,-0.083740234375,5.822189331054688
0.2719999999999913,8.707339477539064,0.5266662597656251,6.410165405273438
0.2819999999999822,8.477801513671876,1.0733703613281251,7.096685791015625
0.2920000000000016,7.619015502929688,0.868505859375,6.695181274414063
0.3019999999999925,6.614431762695313,0.741400146484375,6.468783569335938
0.3119999999999834,6.186907958984375,0.612799072265625,6.401043701171876
0.3219999999999743,6.91514892578125,0.4206451416015625,6.724191284179688
0.3319999999999936,8.222244262695312,0.28172607421875,6.947149658203125
0.3419999999999845,8.937774658203125,-0.2026214599609375,6.290237426757813
0.3519999999999754,8.694628906250001,-0.4260284423828125,6.001632690429688
0.3619999999999912,7.661633300781251,-0.5852844238281251,5.695831298828125
0.3719999999999857,6.935336303710938,-0.487188720703125,5.753253173828125
0.3819999999999801,6.833950805664063,-0.1254608154296875,6.336593627929688
0.3919999999999959,7.066180419921875,0.1308441162109375,6.615927124023438
0.4019999999999868,7.305737304687501,0.7466339111328125,7.061993408203126
0.4129999999999825,6.945205688476563,1.068585205078125,6.836941528320313
0.4230000000000018,6.721798706054688,0.94207763671875,6.730770874023438
0.4329999999999927,6.829913330078125,1.047650146484375,6.594842529296876
0.4429999999999836,6.9958984375,0.9123199462890624,6.287545776367188
0.4529999999999745,7.546640014648438,0.5610595703125001,6.669311523437501
0.4629999999999938,7.822235107421876,0.1897613525390625,6.323434448242188
0.4729999999999812,8.040408325195314,-0.2567535400390625,6.235357666015625
0.4829999999999792,7.947994995117188,-0.5205352783203125,6.263320922851563
0.4929999999999914,7.365551757812501,-0.5782562255859376,6.085073852539063
0.5029999999999859,7.22618408203125,-0.5205352783203125,6.763070678710938
0.5129999999999804,7.094143676757813,-0.437841796875,6.792977905273438
0.5229999999999961,7.1541076660156255,-0.2229583740234375,6.781463623046876
0.5339999999999918,7.469329833984376,-0.188116455078125,6.822137451171876
0.5439999999999827,6.96060791015625,-0.169873046875,6.085671997070313
0.554000000000002,6.324032592773438,0.2002288818359375,5.173352050781251
0.563999999999993,7.265213012695313,0.9817047119140626,5.839834594726563
0.5739999999999839,8.237646484375,1.7301330566406252,7.460507202148438
0.5839999999999748,7.2172119140625,1.6567108154296877,7.235305786132813
0.5939999999999941,6.511849975585938,1.0379302978515623,6.699966430664063
0.6039999999999814,8.022314453125,0.6899597167968751,6.904232788085938
0.6139999999999795,8.866445922851563,-0.026318359375,5.725439453125
0.6239999999999917,8.1060546875,-0.4299163818359375,5.886788940429688
0.6339999999999861,6.9627014160156255,0.0019439697265625,6.614730834960938
0.6439999999999806,7.029693603515626,0.2093505859375,7.090853881835938
0.6549999999999976,7.530490112304688,-0.39656982421875,7.335494995117188
0.664999999999992,7.631875610351563,-1.0980438232421876,6.555215454101563
0.674999999999983,8.09110107421875,-1.0905670166015626,6.463101196289063
0.6849999999999739,7.832702636718751,-0.6960906982421875,6.337042236328125
0.6969999999999743,7.201361083984375,-0.1583587646484375,5.879162597656251
0.7049999999999841,7.473815917968751,0.3102874755859375,6.257937622070313
0.714999999999975,7.574154663085938,0.5390777587890625,6.182571411132813
0.7249999999999943,7.30513916015625,0.8749359130859375,6.244778442382813
0.7349999999999817,7.349850463867188,1.1491851806640625,6.456521606445313
0.7449999999999797,7.023263549804688,1.0965484619140626,6.482540893554688
0.7549999999999955,7.0497314453125,0.8679077148437501,6.414950561523438
0.7649999999999864,7.354336547851563,0.5682373046875,6.477307128906251
0.775999999999982,7.351196289062501,0.68128662109375,6.0894104003906255
0.7860000000000014,6.595590209960938,0.77998046875,6.902737426757813
0.7980000000000018,6.680676269531251,0.3321197509765625,7.270596313476563
0.8059999999999832,7.090405273437501,-0.1188812255859375,6.9447570800781255
0.8159999999999741,7.768551635742188,-0.4299163818359375,6.419436645507813
0.8259999999999934,7.962200927734376,-0.6406127929687501,6.258984375000001
0.8359999999999843,7.658193969726563,-0.7499237060546875,5.992510986328125
0.8459999999999752,7.478451538085938,-0.832318115234375,6.244778442382813
0.8559999999999945,7.278073120117188,-0.64300537109375,6.382949829101563
0.8659999999999854,6.386538696289063,-0.3826629638671875,5.513845825195313
0.8759999999999799,6.636712646484376,0.09151611328125,5.80499267578125
0.8859999999999957,7.829113769531251,1.13946533203125,7.159490966796875
0.8969999999999914,6.648077392578125,1.2517669677734375,7.463946533203125
0.9059999999999776,6.495700073242188,1.882510375976563,7.626193237304688
0.9159999999999932,8.892465209960939,2.3849517822265627,7.435086059570313
0.9269999999999924,9.4650390625,0.9854431152343752,5.128341674804688
0.9369999999999834,7.561892700195313,-0.4263275146484375,4.6990234375
0.9469999999999744,5.762075805664063,-1.16578369140625,6.135018920898438
0.9569999999999936,6.0831298828125,-1.1575592041015623,7.570416259765626
0.9669999999999844,7.542453002929688,-0.9987518310546876,8.610140991210939
0.9769999999999754,8.728424072265625,-1.1635406494140623,7.852142333984376
0.9869999999999912,8.5654296875,-0.6273040771484375,6.627142333984375
0.9969999999999856,7.41160888671875,-0.182733154296875,5.362515258789063
1.00699999999998,6.629235839843751,0.024224853515625,5.073760986328125
1.016999999999996,7.364654541015626,0.7361663818359375,5.721401977539063
1.0269999999999868,8.175738525390626,1.6306915283203127,6.4731201171875
1.0369999999999775,8.329611206054688,2.248126220703125,7.139752197265626
1.0469999999999935,7.478900146484375,1.7971252441406251,7.045095825195313
1.056999999999988,6.429605102539063,0.844580078125,6.597982788085938
1.0669999999999824,6.289340209960938,0.3877471923828125,6.024810791015625
1.0769999999999946,7.050628662109376,0.0381317138671875,5.599530029296876
1.0869999999999926,8.292974853515625,-0.46236572265625,5.595043945312501
1.0969999999999835,8.633319091796876,-1.01026611328125,5.998043823242188
1.1079999999999792,8.269946289062501,-1.0971466064453126,6.621609497070313
1.1179999999999914,7.085769653320313,-0.8888427734375001,7.080386352539063
1.127999999999986,6.016436767578125,-0.76981201171875,7.1361633300781255
1.1379999999999804,5.906527709960938,-0.469244384765625,7.201510620117188
1.147999999999996,6.746023559570313,0.212939453125,6.92711181640625
1.157999999999987,7.736251831054688,1.0226776123046877,6.746621704101563
1.167999999999978,8.047137451171876,1.404144287109375,6.529196166992188
1.1779999999999935,7.925714111328125,1.2287384033203126,5.968136596679688
1.188999999999993,7.6700073242187505,1.0830902099609376,5.7305236816406255
1.1979999999999826,7.31351318359375,0.9473114013671876,5.469433593750001
1.2089999999999748,7.139154052734376,0.61728515625,6.116177368164063
1.218999999999994,7.086965942382813,0.212939453125,6.7087890625
1.2279999999999838,6.450689697265625,-0.0258697509765625,6.293377685546876
1.2389999999999797,6.491213989257813,-0.0569732666015625,5.883798217773438
1.2489999999999917,8.088558959960938,0.0249725341796875,7.116275024414063
1.258999999999986,7.597781372070313,-0.371148681640625,7.297064208984375
1.2689999999999806,6.090606689453125,-0.642706298828125,7.102667236328125
1.2789999999999964,6.905279541015625,-0.5344421386718751,7.464843750000001
1.2889999999999873,8.849398803710939,-0.5558258056640626,6.3917724609375
1.2989999999999782,9.141741943359376,-0.6216217041015626,5.80858154296875
1.308999999999994,7.848403930664063,-0.3122314453125,6.389828491210938
1.3199999999999932,6.647030639648438,0.7002777099609375,6.602169799804688
1.3289999999999829,6.712228393554688,1.4211914062500002,6.785202026367188
1.339999999999975,7.491162109375001,1.1838775634765626,6.837240600585938
1.3489999999999895,8.06239013671875,0.92652587890625,6.506167602539063
1.3599999999999817,7.880853271484375,0.7313812255859375,6.653012084960938
1.3699999999999797,6.980346679687501,0.29249267578125,6.477456665039063
1.3799999999999957,6.914700317382813,-0.2189208984375,6.2673583984375005
1.3899999999999864,7.696624755859376,-0.5997894287109375,6.3439208984375
1.3999999999999773,8.246917724609375,-0.5184417724609376,6.015240478515626
1.4099999999999966,8.1239990234375,-0.42049560546875,6.3466125488281255
1.4199999999999875,7.552023315429688,-0.620574951171875,6.601123046875
1.4299999999999784,6.984085083007813,-0.39298095703125,6.495700073242188
1.4399999999999942,7.028945922851563,0.178546142578125,6.286648559570313
1.4499999999999922,7.398748779296875,0.6981842041015626,5.905780029296875
1.459999999999983,7.584472656250001,1.0315002441406251,5.797964477539063
1.4699999999999989,7.353738403320313,1.1832794189453126,6.1596923828125005
1.4799999999999898,6.955972290039063,1.3887420654296876,6.925765991210938
1.4909999999999854,6.555813598632813,1.2984222412109376,7.300802612304688
1.50099999999998,6.529794311523438,0.7816253662109376,7.288391113281251
1.5139999999999816,7.130929565429688,0.037982177734375,6.873727416992188
1.5209999999999866,7.779019165039063,-0.3342132568359375,6.2030578613281255
1.5309999999999775,8.077792358398439,-0.59036865234375,5.814862060546876
1.5409999999999933,7.95592041015625,-0.9405822753906252,6.000735473632813
1.5509999999999875,7.608547973632813,-0.9996490478515626,6.223544311523438
1.5609999999999822,7.367495727539063,-0.72674560546875,6.663180541992188
1.5709999999999944,7.124798583984376,-0.3004180908203125,6.883895874023438
1.5809999999999924,7.0808349609375005,0.2746978759765625,6.851895141601563
1.590999999999983,7.153958129882813,0.609808349609375,6.835894775390625
1.600999999999999,7.247866821289063,0.9873870849609376,6.532635498046876
1.6139999999999797,7.236651611328125,1.2951324462890623,6.1088500976562505
1.6219999999999857,6.660339355468751,1.0169952392578123,4.88145751953125
1.63199999999998,6.827670288085938,0.9595733642578126,3.940875244140625
1.641999999999996,8.406024169921876,1.3365539550781251,6.137860107421876
1.6519999999999868,7.759429931640626,1.1475402832031252,7.671951293945313
1.6619999999999775,6.031539916992188,1.0922119140625002,8.7221435546875
1.6719999999999935,6.717312622070313,0.8237945556640626,9.0953857421875
1.681999999999988,8.24781494140625,-0.1864715576171875,7.045693969726563
1.6919999999999824,8.395855712890626,-1.131689453125,4.966992187500001
1.7019999999999946,7.4083190917968755,-2.252462768554688,4.933047485351563
1.712999999999994,7.553518676757813,-2.6050689697265628,6.289489746093751
1.7219999999999835,7.98582763671875,-2.222555541992188,7.302746582031251
1.731999999999999,8.238244628906251,-1.445416259765625,7.496246337890626
1.7429999999999914,7.746868896484376,0.0351409912109375,7.330859375
1.751999999999985,6.593496704101563,1.1967376708984376,6.509457397460938
1.7620000000000005,6.211132812500001,1.908978271484375,6.456372070312501
1.772999999999996,6.9970947265625005,2.0854309082031253,6.0599517822265625
1.782999999999987,8.192636108398439,2.2038635253906254,5.9611083984375
1.792999999999978,8.6503662109375,2.224200439453125,6.105410766601563
1.8029999999999973,8.047286987304688,1.5532318115234376,5.849404907226563
1.813999999999993,7.252053833007813,0.5241241455078125,6.290835571289063
1.8229999999999864,6.697125244140626,-0.424981689453125,6.154458618164063
1.8329999999999984,6.835147094726563,-1.0754638671875,6.364706420898438
1.842999999999989,7.5318359375,-1.5918121337890627,6.6696105957031255
1.85299999999998,7.877114868164063,-1.862472534179688,6.482540893554688
1.8629999999999995,7.865301513671875,-1.5617553710937502,6.671255493164063
1.8729999999999905,7.396057128906251,-0.8486175537109376,6.653012084960938
1.8829999999999807,6.694732666015626,-0.098095703125,6.534729003906251
1.893000000000001,6.5021301269531255,0.5821441650390625,6.691891479492188
1.9039999999999964,6.919934082031251,1.3148712158203126,6.691741943359376
1.9159999999999968,7.553518676757813,2.0437103271484376,6.6083007812500005
1.9239999999999784,7.712774658203125,2.3191558837890627,6.516336059570313
1.9339999999999973,7.527798461914063,1.9320068359375,6.226535034179688
1.9439999999999884,7.276876831054688,1.3130767822265623,5.9874267578125
1.9539999999999864,7.276129150390625,0.5791534423828125,5.906976318359376
1.9639999999999984,7.386935424804688,-0.1447509765625,6.285601806640625
1.973999999999989,7.492807006835938,-0.7675689697265625,6.677236938476563
1.9839999999999804,7.604660034179688,-1.2568511962890625,7.113284301757813
1.994,7.215716552734375,-1.5095672607421875,6.922177124023438
2.0039999999999907,6.332855224609376,-1.3027587890625,5.380160522460938
2.0139999999999816,6.527102661132813,-0.6570617675781251,4.2157226562500005
2.0249999999999773,8.990411376953126,0.4701416015625,6.402239990234375
2.0349999999999966,8.432791137695313,1.374237060546875,7.992108154296876
2.0449999999999875,5.824282836914063,1.6617950439453126,8.271142578125001
2.0549999999999784,5.506219482421876,1.2418975830078125,8.383892822265626
2.0649999999999977,7.283157348632813,0.6389678955078125,6.482839965820313
2.0749999999999886,8.580831909179688,0.1057220458984375,4.988973999023438
2.0849999999999795,8.83878173828125,-0.074468994140625,5.838787841796876
2.094999999999999,8.183663940429689,0.1640411376953125,6.22489013671875
2.1049999999999898,7.66641845703125,0.0444122314453125,6.713574218750001
2.115999999999985,7.387533569335938,-0.624761962890625,6.972720336914063
2.125,7.025955200195313,-0.9715362548828126,6.567327880859375
2.134999999999991,7.095339965820313,-0.8366546630859376,7.219305419921875
2.144999999999982,6.911260986328125,-0.48150634765625,7.227828979492188
2.155000000000001,7.351345825195313,-0.0764129638671875,6.585720825195313
2.164999999999992,8.216412353515626,0.104376220703125,6.387136840820313
2.174999999999983,8.319442749023438,0.432757568359375,5.403338623046875
2.1859999999999857,7.878610229492188,0.820654296875,5.440573120117188
2.195999999999998,7.283456420898438,0.9535919189453126,6.03946533203125
2.205999999999989,6.916644287109375,1.146942138671875,6.225936889648438
2.21599999999998,7.155154418945313,1.245486450195313,6.711181640625001
2.225999999999999,7.389926147460938,1.030303955078125,6.515438842773438
2.23599999999999,7.3703369140625,0.6700714111328125,6.322238159179688
2.245999999999981,7.2019592285156255,0.1882659912109375,6.407174682617188
2.256,6.9157470703125,-0.1601531982421875,6.491213989257813
2.266999999999996,6.869689941406251,-0.263482666015625,6.864306640625
2.275999999999982,6.977505493164063,-0.4532440185546875,6.993505859375
2.2860000000000014,7.4905639648437505,-0.6670806884765625,6.915298461914063
2.2959999999999923,7.828216552734376,-0.7152313232421875,6.646881103515626
2.306999999999988,7.676138305664063,-0.4998992919921875,6.131130981445313
2.316999999999986,7.503723144531251,-0.1410125732421875,6.0958404541015625
2.3259999999999934,7.342373657226563,0.2699127197265625,6.11602783203125
2.336999999999989,7.324429321289063,0.7345214843750001,6.296517944335938
2.348999999999989,7.366748046875,1.0107147216796877,6.7413879394531255
2.357,7.089956665039063,1.1082122802734375,6.528448486328125
2.3669999999999902,6.3690429687500005,0.7228576660156251,5.385992431640625
2.376999999999981,6.738845825195313,0.4355987548828125,4.872036743164063
2.3870000000000005,8.065231323242188,0.7614379882812501,6.009259033203126
2.396999999999992,8.0354736328125,1.054080200195313,8.200711059570313
2.4069999999999823,6.0807373046875,0.7657745361328125,8.605953979492188
2.4170000000000016,6.433941650390626,0.6452484130859375,7.750607299804688
2.4269999999999925,8.701058959960939,-0.152825927734375,6.366500854492188
2.437999999999988,8.86151123046875,-1.4449676513671876,4.0427093505859375
2.4469999999999743,7.560247802734375,-1.844528198242188,5.48199462890625
2.4569999999999936,6.802398681640626,-1.5074737548828123,7.695877075195313
2.4679999999999893,6.967935180664063,-0.6942962646484375,8.206991577148438
2.47799999999998,7.816702270507813,-0.06519775390625,7.916143798828125
2.4879999999999995,8.082577514648438,0.289501953125,6.287246704101563
2.4979999999999905,7.610791015625001,1.0371826171875,5.5346313476562505
2.5079999999999814,7.035076904296876,1.3015625000000002,5.92581787109375
2.5180000000000007,6.979748535156251,1.3079925537109376,6.130682373046875
2.527999999999992,7.912255859375,1.4600708007812502,6.628338623046876
2.5379999999999825,8.330957031250001,1.212588500976563,6.485382080078126
2.548000000000002,7.896554565429688,0.881964111328125,6.143093872070313
2.5579999999999927,7.120462036132813,0.0515899658203125,6.2242919921875
2.567999999999984,6.557907104492188,-0.613995361328125,6.260031127929688
2.5779999999999745,6.848904418945313,-0.7164276123046875,6.336892700195313
2.587999999999994,7.6101928710937505,-0.9535919189453126,6.222198486328126
2.598999999999989,8.175439453125001,-0.9398345947265626,6.268106079101563
2.6089999999999804,8.018426513671876,-0.6433044433593751,6.396408081054688
2.619,7.272390747070313,-0.23267822265625,6.745574951171876
2.6299999999999955,6.1731506347656255,0.2256500244140625,7.051974487304688
2.6389999999999816,6.03826904296875,0.602630615234375,6.986029052734375
2.649000000000001,7.051974487304688,1.0160980224609375,6.885092163085938
2.658999999999992,7.963247680664063,1.5002960205078126,6.330313110351563
2.6689999999999827,8.120858764648439,1.5666900634765626,6.129934692382813
2.679000000000002,7.750009155273438,1.1481384277343751,6.0281005859375005
2.688999999999993,7.26207275390625,0.6000885009765625,5.8326568603515625
2.698999999999984,7.070816040039063,0.1419097900390625,6.246273803710938
2.7089999999999748,7.235903930664063,-0.2166778564453125,6.537271118164063
2.718999999999994,7.476507568359375,-0.4592254638671875,6.914550781250001
2.7299999999999898,7.269100952148438,-0.7428955078125,6.743032836914063
2.7399999999999807,6.201861572265625,-0.66094970703125,5.195782470703126
2.75,6.2972656250000005,0.20516357421875,3.647186279296875
2.759999999999991,8.968280029296876,0.9748260498046876,6.380557250976563
2.769999999999982,8.962298583984376,1.1118011474609375,9.398944091796876
2.780000000000001,5.656802368164063,0.8245422363281251,8.778668212890626
2.789999999999992,5.5485382080078125,-0.158807373046875,8.401239013671876
2.799999999999983,7.751055908203125,-0.65616455078125,6.447549438476563
2.812999999999988,8.403781127929689,-0.7675689697265625,3.560903930664063
2.819999999999993,9.16357421875,-0.2573516845703125,5.7608795166015625
2.829999999999984,8.295965576171875,0.5905181884765626,6.908270263671875
2.839999999999975,7.1481262207031255,0.6383697509765626,7.064535522460938
2.8499999999999943,7.171154785156251,-0.42528076171875,7.8853393554687505
2.859999999999985,6.645385742187501,-0.8544494628906251,6.202609252929688
2.870999999999981,6.961953735351563,-0.090618896484375,6.768753051757813
2.881,7.293325805664063,0.2525665283203125,7.076498413085938
2.890999999999991,7.694979858398438,0.44442138671875,5.938528442382813
2.900999999999982,8.718255615234376,0.2681182861328125,6.561495971679688
2.9129999999999825,8.183364868164062,0.093310546875,5.533883666992188
2.9209999999999923,7.345663452148438,0.4329071044921875,5.5555664062500005
2.930999999999983,7.084573364257813,0.25181884765625,6.523214721679688
2.940999999999974,6.618917846679688,0.3648681640625,6.182571411132813
2.9509999999999934,7.275830078125001,0.8339630126953126,6.827520751953125
2.9609999999999843,7.645034790039063,0.7539611816406251,6.663031005859375
2.970999999999975,7.488320922851563,0.625958251953125,6.126943969726563
2.9809999999999945,7.373477172851563,0.1709197998046875,6.444110107421875
2.990999999999985,6.872381591796875,0.0578704833984375,6.209188842773438
3.001999999999981,6.735256958007813,0.4056915283203125,6.477456665039063
3.012999999999977,7.063787841796875,0.193499755859375,6.9941040039062505
3.0209999999999866,7.57071533203125,0.010467529296875,6.845614624023438
3.0319999999999823,7.783056640625,-0.1054229736328125,6.724490356445313
3.0420000000000016,7.591500854492188,-0.22550048828125,6.446502685546876
3.0519999999999925,7.261175537109375,-0.1574615478515625,6.103167724609375
3.0619999999999834,7.267156982421875,-0.133087158203125,6.060400390625
3.0719999999999743,7.474713134765626,0.1021331787109375,6.323135375976563
3.0819999999999936,7.548583984375001,0.5266662597656251,6.487176513671876
3.0919999999999845,7.536172485351563,0.6148925781250001,6.844717407226563
3.1019999999999754,7.185809326171875,0.469842529296875,6.889279174804688
3.1129999999999995,6.496298217773438,0.24224853515625,5.885592651367188
3.1219999999999857,6.270050048828126,0.0070281982421875,4.613638305664063
3.1329999999999814,7.205996704101563,0.1137969970703125,4.240994262695313
3.141999999999996,8.696572875976564,0.8466735839843751,6.9301025390625
3.152999999999992,7.5282470703125,1.3905364990234377,8.750106811523438
3.1629999999999825,6.397006225585938,1.5041839599609377,9.173892211914064
3.173000000000002,7.199417114257813,1.1689239501953126,8.316302490234376
3.1829999999999927,7.912854003906251,-0.49705810546875,5.264569091796876
3.192999999999984,7.611837768554688,-1.63472900390625,4.21512451171875
3.2029999999999745,7.802944946289063,-1.7003753662109375,6.051577758789063
3.212999999999994,7.826272583007813,-1.3838073730468752,7.247119140625
3.2229999999999848,8.324526977539064,-0.6268554687500001,8.235253906250001
3.232999999999976,7.726980590820313,-0.4415802001953125,7.292279052734376
3.242999999999995,7.071713256835938,0.1933502197265625,5.95811767578125
3.252999999999986,6.685311889648438,0.8619262695312501,6.2793212890625005
3.262999999999977,6.770547485351563,1.0642486572265626,6.010455322265625
3.272999999999996,7.8129638671875,1.676150512695313,6.6516662597656255
3.283999999999992,8.591299438476563,1.7347686767578123,6.586468505859376
3.292999999999978,8.261422729492189,1.435546875,5.921630859375
3.304000000000002,7.409963989257813,0.8686553955078126,5.897854614257813
3.313999999999993,6.646282958984376,-0.02572021484375,5.689401245117188
3.323999999999984,6.669760131835938,-0.3198577880859375,6.324032592773438
3.3339999999999748,7.306185913085938,-0.6613983154296875,6.5090087890625
3.343999999999994,7.817749023437501,-1.015350341796875,6.648825073242188
3.353999999999985,7.975659179687501,-0.9837982177734376,6.7473693847656255
3.363999999999976,7.337139892578126,-0.8119812011718751,6.559552001953126
3.3739999999999952,6.650320434570313,-0.3883453369140625,6.699368286132813
3.383999999999986,6.282012939453126,-0.010467529296875,6.691293334960938
3.393999999999977,6.797463989257813,0.5384796142578125,6.678134155273438
3.4039999999999964,7.831207275390626,1.2258972167968751,6.673049926757813
3.413999999999988,8.159738159179689,1.451995849609375,6.394314575195313
3.424999999999983,7.83629150390625,1.3438812255859376,6.103317260742188
3.434999999999974,7.171005249023438,0.9864898681640626,6.0236145019531255
3.444999999999993,6.894064331054688,0.6377716064453125,6.057559204101563
3.454999999999984,7.000833129882813,0.392681884765625,6.377566528320313
3.464999999999975,7.50491943359375,-0.038580322265625,6.792678833007813
3.4749999999999943,7.725933837890626,-0.416009521484375,7.063638305664063
3.484999999999985,7.381851196289063,-0.6347808837890625,6.753051757812501
3.494999999999976,6.518728637695313,-0.7898498535156251,5.52745361328125
3.5049999999999955,6.02630615234375,-0.3243438720703125,3.653616333007813
3.5149999999999864,8.34351806640625,0.50782470703125,4.7829132080078125
3.5249999999999773,9.32447509765625,1.0045837402343751,8.555111694335938
3.5349999999999966,6.769052124023438,1.209597778320313,9.223239135742189
3.5449999999999875,5.013348388671876,0.44801025390625,8.817996215820314
3.5549999999999784,6.656600952148438,-0.280828857421875,7.605706787109375
3.5649999999999977,8.11502685546875,-0.6282012939453125,4.744332885742188
3.5749999999999886,8.958859252929688,-0.4263275146484375,4.580441284179688
3.5859999999999843,8.955868530273438,0.3575408935546875,6.591702270507813
3.595999999999975,7.985678100585938,0.608013916015625,6.425717163085938
3.6059999999999945,7.337139892578126,0.0500946044921875,7.115228271484376
3.6159999999999854,6.639852905273438,-0.5094696044921876,6.860418701171875
3.625999999999976,6.476858520507813,-0.3194091796875,6.770397949218751
3.635999999999996,6.815707397460938,0.123516845703125,7.460507202148438
3.6459999999999866,7.4083190917968755,0.27275390625,6.831259155273438
3.6559999999999775,8.450585937500001,0.2603424072265625,6.479400634765626
3.665999999999997,8.58756103515625,0.0375335693359375,5.6357177734375
3.675999999999988,7.779019165039063,0.0420196533203125,5.23675537109375
3.6859999999999857,7.258932495117188,0.1640411376953125,6.0340820312500005
3.695999999999998,6.781912231445313,0.3455780029296875,6.251358032226563
3.705999999999989,7.120462036132813,0.7481292724609375,6.768154907226563
3.71599999999998,7.552023315429688,0.7853637695312501,6.955972290039063
3.7299999999999898,7.541107177734376,0.631939697265625,6.460708618164063
3.7369999999999934,7.351046752929688,0.36785888671875,6.319247436523438
3.7469999999999857,6.9821411132812505,0.160302734375,6.025408935546875
3.7569999999999766,6.94266357421875,0.3213531494140625,6.0360260009765625
3.766999999999996,7.190594482421876,0.32479248046875,6.488821411132813
3.776999999999987,7.3843933105468755,0.1987335205078125,6.763070678710938
3.7869999999999777,7.544097900390626,0.1114044189453125,7.134817504882813
3.796999999999997,7.3368408203125,-0.0638519287109375,6.951486206054688
3.806999999999988,7.159939575195313,-0.20396728515625,6.593496704101563
3.817999999999984,7.22977294921875,-0.2818756103515625,6.176589965820313
3.8289999999999855,7.543649291992188,-0.17047119140625,5.900247192382813
3.836999999999989,7.801748657226563,0.14654541015625,6.160888671875001
3.8479999999999848,7.662081909179688,0.3560455322265625,6.362762451171876
3.857999999999976,6.9301025390625,0.224603271484375,6.138607788085938
3.867999999999995,6.426913452148438,0.0731231689453125,5.348907470703125
3.877999999999986,6.852194213867188,0.3228485107421875,5.101574707031251
3.887999999999977,8.156747436523439,1.0477996826171876,7.239193725585938
3.897999999999996,6.760977172851563,1.365264892578125,8.060147094726563
3.907999999999987,5.993856811523438,1.4681457519531251,8.21790771484375
3.917999999999978,7.742532348632813,1.4371917724609375,8.187701416015626
3.9299999999999775,8.856875610351564,0.021234130859375,5.510107421875
3.937999999999988,8.195925903320314,-1.1789428710937502,4.417446899414063
3.947999999999986,7.617370605468751,-1.6668792724609376,6.078195190429688
3.9579999999999984,7.153509521484375,-1.4319580078125,6.828567504882813
3.967999999999989,7.582827758789063,-0.7811767578125001,8.046987915039063
3.97799999999998,7.737896728515626,-0.7765411376953125,7.77408447265625
3.988,7.547537231445313,-0.1054229736328125,6.417642211914063
3.9989999999999952,7.175341796875,0.5534332275390625,6.262573242187501
4.008999999999986,6.805538940429688,0.7669708251953126,5.989370727539063
4.018999999999977,7.475759887695313,1.3845550537109377,6.2090393066406255
4.030000000000001,8.246768188476564,1.600933837890625,6.2793212890625005
4.038999999999987,8.248712158203126,1.6410095214843752,6.044699096679688
4.048999999999978,7.647277832031251,1.206607055664063,6.106008911132813
4.0589999999999975,6.944009399414063,0.3593353271484375,6.052624511718751
4.068999999999988,6.677835083007813,-0.0222808837890625,6.35050048828125
4.078999999999986,6.987673950195313,-0.43604736328125,6.49046630859375
4.088999999999999,7.505517578125,-0.7968780517578126,6.489569091796875
4.0989999999999895,7.930947875976563,-0.8795715332031251,6.443212890625
4.1089999999999804,7.804739379882813,-0.8842071533203125,6.564337158203125
4.119999999999976,7.007562255859376,-0.5549285888671875,6.663180541992188
4.129999999999996,6.39835205078125,-0.2298370361328125,6.776379394531251
4.139999999999986,6.72135009765625,0.134881591796875,6.943560791015625
4.149999999999977,7.42716064453125,0.801214599609375,6.558355712890625
4.159999999999997,7.965640258789063,1.2079528808593751,6.420632934570313
4.169999999999988,7.883395385742188,1.2703094482421875,6.324630737304688
4.179999999999978,7.353439331054688,1.1814849853515623,5.96649169921875
4.189999999999998,7.1346679687500005,0.8336639404296876,6.212628173828126
4.199999999999989,7.067077636718751,0.533245849609375,6.239096069335938
4.20999999999998,7.277474975585938,0.2420989990234375,6.351547241210938
4.219999999999999,7.178482055664063,-0.11185302734375,6.226834106445313
4.22999999999999,6.3092285156250005,-0.0103179931640625,4.626199340820313
4.239999999999981,7.329513549804688,0.532049560546875,4.94486083984375
4.25,8.7819580078125,0.5012451171875001,8.154205322265625
4.259999999999991,7.159490966796875,0.3002685546875,8.557803344726564
4.269999999999982,5.678784179687501,-0.437542724609375,7.847058105468751
4.2809999999999775,7.243231201171875,-1.09879150390625,7.893115234375
4.290999999999997,8.296563720703126,-1.069033813476563,5.384796142578125
4.300999999999988,8.380303955078126,-0.791943359375,4.890728759765626
4.310999999999986,8.268301391601563,0.088226318359375,7.234558105468751
4.320999999999998,7.400094604492188,0.855047607421875,6.596188354492188
4.330999999999989,7.473367309570313,0.7071563720703126,7.153509521484375
4.34099999999998,7.449142456054688,0.085833740234375,6.905728149414063
4.350999999999999,7.063339233398438,0.170770263671875,5.933294677734375
4.36099999999999,7.164425659179688,0.527862548828125,6.984085083007813
4.370999999999981,7.034179687500001,0.4571319580078125,6.597534179687501
4.381999999999977,7.741635131835938,0.319110107421875,6.533682250976563
4.390999999999991,8.338433837890626,-0.09031982421875,6.455325317382813
4.400999999999982,7.809524536132813,-0.2477813720703125,5.62315673828125
4.411000000000001,7.593743896484375,-0.224005126953125,6.273190307617188
4.421999999999997,7.097882080078126,-0.30086669921875,6.164328002929688
4.431999999999988,7.045993041992188,0.1469940185546875,6.269601440429688
4.441999999999986,7.4412170410156255,0.5120117187500001,6.714620971679688
4.451999999999998,7.470675659179688,0.66932373046875,6.085073852539063
4.461999999999989,7.51927490234375,0.7370635986328126,6.314462280273438
4.47199999999998,7.140798950195313,0.5758636474609375,6.432296752929688
4.481999999999999,6.673348999023438,0.8222991943359376,6.419287109375
4.49199999999999,6.755294799804688,0.8605804443359376,6.852194213867188
4.501999999999981,7.13646240234375,0.5323486328125,6.821987915039063
4.5120000000000005,7.637707519531251,0.2657257080078125,6.722546386718751
4.521999999999991,7.794271850585938,-0.11484375,6.522915649414063
4.531999999999982,7.565780639648438,-0.3766815185546875,6.2003662109375
4.542000000000002,7.3942626953125,-0.51141357421875,6.113784790039063
4.552999999999997,7.395608520507813,-0.57960205078125,6.226385498046875
4.562999999999988,7.465292358398438,-0.2752960205078125,6.480746459960938
4.572999999999986,7.447348022460938,0.1051239013671875,6.734210205078125
4.582999999999998,7.339532470703125,0.2189208984375,6.9372802734375005
4.592999999999989,6.802249145507813,0.2998199462890625,6.339733886718751
4.60299999999998,6.284405517578126,0.22789306640625,4.786801147460938
4.613,6.927410888671876,0.582891845703125,4.164431762695313
4.622999999999991,8.197720336914063,1.1922515869140626,5.6457366943359375
4.632999999999981,7.812664794921876,1.72445068359375,8.108746337890626
4.643000000000001,6.778921508789063,1.9616149902343751,9.4997314453125
4.652999999999992,6.84337158203125,1.6495330810546875,8.976504516601564
4.662999999999983,7.463497924804688,0.20576171875,6.697723388671876
4.673000000000002,7.4157958984375005,-1.3989105224609375,4.4569244384765625
4.682999999999993,8.010650634765625,-2.0778045654296875,4.787698364257813
4.692999999999984,8.600122070312501,-1.9969055175781247,6.693237304687501
4.702999999999975,8.626889038085938,-1.6199249267578126,7.763317871093751
4.713999999999999,7.886535644531251,-1.2296356201171876,7.81954345703125
4.7239999999999895,6.864755249023438,-0.5360870361328125,6.662432861328125
4.7339999999999804,6.235806274414063,0.4415802001953125,6.268554687500001
4.744,6.490615844726563,1.1853729248046876,6.210983276367188
4.753999999999991,7.513442993164063,1.94815673828125,6.427511596679688
4.763999999999982,8.633917236328125,2.4160552978515626,6.677536010742188
4.774000000000001,8.486026000976564,2.1436004638671875,6.049783325195313
4.783999999999992,7.683016967773438,1.4392852783203125,5.572015380859376
4.793999999999983,6.944308471679688,0.516796875,5.583380126953125
4.804000000000002,6.603515625000001,-0.15850830078125,5.86600341796875
4.813999999999993,7.045394897460938,-0.5591156005859376,6.57181396484375
4.823999999999984,7.571762084960938,-1.09161376953125,6.996945190429688
4.833999999999975,7.814907836914063,-1.40863037109375,7.024310302734375
4.844999999999999,7.571313476562499,-1.3079925537109376,6.829165649414063
4.85499999999999,7.004122924804688,-0.945965576171875,6.413156127929688
4.864999999999981,6.576748657226563,-0.4347015380859375,6.438128662109375
4.875,6.788043212890625,0.202471923828125,6.471923828125001
4.884999999999991,7.509854125976563,1.0681365966796876,6.507812500000001
4.894999999999982,8.089456176757814,1.6472900390625,6.585272216796875
4.905000000000001,7.877713012695313,1.735964965820313,6.392819213867188
4.914999999999992,7.252352905273438,1.4464630126953126,6.186160278320313
4.924999999999983,6.854437255859375,1.073968505859375,6.197525024414063
4.934999999999974,6.80748291015625,0.7381103515625,6.155056762695313
4.944999999999993,7.370635986328126,0.2009765625,6.505569458007813
4.955999999999989,7.816851806640625,-0.354400634765625,6.897952270507813
4.96599999999998,7.571911621093751,-0.736614990234375,6.606356811523438
4.975999999999999,6.732565307617188,-0.9712371826171876,5.6502227783203125
4.98599999999999,6.073858642578125,-0.6477905273437501,3.965698242187501
4.995999999999981,8.045492553710938,0.088525390625,5.2648681640625
5.006,8.683712768554688,0.6950439453125,8.087362670898438
5.015999999999991,6.841427612304688,1.091912841796875,8.919680786132814
5.025999999999982,6.035427856445313,0.5426666259765626,9.25927734375
5.036000000000001,6.676788330078126,-0.362176513671875,7.559500122070313
5.045999999999992,7.288241577148438,-0.751568603515625,4.720257568359376
5.055999999999983,8.490362548828125,-0.457879638671875,4.917645263671876
5.065999999999974,9.16641540527344,0.4003082275390625,6.0629425048828125
5.075999999999993,8.913250732421876,0.9371429443359376,6.653311157226563
5.085999999999984,7.818646240234376,0.4565338134765625,7.2830078125
5.095999999999975,6.471774291992188,-0.093011474609375,6.727182006835938
5.1059999999999945,6.0388671875,-0.27933349609375,6.821688842773438
5.1159999999999854,6.397155761718751,-0.21114501953125,7.040310668945313
5.129999999999996,7.510153198242188,0.179144287109375,6.803146362304688
5.1370000000000005,8.749658203125001,0.2029205322265625,6.728527832031251
5.146999999999991,8.665170288085939,0.0142059326171875,5.840283203125001
5.156999999999982,7.833450317382813,-0.1457977294921875,5.494256591796876
5.167000000000002,7.105508422851563,-0.10587158203125,5.757290649414063
5.1769999999999925,6.625048828125,0.335260009765625,5.852096557617188
5.186999999999983,6.995449829101563,0.7301849365234375,6.510653686523438
5.196999999999974,7.649819946289063,0.8738891601562501,6.867745971679688
5.206999999999994,7.7896362304687505,0.9511993408203124,6.605010986328126
5.2169999999999845,7.382598876953126,0.7225585937500001,6.5329345703125
5.22999999999999,6.671554565429688,0.4640106201171875,6.411660766601563
5.236999999999995,6.407772827148438,0.356195068359375,6.384445190429688
5.247999999999991,6.820941162109375,0.1846771240234375,6.571664428710938
5.256999999999977,7.664624023437501,0.0578704833984375,6.746771240234375
5.266999999999996,8.031436157226564,-0.1311431884765625,6.734957885742188
5.277999999999992,7.912255859375,-0.434552001953125,6.647329711914063
5.287999999999983,7.360617065429688,-0.5938079833984375,6.35050048828125
5.298000000000002,6.987075805664063,-0.436944580078125,6.043054199218751
5.307999999999993,7.19986572265625,-0.11484375,6.279470825195313
5.317999999999984,7.510153198242188,0.294586181640625,6.438577270507813
5.329999999999984,7.637408447265625,0.699530029296875,6.666021728515625
5.337999999999994,7.437030029296875,0.754559326171875,6.906625366210938
5.347999999999985,6.484783935546876,0.47373046875,5.7245422363281255
5.357999999999976,6.394165039062501,0.2540618896484375,4.61229248046875
5.367999999999995,7.891769409179688,0.6376220703125001,5.213876342773438
5.377999999999986,8.133868408203126,1.167578125,6.685012817382813
5.388999999999982,6.228628540039063,1.0249206542968752,7.978948974609375
5.399000000000001,5.796469116210938,1.1894104003906252,8.961999511718751
5.408999999999992,7.536770629882813,0.9470123291015624,8.230169677734375
5.418999999999983,9.106900024414063,-0.1389190673828125,6.297863769531251
5.429999999999978,8.56961669921875,-1.14664306640625,4.990917968750001
5.438999999999993,7.5856689453125,-1.7860595703125002,5.342926025390625
5.448999999999984,7.407720947265625,-1.7130859375,6.538766479492188
5.458999999999975,7.7507568359375005,-1.5442596435546876,7.274334716796876
5.468999999999994,7.896554565429688,-0.9654052734375,7.50133056640625
5.478999999999985,7.447348022460938,0.160003662109375,7.000534057617188
5.488999999999976,6.743630981445313,1.0240234375,6.7428833007812505
5.498999999999995,6.643890380859376,1.4546875,6.4946533203125005
5.508999999999986,7.304541015625,1.59046630859375,5.9672393798828125
5.518999999999977,8.274880981445314,1.8069946289062504,5.863461303710938
5.530000000000001,8.454623413085939,1.79921875,5.621661376953125
5.539999999999992,7.945751953125001,1.17655029296875,5.7051025390625005
5.549999999999983,7.2746337890625,0.31163330078125,6.210086059570313
5.559999999999974,6.626095581054688,-0.2989227294921875,6.432595825195313
5.569999999999993,6.782809448242188,-0.6314910888671875,6.733612060546876
5.579999999999984,7.185958862304688,-1.1076141357421876,6.779818725585938
5.589999999999975,7.539013671875001,-1.3510589599609375,6.704452514648438
5.599999999999994,7.556808471679688,-1.117034912109375,6.836044311523438
5.609999999999985,7.067376708984376,-0.5929107666015625,6.663778686523438
5.619999999999976,6.827221679687501,-0.04486083984375,6.690545654296876
5.629999999999996,7.185958862304688,0.4795623779296875,6.471325683593751
5.639999999999986,7.655203247070313,1.0219299316406252,6.124850463867188
5.650999999999982,7.864105224609376,1.512109375,6.2817138671875
5.659999999999997,7.496096801757813,1.6357757568359377,6.17105712890625
5.670999999999992,7.128536987304688,1.343731689453125,6.475961303710938
5.680999999999983,6.949841308593751,0.9341522216796876,6.566729736328125
5.690999999999974,7.039562988281251,0.5987426757812501,6.377716064453126
5.700999999999993,7.53123779296875,0.100189208984375,6.687106323242188
5.710999999999984,7.3350463867187505,-0.47911376953125,6.169412231445313
5.720999999999975,6.560150146484376,-0.5894714355468751,4.836148071289063
5.731999999999999,6.860269165039063,-0.1499847412109375,4.446157836914063
5.7409999999999854,8.259927368164064,0.3904388427734375,6.556561279296876
5.750999999999976,8.456268310546875,0.5416198730468751,9.094338989257814
5.760999999999996,6.488821411132813,0.1586578369140625,8.809323120117188
5.770999999999987,5.932546997070313,-0.668426513671875,7.603463745117188
5.782999999999987,7.297213745117188,-1.056622314453125,6.523065185546876
5.790999999999997,8.148822021484376,-1.0077239990234377,4.884298706054688
5.8019999999999925,8.595785522460938,-0.1638916015625,5.707345581054688
5.811999999999983,8.599972534179688,0.9112731933593752,6.941467285156251
5.821999999999974,7.753448486328126,1.29677734375,6.462503051757813
5.831999999999994,7.162631225585938,0.752166748046875,6.772790527343751
5.8419999999999845,6.5514770507812505,0.0366363525390625,6.600674438476563
5.851999999999975,6.534878540039063,0.1589569091796875,6.926214599609375
5.861999999999995,7.085919189453126,0.299072265625,7.460357666015626
5.871999999999986,7.748962402343751,0.115142822265625,6.675442504882813
5.881999999999984,8.532980346679688,-0.218023681640625,6.270947265625001
5.891999999999996,8.276675415039064,-0.6539215087890625,5.618222045898438
5.90199999999998,7.53123779296875,-0.5268157958984375,5.460461425781251
5.911999999999985,7.158294677734376,-0.2600433349609375,6.260629272460938
5.921999999999997,7.033132934570313,0.1299468994140625,6.446353149414063
5.932999999999993,7.406076049804688,0.683380126953125,6.6860595703125005
5.941999999999986,7.694979858398438,0.9175537109375,6.719705200195313
5.952999999999975,7.414450073242188,1.0149017333984376,6.299209594726563
5.962999999999994,6.987075805664063,0.99232177734375,6.162982177734375
5.972999999999985,6.756192016601563,0.7748962402343751,6.1193176269531255
5.982999999999976,6.976757812500001,0.7360168457031251,6.318649291992188
5.992999999999995,7.288839721679688,0.5718261718750001,6.603067016601563
6.002999999999986,7.513592529296876,0.1915557861328125,6.901242065429688
6.012999999999984,7.510601806640626,-0.1816864013671875,6.995001220703125
6.022999999999996,7.263568115234375,-0.5653961181640625,6.6788818359375
6.03299999999998,7.256838989257813,-0.752166748046875,6.491363525390626
6.045999999999992,7.372579956054688,-0.666632080078125,6.085223388671875
6.052999999999997,7.668362426757813,-0.3638214111328125,6.007315063476563
6.062999999999988,7.802346801757813,-0.029010009765625,6.516784667968751
6.072999999999986,7.4307495117187505,0.3551483154296875,6.55087890625
6.083999999999975,6.72374267578125,0.5028900146484375,6.0831298828125
6.093999999999994,6.558355712890625,0.4711883544921875,5.432946777343751
6.103999999999985,7.565631103515625,1.0095184326171875,5.5759033203125
6.113999999999976,8.177084350585938,1.5786529541015626,7.135864257812501
6.123999999999995,6.302499389648438,1.39786376953125,7.508956909179688
6.133999999999986,5.688204956054688,1.343731689453125,7.648623657226563
6.14599999999998,7.679577636718751,0.834112548828125,7.154705810546876
6.153999999999996,9.074002075195311,-0.213836669921875,5.509359741210938
6.16399999999998,8.343069458007813,-0.8489166259765626,5.4842376708984375
6.173999999999985,7.006814575195313,-1.3079925537109376,6.712826538085938
6.1839999999999975,6.658395385742188,-1.2511688232421876,7.636959838867188
6.193999999999988,7.338485717773438,-1.2027191162109376,7.728475952148438
6.203999999999986,8.198168945312501,-1.2520660400390626,6.997543334960938
6.214999999999975,8.272787475585938,-0.508123779296875,6.106457519531251
6.2239999999999895,7.512695312500001,0.3001190185546875,5.829367065429688
6.234999999999985,6.95701904296875,0.8538513183593751,6.234460449218751
6.245999999999981,7.189248657226563,1.3447784423828126,6.459811401367188
6.254999999999996,7.762271118164063,1.6420562744140623,6.6083007812500005
6.264999999999986,7.915994262695313,1.777685546875,6.5514770507812505
6.274999999999984,7.529592895507813,1.3719940185546875,6.327322387695313
6.284999999999997,7.097433471679688,0.7262969970703126,6.322836303710938
6.294999999999988,6.94505615234375,0.158807373046875,6.03228759765625
6.3049999999999855,7.434936523437501,-0.3521575927734375,6.022268676757813
6.314999999999998,8.014987182617189,-0.7719055175781251,6.0225677490234375
6.324999999999989,8.041305541992188,-1.1174835205078126,5.968884277343751
6.33499999999998,7.616323852539063,-1.0663421630859375,6.55386962890625
6.345999999999975,6.926214599609375,-0.6552673339843751,6.796417236328126
6.3559999999999945,6.582879638671876,-0.2543609619140625,6.980496215820313
6.3659999999999854,6.560897827148438,0.0602630615234375,7.145285034179688
6.375999999999976,6.78056640625,0.602032470703125,6.889727783203125
6.385999999999996,7.3724304199218755,1.200177001953125,6.79013671875
6.39599999999998,7.788888549804688,1.4775665283203123,6.376669311523438
6.405999999999985,7.825225830078126,1.3899383544921875,5.81396484375
6.415999999999997,7.756887817382813,1.035986328125,5.747720336914063
6.425999999999988,7.4445068359375,0.6724639892578126,5.8202453613281255
6.435999999999986,7.211679077148438,0.2806793212890625,6.370089721679688
6.445999999999998,7.15440673828125,-0.2196685791015625,7.005618286132813
6.455999999999989,7.073806762695313,-0.5235260009765625,7.102816772460938
6.46599999999998,6.675442504882813,-0.5670410156250001,6.210534667968751
6.475999999999999,6.456372070312501,-0.371746826171875,4.649227905273438
6.486999999999995,8.078689575195312,0.1338348388671875,5.202810668945313
6.496999999999986,8.586813354492188,0.5390777587890625,7.383197021484375
6.506999999999984,6.699966430664063,0.7911956787109375,8.068670654296875
6.516999999999996,6.002230834960938,0.610107421875,8.117718505859376
6.52699999999998,7.577145385742188,0.0808990478515625,7.373477172851563
6.536999999999985,8.173794555664063,-0.3264373779296875,5.281317138671875
6.546999999999997,7.936480712890625,-0.219818115234375,5.455526733398438
6.556999999999988,7.659689331054688,0.2415008544921875,6.992010498046875
6.566999999999986,7.526751708984375,0.4813568115234375,6.979000854492188
6.576999999999998,7.787841796875001,-0.051141357421875,7.136761474609376
6.586999999999989,7.795169067382813,-0.6177337646484375,6.489718627929688
6.59699999999998,7.400991821289063,-0.60352783203125,6.133374023437501
6.606999999999999,6.953430175781251,-0.4185516357421875,6.796417236328126
6.61699999999999,6.8191467285156255,-0.17047119140625,6.663479614257813
6.626999999999981,7.758831787109376,0.1230682373046875,6.7638183593750005
6.637999999999984,8.368640136718751,0.3013153076171875,6.4276611328125
6.647999999999996,7.948892211914063,0.444720458984375,5.753253173828125
6.65799999999998,7.469329833984376,0.4427764892578125,6.199020385742188
6.667999999999985,6.83499755859375,0.51978759765625,6.170458984375
6.677999999999997,6.9073730468750005,0.8498138427734375,6.134420776367188
6.687999999999988,7.56712646484375,0.8583374023437501,6.433193969726563
6.697999999999986,7.880105590820313,0.671417236328125,6.057110595703126
6.707999999999998,7.690493774414063,0.5130584716796875,6.311770629882813
6.717999999999989,7.006814575195313,0.2166778564453125,6.487326049804688
6.72799999999998,6.564935302734376,0.1640411376953125,6.640151977539063
6.738,6.682022094726563,0.092413330078125,6.892718505859375
6.747999999999991,7.128237915039063,-0.097796630859375,6.84337158203125
6.758999999999986,7.634268188476563,-0.0873291015625,6.860269165039063
6.768999999999984,7.733261108398438,-0.1437042236328125,6.513644409179688
6.778999999999996,7.576248168945313,-0.259295654296875,6.333303833007813
6.78899999999998,7.431796264648438,-0.200677490234375,6.11363525390625
6.798999999999985,7.366748046875,0.0777587890625,5.970828247070313
6.8089999999999975,7.5162841796875,0.395672607421875,6.384744262695313
6.818999999999988,7.42177734375,0.6078643798828125,6.626095581054688
6.828999999999986,7.239791870117188,0.673809814453125,6.83499755859375
6.838999999999999,7.000683593750001,0.5513397216796876,6.812567138671875
6.8489999999999895,6.258386230468751,0.194097900390625,5.35458984375
6.8589999999999804,6.669161987304688,-0.042767333984375,4.467541503906251
6.869,7.997940063476563,0.1957427978515625,5.451788330078125
6.878999999999991,8.101419067382814,0.7868591308593751,7.316204833984376
6.888999999999982,6.8595214843750005,1.0887725830078123,8.662478637695314
6.899000000000001,7.0778442382812505,1.2756927490234375,8.961849975585938
6.909999999999997,7.660137939453126,0.5247222900390626,7.2393432617187505
6.919999999999988,7.418338012695313,-0.8269348144531251,4.792184448242188
6.9299999999999855,7.389776611328125,-1.2460845947265626,5.12430419921875
6.939999999999998,7.866796875,-1.2285888671875,6.526654052734376
6.949999999999989,8.427557373046875,-0.8708984375000001,7.642941284179688
6.95999999999998,8.32557373046875,-0.5493957519531251,7.681222534179688
6.969999999999999,7.518078613281251,-0.2524169921875,6.5140930175781255
6.97999999999999,6.716564941406251,0.4773193359375,5.999090576171875
6.989999999999981,6.471774291992188,0.8344116210937501,5.994754028320313
7.0,7.136312866210938,1.26806640625,6.518130493164063
7.009999999999991,8.25260009765625,1.71787109375,6.886886596679688
7.019999999999982,8.430099487304688,1.538128662109375,6.4423156738281255
7.030000000000001,7.882498168945313,1.1010345458984376,6.04425048828125
7.039999999999992,7.009207153320313,0.3599334716796875,5.605062866210938
7.049999999999983,6.720751953125,-0.1490875244140625,5.7900390625
7.060999999999986,7.053469848632813,-0.34393310546875,6.190795898437501
7.070999999999998,7.601818847656251,-0.6990814208984375,6.392221069335938
7.080999999999989,7.972668457031251,-0.9601715087890624,6.865054321289063
7.09099999999998,7.679577636718751,-0.9464141845703126,6.838287353515626
7.100999999999999,6.944906616210938,-0.624761962890625,6.780267333984376
7.11099999999999,6.196328735351563,-0.26856689453125,6.8942138671875
7.120999999999981,6.3047424316406255,0.1703216552734375,6.7602294921875
7.131,7.329513549804688,0.87269287109375,6.659591674804688
7.140999999999991,8.230169677734375,1.28900146484375,6.279919433593751
7.150999999999982,8.2603759765625,1.370648193359375,6.143392944335938
7.161000000000001,7.639352416992188,1.1659332275390626,6.0161376953125005
7.170999999999992,7.01683349609375,0.7989715576171875,6.021969604492188
7.180999999999983,6.800155639648438,0.5372833251953125,6.320443725585938
7.190999999999974,7.042254638671875,0.221612548828125,6.569421386718751
7.201999999999998,7.574005126953126,-0.128900146484375,7.055563354492188
7.211999999999989,7.677783203125,-0.426177978515625,7.04075927734375
7.22199999999998,7.344915771484375,-0.7738494873046876,6.677536010742188
7.231999999999999,6.573458862304688,-0.865216064453125,5.5125
7.244999999999976,6.124700927734375,-0.3479705810546875,3.493911743164063
7.251999999999981,8.255740356445314,0.560162353515625,4.805194091796875
7.263999999999982,8.910260009765626,1.2828704833984377,7.747915649414063
7.271999999999991,6.8343994140625,1.5796997070312502,8.978747558593751
7.281999999999982,5.764468383789063,0.8563934326171876,9.854730224609376
7.292000000000002,6.270797729492188,-0.1604522705078125,8.04324951171875
7.301999999999992,7.354635620117188,-0.810186767578125,4.941421508789063
7.311999999999983,8.806481933593751,-0.8673095703125001,4.719061279296875
7.321999999999974,9.579434204101563,-0.0973480224609375,5.552276611328125
7.332999999999998,9.047235107421876,0.395074462890625,6.3678466796875
7.344999999999999,7.686605834960938,-0.064300537109375,7.189547729492188
7.35299999999998,6.271545410156251,-0.504833984375,6.939822387695313
7.362999999999999,5.9623046875000005,-0.4009063720703125,7.1550048828125
7.3729999999999905,6.29906005859375,0.0919647216796875,7.338485717773438
7.382999999999981,7.344915771484375,0.6313415527343751,6.918289184570313
7.393000000000001,8.690890502929689,0.6261077880859376,6.557159423828126
7.402999999999992,8.835043334960938,0.4287200927734375,5.482144165039063
7.4129999999999825,8.081530761718751,0.2866607666015625,5.127743530273438
7.423000000000002,7.241287231445313,0.23746337890625,5.528948974609375
7.432999999999993,6.651367187500001,0.440234375,5.838040161132813
7.444999999999993,6.97496337890625,0.6017333984375001,6.814361572265626
7.4529999999999745,7.455422973632813,0.6896606445312501,7.147827148437501
7.462999999999994,7.471871948242188,0.6024810791015626,6.863259887695313
7.473999999999989,7.211978149414063,0.210247802734375,6.740042114257813
7.4839999999999804,6.748864746093751,0.0251220703125,6.273638916015625
7.494,6.708340454101563,0.040972900390625,6.17943115234375
7.503999999999991,7.162182617187501,0.024224853515625,6.465643310546875
7.513999999999982,7.799804687500001,0.0095703125,6.572262573242188
7.524000000000001,8.046389770507814,-0.061907958984375,6.758285522460938
7.533999999999992,7.681521606445313,-0.144451904296875,6.754098510742188
7.5449999999999875,7.092349243164063,-0.0662445068359375,6.416744995117188
7.554000000000002,6.881353759765625,0.012860107421875,6.200216674804688
7.563999999999993,7.189697265625001,0.1287506103515625,6.27274169921875
7.573999999999984,7.60660400390625,0.4329071044921875,6.351248168945313
7.583999999999975,7.821038818359375,0.68128662109375,6.696975708007813
7.593999999999966,7.519424438476563,0.6063690185546875,6.760079956054688
7.604000000000013,6.597384643554688,0.36427001953125,5.8307128906250005
7.614999999999981,6.097485351562501,0.0237762451171875,4.4310546875000005
7.624999999999972,7.418487548828126,0.3055023193359375,4.873382568359375
7.634999999999962,8.257235717773439,0.756353759765625,6.804940795898438
7.64500000000001,7.183865356445313,0.8545989990234376,8.648870849609375
7.655000000000001,6.505569458007813,1.0898193359375,9.439318847656253
7.664999999999992,7.056759643554688,0.8402435302734376,7.905975341796876
7.674999999999983,7.923171997070313,-0.1601531982421875,5.626446533203126
7.684999999999974,7.983135986328126,-0.9079833984375,4.523468017578125
7.694999999999965,8.139251708984375,-1.140960693359375,5.559304809570313
7.7050000000000125,8.333200073242189,-1.1668304443359376,7.1825195312500005
7.715000000000003,7.940817260742188,-1.188214111328125,7.607949829101563
7.724999999999994,7.248614501953125,-0.8892913818359376,7.283157348632813
7.735999999999962,6.837240600585938,-0.0133087158203125,6.720303344726563
7.744999999999976,6.613385009765626,0.8528045654296875,6.327920532226563
7.756,7.145285034179688,1.2688140869140625,6.352294921875001
7.765999999999991,8.074951171875,1.3577880859375,6.306088256835938
7.775999999999982,8.496343994140625,1.4763702392578126,6.109747314453125
7.785999999999973,8.038314819335938,1.371246337890625,5.800506591796875
7.795999999999964,7.353588867187501,0.8641693115234376,5.681924438476563
7.806000000000012,6.97855224609375,0.349615478515625,5.96708984375
7.816000000000002,6.871783447265625,-0.0659454345703125,6.270648193359375
7.825999999999993,7.203005981445313,-0.3704010009765625,6.660638427734376
7.835999999999984,7.449291992187501,-0.7983734130859376,6.841278076171876
7.847000000000008,7.512695312500001,-1.0406219482421877,6.724639892578126
7.855999999999966,7.314859008789063,-0.8489166259765626,6.794323730468751
7.86699999999999,6.767706298828125,-0.439337158203125,6.690994262695313
7.876000000000005,6.620413208007813,0.02930908203125,6.6980224609375005
7.886999999999972,7.254745483398438,0.487188720703125,6.590505981445313
7.897999999999996,7.866049194335938,0.9127685546875,6.266610717773438
7.907000000000011,8.015435791015626,1.21064453125,6.277526855468751
7.917000000000002,7.61497802734375,1.137371826171875,6.184365844726563
7.926999999999992,7.107302856445313,0.98155517578125,6.180029296875
7.936999999999983,6.934588623046875,0.8237945556640626,6.388632202148438
7.946999999999974,7.0942932128906255,0.4888336181640625,6.578244018554688
7.956999999999965,7.520620727539063,0.178546142578125,6.759481811523438
7.967000000000013,7.499237060546876,-0.2681182861328125,6.597982788085938
7.977000000000004,6.636563110351563,-0.5467041015625,5.532986450195313
7.986999999999995,6.161636352539063,-0.145648193359375,4.088018798828125
7.996999999999986,7.963696289062501,0.4487579345703125,5.619418334960938
8.006999999999984,8.840127563476564,0.740203857421875,7.9945007324218755
8.018,7.462301635742188,0.8366546630859376,8.750555419921875
8.027000000000015,6.268255615234375,-0.1040771484375,8.536419677734376
8.037999999999982,6.202011108398438,-1.0226776123046877,6.978103637695313
8.047999999999973,7.031039428710938,-1.1989807128906251,5.144491577148438
8.057999999999964,8.395257568359376,-0.7053619384765626,5.6771392822265625
8.068000000000012,9.3848876953125,0.3632232666015625,6.778472900390626
8.078000000000003,8.80169677734375,0.9362457275390624,6.660787963867188
8.087999999999994,7.581182861328125,0.5573211669921876,6.564187622070313
8.097999999999985,6.45816650390625,0.0677398681640625,6.345715332031251
8.107999999999976,6.154159545898438,0.0148040771484375,6.513644409179688
8.117999999999967,6.723892211914063,0.34512939453125,7.236352539062499
8.128000000000014,7.760028076171875,0.59635009765625,7.233212280273438
8.138000000000005,8.599673461914064,0.3937286376953125,6.825277709960938
8.147999999999996,8.327816772460938,-0.142657470703125,5.8740783691406255
8.162000000000006,7.552621459960938,-0.4442718505859375,5.2816162109375
8.169000000000011,7.09219970703125,-0.3584381103515625,5.626895141601563
8.179000000000002,6.9686828613281255,0.0031402587890625,5.925668334960938
8.188999999999993,7.426263427734375,0.4269256591796875,6.565234375
8.198999999999984,7.836590576171876,0.7029693603515625,6.846063232421876
8.208999999999975,7.6275390625,0.8022613525390626,6.594094848632813
8.218999999999966,7.065133666992188,0.681884765625,6.55626220703125
8.229000000000013,6.440072631835938,0.5908172607421875,6.385491943359376
8.239000000000004,6.338986206054688,0.6132476806640625,6.421380615234376
8.248999999999995,6.980197143554688,0.5613586425781251,6.742434692382813
8.261999999999972,7.785299682617188,0.40673828125,6.777725219726563
8.268999999999984,8.136111450195314,0.13577880859375,6.648226928710938
8.278999999999975,7.862011718750001,-0.2950347900390625,6.4677368164062505
8.289000000000016,7.240539550781251,-0.554779052734375,6.085073852539063
8.299999999999983,7.018179321289063,-0.544012451171875,6.021670532226563
8.309999999999974,7.252352905273438,-0.36546630859375,6.354537963867188
8.319999999999965,7.535125732421876,-0.0004486083984375,6.667816162109376
8.330000000000013,7.657147216796876,0.3378021240234375,7.0180297851562505
8.340000000000003,7.3963562011718755,0.3991119384765625,6.9779541015625
8.349999999999994,6.713424682617188,0.4475616455078125,6.0834289550781255
8.361999999999995,6.169262695312501,0.2546600341796875,4.454531860351563
8.369999999999976,7.281512451171875,0.5703308105468751,4.354043579101563
8.379999999999967,8.30523681640625,1.1938964843750002,6.090905761718751
8.390000000000015,7.307980346679688,1.4656036376953123,8.072109985351563
8.400000000000006,6.389828491210938,1.7014221191406251,9.410308837890623
8.409999999999997,7.284951782226563,1.32608642578125,8.8046875
8.419999999999987,7.915844726562501,-0.101385498046875,6.334051513671875
8.429999999999986,7.611837768554688,-1.361077880859375,4.498046875
8.439999999999976,7.631427001953125,-1.8697998046875,5.16617431640625
8.450999999999993,8.132821655273439,-1.794732666015625,6.685760498046876
8.46199999999996,8.599673461914064,-1.462762451171875,7.868890380859375
8.470999999999975,8.1168212890625,-1.0892211914062502,7.593594360351563
8.480999999999966,7.094891357421876,-0.29189453125,6.665274047851563
8.491000000000014,6.270947265625001,0.5890228271484376,6.325677490234376
8.501000000000005,6.432147216796875,1.215130615234375,6.1357666015625005
8.510999999999996,7.538265991210938,1.8567901611328128,6.355584716796876
8.52099999999998,8.692385864257814,2.174554443359375,6.463101196289063
8.530999999999985,8.546588134765626,1.9800079345703123,6.002828979492188
8.540999999999976,7.685559082031251,1.2930389404296876,5.727084350585938
8.551000000000016,6.775930786132813,0.447113037109375,5.7305236816406255
8.561999999999983,6.521719360351563,-0.041571044921875,5.996099853515625
8.570999999999998,7.007263183593751,-0.51260986328125,6.512896728515625
8.581999999999965,7.629632568359375,-1.072174072265625,6.818099975585938
8.59099999999998,7.961303710937501,-1.40145263671875,7.006515502929688
8.602000000000004,7.571014404296876,-1.328778076171875,6.878662109375001
8.611999999999995,6.813015747070313,-0.9351989746093752,6.658843994140626
8.621999999999986,6.337191772460938,-0.41571044921875,6.630581665039063
8.631999999999984,6.766510009765626,0.2382110595703125,6.413604736328126
8.641999999999975,7.781112670898438,1.0250701904296875,6.463998413085938
8.652000000000015,8.295367431640626,1.5675872802734376,6.415100097656251
8.662000000000006,7.856030273437501,1.7380584716796876,6.292330932617188
8.671999999999997,7.188650512695313,1.535586547851563,6.268255615234375
8.681999999999988,6.717013549804688,1.2438415527343751,6.151318359375001
8.691999999999986,6.784753417968751,0.7989715576171875,6.201263427734376
8.70199999999997,7.431945800781251,0.2307342529296875,6.623104858398438
8.71199999999996,7.807730102539063,-0.2630340576171875,6.79552001953125
8.722000000000008,7.801449584960938,-0.727642822265625,6.8822509765625
8.732999999999976,6.925765991210938,-1.1444000244140626,6.156402587890626
8.742999999999967,5.85643310546875,-1.0047332763671877,4.20316162109375
8.753000000000014,7.288391113281251,-0.406439208984375,4.2386016845703125
8.763000000000005,8.921026611328125,0.4759735107421875,7.3096252441406255
8.772999999999996,7.752102661132813,1.2840667724609376,8.715414428710938
8.78299999999998,6.313565063476563,1.0104156494140626,9.4159912109375
8.792999999999985,6.285900878906251,0.157012939453125,8.348004150390626
8.802999999999976,6.663180541992188,-0.4110748291015625,5.349057006835938
8.81299999999996,7.963995361328125,-0.4176544189453125,4.741192626953126
8.823000000000008,9.202902221679688,0.383709716796875,5.8920227050781255
8.832999999999998,9.2509033203125,1.0071258544921875,6.408370971679688
8.84299999999999,8.263964843750001,0.5782562255859376,7.163079833984376
8.85299999999998,6.78355712890625,-0.2322296142578125,6.695629882812501
8.864000000000004,5.962454223632813,-0.6787445068359376,6.537869262695313
8.873999999999995,6.181076049804688,-0.518890380859375,7.221249389648438
8.883999999999986,7.1182189941406255,-0.0216827392578125,7.141247558593751
8.893999999999984,8.590103149414062,0.273651123046875,6.988122558593751
8.903999999999975,8.995346069335938,0.096600341796875,6.001931762695313
8.914000000000016,8.163775634765626,-0.064599609375,5.21641845703125
8.924,7.222595214843751,0.0515899658203125,5.458367919921876
8.933999999999997,6.579141235351563,0.3864013671875,5.6517181396484375
8.943999999999988,6.969281005859376,0.8435333251953125,6.45457763671875
8.953999999999986,7.616024780273438,1.112847900390625,6.989468383789063
8.96399999999997,7.753448486328126,1.1147918701171875,6.806436157226563
8.973999999999961,7.315008544921875,0.7810272216796875,6.785501098632813
8.984000000000009,6.540261840820313,0.34453125,6.327621459960938
8.994,6.396707153320313,0.1317413330078125,6.233413696289063
9.00399999999999,6.973318481445313,-0.0695343017578125,6.516934204101563
9.013999999999982,7.732363891601563,-0.137872314453125,6.546093750000001
9.025000000000006,8.186206054687501,-0.2752960205078125,6.83499755859375
9.034999999999997,7.913900756835938,-0.5223297119140625,6.738546752929688
9.044999999999987,7.233959960937501,-0.5275634765625,6.422128295898438
9.054999999999986,6.895260620117188,-0.352008056640625,6.186907958984375
9.064999999999976,7.008010864257813,-0.00538330078125,6.177786254882813
9.07499999999996,7.469479370117188,0.4750762939453125,6.405529785156251
9.085000000000008,7.822235107421876,0.7059600830078125,6.732116699218751
9.095,7.648773193359376,0.8097381591796876,6.904531860351563
9.10499999999999,7.063937377929688,0.7766906738281251,6.4542785644531255
9.11499999999998,6.245974731445313,0.3766815185546875,5.198324584960938
9.124999999999972,6.459811401367188,0.356494140625,4.041064453125
9.134999999999962,8.273834228515625,0.8089904785156251,5.4359375000000005
9.14500000000001,8.271292114257813,0.8798706054687501,7.518826293945313
9.155999999999985,6.190048217773438,0.7469329833984375,8.804837036132813
9.165999999999976,5.911013793945313,0.9832000732421876,9.336737060546875
9.176000000000016,7.747616577148438,0.4406829833984375,7.770046997070313
9.186,8.907269287109376,-0.547003173828125,5.092602539062501
9.195999999999998,8.407519531250001,-1.4315093994140626,4.290341186523438
9.205999999999989,7.829113769531251,-1.6955902099609377,5.578594970703126
9.21599999999998,7.68436279296875,-1.50313720703125,7.156799316406251
9.22599999999997,7.4540771484375,-1.292291259765625,7.857974243164063
9.235999999999962,7.386337280273438,-0.490179443359375,7.832104492187501
9.24600000000001,6.981393432617188,0.712689208984375,6.821240234375001
9.256,6.716116333007813,1.441827392578125,6.253002929687501
9.265999999999991,7.1376586914062505,1.5723724365234375,6.078494262695313
9.275999999999982,7.957714843750001,1.5622039794921876,5.875125122070313
9.285999999999971,8.443557739257812,1.6857208251953126,6.026455688476563
9.295999999999964,8.1718505859375,1.4401824951171875,5.929257202148438
9.306999999999988,7.590304565429688,0.672314453125,6.021969604492188
9.316999999999986,6.938626098632813,-0.0892730712890625,6.175244140625001
9.32699999999997,6.648077392578125,-0.5498443603515626,6.408370971679688
9.33699999999996,6.996197509765626,-0.8813659667968751,6.785800170898438
9.347000000000008,7.426412963867188,-1.197784423828125,6.647628784179688
9.357,7.8599182128906255,-1.2163269042968752,6.560299682617188
9.36699999999999,7.737149047851563,-0.7322784423828126,6.6382080078125005
9.37699999999998,6.916345214843751,-0.1314422607421875,6.457119750976563
9.386999999999972,6.539364624023438,0.3509613037109375,6.68785400390625
9.396999999999965,6.892120361328126,0.7722045898437501,6.710882568359375
9.40700000000001,7.550527954101563,1.32010498046875,6.453680419921875
9.417000000000002,7.906723022460938,1.5577178955078126,6.488372802734376
9.426999999999992,7.670455932617188,1.41640625,6.206497192382813
9.43799999999996,7.301101684570313,1.0966979980468752,6.096139526367188
9.448000000000008,7.123602294921875,0.5815460205078126,6.302349853515626
9.457999999999998,7.132723999023438,0.1626953125,6.332406616210938
9.46799999999999,7.463497924804688,-0.21473388671875,6.581832885742188
9.47799999999998,7.332803344726563,-0.7212127685546875,6.472372436523438
9.487999999999971,6.4318481445312505,-0.661846923828125,5.01903076171875
9.497999999999962,7.248614501953125,-0.1401153564453125,4.900747680664063
9.50800000000001,8.128335571289064,0.1984344482421875,6.602020263671876
9.518,7.339682006835938,0.6129486083984376,7.677035522460938
9.527999999999992,6.701611328125001,0.5615081787109375,8.95362548828125
9.537999999999982,7.235006713867188,0.122021484375,8.703152465820313
9.547999999999972,7.422076416015625,-0.3458770751953125,6.316107177734375
9.561999999999983,7.603164672851563,-0.636724853515625,5.1627349853515625
9.568999999999988,7.997042846679688,-0.1296478271484375,5.1956329345703125
9.578999999999986,8.533578491210939,0.734222412109375,6.018978881835938
9.58899999999997,8.396005249023439,0.7177734375,7.099676513671875
9.59899999999996,7.49893798828125,0.1834808349609375,7.198370361328125
9.609000000000009,6.655703735351563,-0.2459869384765625,7.160537719726563
9.619,6.148776245117188,-0.31761474609375,6.893914794921876
9.62899999999999,6.661685180664063,-0.0705810546875,6.612487792968751
9.638999999999982,7.928106689453125,0.0067291259765625,6.467587280273438
9.648999999999972,8.758779907226563,0.081646728515625,6.064736938476563
9.662000000000006,8.507858276367188,0.0339447021484375,5.976361083984376
9.669000000000011,7.6595397949218755,-0.0620574951171875,6.0041748046875005
9.679000000000002,6.800454711914063,0.18004150390625,6.057110595703126
9.688999999999991,6.7040039062500005,0.4891326904296875,6.291732788085938
9.698999999999984,7.090554809570313,0.822149658203125,6.489718627929688
9.708999999999977,7.536172485351563,0.9965087890625,6.463101196289063
9.72,7.75015869140625,0.8270843505859375,6.5679260253906255
9.72999999999999,7.38828125,0.5447601318359375,6.460409545898438
9.73999999999998,6.937878417968751,0.3751861572265625,6.241638183593751
9.749999999999972,6.787893676757813,0.25301513671875,6.430053710937501
9.761999999999972,6.964346313476563,0.146246337890625,6.512149047851563
9.77000000000001,7.44151611328125,0.0234771728515625,6.772341918945313
9.78,7.726980590820313,-0.2002288818359375,6.809277343750001
9.789999999999992,7.612884521484376,-0.4116729736328125,6.683666992187501
9.799999999999985,7.4397216796875005,-0.4744781494140625,6.501531982421875
9.809999999999974,7.313812255859376,-0.321502685546875,6.140701293945313
9.819999999999965,7.348056030273438,-0.028411865234375,6.132028198242188
9.830000000000013,7.496246337890626,0.3617279052734375,6.3415283203125
9.840000000000003,7.502975463867188,0.5609100341796875,6.638507080078125
9.85099999999997,7.144537353515625,0.6329864501953125,6.574954223632813
9.861999999999997,6.309826660156251,0.52935791015625,5.24273681640625
9.87100000000001,6.948794555664063,0.7135864257812501,4.810726928710938
9.881,7.983584594726563,0.9969573974609376,5.901742553710938
9.890999999999991,7.4325439453125,1.1249603271484376,7.2886901855468755
9.900999999999982,6.341677856445313,1.3489654541015623,8.793173217773438
9.910999999999971,6.75125732421875,1.2448883056640625,8.675338745117188
9.920999999999964,8.216113281250001,0.4708892822265625,7.2483154296875005
9.931000000000012,8.489315795898438,-0.8231964111328126,5.259185791015625
9.941000000000004,7.685260009765625,-1.8220977783203127,4.512701416015625
9.950999999999992,7.748065185546875,-2.0478973388671875,6.133074951171875
9.960999999999984,7.953378295898438,-2.0484954833984377,7.281063842773438
9.970999999999975,7.863507080078126,-1.490725708007813,7.7890380859375
9.980999999999966,7.519125366210938,-0.49466552734375,7.581182861328125
9.991000000000014,6.779071044921875,0.5749664306640625,6.584674072265625
10.001000000000005,6.587066650390626,1.3151702880859375,6.228927612304688
10.010999999999996,7.091152954101563,1.605419921875,5.971875000000001
10.021999999999965,8.154953002929688,2.0649444580078127,6.033932495117188
10.03200000000001,8.54090576171875,2.2213592529296875,6.150720214843751
10.042000000000002,7.990164184570313,1.65865478515625,5.911462402343751
10.051999999999992,7.260726928710938,0.8336639404296876,6.0783447265625
10.061999999999983,6.711929321289063,-0.0288604736328125,6.119915771484376
10.071999999999974,6.71536865234375,-0.5336944580078126,6.362911987304688
10.081999999999963,7.331607055664063,-1.08204345703125,6.6815734863281255
10.092000000000011,7.785897827148438,-1.594354248046875,6.606506347656251
10.102000000000004,7.905825805664063,-1.4246307373046876,6.616973876953126
10.111999999999997,7.520022583007813,-0.9159088134765626,6.560150146484376
10.121999999999986,6.810922241210938,-0.364569091796875,6.600524902343751
10.131999999999984,6.409716796875,0.1975372314453125,6.649423217773438
10.141999999999976,6.86490478515625,0.890936279296875,6.738098144531251
10.152000000000015,7.600772094726563,1.6294952392578126,6.63701171875
10.162999999999982,7.907171630859375,1.9006042480468752,6.4133056640625
10.172999999999972,7.7058959960937505,1.5708770751953127,6.255844116210938
10.182999999999964,7.283306884765626,1.1635406494140623,6.0041748046875005
10.193000000000012,7.04674072265625,0.7819244384765626,6.006866455078125
10.203000000000005,7.216613769531251,0.2950347900390625,6.355435180664063
10.212999999999994,7.527798461914063,-0.2675201416015625,6.601123046875
10.222999999999985,7.537368774414063,-0.7050628662109375,6.72733154296875
10.232999999999976,6.707742309570313,-0.8901885986328125,5.824581909179688
10.242999999999968,6.577496337890626,-0.52935791015625,4.936935424804688
10.253000000000014,7.956069946289063,-0.137872314453125,6.2841064453125
10.263000000000003,7.622454833984375,0.350213623046875,7.011599731445313
10.272999999999996,6.404183959960938,0.7621856689453126,7.748962402343751
10.28299999999998,6.965093994140625,0.7668212890625,8.823678588867189
10.292999999999983,7.792477416992188,0.353802490234375,7.39725341796875
10.304000000000002,7.954275512695313,-0.165386962890625,5.672055053710938
10.313999999999991,7.825375366210938,-0.3031097412109375,5.530892944335938
10.323999999999984,7.891021728515626,0.143255615234375,5.739346313476563
10.333999999999977,8.198916625976564,0.3288299560546875,6.64598388671875
10.343999999999966,8.02410888671875,-0.15611572265625,7.024908447265625
10.354000000000012,7.504470825195313,-0.4436737060546875,6.850848388671875
10.364000000000004,6.8909240722656255,-0.4975067138671875,6.995150756835938
10.373999999999995,6.3825012207031255,-0.36068115234375,6.672302246093751
10.383999999999986,6.959860229492188,-0.0524871826171875,6.569421386718751
10.393999999999984,7.964593505859375,0.149237060546875,6.53592529296875
10.403999999999977,8.431744384765626,0.4041961669921875,6.0360260009765625
10.414000000000016,8.272488403320313,0.4753753662109375,5.9762115478515625
10.424,7.524060058593751,0.478216552734375,5.871685791015626
10.434999999999974,6.842324829101563,0.64539794921875,5.870639038085938
10.444999999999965,6.823333740234376,0.7681671142578126,6.301751708984376
10.455000000000013,7.1873046875,0.8363555908203125,6.37681884765625
10.465000000000003,7.602566528320313,0.7731018066406251,6.498690795898438
10.474999999999994,7.67598876953125,0.4628143310546875,6.727630615234376
10.484999999999983,7.152313232421876,0.2166778564453125,6.649871826171876
10.494999999999976,6.633572387695313,0.058319091796875,6.67947998046875
10.504999999999969,6.605160522460938,-0.166583251953125,6.66153564453125
10.515000000000017,7.263568115234375,-0.1861724853515625,6.588861083984376
10.525000000000006,7.887881469726563,-0.2115936279296875,6.525756835937501
10.534999999999997,8.008258056640626,-0.26856689453125,6.531439208984375
10.544999999999987,7.62813720703125,-0.1891632080078125,6.426913452148438
10.554999999999986,7.187005615234376,-0.0466552734375,6.258834838867188
10.564999999999976,7.094143676757813,0.1649383544921875,6.337789916992188
10.57499999999996,7.212277221679688,0.515301513671875,6.316555786132813
10.585999999999984,7.467385864257813,0.720465087890625,6.599478149414063
10.595999999999975,7.425665283203125,0.7255493164062501,6.8044921875
10.605999999999966,6.489120483398438,0.390887451171875,5.652166748046875
10.616000000000014,6.558056640625001,0.0485992431640625,4.832559204101563
10.626000000000005,7.767056274414063,0.35230712890625,5.488424682617188
10.635999999999996,7.804440307617188,0.7925415039062501,6.670208740234376
10.64599999999998,6.563888549804688,1.0518371582031252,8.186953735351564
10.655999999999985,6.888681030273438,1.4232849121093751,9.1719482421875
10.665999999999976,8.024557495117188,0.8321685791015626,7.839730834960938
10.676000000000016,8.15211181640625,-0.5854339599609375,5.499041748046875
10.686,7.42476806640625,-1.5916625976562502,4.762875366210938
10.695999999999998,7.5608459472656255,-1.6416076660156251,5.744131469726563
10.705999999999989,8.25379638671875,-1.1868682861328126,7.32188720703125
10.71599999999998,8.352938842773439,-0.7686157226562501,7.730120849609375
10.727000000000004,7.808627319335938,-0.3246429443359375,7.010702514648438
10.736999999999997,6.963299560546876,0.2089019775390625,6.319696044921876
10.746999999999986,6.225039672851563,0.7070068359375,6.222497558593751
10.756999999999984,6.594094848632813,1.20526123046875,6.319097900390625
10.766999999999976,7.94814453125,1.7317779541015623,6.554168701171876
10.777000000000015,8.748760986328126,1.923483276367188,6.318499755859375
10.787000000000006,8.410061645507813,1.4778656005859376,5.819049072265625
10.796999999999995,7.457965087890625,0.665435791015625,5.698373413085938
10.806999999999988,6.645385742187501,-0.01256103515625,5.7833099365234375
10.816999999999986,6.586767578125,-0.3404937744140625,6.273788452148438
10.82699999999997,7.203305053710938,-0.5939575195312501,6.630581665039063
10.83699999999996,7.798458862304688,-0.8915344238281251,6.895260620117188
10.847000000000008,7.846310424804688,-0.99471435546875,6.975262451171876
10.857,7.251156616210938,-0.8151214599609375,6.725088500976563
10.867999999999968,6.613534545898438,-0.5161987304687501,6.681423950195313
10.878000000000014,6.490765380859376,-0.097796630859375,6.576300048828125
10.888000000000003,7.128536987304688,0.5671905517578125,6.443661499023438
10.897999999999996,8.015286254882813,1.1835784912109375,6.433792114257813
10.90799999999998,8.157644653320313,1.442724609375,6.294723510742188
10.917999999999983,7.621258544921876,1.2625335693359376,6.241787719726563
10.927999999999976,6.988122558593751,0.9401336669921876,6.3466125488281255
10.93799999999996,6.741836547851563,0.7576995849609376,6.269302368164063
10.948000000000008,7.069619750976563,0.45758056640625,6.436782836914063
10.957999999999998,7.642193603515626,-0.022430419921875,6.737500000000001
10.96799999999999,7.752999877929688,-0.3533538818359375,6.72972412109375
10.97799999999998,7.029544067382813,-0.7091003417968751,5.966940307617188
10.989000000000004,6.2314697265625005,-0.8279815673828126,4.716070556640625
10.998999999999995,7.693484497070313,-0.4246826171875,5.40543212890625
11.008999999999986,8.506063842773438,0.042169189453125,7.122406005859376
11.018999999999984,6.955374145507813,0.327783203125,7.858572387695313
11.028999999999977,6.279171752929688,0.5722747802734376,8.784500122070312
11.039000000000016,6.989169311523438,0.2965301513671875,7.9705749511718755
11.049,7.556658935546875,-0.1511810302734375,5.833255004882813
11.058999999999996,8.051922607421876,0.00059814453125,5.604763793945313
11.068999999999988,8.268002319335938,0.5324981689453125,5.660092163085938
11.078999999999986,8.340377807617188,1.1046234130859376,6.033334350585938
11.08899999999997,8.050726318359375,0.9102264404296876,6.725686645507813
11.09899999999996,7.304241943359376,0.332568359375,6.646432495117188
11.109000000000009,6.736154174804688,0.0785064697265625,7.135116577148438
11.119,6.3176025390625,-0.133685302734375,7.275979614257813
11.129999999999969,6.860119628906251,-0.2857635498046875,7.0045715332031255
11.138999999999982,8.156597900390626,-0.3931304931640625,6.601422119140626
11.150000000000006,8.71915283203125,-0.3967193603515625,5.676242065429688
11.159999999999997,8.371630859375001,-0.284716796875,5.593997192382813
11.169999999999987,7.584173583984375,-0.2181732177734375,5.89232177734375
11.179999999999986,6.923074340820313,0.173760986328125,6.061148071289063
11.189999999999976,6.858624267578126,0.705810546875,6.489569091796875
11.19999999999996,7.204351806640625,1.0467529296875,6.654656982421876
11.210000000000008,7.530789184570313,1.1662322998046877,6.510653686523438
11.22,7.4564697265625,0.98394775390625,6.39237060546875
11.22999999999999,7.057058715820313,0.7436431884765625,6.3558837890625
11.23999999999998,6.734060668945313,0.5241241455078125,6.5090087890625
11.249999999999972,6.711630249023438,0.1069183349609375,6.639404296875001
11.259999999999962,7.257885742187501,-0.2356689453125,6.879708862304688
11.27000000000001,7.770645141601563,-0.502142333984375,6.801052856445313
11.28,7.834197998046876,-0.5935089111328126,6.571514892578126
11.290999999999976,7.618716430664063,-0.65496826171875,6.485830688476563
11.301000000000016,7.306335449218751,-0.5151519775390625,6.0654846191406255
11.311,7.301849365234376,-0.2005279541015625,6.092401123046876
11.320999999999998,7.3948608398437505,0.2029205322265625,6.468185424804688
11.330999999999989,7.406375122070313,0.6928009033203125,6.593945312500001
11.34099999999998,7.462152099609375,0.9254791259765626,6.96300048828125
11.35099999999997,6.806286621093751,0.8037567138671876,6.238796997070313
11.360999999999962,6.175692749023438,0.56763916015625,4.759884643554688
11.37100000000001,7.446450805664063,0.7644287109375001,5.084677124023438
11.381,8.121905517578126,0.8800201416015626,6.196478271484375
11.390999999999991,6.731069946289063,0.75904541015625,7.459161376953125
11.402000000000015,6.441119384765625,1.026116943359375,9.122451782226562
11.410999999999971,7.904779052734375,0.7910461425781251,8.455819702148439
11.420999999999964,8.593093872070312,-0.4678985595703125,6.160290527343751
11.431999999999988,7.796813964843751,-1.651177978515625,5.032937622070313
11.441999999999986,7.03238525390625,-1.878173828125,5.191445922851563
11.45199999999997,7.404879760742188,-1.230532836914063,6.744079589843751
11.46199999999996,8.230618286132813,-0.7002777099609375,7.905078125
11.472000000000008,8.320788574218751,-0.2151824951171875,7.509854125976563
11.482,7.597781372070313,0.504833984375,6.678134155273438
11.49199999999999,6.429156494140625,1.0483978271484375,6.143392944335938
11.50199999999998,6.282611083984375,1.31771240234375,5.8849945068359375
11.511999999999972,7.354187011718751,1.53663330078125,6.16806640625
11.521999999999965,8.572607421875,1.791741943359375,6.354986572265625
11.53200000000001,8.694778442382812,1.5626525878906252,6.275881958007813
11.542000000000002,7.862460327148438,0.729437255859375,6.157150268554688
11.551999999999992,6.821539306640625,-0.2080047607421875,6.088064575195313
11.56299999999996,6.413455200195313,-0.694744873046875,6.245675659179688
11.573000000000008,6.869390869140625,-0.8910858154296876,6.335546875
11.582999999999998,7.745223999023438,-1.0726226806640626,6.378912353515625
11.59299999999999,8.247964477539064,-1.0911651611328126,6.645236206054688
11.60299999999998,7.845114135742188,-0.7457366943359376,6.71177978515625
11.612999999999971,7.035824584960938,-0.192901611328125,6.697872924804688
11.622999999999962,6.287994384765626,0.1876678466796875,6.7309204101562505
11.63300000000001,6.387136840820313,0.6401641845703125,6.578842163085938
11.643,7.28121337890625,1.2149810791015625,6.606207275390625
11.652999999999992,7.964593505859375,1.6051208496093752,6.4527832031250005
11.662999999999982,7.944854736328126,1.5903167724609375,6.339285278320313
11.672999999999972,7.5258544921875,1.0696319580078126,6.309078979492188
11.682999999999964,7.094741821289063,0.5770599365234376,6.061746215820313
11.693999999999988,7.033731079101563,0.2136871337890625,6.132925415039063
11.703999999999986,7.35478515625,-0.270660400390625,6.451138305664063
11.71399999999997,7.488021850585938,-0.6347808837890625,6.624450683593751
11.72399999999996,6.844567871093751,-0.6724639892578126,5.835348510742188
11.734000000000009,6.474615478515625,-0.2776885986328125,4.95323486328125
11.744,7.848553466796876,0.2740997314453125,6.19498291015625
11.75399999999999,8.087362670898438,0.49586181640625,7.61318359375
11.763999999999982,6.693685913085938,0.5706298828125,7.822384643554688
11.773999999999972,6.792230224609376,0.3856536865234375,8.259628295898438
11.783999999999963,7.6804748535156255,0.06878662109375,7.102667236328125
11.794000000000011,7.744775390625,-0.260491943359375,5.314215087890625
11.804000000000002,7.826272583007813,-0.1173858642578125,5.828619384765625
11.813999999999991,7.9556213378906255,0.424383544921875,6.3825012207031255
11.823999999999984,8.015585327148438,0.47313232421875,6.746173095703125
11.835000000000008,7.910461425781251,-0.2606414794921875,7.192089843750001
11.845,7.269100952148438,-0.729736328125,6.469830322265626
11.85499999999999,6.940121459960938,-0.5117126464843751,6.68187255859375
11.86499999999998,6.82901611328125,-0.26497802734375,6.779370117187501
11.874999999999972,7.2626708984375,0.050543212890625,6.385641479492188
11.884999999999962,8.161831665039063,0.1682281494140625,6.664227294921876
11.89500000000001,8.161233520507814,0.2806793212890625,6.165225219726563
11.905,7.724887084960938,0.5199371337890626,5.953631591796875
11.914999999999992,7.367645263671876,0.4948150634765625,6.1671691894531255
11.924999999999985,6.961056518554688,0.6639404296875,5.940621948242188
11.934999999999974,7.063339233398438,0.9414794921875,6.137860107421876
11.944999999999965,7.462152099609375,0.90439453125,6.349453735351563
11.955000000000013,7.687802124023438,0.6945953369140625,6.410464477539063
11.965000000000003,7.467684936523438,0.36845703125,6.543402099609375
11.977000000000004,6.996945190429688,0.1081146240234375,6.599926757812501
11.985999999999962,6.738397216796876,0.0225799560546875,6.710433959960938
11.99600000000001,6.740640258789063,-0.1308441162109375,6.735556030273438
12.006,7.241885375976563,-0.2595947265625,6.754995727539063
12.015999999999991,7.774234008789063,-0.24942626953125,6.648376464843751
12.025999999999982,7.823431396484375,-0.1813873291015625,6.414352416992188
12.035999999999971,7.616473388671875,-0.1954437255859375,6.345864868164063
12.045999999999964,7.375869750976563,-0.081646728515625,6.225039672851563
12.056000000000012,7.251007080078126,0.294287109375,6.145785522460938
12.066000000000004,7.358822631835938,0.5834899902343751,6.466091918945313
12.07699999999997,7.372879028320313,0.7762420654296875,6.659292602539063
12.085999999999984,7.263119506835938,0.7672698974609375,6.712527465820313
12.095999999999975,6.66392822265625,0.42408447265625,6.002230834960938
12.105999999999966,6.384744262695313,0.200677490234375,4.774539184570313
12.11699999999999,7.591650390625,0.423785400390625,5.205502319335938
12.12699999999998,8.231066894531251,0.6581085205078125,6.928607177734375
12.136999999999972,6.672302246093751,0.9087310791015626,7.818197631835938
12.146999999999965,6.474615478515625,1.2320281982421877,8.6790771484375
12.15700000000001,8.015585327148438,0.8984130859375,8.052520751953125
12.167000000000002,8.383593750000001,-0.240753173828125,5.629885864257813
12.176999999999992,7.50791015625,-1.4117706298828123,4.9418701171875
12.186999999999983,7.378860473632813,-1.7549560546875,6.317453002929688
12.196999999999974,7.735952758789063,-1.5071746826171877,7.086666870117188
12.206999999999963,8.31361083984375,-1.1541198730468751,7.682269287109375
12.217000000000011,8.090802001953126,-0.643902587890625,7.005169677734376
12.227000000000004,7.4205810546875,0.2645294189453125,6.016885375976563
12.236999999999997,6.5798889160156255,0.8596832275390626,6.222647094726563
12.247999999999962,6.44560546875,1.1393157958984377,6.237899780273438
12.25800000000001,7.466937255859375,1.6489349365234376,6.672750854492188
12.268,8.4039306640625,1.9580261230468752,6.628936767578126
12.277999999999992,8.287591552734376,1.75435791015625,6.018231201171876
12.287999999999982,7.649072265625,0.9476104736328126,5.907723999023438
12.297999999999972,6.853390502929688,0.1670318603515625,5.65067138671875
12.307999999999964,6.6815734863281255,-0.285614013671875,6.0520263671875005
12.318000000000012,7.230969238281251,-0.719268798828125,6.522018432617188
12.328000000000005,7.709783935546875,-1.089968872070313,6.5365234375000005
12.337999999999994,8.1048583984375,-1.2027191162109376,6.844717407226563
12.347999999999985,7.568621826171875,-1.0089202880859376,6.830810546875001
12.357999999999976,6.535476684570313,-0.5025909423828125,6.692938232421875
12.367999999999968,6.129037475585938,-0.07955322265625,6.887335205078125
12.378000000000014,6.708190917968751,0.5330963134765625,6.675292968750001
12.388999999999982,7.798757934570313,1.3123291015625,6.406576538085938
12.398999999999972,8.336489868164064,1.6233642578125,6.392669677734376
12.408999999999963,7.918835449218751,1.5541290283203126,6.0849243164062505
12.419000000000011,7.270895385742188,1.2341217041015626,6.019277954101563
12.429000000000002,6.896606445312501,0.7500732421875,6.192739868164063
12.438999999999991,6.885540771484376,0.3557464599609375,6.323434448242188
12.448999999999984,7.402188110351563,-0.0805999755859375,6.724490356445313
12.458999999999977,7.754196166992188,-0.5501434326171876,7.063040161132813
12.468999999999966,7.567425537109376,-0.8321685791015626,6.920233154296875
12.479000000000012,6.716714477539063,-0.96600341796875,6.042306518554688
12.489000000000004,5.939126586914063,-0.548797607421875,4.094448852539063
12.498999999999995,7.982388305664063,0.278436279296875,4.9713287353515625
12.508999999999986,8.649020385742189,1.04376220703125,6.898251342773438
12.518999999999984,6.785800170898438,1.49835205078125,7.886984252929688
12.53,6.3047424316406255,1.30634765625,9.73719482421875
12.539999999999992,7.137060546875,0.37862548828125,8.54449462890625
12.549999999999985,7.484133911132813,-0.526068115234375,5.397656250000001
12.559999999999974,7.883245849609375,-0.887945556640625,4.990618896484375
12.569999999999965,8.321835327148438,-0.3122314453125,5.172454833984375
12.580000000000013,8.769396972656251,0.296380615234375,6.413604736328126
12.590000000000003,8.440567016601562,-0.2086029052734375,7.539013671875001
12.599999999999994,7.276577758789063,-0.7968780517578126,7.025057983398438
12.610999999999962,6.493157958984376,-0.7873077392578126,7.005917358398438
12.619999999999976,6.0233154296875,-0.270361328125,6.845465087890625
12.629999999999969,6.759182739257813,0.3781768798828125,6.475961303710938
12.640000000000017,8.302096557617189,0.616986083984375,6.664974975585938
12.650000000000006,8.929251098632813,0.6884643554687501,5.93778076171875
12.659999999999997,8.393014526367189,0.678594970703125,5.669512939453125
12.669999999999987,7.404132080078125,0.49227294921875,5.825927734375
12.681000000000012,6.5499816894531255,0.5184417724609376,5.731869506835938
12.691000000000004,6.68785400390625,0.660650634765625,6.238198852539063
12.700999999999992,7.286447143554688,0.752166748046875,6.624301147460938
12.710999999999984,7.651763916015626,0.7182220458984375,6.756341552734376
12.720999999999975,7.660137939453126,0.337054443359375,6.890475463867188
12.730999999999966,7.055413818359376,-0.0755157470703125,6.647927856445313
12.741000000000014,6.578543090820313,-0.136376953125,6.498989868164063
12.751000000000005,6.595590209960938,-0.1727142333984375,6.537869262695313
12.760999999999996,7.405178833007813,-0.165087890625,6.524411010742188
12.77099999999998,8.048333740234376,-0.10706787109375,6.549533081054688
12.78200000000001,8.075698852539062,-0.083441162109375,6.529345703125
12.790999999999976,7.557855224609375,-0.00777587890625,6.542953491210938
12.801999999999992,7.01085205078125,0.1123016357421875,6.270349121093751
12.81299999999996,6.945953369140626,0.2651275634765625,6.173599243164063
12.821999999999974,7.274783325195313,0.50662841796875,6.38878173828125
12.831999999999963,7.568472290039063,0.771307373046875,6.552523803710938
12.842000000000011,7.630081176757813,0.74708251953125,6.921728515625
12.852000000000004,7.222445678710938,0.504833984375,6.508859252929688
12.861999999999997,6.187954711914063,0.04725341796875,5.032937622070313
12.871999999999986,6.591702270507813,-0.17406005859375,4.324136352539063
12.881999999999984,7.818795776367188,0.2465850830078125,5.481396484375001
12.891999999999976,7.909115600585938,0.7364654541015625,7.560098266601563
12.902999999999992,7.026553344726563,1.1623443603515626,9.121554565429689
12.912999999999982,7.113882446289063,1.378125,9.237295532226565
12.922999999999972,7.463198852539063,0.6196777343750001,7.349102783203126
12.932999999999964,7.427609252929688,-0.6314910888671875,4.970281982421875
12.943000000000012,7.744775390625,-1.4291168212890626,4.762875366210938
12.953000000000005,8.620010375976562,-1.627850341796875,6.127691650390625
12.962999999999994,8.900390625,-1.4721832275390625,7.216613769531251
12.972999999999985,8.079736328125001,-1.05692138671875,7.435235595703125
12.982999999999976,6.975411987304688,-0.407635498046875,6.94864501953125
12.992999999999968,6.055615234375001,0.3744384765625,6.536373901367188
13.003000000000014,6.196179199218751,0.9377410888671877,6.4124084472656255
13.013000000000003,7.3679443359375005,1.4721832275390625,6.532635498046876
13.022999999999996,8.639898681640625,1.928268432617188,6.4527832031250005
13.03299999999998,8.703900146484376,1.855593872070313,5.957369995117188
13.044000000000011,7.941116333007813,1.3118804931640626,5.516238403320313
13.054000000000002,7.019525146484376,0.6555664062500001,5.405880737304688
13.063999999999991,6.608599853515625,0.102880859375,5.833255004882813
13.073999999999984,6.7817626953125005,-0.264080810546875,6.5712158203125
13.083999999999977,7.266857910156251,-0.6715667724609375,7.064236450195313
13.093999999999966,7.733111572265625,-1.0642486572265626,7.350299072265625
13.104000000000012,7.605108642578125,-1.1426055908203123,7.097433471679688
13.114000000000004,6.941168212890625,-0.8762817382812501,6.546691894531251
13.123999999999995,6.594244384765625,-0.5034881591796876,6.4064270019531255
13.133999999999986,6.979598999023438,0.06519775390625,6.152813720703126
13.143999999999984,7.804141235351563,0.7391571044921875,6.193786621093751
13.153999999999977,8.289535522460938,1.19329833984375,6.494952392578125
13.164999999999992,7.818646240234376,1.370648193359375,6.437829589843751
13.174,7.122256469726563,1.308441162109375,6.456671142578125
13.184999999999974,6.648526000976563,1.0524353027343751,6.433792114257813
13.194999999999965,6.699368286132813,0.8200561523437501,6.341079711914063
13.205000000000013,7.393066406250001,0.404345703125,6.5021301269531255
13.215000000000003,7.877264404296875,-0.086431884765625,6.557907104492188
13.224999999999994,7.379458618164063,-0.410626220703125,5.929107666015625
13.234999999999983,6.470877075195313,-0.5319000244140626,4.733566284179688
13.244999999999976,7.523013305664063,-0.288006591796875,5.33963623046875
13.254999999999969,8.008258056640626,0.1323394775390625,6.859820556640625
13.265000000000017,6.839483642578125,0.2758941650390625,7.832553100585938
13.275000000000006,6.5305419921875005,0.32957763671875,9.181369018554689
13.284999999999997,7.287792968750001,0.0533843994140625,8.429501342773438
13.294999999999987,7.765560913085938,-0.4227386474609375,6.055017089843751
13.304999999999986,8.015585327148438,-0.46416015625,5.219110107421876
13.314999999999976,8.094241333007814,0.0653472900390625,5.033685302734376
13.325999999999992,8.373275756835938,0.70401611328125,5.99639892578125
13.335999999999984,8.2125244140625,0.488983154296875,7.143191528320313
13.345999999999975,7.323681640625001,0.045458984375,7.1301818847656255
13.355999999999966,6.704153442382813,-0.078057861328125,7.404132080078125
13.366000000000014,6.262423706054688,-0.0704315185546875,7.06827392578125
13.376000000000005,6.708489990234376,0.0829925537109375,6.446353149414063
13.385999999999996,8.053717041015625,-0.000897216796875,6.344967651367188
13.39599999999998,8.729769897460939,-0.0363372802734375,5.879312133789063
13.405999999999985,8.440716552734376,0.0162994384765625,5.7708984375000005
13.415999999999976,7.66103515625,-0.0363372802734375,6.03587646484375
13.426000000000016,6.927410888671876,0.1706207275390625,6.069522094726563
13.436999999999983,6.732266235351563,0.5728729248046875,6.350201416015626
13.445999999999998,7.0114501953125,0.8694030761718751,6.477606201171875
13.455999999999989,7.4935546875,0.9784149169921876,6.532186889648438
13.467000000000011,7.598529052734375,0.7687652587890625,6.510653686523438
13.477000000000004,7.295419311523438,0.5311523437500001,6.468933105468751
13.486999999999997,6.913952636718751,0.41810302734375,6.560299682617188
13.496999999999986,6.711181640625001,0.2732025146484375,6.483587646484375
13.506999999999984,7.087414550781251,0.063104248046875,6.650918579101563
13.516999999999976,7.641445922851563,-0.189312744140625,6.766360473632813
13.527000000000015,7.757485961914063,-0.3392974853515625,6.583627319335938
13.537000000000006,7.663726806640626,-0.461468505859375,6.573757934570313
13.546999999999995,7.383197021484375,-0.517095947265625,6.3825012207031255
13.556999999999988,7.216763305664063,-0.2343231201171875,6.135916137695313
13.566999999999986,7.405178833007813,0.1374237060546875,6.375622558593751
13.57699999999997,7.452731323242188,0.503936767578125,6.4216796875
13.587999999999994,7.423721313476563,0.76502685546875,6.673648071289063
13.597999999999985,6.970776367187501,0.6168365478515625,6.4886718750000005
13.607999999999976,6.229974365234376,0.456982421875,4.898504638671875
13.617999999999968,7.390972900390626,0.8471221923828126,5.224942016601563
13.628000000000014,8.149569702148439,0.94267578125,6.376220703125001
13.638000000000003,6.506167602539063,0.8840576171875001,6.961953735351563
13.647999999999996,5.9283599853515625,1.2224578857421875,8.713021850585939
13.65799999999998,7.695129394531251,1.0428649902343752,8.798257446289064
13.667999999999983,8.944503784179688,0.019439697265625,6.656750488281251
13.677999999999976,8.443856811523439,-1.3127777099609377,5.232269287109375
13.68799999999996,7.340130615234376,-1.9586242675781247,5.137612915039063
13.698000000000008,7.235604858398438,-1.579400634765625,6.155804443359376
13.707999999999998,7.884591674804688,-1.4132659912109375,7.544696044921875
13.71799999999999,8.187252807617188,-0.9404327392578126,7.624398803710938
13.72799999999998,7.870684814453125,0.0177947998046875,7.031188964843751
13.737999999999971,6.802548217773438,0.83082275390625,6.504672241210938
13.748999999999995,6.271545410156251,1.3120300292968752,6.130831909179688
13.758999999999986,6.995001220703125,1.6000366210937502,6.134869384765626
13.768999999999984,8.205346679687501,1.992718505859375,6.006118774414063
13.778999999999977,8.626141357421876,2.0528320312500004,5.84088134765625
13.789000000000016,8.197720336914063,1.31591796875,5.933145141601563
13.799,7.198669433593751,0.3892425537109375,5.972772216796876
13.808999999999996,6.5592529296875,-0.291595458984375,6.23924560546875
13.818999999999988,6.606506347656251,-0.6944458007812501,6.5783935546875005
13.828999999999986,7.114929199218751,-1.0774078369140625,6.527999877929688
13.84099999999998,7.999884033203125,-1.3266845703125,6.873577880859376
13.84899999999996,7.992108154296876,-1.23397216796875,6.898849487304688
13.859000000000009,7.0138427734375,-0.7690643310546875,6.725238037109375
13.869,6.361865234375,-0.2883056640625,6.975112915039063
13.879999999999969,6.630432128906251,0.3207550048828125,6.530841064453125
13.890000000000017,7.571762084960938,1.0652954101562502,6.180328369140626
13.900000000000006,8.244076538085938,1.5284088134765623,6.252255249023438
13.909999999999997,7.933041381835938,1.6843750000000002,6.105560302734375
13.919999999999987,7.359121704101563,1.5215301513671875,6.359024047851563
13.929999999999986,6.833651733398438,1.0584167480468751,6.420632934570313
13.939999999999976,6.788641357421875,0.7053619384765626,6.324780273437501
13.94999999999996,7.341925048828125,0.1822845458984375,6.620712280273438
13.960000000000008,7.712625122070313,-0.4732818603515625,6.737948608398438
13.97,7.402487182617188,-0.8481689453125001,6.449044799804688
13.97999999999999,6.357379150390625,-0.874188232421875,5.193389892578125
13.98999999999998,6.829165649414063,-0.3811676025390625,4.3776702880859375
13.999999999999972,8.576196289062501,0.245538330078125,6.531738281250001
14.009999999999962,7.982238769531251,0.5586669921875,7.884292602539063
14.02099999999998,6.405828857421875,0.657659912109375,8.620608520507814
14.030999999999985,6.477905273437501,0.335858154296875,8.785397338867188
14.040999999999976,7.025506591796876,-0.1758544921875,6.50601806640625
14.051000000000016,7.725186157226563,-0.32718505859375,4.97716064453125
14.061,8.475259399414064,0.0861328125,5.525808715820313
14.070999999999998,8.686404418945314,0.8306732177734376,6.23984375
14.080999999999989,8.356677246093751,0.6208740234375001,7.120910644531251
14.09099999999998,7.439871215820313,-0.2651275634765625,6.971224975585938
14.10099999999997,6.711032104492188,-0.6724639892578126,6.515139770507813
14.114000000000004,6.540261840820313,-0.5845367431640626,6.908419799804688
14.12100000000001,6.744229125976563,-0.2136871337890625,6.814959716796875
14.131,7.782159423828125,0.060113525390625,6.839633178710938
14.140999999999991,8.62763671875,0.063104248046875,6.579440307617188
14.150999999999982,8.285348510742189,0.11484375,5.6053619384765625
14.160999999999971,7.686456298828125,0.2121917724609375,5.602520751953126
14.171999999999995,7.057208251953125,0.3213531494140625,5.725738525390625
14.181999999999988,6.826324462890626,0.7120910644531251,5.994155883789063
14.191999999999986,7.257138061523438,1.073968505859375,6.652713012695313
14.20199999999997,7.565481567382813,1.1032775878906251,6.664974975585938
14.21399999999997,7.491610717773438,0.8451782226562501,6.604263305664063
14.222000000000008,7.09459228515625,0.4341033935546875,6.57420654296875
14.232,6.653909301757813,0.228790283203125,6.512896728515625
14.24199999999999,6.5858703613281255,0.1495361328125,6.648825073242188
14.25199999999998,7.092947387695313,-0.0650482177734375,6.688601684570313
14.261999999999972,7.869039916992188,-0.2715576171875,6.764715576171875
14.271999999999965,8.068820190429689,-0.43604736328125,6.554916381835938
14.28200000000001,7.712924194335938,-0.5244232177734376,6.293826293945313
14.292999999999983,7.328317260742188,-0.44681396484375,6.238198852539063
14.302999999999976,7.068124389648438,-0.111553955078125,6.143991088867188
14.313999999999991,7.251754760742188,0.299969482421875,6.445455932617188
14.323000000000008,7.504769897460938,0.6569122314453125,6.729125976562501
14.332999999999998,7.478152465820313,0.8933288574218751,6.761575317382813
14.34299999999999,7.304541015625,0.7867095947265625,6.786398315429688
14.35299999999998,6.744079589843751,0.59754638671875,6.047689819335938
14.362999999999971,6.080438232421876,0.2699127197265625,4.268209838867188
14.372999999999962,7.023712158203126,0.2761932373046875,4.107757568359375
14.38300000000001,8.684310913085938,0.8695526123046876,6.478054809570313
14.393,7.908367919921876,1.3609283447265623,8.629580688476564
14.402999999999992,6.560299682617188,1.3549468994140623,9.71192321777344
14.414000000000016,6.672601318359376,0.8525054931640625,8.785397338867188
14.422999999999972,7.316055297851563,-0.45458984375,5.847760009765626
14.433999999999996,7.672998046875,-1.76871337890625,4.09190673828125
14.443999999999988,8.509353637695312,-2.126852416992188,5.423226928710938
14.453999999999986,8.765359497070314,-1.806695556640625,6.853091430664063
14.46399999999997,8.423669433593751,-1.0986419677734376,7.9795471191406255
14.47399999999996,7.30155029296875,-0.5722747802734376,7.470376586914063
14.484000000000009,6.573608398437501,0.1568634033203125,6.267208862304688
14.494,6.388931274414063,0.95404052734375,6.343173217773438
14.50399999999999,6.762921142578126,1.4690429687500002,6.201861572265625
14.513999999999982,7.831207275390626,2.15391845703125,6.641647338867188
14.523999999999972,8.599374389648439,2.152423095703125,6.562542724609376
14.533999999999963,8.259329223632813,1.6149902343750002,5.8177032470703125
14.544000000000011,7.566976928710938,0.884954833984375,5.564239501953125
14.554000000000002,6.887933349609376,0.0740203857421875,5.447451782226563
14.563999999999991,6.692639160156251,-0.4050933837890625,6.172552490234375
14.573999999999984,7.08861083984375,-0.8812164306640625,6.827670288085938
14.585000000000008,7.5997253417968755,-1.2000274658203125,7.123303222656251
14.595,7.980145263671876,-1.2679168701171877,7.1017700195312505
14.60499999999999,7.530938720703125,-1.09639892578125,6.5724121093750005
14.61499999999998,6.770697021484375,-0.638519287109375,6.233413696289063
14.624999999999972,6.394912719726563,-0.131292724609375,6.44261474609375
14.634999999999962,6.873129272460938,0.6694732666015626,6.522766113281251
14.64500000000001,7.7881408691406255,1.50732421875,6.6190673828125
14.655,8.188150024414064,1.7495727539062502,6.630731201171876
14.664999999999992,7.757485961914063,1.6380187988281252,6.299209594726563
14.674999999999985,7.040609741210938,1.31771240234375,6.1238037109375005
14.684999999999974,6.710583496093751,0.8414398193359376,6.069671630859375
14.694999999999965,6.938476562500001,0.4203460693359375,6.219058227539063
14.705000000000013,7.662979125976563,-0.1437042236328125,6.600375366210938
14.715000000000003,8.009304809570313,-0.5790039062500001,6.996197509765626
14.72599999999997,7.661483764648438,-0.8581878662109376,6.851745605468751
14.735999999999962,6.803445434570313,-1.1898590087890626,6.223843383789063
14.74600000000001,5.81396484375,-1.0268646240234376,4.397708129882813
14.756,7.4771057128906255,-0.22669677734375,4.456027221679688
14.765999999999991,9.145779418945311,0.6778472900390625,7.093844604492188
14.775999999999982,7.53482666015625,1.4024993896484377,7.925564575195313
14.785999999999971,5.818600463867188,1.378125,9.41180419921875
14.795999999999964,6.117523193359375,0.7778869628906251,8.957064819335939
14.806000000000012,6.887185668945313,0.1227691650390625,5.755795288085938
14.816000000000004,8.433688354492189,-0.390887451171875,5.031890869140625
14.825999999999992,9.132470703125,-0.3063995361328125,4.8008575439453125
14.835999999999984,9.04215087890625,0.3763824462890625,5.6751953125000005
14.845999999999975,8.145382690429688,0.3255401611328125,7.378411865234375
14.855999999999966,6.699368286132813,-0.2103973388671875,7.1573974609375
14.866000000000014,6.267507934570313,-0.5492462158203125,7.427011108398438
14.87699999999998,6.32657470703125,-0.6425567626953126,7.312466430664063
14.886999999999972,7.032684326171876,-0.172564697265625,6.655105590820313
14.896999999999965,8.294320678710939,0.11065673828125,6.558804321289063
14.90700000000001,8.70001220703125,0.21593017578125,5.723794555664063
14.917000000000002,8.336041259765626,0.39656982421875,5.550332641601563
14.926999999999992,7.60361328125,0.347821044921875,5.728729248046875
14.936999999999983,6.816604614257813,0.687567138671875,5.8296661376953125
14.946999999999974,6.763967895507813,0.9224884033203126,6.500335693359376
14.958999999999977,7.050479125976563,0.9232360839843752,6.863858032226563
14.96799999999999,7.438525390625,0.9667510986328126,6.738247680664063
14.977000000000004,7.697073364257813,0.622967529296875,6.549383544921875
14.987999999999971,7.482489013671875,0.182733154296875,6.217562866210938
14.996999999999986,6.991860961914063,-0.1230682373046875,6.096588134765625
15.006999999999984,6.6800781250000005,-0.2564544677734375,6.44022216796875
15.018,6.9567199707031255,-0.208453369140625,6.7339111328125005
15.027999999999992,7.596884155273438,-0.235369873046875,7.048983764648438
15.037999999999982,7.84227294921875,-0.4182525634765625,6.956869506835938
15.047999999999972,7.572958374023438,-0.4015045166015625,6.639254760742188
15.057999999999964,7.205697631835938,-0.163592529296875,6.261825561523438
15.068000000000012,7.133172607421876,0.1239654541015625,5.982492065429688
15.078000000000005,7.419384765625001,0.4209442138671875,6.0687744140625
15.087999999999994,7.683615112304688,0.7023712158203126,6.265115356445313
15.097999999999985,7.663128662109376,0.8676086425781251,6.681274414062501
15.107999999999976,6.987374877929688,0.7686157226562501,6.518130493164063
15.117999999999968,6.0330352783203125,0.353802490234375,5.115631103515625
15.128000000000014,7.280914306640626,0.5374328613281251,5.496798706054688
15.138000000000003,8.211328125000001,0.7358673095703125,6.821987915039063
15.147999999999996,6.323434448242188,0.3692047119140625,6.987225341796876
15.15799999999998,5.778225708007813,0.6144439697265626,8.450735473632813
15.167999999999983,8.090203857421876,0.7825225830078125,8.166317749023438
15.177999999999976,9.6121826171875,-0.04605712890625,5.885592651367188
15.188999999999991,8.79691162109375,-0.9957611083984376,5.284756469726563
15.198999999999984,6.8625122070312505,-1.4104248046875,5.650820922851563
15.208999999999977,6.295770263671876,-1.069033813476563,6.937878417968751
15.218999999999966,7.190744018554688,-0.7911956787109375,7.873526000976563
15.229000000000012,8.293423461914063,-0.487188720703125,7.305288696289063
15.239000000000004,8.444903564453126,0.2723052978515625,6.537570190429688
15.248999999999995,7.316952514648438,0.8659637451171875,6.0943450927734375
15.258999999999986,6.438876342773438,1.1234649658203126,5.936434936523438
15.268999999999984,6.867596435546876,1.2290374755859377,6.214273071289063
15.278999999999977,7.889227294921875,1.4092285156250002,6.327023315429688
15.289000000000016,8.446249389648438,1.53065185546875,6.257489013671876
15.299,8.13297119140625,0.9733306884765626,6.2449279785156255
15.308999999999996,7.247866821289063,0.157611083984375,6.268106079101563
15.319999999999965,6.562991333007813,-0.3494659423828125,6.311322021484376
15.330000000000013,6.734808349609375,-0.5806488037109375,6.31700439453125
15.340000000000003,7.531088256835938,-0.8154205322265625,6.2218994140625
15.349999999999994,8.06717529296875,-1.0373321533203126,6.288891601562501
15.359999999999983,7.974163818359376,-0.7736999511718751,6.543252563476563
15.369999999999976,7.249511718750001,-0.2878570556640625,6.803744506835938
15.379999999999969,6.447848510742188,0.0339447021484375,6.972271728515626
15.390000000000017,6.303097534179688,0.3548492431640625,6.8595214843750005
15.400000000000006,7.084423828125001,0.7732513427734375,6.647778320312501
15.409999999999997,7.800851440429688,1.3283294677734376,6.313864135742188
15.419999999999987,7.982238769531251,1.4805572509765623,6.174346923828126
15.429999999999986,7.675689697265626,1.0666412353515626,6.23984375
15.439999999999976,7.267156982421875,0.7242034912109375,6.109448242187501
15.450999999999992,7.102816772460938,0.3792236328125,6.190197753906251
15.460999999999984,7.260876464843751,-0.0168975830078125,6.503924560546875
15.470999999999975,7.27164306640625,-0.32718505859375,6.449343872070313
15.480999999999966,6.5807861328125,-0.34512939453125,5.50592041015625
15.491000000000014,6.427810668945313,0.17406005859375,4.701416015625
15.501000000000005,8.163476562500001,0.6730621337890625,6.8370910644531255
15.510999999999996,8.272488403320313,0.5084228515625,8.589056396484375
15.52099999999998,6.658843994140626,0.07955322265625,8.075399780273438
15.530999999999985,6.976159667968751,-0.5594146728515625,7.762719726562499
15.540999999999976,7.690643310546876,-0.8864501953125,5.8191986083984375
15.551000000000016,7.497293090820313,-0.648388671875,4.287799072265625
15.561,7.845562744140626,0.0179443359375,6.735556030273438
15.570999999999998,8.014389038085938,0.8581878662109376,7.572958374023438
15.580999999999989,7.879656982421875,0.9031982421875,7.497891235351563
15.59099999999998,7.669558715820313,-0.08792724609375,7.177584838867188
15.60099999999997,7.044796752929688,-0.520086669921875,5.5304443359375
15.611999999999997,7.128985595703125,-0.0801513671875,5.966641235351563
15.621999999999986,7.2291748046875,0.2232574462890625,6.547589111328126
15.631999999999984,7.669708251953126,0.4550384521484375,6.510205078125001
15.641999999999976,8.3453125,0.1622467041015625,7.158892822265625
15.652000000000015,7.751205444335938,-0.06220703125,6.353790283203126
15.662000000000006,7.111489868164063,0.0046356201171875,6.108700561523438
15.671999999999995,7.031637573242188,-0.1460968017578125,6.239395141601563
15.682999999999964,7.044049072265626,0.177349853515625,5.746075439453126
15.691999999999986,7.680026245117188,0.616986083984375,6.109298706054688
15.70199999999997,8.034875488281251,0.7059600830078125,6.270050048828126
15.71199999999996,7.773187255859375,0.7251007080078126,6.174645996093751
15.722000000000008,7.248165893554688,0.494366455078125,6.538916015625
15.732999999999976,6.599926757812501,0.431561279296875,6.63402099609375
15.742999999999968,6.394613647460938,0.621771240234375,6.708041381835938
15.753000000000014,6.724938964843751,0.54072265625,6.936532592773438
15.763000000000003,7.3933654785156255,0.3241943359375,6.9866271972656255
15.772999999999996,7.832553100585938,0.0369354248046875,6.721499633789063
15.78299999999998,7.865301513671875,-0.2678192138671875,6.313714599609376
15.792999999999983,7.6326232910156255,-0.4822540283203125,6.029296875
15.802999999999976,7.41759033203125,-0.4653564453125,5.887536621093751
15.81299999999996,7.442562866210938,-0.206060791015625,6.138458251953126
15.823000000000008,7.447647094726563,0.1233673095703125,6.599926757812501
15.832999999999998,7.33743896484375,0.4251312255859375,6.983038330078125
15.84299999999999,7.164425659179688,0.4164581298828125,7.1669677734375
15.854000000000012,6.909466552734376,0.4269256591796875,6.683367919921875
15.862999999999971,6.157150268554688,0.3195587158203125,4.925122070312501
15.873999999999995,6.799557495117188,0.3973175048828125,3.934445190429688
15.883999999999986,8.420678710937501,1.06290283203125,5.490966796875
15.893999999999984,8.178131103515625,1.56055908203125,7.566677856445313
15.903999999999977,6.914102172851563,1.7571990966796875,9.331353759765626
15.914000000000016,7.001281738281251,1.4702392578125,9.245071411132812
15.924,7.392916870117188,0.0435150146484375,6.667816162109376
15.933999999999996,7.307681274414063,-1.415509033203125,4.344473266601563
15.943999999999988,7.240090942382813,-2.202667236328125,4.693490600585938
15.953999999999986,8.040707397460938,-2.065093994140625,6.788940429687501
15.96399999999997,8.678628540039064,-1.44033203125,8.222244262695312
15.97399999999996,8.326022338867189,-0.9308624267578126,8.020071411132813
15.984000000000009,7.3215881347656255,-0.28770751953125,6.736752319335938
15.994,6.404632568359376,0.4807586669921875,5.621661376953125
16.00399999999999,6.351846313476563,1.149932861328125,5.809628295898438
16.015000000000015,7.293923950195313,1.7829193115234376,6.34093017578125
16.025000000000006,8.561093139648438,2.1751525878906253,6.8131652832031255
16.034999999999997,8.731564331054688,2.020681762695313,6.636114501953125
16.044999999999987,7.77109375,1.2925903320312502,5.957968139648438
16.054999999999986,6.740939331054688,0.468646240234375,5.797665405273438
16.064999999999976,6.346762084960938,-0.2169769287109375,5.798861694335938
16.07499999999996,6.953878784179688,-0.6015838623046875,6.242086791992188
16.085000000000008,7.959658813476563,-0.9730316162109376,6.55985107421875
16.095,8.400491333007814,-1.281375122070313,6.761425781250001
16.10499999999999,7.892068481445313,-1.1713165283203126,6.733612060546876
16.11499999999998,6.9926086425781255,-0.8048034667968751,6.535626220703126
16.12499999999997,6.365902709960938,-0.33675537109375,6.54429931640625
16.134999999999962,6.31700439453125,0.2806793212890625,6.543103027343751
16.14500000000001,7.037319946289063,1.014752197265625,6.725985717773438
16.155999999999985,7.857525634765626,1.59884033203125,6.850100708007813
16.165999999999976,7.977752685546876,1.7078521728515623,6.56224365234375
16.176000000000016,7.657147216796876,1.374237060546875,6.279022216796876
16.186,7.134219360351563,0.9980041503906252,5.883050537109376
16.195999999999998,6.971374511718751,0.7315307617187501,5.781216430664063
16.20599999999999,7.354336547851563,0.24464111328125,6.2912841796875005
16.21599999999998,7.598678588867188,-0.32120361328125,6.677087402343751
16.22599999999997,7.6598388671875,-0.6421081542968751,7.145883178710938
16.23599999999996,7.372280883789063,-1.0104156494140626,7.224987792968751
16.24600000000001,6.631179809570313,-1.0428649902343752,6.001333618164063
16.256,6.049783325195313,-0.5214324951171876,4.119570922851563
16.26599999999999,7.446899414062501,0.41212158203125,4.081289672851563
16.275999999999982,9.054412841796877,1.3818634033203123,7.111489868164063
16.287000000000006,7.824627685546876,1.7465820312500002,9.033776855468751
16.296999999999997,5.804843139648438,1.014154052734375,9.231613159179688
16.306999999999988,6.23326416015625,0.0849365234375,8.276675415039064
16.316999999999986,7.480245971679688,-0.4338043212890625,5.3347015380859375
16.32699999999997,8.132522583007812,-0.5465545654296875,4.248321533203125
16.33699999999996,8.900540161132813,0.03828125,6.184365844726563
16.34700000000001,8.697320556640626,0.37862548828125,6.739743041992188
16.357,7.930648803710938,-0.128900146484375,7.308279418945313
16.36699999999999,6.986477661132813,-1.0431640625,7.142892456054688
16.37699999999998,6.371286010742188,-1.1113525390625,6.280068969726563
16.386999999999972,6.68546142578125,-0.3838592529296875,6.95462646484375
16.396999999999963,7.239791870117188,0.317315673828125,6.872232055664063
16.40700000000001,8.187701416015626,0.7074554443359375,6.512896728515625
16.417,8.637954711914062,0.4972076416015625,6.429754638671875
16.426999999999992,7.804440307617188,0.3659149169921875,5.7339630126953125
16.43799999999996,7.075152587890625,0.5558258056640626,5.809628295898438
16.448000000000008,6.905877685546876,0.6268554687500001,6.03946533203125
16.458,7.1071533203125,0.867010498046875,6.085671997070313
16.46799999999999,7.63651123046875,0.9123199462890624,6.473867797851563
16.47799999999998,7.814309692382813,0.653472900390625,6.5209716796875
16.48799999999997,7.509704589843751,0.2788848876953125,6.492709350585938
16.497999999999962,6.973318481445313,-0.09271240234375,6.429754638671875
16.50800000000001,6.6083007812500005,-0.225799560546875,6.389828491210938
16.518,6.782211303710938,-0.1194793701171875,6.648675537109376
16.52799999999999,7.217959594726563,0.0294586181640625,6.800454711914063
16.537999999999982,7.708587646484376,0.036187744140625,7.058554077148438
16.547999999999973,7.697671508789063,-0.08792724609375,6.865951538085938
16.557999999999964,7.444656372070313,-0.0586181640625,6.270498657226563
16.56899999999999,7.382598876953126,-0.0366363525390625,6.04783935546875
16.578999999999986,7.372280883789063,0.1688262939453125,5.845516967773438
16.58899999999997,7.479946899414063,0.5323486328125,6.102868652343751
16.59899999999996,7.586715698242188,0.705810546875,6.796267700195313
16.60900000000001,7.356430053710938,0.7185211181640625,6.930252075195313
16.619,7.102966308593751,0.4658050537109375,6.940570068359375
16.62899999999999,6.663778686523438,0.021832275390625,6.240890502929688
16.63899999999998,6.383547973632813,-0.241949462890625,4.7361083984375005
16.650000000000006,7.955770874023438,0.23985595703125,5.182025146484375
16.658999999999963,8.748760986328126,0.5304046630859376,6.461755371093751
16.669999999999987,6.845166015625001,0.356195068359375,6.990814208984376
16.679999999999986,5.498593139648438,0.623565673828125,8.537167358398438
16.689999999999976,6.58377685546875,0.8004669189453125,8.425164794921876
16.69999999999996,8.538214111328125,0.47313232421875,6.846661376953126
16.710000000000008,9.0523193359375,-0.160003662109375,5.741738891601563
16.72,7.835543823242188,-0.7931396484375001,4.97177734375
16.732999999999976,7.232614135742188,-0.5612091064453125,5.993258666992188
16.73999999999998,7.354187011718751,-0.752166748046875,7.097882080078126
