time,ax,ay,az
0.0,7.556658935546875,0.1607513427734375,5.8262268066406255
0.0109999999999956,7.320989990234375,0.270361328125,6.152365112304688
0.0210000000000007,7.042703247070313,0.369952392578125,6.571664428710938
0.0309999999999988,6.912457275390626,0.6389678955078125,6.9447570800781255
0.0409999999999968,6.957318115234376,0.493768310546875,7.157098388671876
0.0509999999999948,6.976608276367188,0.304156494140625,7.0150390625000005
0.0609999999999999,7.047637939453126,-0.1529754638671875,6.57779541015625
0.0709999999999979,7.700961303710938,-0.3820648193359375,6.202459716796875
0.0809999999999959,8.197271728515625,-0.3826629638671875,5.683419799804688
0.0919999999999987,7.368243408203125,-0.2308837890625,4.638909912109376
0.100999999999999,7.255792236328125,0.4810577392578125,4.574459838867188
0.1109999999999971,8.497390747070312,1.3721435546875,6.818847656250001
0.1209999999999951,8.434436035156251,1.3649658203125,9.726876831054687
0.1310000000000002,5.420086669921876,0.407635498046875,9.990808105468751
0.1419999999999959,3.7724975585937504,-0.4269256591796875,7.820739746093751
0.1509999999999962,7.044647216796876,-0.825140380859375,5.0281524658203125
0.161999999999999,11.102160644531253,-0.5372833251953125,2.992218017578125
0.171999999999997,11.469720458984376,-0.35469970703125,2.3904846191406253
0.181999999999995,9.218453979492187,0.102581787109375,5.272344970703125
0.1920000000000001,6.275433349609376,0.463861083984375,8.074801635742189
0.2019999999999981,3.499444580078125,0.3007171630859375,9.3298583984375
0.2119999999999962,3.929061889648438,0.5830413818359376,9.055609130859375
0.2220000000000013,6.772491455078126,0.8377014160156251,7.430300903320313
0.2319999999999993,9.237145996093751,1.1123992919921877,5.791983032226563
0.2419999999999973,9.885833740234377,1.128848266601563,4.865606689453125
0.2519999999999953,9.742129516601564,0.20277099609375,4.659246826171875
0.2620000000000004,8.639001464843751,-1.3190582275390623,4.5536743164062505
0.2719999999999984,7.37332763671875,-2.2452850341796875,4.960113525390625
0.2819999999999965,7.023562622070313,-1.7694610595703126,6.322537231445313
0.2919999999999945,6.138308715820313,-0.6030792236328125,7.616622924804688
0.3029999999999972,5.66143798828125,0.3337646484375,8.7532470703125
0.3129999999999953,5.68297119140625,0.3856536865234375,7.394412231445313
0.3230000000000004,6.863858032226563,0.9455169677734376,5.4538818359375005
0.3329999999999984,9.99439697265625,1.891033935546875,7.298260498046876
0.3429999999999964,8.654702758789064,1.4913238525390626,6.728826904296875
0.3529999999999944,5.66502685546875,1.1464935302734376,5.471975708007813
0.3629999999999995,7.599127197265625,1.3130767822265623,5.741589355468751
0.3729999999999975,10.080679321289065,0.586181640625,4.259536743164063
0.3829999999999955,9.756634521484376,-0.4553375244140625,5.564987182617188
0.3930000000000007,7.242932128906251,-1.0300048828125,7.904180908203125
0.4029999999999987,5.345318603515626,-0.7319793701171875,8.570962524414064
0.4129999999999967,5.272045898437501,-0.721661376953125,8.253048706054688
0.4229999999999947,6.117523193359375,-1.5508392333984375,6.312368774414063
0.4329999999999998,8.187850952148438,-1.47861328125,4.979403686523438
0.4439999999999955,9.39385986328125,-0.6615478515625001,5.145089721679688
0.4540000000000006,8.249011230468751,0.2761932373046875,5.882452392578125
0.4639999999999986,7.199566650390626,1.176699829101563,6.994253540039063
0.4739999999999966,6.503775024414063,1.772900390625,7.108947753906251
0.4839999999999946,6.2601806640625,2.30345458984375,6.424221801757813
0.4939999999999998,6.786697387695313,2.6671264648437503,6.130383300781251
0.5039999999999978,7.521069335937501,2.2617340087890625,6.126345825195313
0.5139999999999958,8.021566772460938,1.4702392578125,6.291583251953125
0.5240000000000009,8.194281005859375,0.3090911865234375,6.468334960937501
0.5339999999999989,7.902835083007813,-1.31890869140625,6.548037719726563
0.5439999999999969,7.520919799804688,-1.907931518554688,6.248516845703126
0.5539999999999949,7.169509887695313,-1.6030273437500002,6.032437133789063
0.5640000000000001,7.167266845703126,-1.0337432861328126,6.318350219726563
0.5749999999999957,7.307830810546876,-0.259893798828125,6.7363037109375
0.5850000000000009,7.311718750000001,0.322100830078125,6.937429809570313
0.5949999999999989,7.252651977539063,0.387896728515625,6.648675537109376
0.6049999999999969,6.530841064453125,0.4756744384765625,5.147183227539063
0.6149999999999949,6.737200927734375,0.7065582275390625,4.899850463867188
0.625,8.555709838867188,1.206158447265625,7.139602661132813
0.6400000000000006,7.761224365234375,0.787457275390625,7.442263793945313
0.644999999999996,6.969879150390626,0.066693115234375,7.951882934570313
0.6550000000000011,8.252301025390626,-0.53055419921875,7.989865112304688
0.6649999999999991,8.074053955078126,-0.5191894531250001,5.050732421875001
0.6749999999999972,8.481838989257813,0.14534912109375,5.266363525390625
0.6849999999999952,8.102615356445312,0.4101776123046875,5.528649902343751
0.6950000000000003,7.5967346191406255,0.7418487548828125,5.97247314453125
0.7049999999999983,7.865451049804688,0.252716064453125,7.446749877929688
0.7149999999999963,7.149472045898438,-0.7198669433593751,6.5440002441406255
0.7259999999999991,7.018777465820313,-0.7675689697265625,6.273638916015625
0.7359999999999971,6.610394287109376,-0.7391571044921875,6.403436279296876
0.7459999999999951,6.105560302734375,-0.106768798828125,6.054568481445313
0.7560000000000002,7.146929931640625,0.6002380371093751,6.931896972656251
0.7659999999999982,7.869937133789063,0.8018127441406251,6.8224365234375
0.7759999999999962,8.266506958007813,1.2767395019531251,6.280068969726563
0.7860000000000014,8.183215332031251,1.19569091796875,6.180776977539063
0.7959999999999994,7.173397827148438,0.8391967773437501,5.759085083007813
0.8059999999999974,6.526803588867188,0.8468231201171875,6.052624511718751
0.8159999999999954,6.784603881835938,0.4640106201171875,6.608151245117188
0.8260000000000005,7.679129028320313,0.314923095703125,6.81944580078125
0.8359999999999985,7.975808715820313,-0.141461181640625,6.937429809570313
0.8459999999999965,7.586865234375001,-1.1575592041015623,6.985281372070313
0.8569999999999993,7.041506958007813,-1.454837036132813,6.463848876953126
0.8669999999999973,7.0258056640625,-1.1186798095703123,5.842974853515625
0.8769999999999953,7.9146484375,-0.7490264892578126,5.775982666015626
0.8870000000000005,8.2627685546875,-0.0490478515625,5.831610107421875
0.8969999999999985,6.848754882812501,-0.097198486328125,5.8474609375
0.9069999999999964,5.359075927734375,-0.241351318359375,5.236904907226563
0.9169999999999944,7.28360595703125,1.2821228027343752,6.75723876953125
0.9269999999999996,8.989364624023438,2.237509155273438,8.618365478515626
0.9399999999999976,7.13646240234375,1.7576477050781252,7.953378295898438
0.9469999999999956,6.729574584960938,2.144796752929688,7.579388427734376
0.9570000000000008,8.274880981445314,1.7057586669921876,6.051876831054688
0.9669999999999987,8.686853027343751,0.0716278076171875,3.947604370117188
0.9769999999999968,8.694628906250001,-0.9603210449218752,4.733715820312501
0.9869999999999948,8.213421630859376,-1.5421661376953126,6.306387329101563
0.9979999999999976,7.592098999023438,-1.2746459960937502,7.880105590820313
1.0079999999999956,6.916494750976563,-1.3603302001953126,8.363406372070314
1.018000000000001,6.733612060546876,-1.512109375,6.982440185546875
1.0279999999999987,7.558602905273438,-0.8791229248046876,5.945706176757813
1.0399999999999991,7.622604370117188,-0.3629241943359375,5.1503234863281255
1.0479999999999947,7.385589599609376,0.3720458984375,5.194586181640625
1.0579999999999998,7.3918701171875005,1.1674285888671876,5.936285400390625
1.0679999999999978,7.278372192382813,1.749871826171875,6.27274169921875
1.077999999999996,7.326971435546875,2.546749877929688,6.8798583984375
1.088000000000001,7.018777465820313,2.48529052734375,7.057357788085938
1.097999999999999,6.387435913085938,1.8759307861328127,6.982440185546875
1.107999999999997,6.237301635742188,0.9950134277343752,7.057806396484375
1.117999999999995,6.9327941894531255,0.0237762451171875,6.574954223632813
1.1289999999999978,8.193832397460938,-0.6715667724609375,6.009408569335938
1.1400000000000006,8.97635498046875,-1.675103759765625,5.721102905273438
1.149000000000001,8.775827026367189,-2.30943603515625,5.702410888671875
1.158999999999999,7.897003173828126,-2.127001953125,6.108999633789063
1.168999999999997,6.519177246093751,-1.6755523681640627,6.506167602539063
1.178999999999995,4.7769317626953125,-0.20516357421875,5.776580810546875
1.189,5.423226928710938,1.3570404052734375,5.727682495117188
1.198999999999998,8.770443725585938,2.041168212890625,8.004519653320314
1.208999999999996,8.412454223632814,2.5175903320312503,7.773336791992188
1.2190000000000012,6.802996826171875,1.8653137207031247,6.890176391601563
1.2289999999999992,7.770046997070313,0.736614990234375,7.255493164062501
1.2409999999999997,8.214767456054688,-0.2035186767578125,5.33544921875
1.2489999999999952,8.317648315429688,-0.9814056396484376,5.182174682617188
1.2590000000000003,8.510699462890626,-0.8357574462890626,6.60411376953125
1.2689999999999984,7.736102294921875,-0.282025146484375,6.771145629882813
1.2800000000000011,7.752999877929688,-0.404345703125,7.741036987304688
1.2899999999999991,7.10655517578125,-0.9488067626953126,6.947149658203125
1.2999999999999972,7.2378479003906255,-0.738409423828125,5.8012542724609375
1.3099999999999952,8.306283569335939,-0.1571624755859375,5.881106567382813
1.3200000000000005,7.948892211914063,0.39537353515625,5.055667114257813
1.3299999999999983,7.805636596679688,0.9343017578125,5.356832885742188
1.3399999999999963,7.347158813476563,0.8761322021484376,5.872732543945313
1.3500000000000014,6.453979492187501,0.9374420166015626,6.016885375976563
1.3599999999999994,6.573159790039063,1.099090576171875,7.313812255859376
1.3699999999999974,6.5559631347656255,0.8240936279296875,7.585519409179688
1.3799999999999957,6.7602294921875,0.9166564941406252,7.520172119140626
1.3900000000000006,7.1191162109375,0.8010650634765626,7.279119873046875
1.3999999999999986,7.390673828125,0.34752197265625,6.112139892578125
1.4099999999999966,7.993453979492188,-0.173162841796875,5.510256958007813
1.4199999999999946,8.078240966796876,-0.9180023193359376,5.362664794921876
1.4309999999999974,7.896405029296876,-1.0778564453125,5.8666015625000005
1.4409999999999954,7.604959106445313,-0.7135864257812501,6.7907348632812505
1.4510000000000003,7.152462768554688,-0.5356384277343751,7.106405639648438
1.4609999999999983,7.1615844726562505,-0.2859130859375,7.217959594726563
1.4709999999999963,7.154705810546876,0.1544708251953125,6.690097045898438
1.4809999999999943,6.584823608398438,0.5336944580078126,5.476312255859376
1.4909999999999997,5.944509887695313,0.7692138671875001,4.164431762695313
1.5009999999999977,6.806884765625001,1.308291625976563,4.310079956054688
1.5109999999999957,9.366494750976564,1.999148559570313,7.375570678710938
1.5210000000000008,9.188845825195314,2.230181884765625,9.338232421875
1.5309999999999988,6.623104858398438,1.390087890625,8.67130126953125
1.5409999999999968,5.794375610351563,0.1170867919921875,7.308428955078125
1.5509999999999948,7.1334716796875,-1.0878753662109375,5.272793579101563
1.5619999999999976,8.66531982421875,-1.8179107666015624,4.5162902832031255
1.570999999999998,9.9244140625,-1.9420257568359376,6.218161010742188
1.5820000000000007,9.39027099609375,-1.735964965820313,7.179229736328126
1.5919999999999987,7.798159790039063,-1.3420867919921875,7.386337280273438
1.6019999999999968,6.211132812500001,-0.8519073486328126,7.001431274414063
1.6119999999999948,5.875424194335938,0.251519775390625,5.992959594726563
1.622,6.970626831054688,1.2580474853515626,5.83250732421875
1.631999999999998,7.984182739257813,1.451995849609375,5.844769287109376
1.641999999999996,8.199664306640626,1.5101654052734377,5.914154052734375
1.652000000000001,7.910910034179688,1.2529632568359377,5.986529541015625
1.661999999999999,7.081582641601563,0.9511993408203124,5.937930297851563
1.671999999999997,6.819744873046876,0.913067626953125,6.123504638671875
1.681999999999995,6.787893676757813,0.7762420654296875,6.397006225585938
1.6929999999999978,6.955374145507813,0.6814361572265626,6.935037231445313
1.7019999999999982,7.054666137695313,0.4499542236328125,7.498489379882813
1.713000000000001,7.099227905273438,-0.0354400634765625,7.346261596679688
1.722999999999999,7.518078613281251,-0.5265167236328125,6.699966430664063
1.732999999999997,7.8189453125,-1.0015930175781251,5.8177032470703125
1.742999999999995,7.964892578125,-0.9368438720703126,5.460610961914063
1.753,7.8629089355468755,-0.6536224365234375,5.891125488281251
1.762999999999998,7.536471557617188,-0.33077392578125,6.456222534179688
1.772999999999996,7.208688354492188,0.2045654296875,6.999636840820313
1.7830000000000013,7.067825317382813,0.4580291748046875,7.066180419921875
1.7929999999999993,7.067227172851563,0.6898101806640625,6.498242187500001
1.8029999999999973,6.170309448242188,1.041668701171875,4.805194091796875
1.8129999999999955,6.423474121093751,1.475323486328125,4.209591674804688
1.823999999999998,8.4996337890625,1.947857666015625,6.117373657226563
1.8329999999999984,8.987719726562501,1.954736328125,8.291778564453125
1.8440000000000007,6.500485229492188,0.65018310546875,8.27652587890625
1.8539999999999992,5.762075805664063,-0.86671142578125,7.924966430664063
1.8639999999999968,7.127340698242188,-1.5258666992187502,7.052124023437501
1.8739999999999952,8.385238647460938,-2.11802978515625,5.399600219726563
1.8840000000000003,9.460552978515626,-2.1512268066406253,5.907275390625
1.8939999999999984,9.347952270507813,-1.4225372314453126,6.209637451171876
1.9039999999999964,8.423519897460938,-0.729736328125,6.425717163085938
1.9140000000000013,7.221548461914063,-0.575115966796875,6.816156005859376
1.924,6.206198120117188,-0.5190399169921875,6.166870117187501
1.9339999999999973,6.860867309570313,0.4783660888671875,6.531140136718751
1.9439999999999955,7.767654418945313,1.3845550537109377,6.750061035156251
1.9540000000000008,7.900741577148438,2.0618041992187504,6.055166625976563
1.9639999999999984,8.233010864257814,2.238107299804688,5.836395263671875
1.9739999999999969,7.554415893554688,1.7705078125000002,5.022769165039063
1.985,6.822586059570313,1.55098876953125,5.057611083984376
1.9949999999999968,6.37442626953125,1.0983428955078125,6.184664916992188
2.0049999999999955,6.447250366210938,0.4798614501953125,6.963299560546876
2.015000000000001,7.419683837890625,0.0279632568359375,8.113082885742188
2.0249999999999986,7.518228149414063,-0.7617370605468751,8.154803466796876
2.0349999999999966,6.989468383789063,-1.33924560546875,7.11612548828125
2.0449999999999946,7.3583740234375,-1.6858703613281252,6.258535766601563
2.058,7.625894165039063,-1.8418365478515624,5.2074462890625
2.0649999999999977,8.023062133789063,-1.146942138671875,5.073013305664063
2.074999999999996,8.310919189453125,-0.2583984375,6.003875732421875
2.085000000000001,7.970425415039063,0.6694732666015626,6.64598388671875
2.094999999999999,7.196575927734376,1.282421875,7.169808959960938
2.104999999999997,5.823983764648438,1.167578125,6.2733398437500005
2.114999999999995,5.015740966796876,1.2822723388671875,4.568328857421875
2.1259999999999977,7.035525512695313,1.9904754638671875,4.8621673583984375
2.135999999999996,9.86160888671875,2.563497924804688,7.399047851562501
2.146000000000001,8.518624877929689,2.220162963867188,8.326620483398438
2.158999999999999,5.857180786132813,1.2595428466796876,8.048483276367188
2.165999999999997,6.243731689453125,0.4164581298828125,7.520919799804688
2.175999999999995,7.739990234375001,-1.1391662597656251,5.426217651367188
2.186,8.544195556640625,-2.5685821533203126,5.28759765625
2.195999999999998,8.920129394531251,-2.8586822509765626,7.014889526367188
2.205999999999996,8.362658691406251,-2.2994171142578126,7.465890502929688
2.216000000000001,7.744924926757813,-2.068234252929688,7.470825195312501
2.225999999999999,7.031188964843751,-1.9281188964843752,6.319696044921876
2.235999999999997,7.142892456054688,-1.457827758789063,5.67938232421875
2.245999999999995,7.593594360351563,1.6662811279296876,5.890676879882813
2.257999999999996,7.395758056640625,2.417550659179688,6.169412231445313
2.266999999999996,7.782308959960938,2.2198638916015625,6.592599487304688
2.277000000000001,7.854385375976563,2.11802978515625,6.022268676757813
2.286999999999999,7.284652709960938,2.0360839843750003,5.4263671875
2.296999999999997,6.85892333984375,1.7739471435546876,5.351898193359375
2.306999999999995,6.560150146484376,1.813723754882813,5.687905883789063
2.317,7.033132934570313,1.893576049804688,6.589309692382813
2.326999999999998,7.533630371093751,-0.8683563232421876,7.55277099609375
2.336999999999996,7.498638916015626,-1.9112213134765623,7.777523803710938
2.3470000000000013,7.339083862304688,-2.2409484863281253,7.454525756835938
2.3589999999999947,7.257736206054688,-1.9989990234375,6.451885986328126
2.3669999999999973,7.474563598632813,-1.7334228515625,5.6218109130859375
2.376999999999996,7.836141967773438,-1.5906158447265626,5.486929321289063
2.3870000000000005,8.078988647460939,-0.5794525146484375,5.914303588867188
2.3969999999999985,7.899844360351563,1.6647857666015626,6.39476318359375
2.4069999999999965,7.390673828125,2.038177490234375,6.935186767578125
2.418,6.750061035156251,1.848117065429688,6.955523681640625
2.4279999999999973,6.425119018554688,1.914959716796875,6.487924194335938
2.437999999999996,6.781314086914063,2.132684326171875,6.204403686523438
2.4480000000000004,6.521270751953126,2.0544769287109377,4.883551025390625
2.458999999999996,6.650320434570313,1.5777557373046875,4.153814697265625
2.4679999999999964,8.761770629882813,1.1372222900390625,5.666073608398438
2.4779999999999944,10.345657348632812,-0.7035675048828125,8.248712158203126
2.4879999999999995,7.368093872070313,-1.705908203125,8.776574707031251
2.4979999999999976,4.122412109375,-1.619775390625,8.356378173828126
2.507999999999996,5.194137573242188,-1.80460205078125,7.281961059570313
2.5180000000000007,7.919433593750001,-1.8340606689453127,5.498443603515625
2.5279999999999987,10.170101928710938,-1.9364929199218752,5.655007934570313
2.5379999999999967,10.435079956054688,-1.9439697265625,6.524411010742188
2.5479999999999947,8.539559936523439,0.678594970703125,6.533981323242188
2.558999999999997,6.56822509765625,1.9565307617187504,6.734957885742188
2.5689999999999955,5.596090698242188,1.7074035644531251,5.93359375
2.5790000000000006,6.587066650390626,1.8388458251953128,5.780917358398438
2.588999999999998,8.0833251953125,2.040719604492188,6.5664306640625005
2.5989999999999966,8.169009399414064,2.2108917236328125,6.503475952148438
2.6089999999999947,8.269198608398439,1.65267333984375,6.576000976562501
2.619,7.835244750976563,-0.5220306396484375,5.9208831787109375
2.628999999999998,7.2004638671875005,-1.2203643798828123,4.943066406250001
2.638999999999996,7.038665771484376,-1.4315093994140626,5.272793579101563
2.649000000000001,6.844717407226563,-1.457827758789063,5.990716552734376
2.658999999999999,7.12808837890625,-1.5559234619140627,7.467684936523438
2.668999999999997,7.304690551757813,-0.968994140625,8.4900634765625
2.68,7.043450927734376,-0.086431884765625,8.194879150390626
2.689,6.829913330078125,0.2890533447265625,7.001580810546876
2.699999999999996,7.138705444335938,0.720166015625,5.505621337890625
2.710000000000001,7.780215454101563,1.30814208984375,4.696630859375
2.719999999999999,8.167214965820314,1.7859100341796876,4.884298706054688
2.729999999999997,8.16885986328125,1.807293701171875,5.97965087890625
2.739999999999995,7.796365356445313,1.57431640625,7.008309936523438
2.75,6.883297729492188,1.0223785400390626,7.185061645507813
2.759999999999998,5.886489868164063,0.0447113037109375,6.363659667968751
2.769999999999996,5.514743041992188,-0.8194580078125001,4.914804077148438
2.780000000000001,7.455871582031251,-1.02581787109375,5.24273681640625
2.789999999999999,10.290328979492188,-0.5775085449218751,7.967733764648438
2.799999999999997,8.200112915039064,-0.6494354248046875,8.600421142578126
2.809999999999995,4.95682373046875,-0.7388580322265625,7.805935668945313
2.8200000000000003,5.620614624023438,0.01256103515625,6.563589477539063
2.830999999999996,8.727078247070313,0.3935791015625,4.434494018554688
2.841000000000001,10.1732421875,0.6555664062500001,4.853045654296875
2.850999999999999,8.723788452148439,0.8321685791015626,7.031338500976563
2.860999999999997,6.658694458007813,0.7775878906250001,8.294320678710939
2.870999999999995,5.923724365234375,0.2256500244140625,8.017080688476563
2.881,6.585421752929688,-0.7865600585937501,6.449343872070313
2.8909999999999982,8.212973022460938,-0.457879638671875,5.202511596679688
2.900999999999996,9.036618041992188,0.450103759765625,5.338739013671876
2.911999999999999,8.100521850585938,0.5603118896484376,6.207843017578125
2.921,7.209136962890626,0.1457977294921875,6.95701904296875
2.9309999999999974,7.039413452148438,-0.2307342529296875,6.720602416992188
2.9409999999999954,7.551574707031251,0.04007568359375,5.944958496093751
2.9510000000000005,7.889526367187501,0.323895263671875,5.423226928710938
2.961999999999996,7.652511596679688,0.2498748779296875,5.557659912109376
2.9720000000000013,7.000833129882813,0.3270355224609375,6.332406616210938
2.982,6.577496337890626,0.6222198486328125,6.996646118164063
2.9919999999999973,6.7952209472656255,0.6748565673828125,7.206744384765625
3.001999999999996,7.411309814453125,0.3090911865234375,6.990814208984376
3.0120000000000005,7.592098999023438,0.0306549072265625,6.485830688476563
3.0219999999999985,7.272540283203125,0.158209228515625,6.235357666015625
3.0319999999999965,7.278521728515625,0.2860626220703125,6.274984741210938
3.0419999999999945,7.482937622070313,0.10048828125,6.205001831054688
3.052,7.823730468750001,-0.191107177734375,6.190197753906251
3.0619999999999976,7.990164184570313,-0.241650390625,6.295172119140625
3.071999999999996,7.6335205078125,0.0477020263671875,6.338836669921876
3.0820000000000007,7.09818115234375,0.0829925537109375,6.670956420898438
3.0919999999999987,6.5036254882812505,0.0605621337890625,6.478952026367188
3.1019999999999968,6.036325073242188,0.7406524658203125,5.269354248046875
3.1129999999999995,7.237399291992188,1.3899383544921875,5.230624389648438
3.1229999999999976,9.008505249023438,1.4826507568359375,6.387435913085938
3.132999999999996,8.785397338867188,1.136773681640625,7.863507080078126
3.1430000000000007,6.199468994140625,0.3117828369140625,8.040109252929689
3.1529999999999987,4.660891723632813,-0.5417694091796875,7.048086547851563
3.1629999999999967,7.102368164062501,-0.9183013916015624,6.497494506835938
3.1729999999999947,9.302941894531251,-1.3455261230468751,5.625848388671876
3.183,9.593341064453126,-1.2677673339843751,6.394314575195313
3.192999999999998,8.406472778320314,-0.7805786132812501,7.298260498046876
3.202999999999996,7.220053100585938,-0.4151123046875,6.854287719726563
3.213000000000001,6.865652465820313,-0.3165679931640625,6.403137207031251
3.222999999999999,7.156500244140625,-0.27933349609375,5.598782348632813
3.232999999999997,7.772439575195313,0.5634521484375,5.74517822265625
3.242999999999995,8.002127075195313,1.2371124267578126,6.660040283203125
3.253999999999998,7.470376586914063,1.3399932861328123,6.790286254882813
3.263999999999996,7.550827026367188,1.3355072021484375,6.556411743164063
3.274000000000001,7.6954284667968755,0.9416290283203126,5.598034667968751
3.283999999999999,7.512844848632813,0.7762420654296875,4.924822998046875
3.293999999999997,7.206594848632813,0.3838592529296875,5.403936767578125
3.303999999999995,6.743780517578125,0.005084228515625,6.399548339843751
3.314,6.8625122070312505,0.0782073974609375,7.612884521484376
3.323999999999998,7.098629760742188,-0.0366363525390625,8.074502563476564
3.333999999999996,7.30155029296875,-0.32957763671875,7.479647827148438
3.344000000000001,7.281512451171875,-0.6198272705078125,6.487774658203126
3.353999999999999,7.399945068359376,-0.8205047607421876,5.635418701171876
3.363999999999997,7.691839599609375,-0.4305145263671875,5.390628051757813
3.375,7.907470703125001,-0.032000732421875,5.694036865234375
3.384999999999998,8.093194580078126,0.303857421875,6.424969482421876
3.394999999999996,7.7881408691406255,0.7479797363281251,6.815109252929688
3.405000000000001,7.081732177734375,0.8557952880859375,6.8080810546875
3.414999999999999,5.983688354492188,0.6471923828125,6.013595581054688
3.424999999999997,5.364758300781251,0.435150146484375,4.535580444335938
3.434999999999995,7.856478881835938,0.8182617187500001,5.680279541015626
3.4450000000000003,10.293618774414064,1.4999969482421875,8.17364501953125
3.4549999999999983,7.248764038085938,0.9734802246093752,8.172897338867188
3.4649999999999963,3.916949462890625,0.527862548828125,7.636212158203126
3.4750000000000014,6.415249633789063,0.5238250732421875,6.886886596679688
3.4849999999999994,10.02908935546875,-0.3303253173828125,4.52496337890625
3.494999999999997,10.702450561523438,-1.263580322265625,5.047442626953125
3.5049999999999955,8.206842041015626,-1.8603790283203123,6.85533447265625
3.515000000000001,6.071017456054688,-1.6320373535156252,7.864703369140625
3.5249999999999986,5.762075805664063,-1.343731689453125,8.051025390625
3.5360000000000014,6.902737426757813,-1.3362548828125,6.586917114257813
3.546,8.767153930664064,0.1000396728515625,5.592800903320313
3.5559999999999974,9.207089233398438,1.5316986083984376,5.767160034179688
3.5659999999999954,7.479797363281251,1.9076324462890624,6.00836181640625
3.5760000000000005,6.590954589843751,1.818209838867188,6.439923095703126
3.5859999999999985,6.935186767578125,1.53902587890625,6.084326171875
3.5959999999999965,7.821786499023438,1.6752532958984376,5.4060302734375005
3.6059999999999945,8.192935180664064,1.34881591796875,5.337542724609375
3.616,7.559500122070313,0.30206298828125,5.96649169921875
3.6259999999999977,6.744976806640626,-0.2669219970703125,7.044049072265626
3.635999999999996,6.234011840820313,-0.5650970458984376,7.584921264648438
3.646000000000001,6.694732666015626,-0.9649566650390624,7.43912353515625
3.658999999999999,7.519873046875,-1.417901611328125,6.836941528320313
3.6669999999999945,7.89132080078125,-1.595849609375,6.112139892578125
3.677,7.894909667968751,-0.9209930419921876,6.129037475585938
3.6869999999999976,7.526751708984375,-0.125311279296875,6.062643432617188
3.696999999999996,7.401141357421875,0.395672607421875,6.161038208007813
3.7070000000000007,7.6236511230468755,0.7089508056640625,6.344369506835938
3.716999999999999,7.643838500976563,1.2970764160156252,6.204702758789063
3.7269999999999968,7.344616699218751,1.8267333984375,6.495550537109375
3.7369999999999934,6.892120361328126,1.5906158447265626,6.749612426757813
3.747,6.0609985351562505,1.256402587890625,6.03587646484375
3.759,5.899948120117188,1.4826507568359375,4.89581298828125
3.766999999999996,7.503424072265625,1.3687042236328126,5.071817016601563
3.777000000000001,9.943106079101565,1.0430145263671875,6.888980102539063
3.786999999999999,8.602664184570314,-0.043365478515625,7.787393188476563
3.796999999999997,5.947650146484375,-1.466799926757813,8.389874267578126
3.806999999999995,5.2733917236328125,-1.852154541015625,8.053268432617188
3.817,7.070516967773438,-1.62276611328125,6.380856323242188
3.827999999999996,8.851043701171875,-1.9803070068359376,5.6681671142578125
3.838000000000001,9.869384765625,-2.3354553222656254,6.258984375000001
3.847999999999999,8.973663330078125,-1.4871368408203125,6.487774658203126
3.858999999999994,7.59703369140625,0.9941162109375,6.58018798828125
3.867999999999995,6.542355346679688,0.939984130859375,6.300405883789063
3.878,6.384295654296875,1.3266845703125,5.752056884765626
3.887999999999998,7.51927490234375,2.11802978515625,6.366351318359375
3.897999999999996,7.79202880859375,2.309735107421876,6.358724975585938
3.908000000000001,8.065231323242188,2.082440185546876,6.329864501953126
3.9179999999999993,8.105007934570313,0.9517974853515626,6.067578125000001
3.927999999999997,7.374673461914063,0.0755157470703125,5.09918212890625
3.9379999999999953,6.8116699218750005,-0.48509521484375,5.396310424804688
3.948,6.583328247070313,-1.1789428710937502,6.210983276367188
3.960000000000001,6.933840942382813,-1.1653350830078126,7.239193725585938
3.969000000000001,7.518975830078125,-0.8679077148437501,8.184710693359376
3.978999999999999,7.343719482421876,-0.721661376953125,7.979098510742188
3.988999999999997,7.00845947265625,-0.5591156005859376,7.019375610351563
3.9989999999999952,7.268203735351563,-0.47373046875,5.7937774658203125
4.009,7.681072998046876,0.076263427734375,4.886392211914063
4.018999999999998,8.059249877929688,0.9501525878906252,5.049984741210938
4.028999999999996,8.130130004882814,1.4404815673828126,6.084625244140625
4.0390000000000015,7.77647705078125,1.7619842529296876,6.875671386718751
4.049,6.999636840820313,1.5946533203125002,7.218258666992188
4.0589999999999975,6.499588012695313,1.0892211914062502,7.089657592773438
4.068999999999996,6.001034545898438,0.4533935546875,5.954827880859376
4.079999999999998,6.001632690429688,-0.442327880859375,4.577450561523438
4.089999999999996,7.870086669921876,-0.7390075683593751,4.7026123046875
4.100000000000001,10.367639160156251,-0.0907684326171875,7.153060913085938
4.109999999999999,8.842370605468751,-0.097796630859375,8.452081298828126
4.119999999999997,4.980001831054688,-0.3620269775390625,8.398098754882813
4.129999999999996,4.197479248046875,-0.0330474853515625,7.436431884765626
4.140000000000001,7.216015625000001,0.002093505859375,5.8510498046875
4.149999999999999,9.995742797851562,-0.0369354248046875,5.356533813476563
4.159999999999997,10.134063720703123,-0.0937591552734375,6.181973266601563
4.169999999999995,8.630926513671875,-0.1338348388671875,6.924420166015626
4.18,6.795669555664063,-0.2023223876953125,6.934140014648438
4.189999999999998,5.906527709960938,-0.588873291015625,6.347210693359376
4.199999999999996,6.878363037109375,-0.1519287109375,5.8749755859375
4.210000000000001,8.181271362304688,0.73272705078125,6.196328735351563
4.219999999999999,8.265609741210938,1.1835784912109375,6.755892944335938
4.2309999999999945,7.724438476562501,0.9248809814453126,7.003375244140625
4.241,7.437478637695313,0.3772796630859375,6.356182861328126
4.250999999999998,7.440917968750001,0.2854644775390625,5.332009887695313
4.260999999999996,7.476956176757813,0.3712982177734375,4.6212646484375
4.271000000000001,7.422375488281251,0.1852752685546875,5.168865966796876
4.280999999999999,7.133770751953126,0.236566162109375,6.552374267578125
4.290999999999997,6.8669982910156255,0.36187744140625,7.844515991210938
4.300999999999995,6.909915161132813,0.2687164306640625,8.415594482421875
4.311999999999998,6.840380859375,-0.131890869140625,7.598828125000001
4.320999999999998,6.87626953125,-0.5371337890625001,6.278573608398438
4.330999999999996,7.588958740234376,-0.418402099609375,5.4647979736328125
4.341000000000001,8.03726806640625,-0.0107666015625,5.122210693359375
4.350999999999999,8.236001586914064,0.133087158203125,5.673101806640625
4.360999999999997,8.148373413085938,0.21533203125,6.530691528320313
4.370999999999995,7.578939819335938,0.44561767578125,6.773388671875001
4.381999999999998,6.976309204101563,0.5884246826171875,7.01085205078125
4.391999999999996,6.490316772460938,0.523077392578125,6.7937255859375005
4.402000000000001,6.357827758789063,0.5187408447265626,6.223544311523438
4.411999999999999,6.0868682861328125,0.8350097656250001,5.0725646972656255
4.421999999999997,7.020272827148438,1.32967529296875,4.5043273925781255
4.431999999999995,9.356326293945314,1.4811553955078125,6.181524658203125
4.442,9.607247924804687,0.98514404296875,7.838833618164063
4.451999999999998,6.8355957031250005,-0.12142333984375,8.43922119140625
4.461999999999996,4.739846801757813,-1.3594329833984375,8.085568237304688
4.472000000000001,5.986380004882813,-1.7993682861328126,6.831259155273438
4.481999999999999,8.22269287109375,-1.7142822265625002,5.491714477539063
4.491999999999997,9.958956909179689,-1.23756103515625,6.137411499023438
4.501999999999995,9.567770385742188,-0.5283111572265625,6.473568725585938
4.5120000000000005,8.171701049804689,0.0587677001953125,6.572711181640625
4.521999999999999,6.677386474609375,0.017645263671875,6.581533813476563
4.533000000000001,6.175543212890625,0.1640411376953125,5.8390869140625
4.542999999999999,7.152761840820313,0.920843505859375,6.118869018554688
4.552999999999997,8.07435302734375,1.5659423828125,6.4004455566406255
4.562999999999995,8.166317749023438,1.79024658203125,6.5305419921875005
4.573,8.030688476562501,1.3277313232421877,6.344818115234376
4.582999999999998,7.366897583007813,0.716278076171875,5.438778686523438
4.592999999999996,6.773239135742188,0.284417724609375,5.109201049804688
4.603999999999999,6.714471435546876,-0.13697509765625,5.625848388671876
4.613,6.906475830078126,-0.2271453857421875,6.608450317382813
4.6229999999999976,7.540060424804688,-0.12142333984375,7.927957153320313
4.632999999999996,7.32188720703125,-0.2283416748046875,8.338882446289062
4.643000000000001,6.893316650390625,-0.4490570068359375,7.526153564453126
4.652999999999999,6.985729980468751,-0.7840179443359375,6.3319580078125
4.6640000000000015,7.568621826171875,-0.6443511962890626,4.975216674804688
4.677,8.120410156250001,-0.1308441162109375,4.781567382812501
4.6839999999999975,8.385089111328126,0.386700439453125,5.708242797851563
4.693999999999996,7.984780883789063,0.93848876953125,6.688153076171876
4.704000000000001,7.276129150390625,1.0902679443359375,7.41759033203125
4.713999999999999,6.641198730468751,0.942974853515625,7.3129150390625
4.723999999999997,5.974118041992188,0.7032684326171875,6.1656738281250005
4.733999999999995,5.9877258300781255,0.1622467041015625,4.934243774414063
4.744,6.966439819335938,-0.09091796875,4.393222045898438
4.753999999999998,9.89630126953125,0.5668914794921875,6.769351196289063
4.763999999999996,9.222491455078126,0.6059204101562501,8.437725830078126
4.777000000000001,5.984735107421876,0.1559661865234375,8.22269287109375
4.784999999999997,5.268307495117188,0.32838134765625,7.615576171875
4.794999999999995,6.720452880859376,-0.3049041748046875,5.558108520507813
4.805,8.384790039062501,-0.59635009765625,4.8988037109375
4.814999999999998,9.285745239257814,-0.3074462890625,6.568075561523438
4.824999999999996,8.751751708984376,-0.189013671875,7.374523925781251
4.835000000000001,7.832403564453125,-0.1679290771484375,7.724438476562501
4.844999999999999,6.899298095703125,-1.0504913330078125,6.5155883789062505
4.854999999999997,6.796716308593751,-0.8870483398437501,5.34801025390625
4.864999999999995,7.640399169921875,0.366363525390625,5.511154174804688
4.876999999999995,7.781860351562501,1.0732208251953126,6.092401123046876
4.884999999999998,8.084072875976563,1.3944244384765625,6.998739624023438
4.894999999999996,7.930798339843751,1.0071258544921875,6.803594970703125
4.905000000000001,7.597482299804688,0.86551513671875,5.821591186523438
4.914999999999999,7.205996704101563,0.8335144042968751,5.288943481445313
4.925999999999995,6.5724121093750005,0.2441925048828125,5.233166503906251
4.934999999999995,6.671405029296875,0.167779541015625,6.20634765625
4.945999999999998,7.137509155273438,0.2905487060546875,7.333999633789063
4.955999999999996,7.615127563476563,0.163592529296875,7.841525268554688
4.966000000000001,7.561892700195313,-0.242547607421875,7.679278564453125
4.976999999999997,7.039114379882813,-0.973779296875,6.561645507812501
4.985999999999997,7.082778930664063,-0.9084320068359376,5.895761108398438
4.995999999999995,7.399945068359376,-0.2911468505859375,5.302850341796876
5.006,7.926910400390626,-0.036187744140625,5.599081420898438
5.015999999999998,8.365649414062501,0.2657257080078125,6.402539062500001
5.025999999999996,7.9212280273437505,0.552984619140625,6.686807250976563
5.036000000000001,7.231417846679688,0.7759429931640626,7.179827880859375
5.045999999999999,6.4527832031250005,0.8185607910156251,6.813613891601563
5.055999999999997,6.328518676757813,0.6425567626953126,6.224591064453126
5.065999999999995,6.29906005859375,0.8025604248046876,5.161837768554688
5.076999999999998,6.16746826171875,1.550091552734375,3.960763549804688
5.086999999999996,8.234207153320312,1.879220581054688,5.497994995117188
5.097000000000001,10.2342529296875,1.483697509765625,8.697918701171876
5.106999999999999,8.650216674804689,0.5624053955078125,9.091796875
5.116999999999997,5.768057250976563,-1.358087158203125,8.34949951171875
5.126999999999995,4.699920654296875,-2.2940338134765628,6.297714233398438
5.1370000000000005,6.320742797851563,-1.878173828125,4.634274291992188
5.146999999999999,9.781607055664065,-2.415606689453125,5.9866790771484375
5.1569999999999965,10.639495849609377,-2.202218627929688,7.124798583984376
5.1669999999999945,9.414047241210938,0.30625,7.53482666015625
5.177,7.11851806640625,0.3264373779296875,6.995748901367188
5.186999999999998,5.3152618408203125,0.37623291015625,5.380160522460938
5.196999999999996,5.792282104492188,1.1509796142578126,5.508462524414063
5.207000000000001,7.605557250976563,1.7869567871093752,5.8775177001953125
5.217999999999996,8.7580322265625,2.3698486328125004,6.482839965820313
5.227999999999994,9.104656982421876,2.451495361328125,6.752902221679688
5.238,7.942462158203125,1.2727020263671875,5.97606201171875
5.2479999999999976,6.5472900390625,0.1780975341796875,5.320794677734376
5.257999999999996,5.872882080078125,-0.5393768310546876,5.47421875
5.268000000000001,6.189898681640625,-0.9350494384765624,6.088961791992188
5.277999999999999,7.508059692382813,-0.9096282958984376,7.462600708007813
5.287999999999997,8.100970458984376,-0.7137359619140625,8.329312133789063
5.297999999999995,7.671951293945313,-0.66214599609375,8.031735229492188
5.308,7.025057983398438,-0.9027496337890626,6.868643188476563
5.317999999999998,7.03238525390625,-0.760540771484375,5.224942016601563
5.327999999999996,7.561444091796876,-0.182135009765625,4.394268798828126
5.338000000000001,8.163626098632813,0.6613983154296875,5.161837768554688
5.347999999999999,8.220449829101563,1.532147216796875,6.369491577148438
5.358999999999995,7.808776855468751,1.7607879638671875,7.53721923828125
5.369,6.923373413085938,1.5429138183593751,7.714120483398438
5.378999999999998,5.936285400390625,1.1032775878906251,6.553271484375
5.388999999999996,5.594595336914063,0.166583251953125,4.932748413085938
5.399000000000001,6.34451904296875,-0.4308135986328125,3.728683471679688
5.408999999999999,9.4494873046875,-0.117535400390625,5.76431884765625
5.418999999999997,10.133166503906253,0.245538330078125,8.673544311523438
5.428999999999995,6.553720092773438,0.0491973876953125,8.936578369140626
5.439,4.587170410156251,0.2313323974609375,8.458660888671876
5.448999999999998,6.685012817382813,-0.1236663818359375,6.5858703613281255
5.458999999999996,8.748461914062501,-0.8167663574218751,4.129888916015625
5.469000000000001,9.66287536621094,-0.9338531494140626,5.369692993164063
5.479999999999997,8.967980957031251,-0.8477203369140626,6.988421630859375
5.488999999999997,7.594491577148438,-0.3473724365234375,7.568472290039063
5.5,6.631329345703126,-0.34453125,7.355532836914063
5.509999999999998,6.464447021484376,-0.131292724609375,5.8969573974609375
5.519999999999996,7.515237426757813,1.0400238037109375,5.4658447265625005
5.530000000000001,7.885040283203126,1.6157379150390627,6.034231567382813
5.539999999999999,7.749111938476563,1.651776123046875,6.546841430664063
5.549999999999997,7.80458984375,1.26387939453125,6.811221313476563
5.559999999999995,7.7890380859375,0.7717559814453125,5.948846435546876
5.57,7.685559082031251,0.5615081787109375,5.164080810546875
5.579999999999998,7.259231567382813,0.033197021484375,5.057461547851563
5.589999999999996,6.648526000976563,-0.391485595703125,5.928659057617188
5.600000000000001,6.659741210937501,-0.380718994140625,7.429104614257813
5.609999999999999,7.019973754882813,-0.4678985595703125,8.280413818359376
5.619999999999997,7.317251586914063,-0.6027801513671875,8.025454711914064
5.629999999999996,7.339532470703125,-0.9150115966796876,6.865951538085938
5.640999999999998,7.511947631835938,-0.7693634033203126,5.726934814453125
5.650999999999996,7.7232421875,-0.0892730712890625,4.914654541015626
5.661000000000001,7.840777587890625,0.3321197509765625,5.269802856445313
5.670999999999999,7.961303710937501,0.7609893798828126,6.199169921875001
5.680999999999997,7.755392456054688,1.179840087890625,6.811370849609376
5.690999999999995,7.35538330078125,1.2703094482421875,7.289736938476563
5.7010000000000005,6.652713012695313,1.122418212890625,7.052273559570313
5.710999999999999,6.106906127929688,0.783270263671875,6.189898681640625
5.7209999999999965,5.777926635742188,0.8605804443359376,4.811923217773438
5.7309999999999945,7.024758911132813,1.2167755126953126,4.400250244140626
5.741,9.708932495117187,1.1147918701171875,6.37681884765625
5.750999999999998,9.528591918945311,0.5700317382812501,7.979696655273438
5.760999999999996,6.389978027343751,-0.5476013183593751,8.298956298828125
5.771000000000001,5.028900146484375,-1.9107727050781247,8.426361083984375
5.7819999999999965,6.4850830078125,-2.246481323242188,6.759930419921876
5.7919999999999945,8.19757080078125,-2.0875244140625,5.202810668945313
5.802,9.888824462890623,-1.4545379638671876,6.491363525390626
5.811999999999998,9.332699584960938,-0.295782470703125,6.434390258789063
5.821999999999996,8.086764526367189,0.40135498046875,6.38638916015625
5.832000000000001,6.948196411132813,0.33197021484375,6.497793579101563
5.841999999999999,6.353341674804688,0.684576416015625,5.505770874023438
5.851999999999997,7.112686157226563,1.5460540771484377,6.187805175781251
5.861999999999995,7.538265991210938,1.9148101806640627,6.636862182617188
5.872,7.800851440429688,1.9110717773437504,6.643740844726563
5.881999999999998,8.1192138671875,1.2682159423828123,6.50302734375
5.891999999999996,7.56832275390625,0.518890380859375,5.3541412353515625
5.902000000000001,7.183267211914063,0.040972900390625,5.160491943359375
5.911999999999999,6.884793090820313,-0.5852844238281251,5.5694732666015625
5.922999999999995,6.873577880859376,-0.7612884521484375,6.503176879882813
5.933,7.355532836914063,-0.57840576171875,7.914199829101563
5.942999999999998,7.211529541015626,-0.453692626953125,8.141644287109376
5.952999999999996,7.071414184570313,-0.457879638671875,7.664175415039063
5.963000000000001,7.004122924804688,-0.6433044433593751,6.486279296875001
5.972999999999999,7.3963562011718755,-0.3291290283203125,5.124453735351563
5.982999999999997,8.05042724609375,0.277838134765625,5.039218139648438
5.992999999999995,8.210879516601564,0.7675689697265625,5.508612060546875
6.003,8.094390869140625,1.29976806640625,6.434988403320313
6.012999999999998,7.512695312500001,1.3585357666015625,7.147378540039063
6.022999999999996,6.370239257812501,1.0812957763671875,6.660339355468751
6.033000000000001,5.227783203125,0.4233367919921875,5.3749267578125
6.042999999999999,7.029544067382813,0.2115936279296875,5.606109619140625
6.052999999999997,9.36395263671875,0.6418090820312501,7.128237915039063
6.062999999999995,7.810122680664063,0.292791748046875,7.502676391601563
6.073999999999998,5.1986236572265625,-0.09091796875,7.85244140625
6.083999999999996,6.499887084960938,-0.0360382080078125,7.431646728515625
6.094000000000001,9.023159790039063,-0.7237548828125,5.379412841796875
6.103999999999999,9.706988525390626,-1.402947998046875,5.0638916015625
6.113999999999997,8.248712158203126,-1.1775970458984375,6.414801025390625
6.123999999999995,6.71776123046875,-0.39417724609375,7.278521728515625
6.134,6.666470336914063,0.1375732421875,7.822384643554688
6.143999999999998,7.144537353515625,-0.04964599609375,6.747967529296876
6.153999999999996,8.247665405273438,0.4701416015625,5.743084716796876
6.1640000000000015,8.493801879882813,1.3417877197265626,5.776132202148438
6.174,7.318746948242188,1.4675476074218752,5.7350097656250005
6.1839999999999975,7.007562255859376,1.232177734375,6.4901672363281255
6.195,7.419833374023438,0.8632720947265625,6.227133178710938
6.204999999999998,8.011996459960939,0.7787841796875,5.572763061523438
6.214999999999996,8.294769287109375,0.4308135986328125,5.564239501953125
6.225000000000001,7.422674560546875,-0.396868896484375,5.802001953125
6.234999999999999,6.476260375976563,-0.6521270751953125,6.741238403320313
6.244999999999997,6.196777343750001,-0.5292083740234376,7.490863037109375
6.254999999999996,6.757687377929688,-0.497955322265625,7.592398071289063
6.265000000000001,7.616622924804688,-0.5650970458984376,7.208090209960938
6.277999999999999,7.707839965820313,-0.6216217041015626,6.497793579101563
6.284999999999997,7.667166137695313,-0.1245635986328125,6.113784790039063
6.294999999999995,7.396804809570313,0.456982421875,5.723345947265625
6.305,7.520919799804688,0.54849853515625,5.706448364257813
6.314999999999998,7.899395751953126,0.7405029296875001,6.02032470703125
6.324999999999996,7.79202880859375,1.1032775878906251,6.176739501953126
6.335999999999999,7.442861938476563,1.209747314453125,6.943112182617188
6.3459999999999965,6.452035522460938,0.8755340576171876,6.831558227539063
6.3559999999999945,5.356982421875,0.8545989990234376,5.318402099609376
6.366,6.349304199218751,1.158905029296875,4.9155517578125005
6.378,9.058151245117188,1.203765869140625,6.61009521484375
6.385999999999996,9.369036865234376,0.6663330078125,7.9804443359375
6.396000000000001,6.846661376953126,-0.7176239013671876,7.8010009765625
6.405999999999999,5.8031982421875,-2.2372100830078128,7.645184326171876
6.415999999999997,7.415048217773438,-2.236163330078125,6.298461914062501
6.425999999999995,8.21192626953125,-1.77230224609375,5.094546508789063
6.436,8.94046630859375,-0.9314605712890626,6.8535400390625005
6.445999999999998,8.1287841796875,0.1930511474609375,7.114630126953125
6.455999999999996,7.56473388671875,0.6914550781250001,6.907522583007813
6.466000000000001,7.470974731445313,0.396868896484375,6.781613159179688
6.477999999999994,6.916195678710938,0.2911468505859375,5.275335693359375
6.486999999999995,7.500582885742188,1.0486968994140626,5.944061279296875
6.497,7.600323486328126,1.5598114013671875,6.331509399414063
6.506999999999998,7.546939086914063,1.693048095703125,6.1596923828125005
6.516999999999996,8.208187866210938,1.0636505126953126,6.508709716796876
6.527000000000001,7.908218383789063,0.3497650146484375,5.380160522460938
6.536999999999999,7.372879028320313,0.122021484375,5.36236572265625
6.546999999999997,6.725088500976563,-0.47193603515625,6.1345703125
6.556999999999995,6.252703857421875,-0.5882751464843751,6.726882934570313
6.567,6.963748168945313,-0.29010009765625,7.871133422851563
6.577999999999996,7.338186645507813,-0.271856689453125,7.859469604492188
6.586999999999996,7.411758422851563,-0.2115936279296875,7.18790283203125
6.597000000000001,7.430001831054688,-0.4278228759765625,6.315658569335938
6.606999999999999,7.536770629882813,-0.3026611328125,5.358328247070313
6.616999999999997,7.810272216796876,0.3823638916015625,5.1308837890625005
6.628,7.888180541992188,0.744390869140625,5.696429443359375
6.637999999999998,7.905078125,1.03359375,6.493008422851563
6.647999999999996,7.435833740234376,1.0786041259765626,7.071414184570313
6.658000000000001,6.906475830078126,0.8220001220703126,7.216015625000001
6.667999999999999,6.371884155273438,0.5256195068359375,6.724789428710938
6.677999999999997,5.669961547851563,-0.1517791748046875,5.0700225830078125
6.687999999999995,6.395361328125,-0.578704833984375,4.64578857421875
6.698,8.839230346679688,-0.1484893798828125,6.042755126953125
6.707999999999998,9.936526489257814,0.5429656982421875,8.014688110351564
6.717999999999996,7.8150573730468755,0.5674896240234375,8.274282836914063
6.727999999999994,5.781515502929688,0.7888031005859376,7.603762817382813
6.738,6.243881225585938,0.6960906982421875,6.346762084960938
6.7479999999999976,7.234707641601563,-0.0586181640625,5.031292724609376
6.759,8.516381835937501,-0.5176940917968751,6.547140502929688
6.768999999999998,8.84476318359375,-1.0014434814453126,7.347756958007813
6.778999999999996,8.498587036132813,-1.0101165771484375,7.171154785156251
6.7890000000000015,7.833001708984375,-1.0343414306640626,6.802099609375
6.799,6.819296264648438,-0.9045440673828126,5.135519409179688
6.8089999999999975,7.009954833984375,0.1789947509765625,5.522967529296875
6.818999999999996,7.402487182617188,0.98035888671875,6.222048950195313
6.829000000000001,7.594342041015626,1.496856689453125,6.814511108398438
6.838999999999999,8.138653564453126,1.40504150390625,7.119714355468751
6.848999999999997,7.822833251953125,0.9582275390625,6.1492248535156255
6.858999999999995,7.337139892578126,1.00906982421875,5.306887817382813
6.869,6.734808349609375,0.6518280029296876,5.165277099609376
6.878999999999998,6.671554565429688,0.372344970703125,5.7260375976562505
6.888999999999996,7.260278320312499,0.2938385009765625,6.901989746093751
6.899999999999999,7.491610717773438,-0.1069183349609375,7.664324951171875
6.909999999999997,7.479797363281251,-0.4711883544921875,7.943807983398438
6.919999999999995,6.986178588867188,-0.9244323730468752,7.194631958007813
6.93,7.018927001953125,-1.101483154296875,6.215768432617188
6.939999999999998,7.434039306640625,-0.630743408203125,5.45806884765625
6.949999999999996,7.93558349609375,-0.1930511474609375,5.037872314453125
6.960000000000001,8.40692138671875,0.236865234375,6.086569213867188
6.969999999999999,8.043997192382813,0.6331359863281251,6.618020629882813
6.979999999999997,7.26566162109375,0.9214416503906252,7.091751098632813
6.989999999999995,6.656750488281251,1.05452880859375,7.107901000976563
7.0,6.350350952148438,1.0552764892578126,6.420632934570313
7.009999999999998,6.110195922851563,1.0946044921875,5.3222900390625005
7.019999999999996,6.475213623046876,1.3669097900390623,4.31322021484375
7.030000000000001,8.407818603515626,1.477716064453125,5.2255401611328125
7.039999999999999,10.306478881835938,1.07008056640625,8.116522216796875
7.050999999999995,7.507611083984376,0.0402252197265625,8.403781127929689
7.061,4.714724731445313,-1.4371917724609375,8.208636474609376
7.070999999999998,5.563491821289063,-2.257098388671875,7.67598876953125
7.080999999999996,7.653558349609375,-2.247976684570313,5.463302612304688
7.091000000000001,9.682464599609377,-1.825238037109375,5.595193481445313
7.100999999999999,10.275375366210938,-0.8858520507812501,6.589459228515626
7.110999999999997,8.727526855468751,0.080450439453125,6.361267089843751
7.120999999999995,6.985281372070313,0.41630859375,6.651367187500001
7.131999999999998,5.990716552734376,0.5461059570312501,5.933743286132813
7.140999999999998,6.530242919921876,1.3552459716796876,5.823983764648438
7.150999999999996,7.752102661132813,2.0075225830078125,6.691891479492188
7.161000000000001,7.926760864257813,2.1150390625,6.587963867187501
7.170999999999999,8.266058349609375,1.7066558837890626,6.50601806640625
7.181999999999995,7.811019897460938,0.7671203613281251,5.7529541015625005
7.192,7.112387084960938,0.143853759765625,4.826577758789063
7.201999999999998,6.845166015625001,-0.4143646240234375,5.502630615234375
7.211999999999996,6.682620239257813,-0.8697021484375,6.128887939453126
7.222000000000001,7.249661254882813,-0.7091003417968751,7.598529052734375
7.231999999999999,7.468582153320313,-0.6361267089843751,8.430398559570314
7.241999999999997,7.118368530273438,-0.6003875732421875,7.907171630859375
7.251999999999995,6.885989379882813,-0.7161285400390626,6.885690307617188
7.262,7.27762451171875,-0.59754638671875,5.429058837890626
7.2719999999999985,7.873825073242188,0.0961517333984375,4.668069458007813
7.2819999999999965,8.328414916992188,0.733624267578125,5.28580322265625
7.295999999999999,8.139251708984375,1.2746459960937502,6.234011840820313
7.302,7.671951293945313,1.5399230957031251,7.051525878906251
7.311999999999998,6.863259887695313,1.2798797607421877,7.3344482421875
7.321999999999996,5.836395263671875,0.8625244140625,6.338088989257813
7.332999999999998,5.51549072265625,0.1164886474609375,5.015890502929688
7.342999999999996,6.681723022460938,-0.3443817138671875,4.658050537109375
7.352999999999994,9.207537841796876,0.1757049560546875,6.96658935546875
7.362999999999999,9.187948608398438,0.5087219238281251,8.439071655273438
7.372999999999997,7.308279418945313,0.3554473876953125,8.123550415039062
7.382999999999996,6.590206909179688,0.4215423583984375,7.269400024414063
7.396000000000001,7.072610473632813,-0.3895416259765625,5.545697021484376
7.402999999999999,7.466787719726563,-1.029705810546875,4.854989624023438
7.412999999999997,8.16168212890625,-1.0504913330078125,6.807781982421876
7.422999999999995,8.353686523437501,-1.179840087890625,7.502825927734375
7.433,8.321984863281251,-0.5932098388671876,7.64010009765625
7.442999999999998,7.516583251953126,-0.5040863037109375,6.484933471679688
7.452999999999996,6.931896972656251,0.12740478515625,5.343673706054688
7.463999999999999,7.209735107421875,1.2223083496093752,5.509808349609376
7.473999999999997,7.277774047851563,1.451846313476563,5.852096557617188
7.483999999999995,7.936779785156251,1.8049011230468752,6.645385742187501
7.495999999999995,8.283255004882813,1.472930908203125,6.649423217773438
7.503999999999998,8.009005737304689,0.9393859863281252,5.954977416992188
7.513999999999996,7.286297607421876,0.6464447021484375,5.636016845703125
7.524000000000001,6.375622558593751,-0.0785064697265625,5.501583862304688
7.533999999999999,6.330014038085938,-0.3001190185546875,6.388183593750001
7.543999999999997,6.839334106445313,-0.3769805908203125,7.251156616210938
7.553999999999995,7.704849243164063,-0.6537719726562501,7.829412841796875
7.564,7.921826171875001,-0.7644287109375001,7.590005493164063
7.573999999999998,7.362860107421875,-0.9601715087890624,6.440072631835938
7.583999999999996,7.329962158203125,-0.73511962890625,5.854489135742188
7.5959999999999965,7.335794067382813,-0.1562652587890625,5.200119018554688
7.604999999999997,7.594192504882813,0.311932373046875,5.4987426757812505
7.614999999999995,8.075399780273438,0.8937774658203126,6.533532714843751
7.625,7.781561279296875,1.3256378173828125,6.870437622070313
7.634999999999998,7.295419311523438,1.3002166748046875,7.323382568359375
7.644999999999996,6.580337524414063,0.9909759521484376,6.850100708007813
7.655000000000001,6.078045654296876,0.8495147705078125,5.716616821289063
7.664999999999999,5.927313232421875,1.125857543945313,4.222900390625
7.674999999999997,7.455871582031251,1.3746856689453126,4.199871826171876
7.684999999999995,10.412051391601564,1.151727294921875,7.4053283691406255
7.695999999999998,9.007608032226564,0.421990966796875,8.643038940429689
7.704999999999998,5.397805786132813,-1.083987426757813,8.750555419921875
7.714999999999996,4.590011596679688,-2.364614868164063,8.249011230468751
7.725000000000001,6.768902587890626,-2.312277221679688,5.702261352539063
7.735999999999997,9.282904052734375,-2.029803466796875,4.799212646484375
7.745999999999995,10.488912963867188,-1.041070556640625,6.452484130859376
7.756,9.015982055664065,0.2077056884765625,6.534579467773438
7.765999999999998,7.363607788085938,0.5467041015625,6.990216064453126
7.775999999999996,6.089260864257813,0.3566436767578125,6.440670776367188
7.786000000000001,6.165524291992188,0.8937774658203126,5.611044311523438
7.795999999999999,7.581182861328125,1.7485260009765626,6.390875244140625
7.805999999999997,7.97685546875,2.0679351806640627,6.3944641113281255
7.815999999999995,8.359219360351563,1.8370513916015627,6.597085571289063
7.826,8.201458740234376,0.8391967773437501,6.232815551757813
7.8359999999999985,7.350299072265625,0.138470458984375,4.9922637939453125
7.8459999999999965,6.992758178710938,-0.3312225341796875,5.225689697265626
7.855999999999994,6.717163085937501,-0.8960205078125001,5.671755981445313
7.866,6.910214233398438,-0.7511199951171875,6.947448730468751
7.876999999999995,7.360617065429688,-0.459375,8.295516967773438
7.887,7.202557373046876,-0.269464111328125,8.254693603515626
7.8969999999999985,7.016683959960938,-0.2746978759765625,7.450338745117188
7.9069999999999965,7.016983032226563,-0.5247222900390626,6.026904296875
7.916999999999994,7.534378051757813,-0.0512908935546875,4.885345458984375
7.927,8.199813842773438,0.5944061279296875,4.7719970703125005
7.936999999999998,8.297012329101562,0.9677978515625,5.774935913085938
7.946999999999996,7.984631347656251,1.3118804931640626,6.729125976562501
7.957000000000001,7.273886108398438,1.2559539794921877,7.3470092773437505
7.966999999999999,6.444409179687501,0.8843566894531251,7.04075927734375
7.976999999999997,5.214324951171875,0.140264892578125,5.476312255859376
7.986999999999995,4.9681884765625,-0.9126190185546876,4.0501861572265625
7.997,8.685955810546876,-0.055029296875,6.549084472656251
8.006999999999998,10.120755004882811,0.95762939453125,7.86978759765625
8.018,9.07071228027344,0.7138854980468751,8.575897216796875
8.027999999999999,7.338784790039063,0.9740783691406252,8.153756713867189
8.037999999999997,5.6766906738281255,-0.4750762939453125,5.465097045898438
8.047999999999995,6.366949462890625,-1.679141235351563,5.044451904296875
8.058,7.817449951171875,-1.666729736328125,6.175244140625001
8.067999999999998,8.614178466796876,-1.2733001708984375,7.024459838867188
8.077999999999996,9.465338134765624,0.3345123291015625,8.242581176757813
8.088000000000001,7.969976806640625,0.236865234375,6.766360473632813
8.097999999999999,6.626843261718751,0.10587158203125,5.622109985351563
8.107999999999997,6.310873413085938,0.8858520507812501,5.4553771972656255
8.117999999999995,6.637908935546876,1.4455657958984376,5.09320068359375
8.128,8.159289550781251,2.2312286376953128,6.887783813476563
8.137999999999998,8.634664916992188,1.8198547363281248,6.826324462890626
8.147999999999996,8.465689086914063,0.9302642822265624,6.489718627929688
8.158000000000001,7.589108276367188,0.5241241455078125,5.97965087890625
8.168,6.122906494140626,-0.42647705078125,5.007516479492188
8.178999999999995,6.255096435546876,-0.9332550048828124,6.083578491210938
8.189,6.852493286132813,-1.0836883544921876,6.570169067382813
8.198999999999998,7.738494873046876,-0.8910858154296876,7.423123168945313
8.208999999999996,8.339630126953125,-0.6283508300781251,8.120559692382812
8.219000000000001,7.389776611328125,-0.8234954833984376,6.98094482421875
8.229,6.908270263671875,-0.6587066650390625,6.320443725585938
8.238999999999997,6.936981201171876,-0.048748779296875,5.47601318359375
8.248999999999995,7.425366210937501,0.7310821533203126,4.901644897460938
8.259,8.245272827148439,1.2466827392578126,6.154159545898438
8.268999999999998,8.083773803710939,1.47921142578125,6.600076293945313
8.278999999999996,7.619314575195313,1.6456451416015627,7.181472778320313
8.289000000000001,6.785501098632813,1.3041046142578123,7.129135131835938
8.299999999999997,5.743832397460938,0.6853240966796875,5.756842041015625
8.308999999999997,5.4389282226562505,0.6660339355468751,4.164581298828125
8.32,7.3248779296875,0.9093292236328124,4.390380859375
8.329999999999998,10.833743286132814,0.7956817626953125,8.307180786132813
8.339999999999996,8.481390380859375,-0.0243743896484375,8.334695434570314
8.350000000000001,5.214474487304688,-1.8711456298828129,8.271292114257813
8.36,6.2808166503906255,-2.5368804931640625,8.281460571289063
8.369999999999997,7.047637939453126,-1.8549957275390627,4.7017150878906255
8.379999999999995,8.781359863281251,-1.6215698242187502,5.271746826171875
8.39,9.8610107421875,-0.007476806640625,6.995001220703125
8.399999999999999,8.383593750000001,1.4084808349609377,6.111541748046875
8.409999999999997,7.679129028320313,1.038079833984375,7.3709350585937505
8.419999999999995,6.454876708984376,0.1975372314453125,6.3798095703125
8.43,6.06817626953125,0.8885437011718751,5.432797241210938
8.439999999999998,7.361962890625,1.3746856689453126,6.9268127441406255
8.451,7.710531616210938,1.3133758544921876,6.375473022460938
8.460999999999999,8.509503173828126,1.2432434082031252,6.187057495117188
8.470999999999997,8.590701293945314,0.134283447265625,6.183319091796876
8.482999999999997,7.39366455078125,-0.2295379638671875,5.110546875000001
8.491,6.915597534179688,-0.4308135986328125,5.5092102050781255
8.500999999999998,6.571963500976563,-1.02222900390625,5.839236450195313
8.510999999999996,6.958963012695313,-0.4364959716796875,6.875073242187501
8.521,7.389028930664063,0.08433837890625,7.84227294921875
8.530999999999999,7.338934326171875,0.2426971435546875,7.962350463867188
8.540999999999997,7.002178955078126,0.1580596923828125,7.403533935546876
8.550999999999995,6.745126342773438,-0.151031494140625,6.126644897460938
8.561,7.410562133789063,0.1973876953125,5.317654418945313
8.570999999999998,8.157495117187501,0.6824829101562501,4.9115142822265625
8.582,8.44879150390625,0.8089904785156251,5.537771606445313
8.591999999999999,8.150466918945312,0.884954833984375,6.744378662109376
8.601999999999997,7.161135864257813,0.766522216796875,7.0916015625
8.611999999999995,6.510354614257813,0.5625549316406251,7.307382202148438
8.622,5.82652587890625,-0.054132080078125,6.323733520507813
8.631999999999998,5.467489624023438,-0.74110107421875,4.466046142578126
8.641999999999996,7.103863525390626,-0.62147216796875,4.774987792968751
8.652000000000001,9.947592163085938,0.599041748046875,7.609893798828126
8.661999999999999,9.272885131835938,1.0406219482421877,8.211627197265626
8.671999999999997,7.467834472656251,1.2297851562500002,8.359667968750001
8.681999999999995,6.440072631835938,0.9236846923828126,7.133621215820313
8.692,5.8546386718750005,-0.4418792724609375,4.7530059814453125
8.701999999999998,7.35179443359375,-1.2553558349609375,5.4359375000000005
8.711999999999996,8.560046386718751,-1.6770477294921875,6.680526733398438
8.722000000000001,9.099871826171876,-0.91097412109375,7.6718017578125
8.732999999999997,8.742630004882812,-0.11663818359375,7.810122680664063
8.742999999999995,7.201809692382813,-0.4116729736328125,6.011053466796875
8.753,6.483737182617188,0.094207763671875,5.303448486328126
8.762999999999998,6.525009155273438,0.70521240234375,5.354440307617188
8.772999999999996,7.262521362304688,1.4769683837890626,5.9877258300781255
8.783000000000001,8.477053833007814,1.9345489501953128,7.237399291992188
8.793,8.473614501953126,1.3163665771484376,6.8550354003906255
8.802999999999997,8.005117797851563,1.002789306640625,6.325378417968751
8.812999999999995,6.875222778320313,0.542816162109375,5.477957153320313
8.823,6.23685302734375,-0.106768798828125,5.034432983398438
8.832999999999998,6.761874389648438,-0.4230377197265625,6.072512817382813
8.842999999999996,7.4068237304687505,-0.6585571289062501,6.654208374023438
8.852999999999994,8.061492919921875,-0.5244232177734376,7.700213623046875
8.863,7.861264038085938,-0.575714111328125,7.83330078125
8.873999999999995,6.895709228515625,-0.8731414794921876,7.005169677734376
8.884,6.521270751953126,-0.5628540039062501,6.228030395507813
8.893999999999998,6.995449829101563,-0.005682373046875,5.3988525390625
8.903999999999996,7.920330810546876,0.5432647705078125,5.3990020751953125
8.914000000000001,8.481838989257813,0.9188995361328126,6.062493896484376
8.924,8.212075805664064,1.10596923828125,6.744079589843751
8.933999999999997,7.342074584960938,1.2707580566406251,7.019525146484376
8.943999999999996,6.425717163085938,1.075164794921875,6.721051025390626
8.954,5.92222900390625,0.6479400634765625,5.990716552734376
8.963999999999999,5.566183471679688,1.101483154296875,4.236358642578125
8.973999999999997,7.208837890625,1.5817932128906251,4.428213500976563
8.983999999999995,10.576092529296876,1.317263793945313,8.195626831054689
8.994,8.446697998046876,0.6268554687500001,8.131326293945314
9.003999999999998,5.694784545898438,-1.4600708007812502,8.395407104492188
9.015,6.441268920898438,-2.3789703369140627,8.3871826171875
9.025,7.0165344238281255,-1.619775390625,4.868896484375
9.034999999999997,8.620458984375,-1.699627685546875,4.915103149414063
9.044999999999996,9.77308349609375,-1.9616149902343751,6.926663208007813
9.055,8.2962646484375,0.4110748291015625,6.0345306396484375
9.064999999999998,7.756887817382813,0.246734619140625,7.778869628906251
9.074999999999996,6.532635498046876,-0.1885650634765625,6.762322998046876
9.085,6.157150268554688,0.6854736328125001,5.278326416015625
9.098,7.530041503906251,1.2852630615234375,6.923672485351563
9.104999999999997,7.583575439453125,1.6695709228515627,5.718710327148438
9.114999999999997,8.390023803710939,1.92542724609375,6.006268310546876
9.125,8.659936523437501,0.954638671875,6.4602600097656255
9.134999999999998,7.389926147460938,0.419000244140625,4.846914672851563
9.144999999999996,6.961804199218751,-0.002093505859375,5.835498046875
9.156,6.511102294921876,-0.6971374511718751,6.11004638671875
9.165999999999997,6.597085571289063,-0.383709716796875,6.7386962890625
9.175999999999997,7.313662719726563,-0.1284515380859375,8.071063232421876
9.186,7.384243774414063,-0.0773101806640625,7.804440307617188
9.198,7.262371826171876,-0.1016845703125,7.264913940429688
9.205999999999996,7.142742919921876,-0.5057312011718751,6.103317260742188
9.216,7.477853393554688,-0.265875244140625,5.1637817382812505
9.226,8.069268798828126,0.2624359130859375,5.064938354492188
9.235999999999995,8.181121826171875,0.6687255859375001,5.68536376953125
9.245999999999997,7.971920776367188,1.0845855712890626,6.731518554687501
9.256,7.18431396484375,0.9842468261718752,7.194781494140625
9.265999999999998,6.06339111328125,0.6328369140625001,6.695330810546875
9.275999999999996,4.894766235351563,-0.21951904296875,5.1009765625000005
9.287,6.602169799804688,-0.2627349853515625,5.101574707031251
9.297999999999996,9.338980102539065,0.9214416503906252,7.601220703125
9.306999999999997,8.96558837890625,1.050042724609375,7.67479248046875
9.317,8.007809448242188,1.420892333984375,8.136260986328125
9.326999999999998,7.147229003906251,0.753662109375,6.993655395507813
9.336999999999996,6.400296020507813,-1.1784942626953123,4.511505126953125
9.347,7.21781005859375,-1.8210510253906247,6.01553955078125
9.357,7.680624389648438,-2.017691040039063,6.539364624023438
9.366999999999996,8.658291625976563,-0.9227874755859377,8.053268432617188
9.376999999999995,8.766854858398439,-0.1081146240234375,7.963995361328125
9.387,7.558453369140626,-0.4095794677734375,5.761477661132813
9.397999999999996,6.976309204101563,0.279034423828125,5.579791259765625
9.406999999999996,6.576449584960938,0.922039794921875,5.030545043945313
9.416999999999994,7.099526977539063,1.7954803466796876,5.903536987304688
9.427,8.210879516601564,2.1376190185546875,7.16337890625
9.437999999999995,8.339480590820314,1.615887451171875,6.473269653320313
9.448,8.285946655273438,1.3664611816406251,6.401043701171876
9.457999999999998,7.062591552734376,0.520086669921875,5.5184814453125
9.467999999999996,6.195281982421876,-0.2839691162109375,5.423675537109375
9.477999999999994,6.391622924804688,-0.717474365234375,6.298611450195313
9.488,7.098928833007813,-0.945068359375,6.697723388671876
9.497999999999998,8.09708251953125,-0.7669708251953126,7.786495971679688
9.507999999999996,7.980145263671876,-0.8988616943359375,7.571911621093751
9.518,7.290185546875,-1.0730712890625,6.858175659179688
9.528,6.824530029296875,-0.5920135498046876,6.315957641601563
9.537999999999997,6.868045043945313,0.0070281982421875,5.165127563476563
9.547999999999996,7.812664794921876,0.6222198486328125,5.603268432617188
9.558,8.280264282226563,1.1310913085937502,5.9792022705078125
9.568999999999996,8.101419067382814,1.4702392578125,6.611740112304688
9.579,7.417889404296876,1.6463928222656252,7.35538330078125
9.589,6.328369140625001,1.280926513671875,6.66153564453125
9.598999999999997,5.577996826171876,0.76981201171875,5.584576416015626
9.608999999999996,5.314663696289063,1.0249206542968752,3.653167724609376
9.619,8.411856079101563,1.4670989990234375,5.166921997070313
9.628999999999998,11.04713134765625,0.7974761962890625,9.2509033203125
9.638999999999996,7.420730590820313,-0.4873382568359375,8.249908447265625
9.649,5.089910888671875,-2.266668701171876,8.376715087890625
9.659,6.881802368164063,-2.1666290283203127,7.547238159179688
9.668999999999995,7.393963623046876,-1.4772674560546877,3.219961547851563
9.678999999999997,9.52724609375,-2.2138824462890625,6.307733154296876
9.689,9.249407958984376,-0.22550048828125,7.123153686523438
9.698999999999998,7.593594360351563,1.6019805908203126,6.5484863281250005
9.708999999999996,7.482040405273438,0.5520874023437501,8.0761474609375
9.72,6.20335693359375,0.121124267578125,5.795422363281251
9.729999999999997,6.535028076171876,1.1306427001953123,5.137911987304688
9.739999999999997,7.883245849609375,1.4491546630859375,7.141247558593751
9.75,7.7881408691406255,1.7083007812500002,5.451788330078125
9.759999999999998,8.562289428710939,1.2152801513671876,6.566729736328125
9.769999999999996,8.369537353515625,0.0581695556640625,6.120364379882813
9.78,7.27164306640625,-0.121722412109375,4.769155883789063
9.79,6.897503662109376,-0.766522216796875,6.130682373046875
9.799999999999995,6.3152099609375005,-1.121820068359375,6.056362915039063
9.809999999999995,6.855484008789063,-0.3428863525390625,7.149322509765626
9.82,7.428805541992188,-0.0179443359375,8.174392700195312
9.829999999999998,7.367196655273438,0.2643798828125,7.476208496093751
9.839999999999996,7.181173706054688,0.0518890380859375,7.114031982421875
9.851,7.080984497070313,-0.2201171875,5.903237915039063
9.860999999999995,7.541854858398438,0.480609130859375,5.0495361328125
9.870999999999997,8.113232421875,0.7729522705078126,5.167071533203125
9.881,8.247067260742188,0.90977783203125,5.8715362548828125
9.890999999999998,7.806683349609376,1.0101165771484375,6.711630249023438
9.900999999999996,7.183715820312501,0.6999786376953125,7.322186279296876
9.911,6.470278930664063,0.49945068359375,7.317999267578125
9.921,5.936285400390625,-0.136676025390625,6.064288330078125
9.930999999999996,5.386590576171876,-1.1710174560546875,4.442718505859375
9.940999999999995,6.876119995117188,-0.9811065673828124,4.083682250976563
9.951999999999998,10.62125244140625,0.5274139404296876,8.027548217773438
9.961,10.133316040039062,0.7734008789062501,8.536120605468751
9.970999999999997,7.239193725585938,0.8836090087890626,8.545391845703126
9.980999999999996,5.5220703125,1.0896697998046876,7.306484985351563
9.991,5.232119750976563,-0.1284515380859375,4.39755859375
10.001999999999995,7.31710205078125,-0.450103759765625,5.21282958984375
10.012,9.23355712890625,-0.7191192626953126,6.926513671875001
10.021999999999998,9.6289306640625,-0.2223602294921875,7.855133056640626
10.031999999999996,8.631524658203126,0.283819580078125,7.673596191406251
10.041999999999994,6.486877441406251,-0.7107452392578125,5.930902099609376
10.052,6.206646728515626,-0.3768310546875,4.980450439453126
10.061999999999998,6.862213134765626,0.4012054443359375,5.376721191406251
10.071999999999996,7.783056640625,1.100885009765625,6.0328857421875
10.082,8.759378051757814,1.5019409179687502,7.686306762695313
10.092,8.323629760742188,0.6859222412109376,6.921578979492188
10.101999999999997,7.6658203125,0.533245849609375,6.216964721679688
10.111999999999997,6.507812500000001,0.42109375,5.227633666992188
10.122999999999998,6.177188110351563,-0.02452392578125,4.798016357421876
10.132999999999996,6.924270629882813,0.083441162109375,6.280517578125001
10.143,7.525405883789063,0.046356201171875,6.865054321289063
10.153,8.055511474609375,0.0351409912109375,8.307180786132813
10.162999999999997,7.604809570312501,-0.17645263671875,7.799505615234375
10.172999999999996,6.758734130859375,-0.8092895507812501,6.519326782226563
10.183,6.88583984375,-0.6036773681640626,5.8800598144531255
10.192999999999998,7.269699096679688,-0.0671417236328125,4.80010986328125
10.202999999999996,8.101119995117188,0.2388092041015625,5.5305938720703125
10.216,8.46793212890625,0.5100677490234375,6.689199829101563
10.223,7.849749755859375,0.5945556640625,6.944009399414063
10.232999999999995,7.211978149414063,0.7418487548828125,7.440020751953125
10.242999999999997,6.297116088867188,0.7179229736328125,6.594842529296876
10.253,5.887835693359375,0.5851348876953125,5.369692993164063
10.262999999999998,5.712429809570313,1.1892608642578126,3.855191040039063
10.272999999999996,7.670455932617188,2.113394165039063,3.871939086914063
10.284,11.402728271484376,1.8328643798828128,9.40582275390625
10.293999999999995,8.4398193359375,0.8048034667968751,8.813958740234376
10.303999999999997,4.112841796875,-1.3090393066406252,7.940817260742188
10.315999999999995,5.41021728515625,-2.498898315429688,8.618215942382813
10.323999999999998,7.315756225585938,-1.8328643798828128,4.283462524414063
10.333999999999996,9.799551391601565,-1.9052398681640623,4.445260620117188
10.344,10.939764404296875,-1.5459045410156251,8.187701416015626
10.354,8.292376708984376,0.551788330078125,5.39945068359375
10.363999999999995,6.849652099609376,0.1099090576171875,7.384243774414063
10.373999999999995,5.870040893554688,-0.55926513671875,6.848306274414063
10.384,5.9174438476562505,0.620574951171875,4.920785522460938
10.393999999999998,7.92003173828125,1.7094970703125,7.533630371093751
10.403999999999996,8.145532226562501,1.995111083984375,6.418539428710938
10.416999999999994,8.370733642578125,1.993466186523437,6.094793701171875
10.424999999999995,8.373126220703126,0.8085418701171876,6.339733886718751
10.434999999999995,7.073059082031251,0.445916748046875,4.305743408203125
10.445,6.835894775390625,0.2005279541015625,5.194137573242188
10.454999999999998,6.833502197265625,-0.652874755859375,6.067578125000001
10.464999999999996,6.957766723632813,-0.392083740234375,6.918438720703126
10.475,7.486376953125,-0.191107177734375,8.550924682617188
10.485,7.1693603515625,-0.2803802490234375,8.144335937500001
10.494999999999996,6.861465454101563,-0.54132080078125,7.1256958007812505
10.504999999999995,6.955075073242188,-0.9951629638671876,5.965594482421875
10.515999999999998,7.5369201660156255,-0.363970947265625,4.820745849609375
10.525,8.393313598632814,0.410626220703125,4.977908325195313
10.534999999999997,8.517129516601564,0.756353759765625,5.973968505859375
10.544999999999996,7.907919311523438,1.13348388671875,6.746322631835938
10.555,7.074703979492188,1.143353271484375,7.389178466796875
10.565999999999995,6.2817138671875,1.0768096923828123,6.976309204101563
10.576,5.350253295898438,0.4696929931640625,5.487377929687501
10.586,5.458218383789063,-0.43485107421875,4.147833251953125
10.595999999999997,8.547036743164064,0.2507720947265625,5.957968139648438
10.605999999999996,10.096829223632811,1.2320281982421877,8.287142944335939
10.616999999999996,8.204150390625001,0.7801300048828126,8.023660278320314
10.625999999999998,6.678283691406251,0.8154205322265625,7.9900146484375005
10.635999999999996,6.443661499023438,-0.029608154296875,6.23984375
10.646,6.876419067382813,-1.2439910888671877,4.4359893798828125
10.656,8.138055419921876,-1.573419189453125,6.712228393554688
10.665999999999997,8.533129882812501,-1.87757568359375,7.11552734375
10.675999999999997,8.725433349609375,-0.90618896484375,8.033828735351562
10.686,7.893264770507813,-0.5292083740234376,6.999935913085938
10.696999999999996,6.919485473632813,-0.4342529296875,5.229278564453125
10.707,6.897802734375,0.6557159423828125,5.452536010742188
10.717,6.949093627929688,1.4113220214843751,5.435488891601563
10.726999999999997,7.730718994140625,2.3771759033203126,6.802398681640626
10.736999999999997,8.15390625,2.239004516601563,7.257437133789063
10.747,7.94395751953125,1.3911346435546876,6.376220703125001
10.756999999999998,7.665222167968751,1.1608489990234376,6.030044555664063
10.766999999999996,6.751705932617188,0.30625,4.960861206054688
10.777,6.625497436523438,-0.387896728515625,5.5794921875000005
10.787,6.983337402343751,-0.789251708984375,6.3391357421875005
10.796999999999995,7.51090087890625,-1.1306427001953123,7.078442382812501
10.806999999999997,7.983135986328126,-1.00428466796875,8.161532592773439
10.817999999999998,7.449890136718751,-1.0495941162109377,7.300802612304688
10.827999999999996,6.920083618164063,-1.099090576171875,6.734808349609375
10.838,6.842324829101563,-0.5314514160156251,5.898153686523438
10.848,7.316802978515626,0.267071533203125,5.106509399414063
10.857999999999995,8.285348510742189,0.9416290283203126,5.891574096679688
10.867999999999997,8.2723388671875,1.409527587890625,6.233114624023438
10.878,7.796813964843751,1.728936767578125,6.727182006835938
10.887999999999998,7.025357055664063,1.7177215576171876,7.163528442382813
10.897999999999996,6.1716552734375005,1.2433929443359375,6.307135009765625
10.908,5.725140380859376,0.78895263671875,5.428311157226563
10.918,5.8894805908203125,1.0727722167968752,3.7445343017578128
10.927999999999995,8.88065185546875,1.41102294921875,5.4434143066406255
10.937999999999995,10.521511840820311,0.6261077880859376,9.359616088867188
10.948,6.765014648437501,-0.6890625,7.700961303710938
10.957999999999998,5.083929443359375,-2.193695068359375,8.559597778320313
10.969,7.101321411132813,-2.1675262451171875,8.060147094726563
10.979,7.732513427734376,-1.5070251464843751,3.3316650390625004
10.988999999999995,9.6169677734375,-2.1142913818359377,6.501980590820313
10.998999999999995,9.233706665039064,-1.00009765625,6.819894409179688
11.009,7.63890380859375,1.4596221923828123,6.1525146484375
11.018999999999998,7.321438598632813,0.50244140625,7.68675537109375
11.028999999999996,6.256741333007813,0.3434844970703125,5.871087646484376
11.039,6.72733154296875,1.396966552734375,5.55496826171875
11.049,7.715316772460938,1.6178314208984377,7.39366455078125
11.058999999999996,7.635314941406251,1.6991790771484376,5.681774902343751
11.068999999999996,8.443109130859376,1.09041748046875,6.526803588867188
11.079,8.220748901367188,0.1128997802734375,5.823236083984376
11.089999999999996,7.254895019531251,-0.08134765625,4.713079833984375
11.098999999999997,7.063040161132813,-0.7793823242187501,6.028399658203125
11.11,6.628488159179688,-1.0623046875000002,6.004473876953125
11.119999999999996,7.122406005859376,-0.3904388427734375,7.111190795898438
11.129999999999995,7.466339111328126,-0.1066192626953125,8.16168212890625
11.14,7.130331420898438,0.21533203125,7.434637451171875
11.15,6.960906982421876,0.0192901611328125,7.185958862304688
11.159999999999997,6.932495117187501,-0.114544677734375,6.006118774414063
11.169999999999996,7.487124633789063,0.5686859130859375,5.168417358398438
11.18,8.271292114257813,0.7961303710937501,5.30614013671875
11.189999999999998,8.398248291015626,0.9513488769531252,5.822787475585938
11.199999999999996,7.865002441406251,1.0310516357421875,6.537570190429688
11.21,7.141247558593751,0.72913818359375,7.207043457031251
11.22,6.264816284179688,0.458477783203125,6.969729614257813
11.229999999999997,5.276382446289063,-0.3970184326171875,5.361019897460938
11.239999999999997,5.253353881835938,-1.036135864257813,4.02969970703125
11.25,8.978897094726562,0.095703125,6.4527832031250005
11.259999999999998,10.705740356445313,1.15262451171875,8.834744262695313
11.271,8.653805541992188,0.8827117919921875,8.340975952148439
11.281,6.577645874023438,0.9278717041015626,7.556060791015626
11.290999999999997,5.557659912109376,-0.0333465576171875,5.275485229492188
11.300999999999997,6.36246337890625,-0.9350494384765624,3.946408081054688
11.311,8.20953369140625,-1.2260467529296877,7.164724731445313
11.320999999999998,8.911605834960938,-1.2119903564453125,7.847805786132813
11.330999999999996,8.92371826171875,-0.1350311279296875,8.633468627929688
11.341,7.84287109375,-0.4006072998046875,6.861465454101563
11.351,6.64598388671875,-0.6051727294921876,4.610348510742188
11.360999999999995,6.760827636718751,0.2412017822265625,4.786651611328125
11.370999999999997,7.205398559570313,1.0458557128906252,5.263073730468751
11.381,8.167514038085939,2.0869262695312503,7.155453491210938
11.391999999999996,8.399743652343751,1.6798889160156252,7.554415893554688
11.402,7.923321533203126,0.9561340332031252,6.771444702148438
11.412,7.276577758789063,0.8765808105468751,5.8860412597656255
11.421999999999995,6.246423339843751,0.1688262939453125,4.853793334960938
11.431999999999997,6.455624389648438,-0.2749969482421875,5.589361572265625
11.442,7.143341064453126,-0.464459228515625,6.354537963867188
11.451999999999998,8.010650634765625,-0.5558258056640626,7.23515625
11.461999999999996,8.2914794921875,-0.398663330078125,8.060595703125001
11.472,7.343121337890626,-0.7451385498046875,6.993804931640626
11.482,6.628189086914063,-0.8898895263671875,6.547439575195313
11.491999999999996,6.620861816406251,-0.233575439453125,5.784207153320313
11.501999999999995,7.300204467773438,0.4007568359375,5.211932373046875
11.512999999999998,8.341275024414063,0.7442413330078126,6.235507202148438
11.522999999999996,8.420828247070313,0.9565826416015626,6.440072631835938
11.533,7.822085571289063,1.1272033691406251,6.859970092773438
11.543,6.910662841796875,1.1213714599609377,6.991262817382813
11.552999999999995,6.145187377929688,0.7870086669921875,6.118569946289063
11.562999999999995,6.190197753906251,0.454888916015625,5.5914550781250005
11.573,5.817254638671876,0.97557373046875,3.7294311523437504
11.582999999999998,7.719055175781251,1.814022827148437,4.143048095703126
11.592999999999996,11.384185791015623,1.40264892578125,9.972863769531251
11.602999999999994,8.187850952148438,0.294586181640625,8.8728759765625
11.613,4.16607666015625,-1.382012939453125,7.721148681640625
11.622999999999998,5.732916259765625,-2.0703277587890625,8.278469848632813
11.632999999999996,7.658193969726563,-1.5817932128906251,3.996353149414063
11.643,9.851739501953126,-1.7586944580078123,4.065737915039063
11.653,10.59852294921875,-2.3196044921875,9.558798217773438
11.662999999999997,7.671203613281251,0.6782958984375,4.95323486328125
11.674,6.664227294921876,0.7606903076171876,8.0761474609375
11.683999999999996,6.233563232421876,-0.3153717041015625,6.35050048828125
11.693999999999996,6.193637084960938,0.7165771484375001,4.593301391601563
11.704,8.223291015625001,1.6559631347656252,7.28360595703125
11.714,8.1431396484375,1.6807861328125002,6.711630249023438
11.723999999999997,8.2077392578125,1.6423553466796876,5.852246093750001
11.733999999999996,8.340826416015625,0.4945159912109375,6.8140625
11.744,6.914102172851563,0.0832916259765625,4.069924926757813
11.753999999999998,6.753799438476563,-0.0201873779296875,5.335299682617188
11.763999999999996,6.825277709960938,-0.8566925048828126,6.198721313476563
11.774,6.926364135742188,-0.4278228759765625,6.763369750976563
11.784,7.682867431640625,0.018841552734375,8.64617919921875
11.793999999999995,7.296615600585938,0.054730224609375,8.011398315429688
11.805,6.814361572265626,-0.131591796875,6.910513305664063
11.817999999999998,6.931896972656251,-0.5450592041015625,5.967388916015626
11.824999999999996,7.426861572265626,0.054730224609375,4.708444213867188
11.835,8.348602294921875,0.69683837890625,5.0471435546875005
11.845,8.529541015625,0.7289886474609375,6.169860839843751
11.854999999999997,7.923770141601563,0.9166564941406252,6.750509643554688
11.864999999999997,7.050030517578126,0.7973266601562501,7.508657836914063
11.875,6.335845947265626,0.6769500732421876,7.11014404296875
11.884999999999998,6.2449279785156255,0.3572418212890625,6.410614013671876
11.894999999999996,6.263320922851563,-0.5181427001953125,5.33544921875
11.905,6.301602172851563,-0.7514190673828125,4.056915283203125
11.918,8.181121826171875,-0.1392181396484375,5.3810577392578125
11.924999999999995,10.063034057617188,0.8396453857421876,8.51458740234375
11.934999999999995,8.822482299804689,1.1266052246093752,7.895956420898438
11.945,6.950140380859375,1.2089996337890625,8.306732177734375
11.955999999999996,5.405133056640626,0.7672698974609375,6.848156738281251
11.966,5.558407592773438,-0.3075958251953125,4.505523681640625
11.976,8.203851318359376,-1.1396148681640623,6.914251708984375
11.985999999999995,9.588406372070311,-1.496856689453125,6.736602783203126
11.995999999999997,9.539956665039064,-0.9093292236328124,7.132275390625001
12.006,8.387631225585938,-0.7659240722656251,7.038217163085938
12.018,6.382351684570313,-0.7734008789062501,5.190997314453125
12.025999999999996,6.201412963867188,0.04246826171875,5.573809814453125
12.036,6.869989013671876,0.9144134521484376,6.011502075195313
12.046,7.927957153320313,1.8853515625,6.662283325195313
12.055999999999996,8.662927246093751,1.8726409912109376,7.46903076171875
12.065999999999995,8.065380859375,1.2227569580078126,6.388632202148438
12.076,7.278521728515625,1.0944549560546877,5.6285400390625
12.086999999999996,6.450091552734375,0.6159393310546876,5.006320190429688
12.097,6.4602600097656255,0.1395172119140625,5.057611083984376
12.107,7.31949462890625,-0.1591064453125,6.521719360351563
12.117999999999997,7.78843994140625,-0.500347900390625,7.407421875000001
12.126999999999995,7.845413208007813,-0.5435638427734375,8.38299560546875
12.137,7.047488403320313,-1.00009765625,7.73819580078125
12.146999999999998,6.589459228515626,-1.155914306640625,6.443362426757813
12.156999999999996,7.083377075195313,-0.6794921875000001,5.495602416992188
12.166999999999994,7.868441772460938,-0.1567138671875,4.831661987304688
12.177,8.477651977539063,0.474627685546875,5.641549682617188
12.186999999999998,8.345013427734376,0.9060394287109376,6.552673339843751
12.196999999999996,7.548284912109375,1.1285491943359376,7.197174072265626
12.207,6.689050292968751,1.385003662109375,7.2291748046875
12.217999999999996,6.226086425781251,1.167727661132813,6.421829223632813
12.226999999999997,6.178683471679688,0.9072357177734376,5.657400512695313
12.238,5.749813842773438,1.2529632568359377,3.719711303710938
12.247999999999998,7.508807373046875,1.574465942382813,4.05601806640625
12.257999999999996,10.7534423828125,1.7824707031250002,9.458160400390623
12.268,8.073455810546875,0.3385498046875,8.001828002929688
12.278,5.52506103515625,-1.5180908203125,8.444454956054688
12.287999999999997,6.867745971679688,-2.0000457763671875,8.788537597656251
12.297999999999996,7.0258056640625,-1.50732421875,4.0153442382812505
12.308,8.891567993164063,-1.77230224609375,4.526309204101563
12.317999999999998,9.81854248046875,-2.321099853515625,8.542251586914062
12.327999999999996,8.209085083007814,-0.4367950439453125,4.735809326171875
12.338,7.556808471679688,0.3796722412109375,8.596383666992189
12.348,6.390426635742188,-0.13577880859375,6.294274902343751
12.357999999999995,5.9993896484375,1.1488861083984376,5.218063354492188
12.367999999999997,7.583724975585938,1.672711181640625,7.1573974609375
12.378999999999998,7.728924560546876,1.813424682617188,5.841030883789063
12.388999999999996,8.6192626953125,2.0737670898437504,5.642446899414063
12.399,8.673693847656251,0.9944152832031252,6.44859619140625
12.409,7.162182617187501,0.5718261718750001,4.48907470703125
12.418999999999995,6.606655883789063,-0.058917236328125,5.961407470703126
12.428999999999997,6.334799194335938,-0.9175537109375,6.486279296875001
12.439,6.686807250976563,-0.4777679443359375,7.027749633789063
12.448999999999998,7.527648925781251,-0.3186614990234375,8.372079467773439
12.458999999999996,7.592098999023438,-0.4652069091796875,7.758831787109376
12.469,7.217361450195313,-0.6356781005859375,6.837689208984376
12.479,7.262371826171876,-0.892132568359375,5.681924438476563
12.488999999999995,7.62694091796875,-0.2438934326171875,4.954879760742188
12.498999999999995,8.1168212890625,0.429168701171875,4.932598876953126
12.509,8.244674682617188,0.9141143798828124,6.220104980468751
12.519999999999996,7.742233276367188,1.4270233154296876,7.032684326171876
12.53,6.91275634765625,1.4062377929687502,7.383944702148438
12.54,6.327023315429688,1.1204742431640626,7.183715820312501
12.549999999999995,5.549435424804688,0.25421142578125,5.466891479492188
12.559999999999995,5.603567504882813,-0.5902191162109376,3.912612915039063
12.57,8.421725463867189,-0.06280517578125,5.52147216796875
12.579999999999998,9.753643798828126,0.7642791748046875,7.723541259765626
12.589999999999996,8.944055175781251,0.7422973632812501,8.566476440429689
12.6,7.24173583984375,0.9840972900390624,8.689993286132813
12.61,5.811123657226563,-0.1736114501953125,6.328219604492188
12.619999999999996,6.145486450195313,-1.4467620849609375,4.661938476562501
12.629999999999995,7.877563476562501,-1.7177215576171876,5.929705810546875
12.64,9.039608764648438,-1.4437713623046875,6.689349365234375
12.65,9.455020141601564,-0.1332366943359375,8.207440185546876
12.659999999999997,8.078540039062501,0.149237060546875,6.93907470703125
12.671,6.791482543945313,-0.0049346923828125,5.7125793457031255
12.680999999999996,6.218759155273438,0.6999786376953125,5.276083374023438
12.690999999999995,6.461456298828126,1.4273223876953125,5.190548706054688
12.701,7.841226196289063,2.1335815429687504,6.964495849609375
12.711,8.546588134765626,1.959371948242188,7.144238281250001
12.720999999999997,8.43802490234375,1.137820434570313,6.605459594726563
12.730999999999996,7.780364990234376,0.5449096679687501,6.112588500976563
12.741,6.566131591796876,-0.14654541015625,4.729379272460938
12.750999999999998,6.380108642578126,-0.7415496826171876,5.451937866210938
12.760999999999996,6.848904418945313,-0.9812561035156252,6.251956176757813
12.771999999999998,7.566677856445313,-0.8456268310546876,7.217660522460938
12.781,8.106503295898438,-0.6599029541015625,8.394061279296876
12.791999999999994,7.54140625,-0.7946350097656251,7.598080444335938
12.802,6.772042846679688,-0.7206146240234376,6.6764892578125
12.811999999999998,6.716564941406251,-0.163592529296875,5.6292877197265625
12.821999999999996,7.3224853515625,0.5446105957031251,4.92691650390625
12.832,8.222842407226564,1.0609588623046875,5.526556396484375
12.842,8.448492431640625,1.35718994140625,6.300405883789063
12.851999999999997,7.930200195312499,1.4917724609375,7.07425537109375
12.861999999999997,6.907223510742188,1.4048919677734375,7.21422119140625
12.872,5.969631958007813,0.8614776611328125,6.470278930664063
12.881999999999998,5.152416992187501,0.6597534179687501,4.64818115234375
12.891999999999996,6.019427490234375,1.3507598876953126,3.2509155273437504
12.902,10.266403198242188,1.2154296875,7.012347412109375
12.912,9.604556274414064,0.3216522216796875,9.285296630859376
12.921999999999995,6.14354248046875,-1.06768798828125,8.037716674804688
12.934999999999995,6.244329833984375,-2.157955932617188,9.336138916015626
12.942999999999998,7.009805297851563,-1.679141235351563,6.050830078125
12.952999999999996,8.056109619140626,-1.4241821289062502,2.6813323974609378
12.963,9.628482055664064,-2.0577667236328128,8.024856567382812
12.973,8.518624877929689,-0.09271240234375,5.76671142578125
12.982999999999995,7.871133422851563,1.1835784912109375,7.530938720703125
12.992999999999997,7.221997070312501,0.117535400390625,7.5402099609375
13.003,5.944509887695313,0.6628936767578125,5.089761352539063
13.012999999999998,7.006216430664063,1.4182006835937502,6.314163208007813
13.022999999999996,7.400244140625,1.5020904541015625,6.433193969726563
13.036,7.971621704101563,1.65028076171875,5.513247680664063
13.043,8.939868164062501,0.7941864013671875,6.952532958984375
13.052999999999995,7.988519287109375,0.1495361328125,5.128192138671875
13.062999999999995,7.035675048828126,-0.1197784423828125,5.577847290039063
13.073999999999998,6.499737548828126,-0.916058349609375,6.121710205078125
13.083999999999996,6.437680053710938,-0.6784454345703126,6.210086059570313
13.094,7.266708374023438,-0.184527587890625,7.624847412109376
13.104,7.504171752929688,0.0010467529296875,7.779318237304688
13.113999999999995,7.4307495117187505,0.140264892578125,7.342971801757813
13.123999999999995,7.229623413085938,-0.2528656005859375,6.716415405273438
13.135999999999996,7.039862060546875,-0.070880126953125,5.495004272460938
13.143999999999998,7.719503784179688,0.4649078369140625,5.106658935546875
13.153999999999996,8.1431396484375,0.7182220458984375,5.50592041015625
13.164,8.109942626953126,1.0658935546875,6.130981445312501
13.174,7.617071533203125,0.9724334716796876,7.169061279296876
13.183999999999996,6.934439086914063,0.74708251953125,7.273437500000001
13.193999999999996,6.378912353515625,0.42408447265625,6.904382324218751
13.204,5.9567718505859375,-0.427374267578125,5.721401977539063
13.214,5.985931396484375,-0.8033081054687501,4.227236938476563
13.225,7.832254028320313,-0.356494140625,4.91734619140625
13.235999999999995,9.84830017089844,0.5979949951171876,8.080484008789064
13.244999999999996,8.713619995117188,1.0522857666015626,7.974163818359376
13.254999999999995,7.147976684570313,1.34761962890625,8.440716552734376
13.265,6.167617797851563,0.8713470458984376,7.46065673828125
13.275,5.998941040039063,-0.438140869140625,4.324285888671875
13.284999999999997,7.84346923828125,-1.2625335693359376,6.2927795410156255
13.294999999999996,8.856875610351564,-1.552484130859375,6.440072631835938
13.305,9.090151977539064,-0.7714569091796876,7.206295776367188
13.314999999999998,8.553915405273438,-0.40733642578125,7.571911621093751
13.324999999999996,6.917691040039063,-0.5465545654296875,5.707196044921876
13.336,6.453530883789063,0.13876953125,5.586520385742188
13.345,6.736901855468751,0.8085418701171876,5.758187866210938
13.355999999999996,7.428656005859375,1.6139434814453126,6.313714599609376
13.366,8.47271728515625,1.753759765625,7.193734741210938
13.375999999999998,8.313311767578126,1.1832794189453126,6.454727172851563
13.385999999999996,7.822683715820313,1.04794921875,5.789739990234375
13.396,6.836343383789063,0.53055419921875,5.238101196289063
13.406,6.300854492187501,-0.005084228515625,5.196380615234375
13.415999999999997,6.776229858398438,-0.2773895263671875,6.53592529296875
13.425999999999997,7.287942504882813,-0.55926513671875,7.221548461914063
13.436,7.894760131835938,-0.5060302734375001,8.11383056640625
13.445999999999998,7.583126831054688,-0.7554565429687501,7.758383178710938
13.455999999999996,6.965841674804688,-0.8903381347656251,6.480447387695313
13.466,7.025506591796876,-0.404345703125,5.765664672851563
13.476,7.499685668945313,-0.008074951171875,4.93289794921875
13.486999999999997,8.060595703125001,0.45159912109375,5.52386474609375
13.495999999999997,8.299105834960939,0.9233856201171876,6.383697509765626
13.506999999999998,7.764962768554688,1.1542694091796877,7.01683349609375
13.516999999999996,6.9731689453125005,1.3210021972656252,7.322933959960938
13.527,6.301751708984376,0.9295166015625,6.664974975585938
13.537,5.835198974609376,0.634033203125,5.529995727539063
13.546999999999995,5.415301513671875,1.1925506591796875,3.4943603515625004
13.556999999999997,8.164373779296875,1.7344696044921877,3.9490997314453127
13.567,11.2630615234375,1.334161376953125,10.147073364257814
13.576999999999998,7.734906005859376,0.314324951171875,8.184860229492188
13.586999999999996,4.834353637695313,-1.581494140625,8.679824829101562
13.597,6.455624389648438,-1.965802001953125,8.379855346679689
13.607,7.258184814453125,-1.4122192382812502,3.211138916015625
13.616999999999996,9.725830078125,-1.8777252197265624,4.7066497802734375
13.626999999999995,9.9327880859375,-2.3036041259765625,8.947793579101564
13.637999999999998,7.91763916015625,0.654669189453125,4.687509155273438
13.647999999999996,7.25908203125,0.247930908203125,9.26466064453125
13.658,6.037969970703125,-0.2534637451171875,5.250064086914063
13.668,6.298461914062501,1.05213623046875,5.356832885742188
13.677999999999995,7.949041748046875,1.58687744140625,6.9866271972656255
13.687999999999995,7.823880004882813,1.8905853271484376,5.924771118164063
13.698,8.599972534179688,1.8697998046875,6.215768432617188
13.707999999999998,8.321685791015625,0.6290985107421876,6.408520507812501
13.717999999999996,6.876119995117188,0.3964202880859375,4.441671752929688
13.727999999999994,6.613385009765626,-0.215631103515625,5.958865356445313
13.738,6.533383178710938,-0.8746368408203126,6.177337646484376
13.747999999999998,7.106106567382813,-0.314923095703125,6.976309204101563
13.757999999999996,7.684213256835938,-0.0958526611328125,8.476904296875
13.768,7.342971801757813,-0.176751708984375,7.675091552734376
13.778,6.969879150390626,-0.4484588623046875,6.970776367187501
13.789,7.124050903320313,-0.7357177734375,5.69254150390625
13.799,7.583425903320313,-0.08194580078125,4.9035888671875005
13.808999999999996,8.209384155273439,0.515301513671875,5.086920166015625
13.818999999999996,8.338732910156251,0.8871978759765625,6.249713134765625
13.829,7.81834716796875,1.197634887695313,6.916793823242188
13.839,6.951187133789063,1.09759521484375,7.393215942382813
13.848999999999997,6.242086791992188,0.8525054931640625,7.027301025390625
13.858999999999996,5.4203857421875,0.0070281982421875,5.326626586914063
13.869,5.4000488281250005,-0.8030090332031251,3.841134643554688
13.878999999999998,8.696572875976564,0.0462066650390625,5.67459716796875
13.888999999999996,10.146774291992188,1.1475402832031252,8.352490234375
13.899,8.696273803710938,0.9799102783203124,8.352789306640625
13.909,6.932495117187501,1.1823822021484376,8.4757080078125
13.918999999999995,5.9163970947265625,0.0710296630859375,6.437530517578126
13.928999999999997,6.3884826660156255,-1.1810363769531251,4.384848022460938
13.939999999999998,8.129830932617189,-1.6290466308593752,6.415249633789063
13.949999999999996,8.950784301757814,-1.8028076171875,6.5209716796875
13.96,9.266455078125,-0.536834716796875,7.935284423828126
13.97,7.9828369140625,-0.2788848876953125,7.012347412109375
13.979999999999997,6.587814331054688,-0.3144744873046875,5.5944458007812505
13.989999999999997,6.433792114257813,0.627752685546875,5.7967681884765625
14.0,6.663330078125001,1.323095703125,5.327972412109375
14.009999999999998,7.890423583984376,2.2410980224609376,6.815557861328125
14.019999999999996,8.477951049804688,2.0996368408203128,6.869989013671876
14.03,8.281610107421876,1.1698211669921876,6.175991821289063
14.04,7.669259643554688,0.8731414794921876,6.071316528320313
14.050999999999997,6.394314575195313,0.19200439453125,4.845419311523438
14.061,6.345416259765625,-0.349615478515625,5.770748901367188
14.070999999999998,6.961804199218751,-0.645697021484375,6.675741577148438
14.080999999999996,7.5402099609375,-0.8548980712890626,7.264465332031251
14.091,8.002874755859375,-0.8062988281250001,8.376715087890625
14.101,7.306784057617188,-1.0623046875000002,7.220053100585938
14.110999999999995,6.972421264648438,-1.0463043212890626,6.460409545898438
14.120999999999997,7.1840148925781255,-0.450701904296875,5.603118896484375
14.131,7.529742431640625,0.275445556640625,4.765716552734375
14.140999999999998,8.252450561523439,0.9144134521484376,5.914303588867188
14.150999999999996,8.134765625,1.2907958984375,6.437829589843751
14.161,7.575949096679688,1.4558837890625,7.121807861328126
14.171,6.770248413085938,1.5131561279296877,7.3589721679687505
14.180999999999996,6.2553955078125005,1.1197265625,6.346463012695313
14.190999999999995,6.426016235351563,0.64300537109375,5.971426391601563
14.201999999999998,5.749365234375,0.7343719482421875,3.863116455078125
14.211999999999996,6.995300292968751,1.2320281982421877,3.5039306640625
14.222,11.12234802246094,1.0573699951171875,8.709432983398438
14.232,9.084619140625,0.137274169921875,8.692236328125
14.241999999999996,5.2135772705078125,-1.5499420166015627,8.424267578125
14.251999999999995,5.460012817382813,-2.0842346191406254,8.847903442382814
14.262,6.682022094726563,-1.5433624267578123,5.4493957519531255
14.271999999999998,9.156246948242188,-1.595401000976563,3.357833862304688
14.281999999999996,10.730563354492189,-2.1271514892578125,8.820538330078126
14.291999999999994,8.726031494140626,1.122418212890625,4.463803100585938
14.302,7.3200927734375005,1.117034912109375,7.797113037109375
14.311999999999998,5.955126953125,0.085235595703125,6.588412475585938
14.321999999999996,5.6781860351562505,0.8882446289062501,5.35040283203125
14.332,7.531387329101563,1.5940551757812502,7.1301818847656255
14.342999999999996,8.048782348632812,1.5895690917968752,6.641796875000001
14.352999999999994,8.606103515625001,1.5647460937500002,5.79901123046875
14.363,8.57978515625,0.325689697265625,6.579141235351563
14.372999999999998,7.024609375000001,-0.1710693359375,4.495504760742188
14.382999999999996,6.571066284179688,-0.3704010009765625,5.47601318359375
14.393,6.762023925781251,-1.109857177734375,6.046643066406251
14.403,7.162631225585938,-0.5991912841796876,6.696078491210938
14.412999999999997,7.718307495117188,-0.0297576904296875,8.186355590820312
14.422999999999996,7.323532104492188,0.090618896484375,8.087213134765626
14.433,6.772042846679688,0.1128997802734375,7.284054565429688
14.442999999999998,6.660488891601563,-0.2392578125,6.037521362304688
14.452999999999996,7.406674194335938,0.1332366943359375,5.094696044921875
14.463,8.295516967773438,0.7363159179687501,4.874279785156251
14.473999999999997,8.554064941406251,0.9486572265625,5.73441162109375
14.482999999999995,8.104559326171875,0.998602294921875,6.856082153320313
14.494,7.007711791992188,0.8347106933593751,7.229025268554688
14.503999999999998,6.4004455566406255,0.56943359375,7.212576293945313
14.513999999999996,6.171505737304688,0.1305450439453125,6.486877441406251
14.524,5.758486938476563,-0.65137939453125,4.577899169921875
14.534,6.437380981445313,-0.7882049560546875,4.2924346923828125
14.543999999999995,9.333447265625,0.136676025390625,6.750509643554688
14.553999999999997,9.744671630859376,1.08204345703125,8.209683227539063
14.564,8.126690673828126,1.152325439453125,8.437277221679688
14.573999999999998,6.646881103515626,1.22918701171875,7.817749023437501
14.583999999999996,5.5066680908203125,0.330474853515625,5.743234252929688
14.594,6.53233642578125,-0.7113433837890626,4.824334716796876
14.604,8.593392944335939,-1.3387969970703126,7.1406494140625005
14.613999999999995,9.357223510742188,-1.4822021484375,6.815408325195313
14.625,9.188845825195314,-0.8010650634765626,7.554714965820313
14.637999999999998,7.571313476562499,-0.8344116210937501,6.535775756835938
14.644999999999996,6.24881591796875,-0.438140869140625,5.1133880615234375
14.655,6.410015869140626,0.4894317626953125,5.865106201171876
14.665,7.138705444335938,1.2858612060546877,5.8989013671875
14.674999999999995,8.28250732421875,2.0846832275390628,7.155603027343751
14.684999999999995,8.516381835937501,1.6365234375000002,6.981094360351563
14.695,8.002874755859375,1.155615234375,6.174945068359375
14.704999999999998,7.156948852539063,0.99591064453125,5.508612060546875
14.714999999999996,6.365155029296876,0.3988128662109375,4.746725463867188
14.725,6.6217590332031255,0.02213134765625,5.799908447265626
14.738,7.139004516601563,-0.3351104736328125,6.673947143554688
14.744999999999996,7.722045898437501,-0.5710784912109376,7.753298950195313
14.756,7.878909301757813,-0.718670654296875,8.361312866210938
14.765999999999998,7.054217529296875,-1.1147918701171875,7.104461669921876
14.775999999999996,6.827670288085938,-1.050042724609375,6.230722045898438
14.786,7.193435668945313,-0.46595458984375,5.328869628906251
14.796,7.825225830078126,0.1326385498046875,4.847363281250001
14.805999999999996,8.402734375000001,0.6673797607421875,6.0950927734375
14.815999999999995,8.116522216796875,0.9990509033203124,6.656451416015625
14.826,7.42716064453125,1.38470458984375,7.257138061523438
14.838,6.620562744140625,1.3600311279296875,7.130929565429688
14.845999999999997,6.239544677734376,0.9757232666015626,6.309976196289063
14.855999999999996,5.9507904052734375,0.8858520507812501,5.243185424804688
14.866,5.99161376953125,1.3477691650390626,3.4692382812500004
14.875999999999998,8.508755493164063,1.610205078125,4.751361083984375
14.885999999999996,10.71097412109375,1.023126220703125,9.687698364257812
14.896,7.343270874023438,-0.26258544921875,7.868591308593751
14.906,5.002581787109375,-2.0697296142578128,9.000131225585939
14.916999999999994,6.560000610351563,-2.2306304931640626,8.510699462890626
14.927,7.428656005859375,-1.5599609375,3.6271484375
14.937999999999995,9.846804809570314,-2.0960479736328126,5.818450927734375
14.946999999999996,9.864151000976562,-1.3378997802734376,7.105508422851563
14.957,8.078091430664063,1.1605499267578123,5.115780639648438
14.967,7.279718017578125,0.3757843017578125,7.853936767578125
14.976999999999997,5.93778076171875,0.2184722900390625,5.733364868164063
14.986999999999997,6.258386230468751,1.5070251464843751,5.85703125
14.997,7.610342407226563,1.8828094482421875,7.713821411132813
15.006999999999998,7.751654052734375,1.9578765869140624,5.771047973632813
15.016999999999996,8.73829345703125,1.523623657226563,6.429904174804688
15.027,8.197421264648439,0.3398956298828125,5.62255859375
15.037999999999997,6.903036499023438,0.0459075927734375,4.459616088867188
15.046999999999995,6.7482666015625,-0.715679931640625,6.036175537109376
15.058,6.641348266601563,-1.22559814453125,6.141598510742188
15.067999999999998,7.307382202148438,-0.4397857666015625,7.446600341796875
15.077999999999996,7.708587646484376,-0.22789306640625,8.372079467773439
15.088,7.168911743164063,-0.1604522705078125,7.661782836914063
15.098,6.673348999023438,-0.3952239990234375,6.83140869140625
15.107999999999995,7.02042236328125,-0.557769775390625,5.653811645507813
15.117999999999997,7.739392089843751,0.3372039794921875,4.869793701171876
15.128,8.416491699218751,0.976171875,5.146286010742188
15.138999999999996,8.455072021484376,1.2133361816406252,6.249264526367188
15.147999999999996,7.724588012695313,1.4356964111328123,6.887484741210938
15.158,6.754547119140626,1.128848266601563,7.219604492187501
15.168,6.182720947265626,0.6637908935546876,7.133172607421876
15.177999999999995,6.258834838867188,0.0847869873046875,6.137411499023438
15.187999999999995,6.134420776367188,-0.6776977539062501,4.7854553222656255
15.198999999999998,6.606506347656251,-0.8770294189453126,4.243685913085938
15.208999999999996,9.36499938964844,0.01495361328125,6.708041381835938
15.219,9.803439331054689,0.7251007080078126,8.387481689453125
15.229,7.852590942382813,0.75067138671875,8.459109497070314
15.238999999999995,6.528747558593751,1.0279113769531252,7.879806518554688
15.248999999999995,5.61119384765625,0.2462860107421875,5.816058349609375
15.259,6.651367187500001,-0.6769500732421876,4.839437866210938
15.268999999999998,8.6671142578125,-1.2142333984375,6.905429077148438
15.278999999999996,9.2640625,-1.2285888671875,6.670208740234376
15.29,9.1288818359375,-0.4251312255859375,7.472769165039063
15.299,7.41220703125,-0.5419189453125001,6.571066284179688
15.308999999999996,6.291433715820313,-0.17166748046875,5.266064453125001
15.318999999999996,6.593646240234375,0.671417236328125,6.0950927734375
15.329999999999998,7.118817138671876,1.287506103515625,5.8217407226562505
15.339999999999996,8.1838134765625,1.8092376708984377,6.960159301757813
15.35,8.521615600585939,1.2329254150390625,6.9635986328125
15.36,7.961303710937501,0.8345611572265625,6.0460449218750005
15.369999999999996,7.2169128417968755,0.7849151611328126,5.51907958984375
15.379999999999995,6.432296752929688,0.1676300048828125,4.937832641601563
15.39,6.669461059570313,-0.065496826171875,5.826675415039063
15.4,7.198968505859376,-0.28651123046875,6.73570556640625
15.409999999999997,7.713223266601563,-0.4813568115234375,7.8464599609375005
15.419999999999996,7.704251098632813,-0.435748291015625,8.219253540039062
15.43,6.936233520507813,-0.8366546630859376,7.0643859863281255
15.439999999999998,6.849951171875,-0.7391571044921875,6.295471191406251
15.449999999999996,7.190594482421876,-0.1538726806640625,5.211483764648438
15.461,7.958163452148438,0.2691650390625,4.905831909179688
15.47,8.540606689453126,0.649884033203125,6.190347290039063
15.480999999999996,8.04205322265625,0.9580780029296876,6.503475952148438
15.491,7.3440185546875005,1.1037261962890623,7.331756591796876
15.500999999999998,6.525906372070313,1.107763671875,7.227230834960938
15.510999999999996,6.08731689453125,0.7838684082031251,6.097634887695313
15.521,5.738449096679688,0.8175140380859376,4.853195190429688
15.531,6.235806274414063,1.4566314697265623,3.5979888916015628
15.540999999999997,9.913348388671876,1.652224731445313,6.55626220703125
15.550999999999997,10.159036254882814,0.8052520751953126,9.763961791992188
15.561,6.022866821289063,-0.6826324462890625,7.446600341796875
15.570999999999998,5.276531982421876,-1.941278076171875,8.391818237304689
15.580999999999996,7.059600830078126,-1.9290161132812504,6.990216064453126
15.592,8.052969360351563,-1.4629119873046876,2.5428619384765625
15.601,10.202102661132812,-2.376727294921875,8.286096191406251
15.611999999999997,8.867343139648439,0.02930908203125,6.358276367187501
15.622,7.267156982421875,1.124810791015625,6.863858032226563
15.631999999999998,6.940420532226563,-0.0716278076171875,7.261474609375001
15.641999999999996,6.068624877929688,0.222509765625,5.121762084960938
15.652,7.255941772460938,1.38948974609375,5.899948120117188
15.662,8.041604614257814,1.5550262451171877,7.086068725585938
15.671999999999995,7.911807250976563,1.788751220703125,5.7305236816406255
15.681999999999997,8.532382202148439,1.0395751953125,6.798062133789063
15.692,7.618417358398438,0.17645263671875,5.3945159912109375
15.701999999999998,6.854287719726563,0.0596649169921875,4.94725341796875
15.711999999999996,6.844567871093751,-0.74110107421875,6.214273071289063
15.722,6.684265136718751,-0.7230072021484375,6.274087524414063
15.732,7.4397216796875005,-0.1670318603515625,7.661334228515625
15.742999999999997,7.532733154296875,-0.077459716796875,8.104110717773438
15.756,7.1346679687500005,0.0921142578125,7.189248657226563
15.762999999999998,6.945504760742188,-0.299969482421875,6.641049194335938
15.772999999999996,7.124349975585938,-0.250323486328125,5.456723022460938
15.783,7.806683349609376,0.4364959716796875,5.07645263671875
15.793,8.330209350585939,0.6735107421875001,5.677288818359376
15.802999999999995,8.210281372070312,1.0159484863281252,6.368893432617188
15.812999999999995,7.486676025390626,0.9954620361328126,6.982589721679688
15.823,6.768453979492188,0.7164276123046875,7.124050903320313
15.832999999999998,5.512948608398438,0.2459869384765625,5.918191528320313
15.842999999999996,5.045199584960938,-0.7597930908203125,4.246527099609375
15.855999999999996,7.905825805664063,-0.3988128662109375,5.9228271484375
15.863,10.248907470703124,0.9304138183593752,8.390322875976564
15.872999999999998,8.590402221679689,0.5854339599609375,7.8871337890625
15.882999999999996,6.8131652832031255,0.88465576171875,7.723391723632813
15.893,6.416744995117188,0.5630035400390625,6.1088500976562505
15.903999999999996,6.731369018554688,-0.6120513916015625,4.1642822265625
15.914,7.947845458984376,-0.5921630859375,6.916046142578126
15.924,8.099176025390626,-0.9141143798828124,7.3933654785156255
15.933999999999996,8.62225341796875,-0.404046630859375,8.25858154296875
15.943999999999996,8.102316284179688,-0.377130126953125,7.225137329101563
15.955999999999996,7.11851806640625,-0.898114013671875,4.7672119140625
15.964,7.249362182617188,0.0671417236328125,5.3062896728515625
15.973999999999997,7.160986328125,0.7726531982421876,5.277130126953125
15.983999999999996,7.655502319335938,1.46246337890625,6.712976074218751
15.994,8.186206054687501,1.5918121337890627,7.43673095703125
16.003999999999998,7.949490356445313,0.975872802734375,6.346463012695313
16.013999999999996,7.680325317382813,0.98155517578125,6.138906860351563
16.024,6.606057739257813,0.498553466796875,5.0520782470703125
16.034,6.241638183593751,-0.0432159423828125,5.523266601562501
16.044999999999995,6.921578979492188,-0.0524871826171875,6.643890380859376
16.055999999999997,7.440917968750001,-0.253314208984375,7.04674072265625
16.064999999999998,8.196823120117188,-0.3461761474609375,8.096932983398439
16.074999999999996,7.585968017578126,-0.6494354248046875,7.136013793945313
16.085,6.957916259765626,-0.9006561279296875,6.320443725585938
16.095,6.930401611328126,-0.5782562255859376,6.051876831054688
16.104999999999997,7.101620483398438,-0.1275543212890625,5.016937255859375
16.114999999999995,8.172299194335938,0.276043701171875,6.08133544921875
16.125,8.342172241210939,0.708502197265625,6.555364990234375
16.134999999999998,7.786196899414063,1.0723236083984375,6.736752319335938
16.144999999999996,7.087265014648438,1.115838623046875,7.402038574218751
16.156,6.275732421875,0.8142242431640626,6.276181030273438
16.165999999999997,6.043652343750001,0.6856231689453125,5.54539794921875
16.175999999999995,5.4962005615234375,1.19569091796875,3.78804931640625
16.186,7.670605468750001,2.1489837646484378,3.3460205078125003
16.195999999999998,11.4712158203125,1.7486755371093752,10.128530883789065
16.205999999999996,8.139102172851564,0.3907379150390625,8.486026000976564
16.216,4.644143676757813,-1.7323760986328127,8.875418090820313
16.226,6.279919433593751,-2.3234924316406254,8.833099365234375
16.235999999999997,7.054217529296875,-1.5651947021484376,3.6289428710937504
16.245999999999995,9.776223754882814,-2.0966461181640628,3.3822082519531254
16.256,10.314404296875,-2.1427032470703127,9.145330810546875
16.266999999999996,8.059100341796876,1.161297607421875,4.158450317382813
16.275999999999996,7.081283569335938,0.36546630859375,9.746914672851563
16.286,5.849554443359375,-0.310137939453125,5.73919677734375
16.296,5.99639892578125,1.0552764892578126,5.660241699218751
16.305999999999997,7.85184326171875,1.7836669921875,7.023861694335938
16.317,7.886236572265625,1.8896881103515624,5.6382598876953125
16.326999999999998,8.692684936523438,1.918399047851563,6.10526123046875
16.336999999999996,8.580831909179688,0.612799072265625,6.2987609863281255
16.347,6.872381591796875,0.3593353271484375,4.736856079101563
16.357,6.689498901367188,-0.2794830322265625,5.905331420898438
16.366999999999997,6.6609375,-1.1251098632812502,6.220254516601563
16.376999999999995,7.086367797851563,-0.5028900146484375,6.723144531250001
16.387,7.558004760742188,-0.2899505615234375,8.255441284179689
16.397,7.2865966796875,-0.144451904296875,7.737298583984375
16.406999999999996,6.989617919921876,-0.3007171630859375,7.033581542968751
16.416999999999994,7.046890258789063,-0.7879058837890626,6.048138427734376
16.427,7.48338623046875,0.0004486083984375,5.0879669189453125
16.436999999999998,8.22867431640625,0.7014739990234375,5.018133544921875
16.446999999999996,8.411257934570314,0.935797119140625,6.130383300781251
16.458,7.736550903320313,1.334161376953125,6.715518188476563
16.467999999999996,7.002926635742188,1.158755493164063,7.2243896484375005
16.477999999999994,6.480297851562501,0.9299652099609376,7.231118774414063
16.488,5.780917358398438,0.247332763671875,5.7220001220703125
16.497999999999998,5.635568237304688,-0.7989715576171875,4.504476928710938
16.507999999999996,7.386785888671875,-0.4891326904296875,4.9418701171875
16.518,9.909011840820312,0.6705200195312501,7.911358642578126
16.528,9.175088500976564,0.5908172607421875,7.906274414062499
16.537999999999997,7.295867919921876,0.8441314697265626,8.255291748046876
16.547999999999995,6.316854858398438,0.6619964599609376,7.280166625976563
16.558,6.081036376953126,-0.5438629150390626,4.712332153320313
16.567999999999998,7.48458251953125,-1.0285095214843751,6.219805908203125
16.577999999999996,8.602963256835938,-1.4790618896484375,6.595291137695313
16.588,9.104357910156253,-0.8040557861328126,7.53243408203125
16.598999999999997,8.476156616210938,-0.150732421875,7.337139892578126
16.608999999999995,6.948046875,-0.454888916015625,5.673101806640625
16.619,6.5739074707031255,0.2764923095703125,5.440423583984376
16.628999999999998,6.781463623046876,0.9069366455078126,5.512948608398438
16.638999999999996,7.570864868164063,1.705010986328125,6.399099731445313
16.649,8.339929199218751,1.9544372558593752,7.263867187500001
16.659,8.190692138671876,1.1449981689453126,6.586318969726563
16.668999999999997,7.876666259765625,0.959722900390625,6.129336547851563
16.678999999999995,6.897952270507813,0.5310028076171875,5.033685302734376
16.689,6.4916625976562505,-0.149835205078125,5.24393310546875
16.698999999999998,6.725985717773438,-0.3554473876953125,6.323434448242188
16.708999999999996,7.117022705078125,-0.6120513916015625,6.973019409179688
16.719,7.917489624023438,-0.6238647460937501,8.304339599609376
16.729999999999997,7.652661132812501,-0.7280914306640626,7.588809204101563
16.739999999999995,7.033880615234375,-1.0907165527343752,6.648675537109376
16.75,7.002627563476563,-0.6772491455078126,6.084625244140625
16.759999999999998,7.188650512695313,0.0503936767578125,4.941571044921876
16.769999999999996,8.035025024414063,0.5366851806640626,5.665774536132813
16.78,8.269198608398439,0.9577789306640626,6.360369873046875
16.79,7.860665893554688,1.3126281738281251,6.641796875000001
16.799999999999997,7.305288696289063,1.4030975341796876,7.388131713867188
16.809999999999995,6.344369506835938,1.1784942626953123,6.595440673828126
16.82,6.370388793945313,0.7439422607421875,6.173300170898438
16.83,6.0663818359375,0.5969482421875001,5.0973876953125
16.839999999999996,5.848806762695313,1.3927795410156252,3.116033935546876
16.85,9.70609130859375,1.618878173828125,5.875274658203125
16.860999999999997,10.43448181152344,0.7535125732421876,9.853234863281251
16.870999999999995,6.522467041015625,-0.442926025390625,7.916592407226563
16.881,5.334552001953125,-2.1186279296875004,9.213668823242188
16.891,6.348556518554688,-1.9997467041015624,7.689596557617188
16.900999999999996,7.547686767578125,-1.7256469726562502,2.5637969970703125
16.911,10.409509277343751,-2.910272216796875,7.569818115234375
16.921,9.578536987304688,-0.02930908203125,5.5305938720703125
16.930999999999997,7.892965698242188,1.0591644287109376,6.57779541015625
16.940999999999995,6.956420898437501,-0.1224700927734375,7.6939331054687505
16.951,5.5376220703125005,0.402252197265625,5.362515258789063
16.961,6.536672973632813,1.4880340576171875,6.448446655273438
16.970999999999997,7.705596923828126,1.5880737304687502,7.012347412109375
16.980999999999995,8.030389404296876,1.9086791992187504,5.849404907226563
16.991,8.736648559570312,1.2167755126953126,6.727032470703126
17.000999999999998,7.792477416992188,0.413616943359375,5.376721191406251
17.012,6.831707763671876,0.124114990234375,4.96759033203125
17.022,6.958963012695313,-0.7907470703125,5.959014892578125
17.031999999999996,6.806436157226563,-0.8194580078125001,5.997296142578126
17.041999999999994,7.478302001953126,-0.241650390625,7.377664184570313
17.052,7.499386596679688,-0.13218994140625,8.286843872070314
17.061999999999998,6.938925170898438,-0.017645263671875,7.464843750000001
17.071999999999996,6.755145263671875,-0.3671112060546875,7.006814575195313
17.082,6.9866271972656255,-0.24822998046875,5.657550048828125
17.092,7.813113403320313,0.398065185546875,4.870989990234375
17.101999999999997,8.510250854492188,0.6386688232421875,5.478555297851563
17.111999999999995,8.345761108398438,1.0636505126953126,6.0509796142578125
17.122,7.577444458007813,1.1266052246093752,6.95701904296875
17.131999999999998,6.824829101562501,0.9106750488281252,7.250558471679688
17.141999999999996,5.9174438476562505,0.5911163330078125,6.507513427734375
17.152,5.287298583984375,-0.4598236083984375,4.91435546875
17.162999999999997,6.141000366210938,-0.7200164794921875,4.459765625
17.172999999999995,9.337634277343753,0.7422973632812501,7.212277221679688
17.183999999999997,9.855029296875,1.064697265625,8.040557861328125
17.192999999999998,8.298059082031251,1.1743072509765626,8.569317626953126
17.202999999999996,6.60411376953125,0.7313812255859375,7.724737548828125
17.213,5.6891021728515625,-0.99351806640625,4.87786865234375
17.223,6.974813842773438,-1.6028778076171877,5.373431396484375
17.232999999999997,8.26934814453125,-1.9279693603515624,6.167617797851563
17.242999999999995,9.217108154296875,-1.1372222900390625,7.6933349609375
17.253,8.848501586914063,0.1335357666015625,8.105755615234376
17.262999999999998,7.297811889648438,-0.1039276123046875,6.332107543945313
17.274,6.44620361328125,0.2959320068359375,5.528500366210938
17.283,6.427511596679688,0.8780761718750001,5.030844116210938
17.293,7.253848266601563,1.6806365966796877,5.7409912109375005
17.303999999999995,8.3919677734375,2.2916412353515625,7.0808349609375005
17.314,8.470773315429689,1.5518859863281251,6.833352661132813
17.323999999999998,8.12579345703125,1.0343414306640626,6.6130859375
