time,ax,ay,az
0.0,6.626693725585938,-0.038580322265625,6.253451538085938
0.0099999999999909,6.573159790039063,-0.470440673828125,6.651367187500001
0.0199999999999818,7.078741455078125,-1.0729217529296875,6.782510375976563
0.0300000000000295,7.751803588867188,-1.833612060546875,6.502279663085938
0.0400000000000204,8.164224243164064,-1.7960784912109375,5.9522857666015625
0.0500000000000113,8.06717529296875,-1.7995178222656252,5.8860412597656255
0.0600000000000022,7.611090087890625,-1.7127868652343752,6.635366821289063
0.0699999999999931,7.058554077148438,-1.5491943359375002,7.23575439453125
0.079999999999984,6.584674072265625,-1.370050048828125,7.095040893554688
0.0900000000000318,7.045843505859375,-0.9526947021484377,6.415548706054688
0.1000000000000227,7.505816650390625,0.9363952636718752,5.726934814453125
0.11099999999999,7.789187622070313,1.52945556640625,6.10526123046875
0.1200000000000045,7.856030273437501,1.6049713134765626,6.253152465820313
0.1310000000000286,7.806234741210938,1.7592926025390627,6.632525634765625
0.1410000000000195,7.336093139648438,1.782769775390625,7.020870971679688
0.1510000000000104,7.09459228515625,1.6692718505859376,6.905130004882813
0.1610000000000013,7.040161132812501,1.3304229736328126,6.507812500000001
0.1709999999999922,7.230520629882813,0.331671142578125,6.187655639648438
0.1809999999999831,7.003375244140625,-1.2822723388671875,6.396109008789063
0.1910000000000309,7.124948120117188,-1.3769287109375,6.491213989257813
0.2010000000000218,7.435833740234376,-1.4346496582031252,6.135916137695313
0.2110000000000127,6.622357177734376,-1.3808166503906252,5.038470458984375
0.2209999999999965,4.940225219726563,-0.9897796630859376,3.7333190917968753
0.2310000000000016,9.358718872070312,-1.2003265380859376,5.390628051757813
0.2409999999999925,10.956961059570313,-1.0289581298828123,7.206893920898438
0.2510000000000332,7.112686157226563,0.653173828125,8.824127197265625
0.2620000000000004,7.14244384765625,1.81417236328125,9.517974853515623
0.2719999999999913,6.187057495117188,1.2429443359375,10.141091918945314
0.2819999999999822,7.392767333984375,1.2341217041015626,9.941162109375
0.29200000000003,5.593548583984376,1.2281402587890626,4.4804016113281255
0.3020000000000209,7.595239257812499,0.919049072265625,3.197830200195313
0.3120000000000118,7.823580932617188,0.2684173583984375,3.68038330078125
0.3220000000000027,8.168411254882812,0.9272735595703124,4.856335449218751
0.3320000000000007,8.173046875,0.1505828857421875,8.799154663085938
0.3419999999999916,8.131625366210939,-1.7283386230468751,8.486474609375001
0.3520000000000323,7.437030029296875,-1.4811553955078125,6.902737426757813
0.3620000000000232,8.082577514648438,-1.263580322265625,5.798114013671875
0.3720000000000141,9.749606323242189,-1.468743896484375,4.580441284179688
0.382000000000005,7.024160766601563,-0.9266754150390626,3.2491210937500004
0.392000000000003,5.015740966796876,0.4655059814453125,3.6335784912109377
0.40300000000002,6.799258422851563,1.544110107421875,5.538818359375
0.4130000000000109,8.237496948242189,1.9201934814453123,7.646679687500001
0.4230000000000018,7.996295166015625,1.8787719726562504,8.005715942382814
0.4329999999999927,7.972369384765625,1.7352172851562502,8.181271362304688
0.4429999999999836,7.50731201171875,1.4138641357421875,8.276974487304688
0.4530000000000314,6.140701293945313,0.14534912109375,8.045791625976562
0.4630000000000223,5.610147094726563,-1.2795806884765626,7.3604675292968755
0.4730000000000132,6.154159545898438,-1.3000671386718752,6.793426513671876
0.48599999999999,7.632174682617188,-1.0413696289062502,5.314962768554688
0.4930000000000021,8.070614624023438,-1.1832794189453126,4.191647338867188
0.5040000000000191,8.381500244140625,-1.5110626220703125,4.395465087890625
0.5130000000000337,7.958462524414063,-1.3099365234375,6.300854492187501
0.5230000000000246,6.162982177734375,0.084637451171875,7.679428100585938
0.5330000000000155,4.126748657226563,0.5924621582031251,6.132626342773438
0.5430000000000064,5.91864013671875,0.7722045898437501,6.636712646484376
0.5540000000000305,10.9484375,1.702618408203125,7.0234130859375
0.5640000000000214,12.698309326171875,1.6946929931640626,5.468536376953125
0.5740000000000123,8.692834472656251,1.71488037109375,4.799661254882813
0.5860000000000127,4.586273193359375,1.4647064208984375,7.243829345703125
0.5940000000000012,5.055816650390625,0.1143951416015625,10.894006347656251
0.6039999999999921,6.741986083984376,-0.624462890625,10.745816040039063
0.6140000000000327,6.336892700195313,-0.6779968261718751,5.2923828125000005
0.6240000000000165,8.726629638671875,-0.805401611328125,3.852349853515625
0.6340000000000146,9.134265136718753,-1.4222381591796875,5.1682678222656255
0.6440000000000055,9.042898559570313,-1.4862396240234377,6.032586669921876
0.6539999999999964,6.683367919921875,-1.131838989257813,6.1088500976562505
0.6639999999999873,5.640652465820313,-0.5304046630859376,8.481838989257813
0.6739999999999782,7.017431640625,0.5514892578125,7.172799682617188
0.6859999999999786,9.487319946289062,1.1399139404296876,5.670559692382813
0.6949999999999932,9.071160888671876,0.9081329345703124,4.8138671875000005
0.7049999999999841,7.527648925781251,1.1855224609375,3.6708129882812495
0.7150000000000318,6.3319580078125,1.4718841552734376,4.638162231445313
0.7250000000000227,6.125149536132813,1.5248199462890626,6.777725219726563
0.7350000000000136,6.584075927734376,0.560760498046875,8.093643188476562
0.7450000000000045,7.832702636718751,-0.831121826171875,7.334896850585938
0.7550000000000026,8.902484130859376,-1.2525146484375,6.390277099609375
0.7649999999999864,8.04803466796875,-1.4066864013671876,6.369641113281251
0.7749999999999773,6.265264892578125,-1.3358062744140626,7.11014404296875
0.7860000000000014,5.547341918945313,-1.0448089599609376,7.805786132812501
0.7950000000000159,5.999240112304688,-0.8976654052734375,8.041754150390625
0.8050000000000068,7.543649291992188,0.2500244140625,5.96768798828125
0.8149999999999977,8.533279418945312,0.674407958984375,5.237203979492188
0.8249999999999886,8.756985473632813,0.7348205566406251,4.742388916015625
0.8349999999999795,8.032632446289064,1.451397705078125,5.0184326171875
0.8459999999999965,7.046890258789063,1.8529022216796875,7.280615234375
0.8560000000000016,5.698373413085938,1.35599365234375,7.547387695312499
0.8659999999999926,4.344622802734375,0.7499237060546875,6.102569580078125
0.8760000000000332,4.067831420898438,0.4038970947265625,4.55008544921875
0.8870000000000005,10.251449584960938,-0.1638916015625,5.8860412597656255
0.896000000000015,14.915631103515626,-0.596051025390625,7.465890502929688
0.906000000000006,10.829855346679688,-1.955783081054688,5.549285888671875
0.9159999999999968,4.523019409179688,-1.4705383300781252,7.2647644042968755
0.9259999999999876,3.6755981445312496,-0.8813659667968751,9.24432373046875
0.9359999999999786,6.006118774414063,-0.7469329833984375,12.39041442871094
0.9460000000000264,5.876022338867188,0.4376922607421875,7.147079467773438
0.9570000000000008,8.980841064453125,0.433953857421875,3.093453979492188
0.9669999999999916,9.104507446289062,-0.124713134765625,2.446112060546876
0.9770000000000324,8.936129760742189,0.5025909423828125,4.293630981445313
0.9870000000000232,7.404431152343751,1.4053405761718751,7.653857421875
0.997000000000014,7.192089843750001,1.1310913085937502,10.383041381835938
1.007000000000005,6.398052978515626,0.886151123046875,8.695526123046875
1.017000000000003,7.991958618164063,0.8659637451171875,4.602871704101563
1.0269999999999868,9.343167114257811,0.133087158203125,3.6959350585937503
1.0369999999999775,8.635711669921875,-0.7065582275390625,3.9088745117187504
1.0470000000000257,6.062643432617188,-0.9842468261718752,4.079046630859375
1.0570000000000164,5.466592407226563,-0.8399444580078126,5.3312622070312505
1.0670000000000073,5.662933349609375,-0.6866699218750001,8.086166381835938
1.0769999999999982,7.921826171875001,-0.744390869140625,8.648870849609375
1.0880000000000225,10.113726806640626,-0.3994110107421875,7.017880249023438
1.09699999999998,9.362008666992187,0.8717956542968751,6.5993286132812505
1.107999999999997,6.256442260742188,1.00667724609375,7.20225830078125
1.118000000000002,4.244732666015626,0.0418701171875,7.743130493164063
1.127999999999993,5.046395874023438,0.6129486083984376,7.79202880859375
1.1380000000000337,7.141995239257813,1.2685150146484376,6.41031494140625
1.1480000000000246,8.150466918945312,0.5819946289062501,4.087869262695313
1.1580000000000157,6.679330444335938,0.042169189453125,2.916552734375
1.1680000000000064,6.637759399414063,-0.80869140625,3.212484741210938
1.1779999999999973,9.807925415039064,-0.4173553466796875,9.014337158203126
1.1879999999999882,11.560488891601564,-0.21473388671875,10.85318298339844
1.197999999999979,8.712274169921876,-1.0298553466796876,7.383047485351563
1.2080000000000268,4.689453125,-0.367559814453125,4.901644897460938
1.2180000000000175,4.918243408203125,-0.691754150390625,5.458367919921876
1.2280000000000086,7.762570190429688,-0.6772491455078126,8.484381103515625
1.2379999999999995,7.401290893554688,0.941778564453125,6.635366821289063
1.2479999999999905,7.185061645507813,1.395172119140625,5.279522705078126
1.2590000000000146,7.593743896484375,1.678094482421875,6.248516845703126
1.2690000000000057,8.619412231445313,1.6176818847656251,9.2078369140625
1.2789999999999964,7.693484497070313,1.088922119140625,9.756185913085938
1.2889999999999873,6.954476928710938,0.94925537109375,7.300204467773438
1.2989999999999782,7.219155883789063,0.0094207763671875,4.448699951171875
1.309000000000026,7.707241821289063,-0.1413116455078125,3.4361907958984377
1.3190000000000168,8.091400146484375,-0.45638427734375,3.5725677490234378
1.3290000000000075,7.615875244140626,-1.12271728515625,5.609698486328125
1.3389999999999986,7.117321777343751,-0.8079437255859375,6.480297851562501
1.3489999999999895,7.22379150390625,-0.95284423828125,5.917294311523438
1.3589999999999804,7.454525756835938,-1.3325164794921875,6.442764282226563
1.3690000000000282,8.0761474609375,-1.6480377197265623,7.461553955078125
1.379000000000019,8.21790771484375,0.2337249755859375,7.405926513671876
1.38900000000001,6.950888061523438,0.7629333496093751,7.020870971679688
1.4019999999999868,5.809628295898438,0.7177734375,6.572860717773438
1.410000000000025,6.0998779296875005,1.4542388916015625,6.589459228515626
1.420000000000016,6.832754516601563,1.2161773681640626,6.9755615234375
1.4300000000000068,7.639801025390626,1.3639190673828123,6.792230224609376
1.4399999999999975,7.892218017578125,1.097894287109375,6.315808105468751
1.4499999999999886,7.830908203125,-0.515899658203125,6.1884033203125
1.4599999999999795,7.473217773437501,-0.032000732421875,5.959912109375001
1.4700000000000273,6.637310791015626,-0.3153717041015625,5.856283569335938
1.4800000000000182,4.708743286132813,-1.0397247314453126,5.272344970703125
1.490000000000009,5.251110839843751,-1.146942138671875,5.2235961914062505
1.502999999999993,10.599719238281253,-1.4167053222656252,6.369342041015625
1.509999999999991,13.256378173828129,-1.0011444091796875,6.3585754394531255
1.521000000000015,8.48408203125,-1.21124267578125,7.020870971679688
1.5300000000000296,4.833905029296876,0.3928314208984375,7.832104492187501
1.5409999999999968,5.2170166015625,0.341241455078125,9.929348754882811
1.5509999999999875,6.874176025390626,0.8287292480468751,10.250552368164064
1.5609999999999786,6.716415405273438,1.4042938232421875,5.6891021728515625
1.5710000000000264,7.525106811523438,0.8806182861328126,3.478659057617188
1.5810000000000173,8.832949829101564,0.691754150390625,4.858428955078125
1.5910000000000082,8.910858154296875,1.67420654296875,5.281765747070313
1.6030000000000086,6.828118896484376,1.6543182373046876,8.531036376953125
1.61099999999999,6.079391479492188,0.6117523193359375,8.88543701171875
1.620999999999981,7.48099365234375,0.0354400634765625,7.0180297851562505
1.6310000000000286,8.979794311523438,-0.5700317382812501,4.6164794921875005
1.6410000000000196,9.284997558593751,-0.9849945068359376,3.878070068359375
1.6510000000000105,7.913302612304688,-1.2940856933593752,3.1010803222656254
1.6610000000000014,6.079840087890625,-1.296478271484375,5.116528320312501
1.6709999999999925,5.771047973632813,-0.9517974853515626,7.130331420898438
1.6820000000000164,6.38878173828125,-0.60711669921875,7.832702636718751
1.6920000000000073,7.984930419921875,0.2684173583984375,7.646231079101563
1.7030000000000314,9.293521118164064,1.4182006835937502,6.833950805664063
1.711999999999989,8.359817504882812,1.2945343017578126,7.28599853515625
1.72199999999998,5.917892456054688,1.02701416015625,7.329513549804688
1.7320000000000275,4.904336547851563,0.4661041259765625,7.254296875
1.7420000000000186,5.910116577148438,0.724652099609375,7.391720581054688
1.7520000000000095,7.983584594726563,0.9953125,5.928060913085938
1.7630000000000337,8.004818725585938,-0.120526123046875,4.219760131835938
1.7719999999999914,6.696377563476563,-0.729736328125,3.3748809814453127
1.7819999999999825,5.3581787109375005,-1.0696319580078126,3.8907806396484377
1.79200000000003,8.153607177734376,-1.6694213867187502,8.382546997070314
1.8029999999999973,12.136502075195311,-1.002789306640625,9.608743286132814
1.812000000000012,10.9472412109375,-0.5042358398437501,7.205398559570313
1.822999999999979,6.099130249023438,0.4843475341796875,5.795870971679688
1.8330000000000268,4.806689453125,0.0324493408203125,6.654058837890625
1.8430000000000173,6.042904663085938,-0.5205352783203125,9.106451416015624
1.8530000000000089,6.65196533203125,0.6391174316406251,8.117568969726562
1.8629999999999995,6.529644775390626,1.1959899902343751,4.414157104492188
1.8729999999999905,7.889077758789063,0.8007659912109376,4.140206909179688
1.8829999999999807,9.707437133789064,1.3716949462890626,5.646334838867188
1.893000000000029,8.372677612304688,1.5308013916015626,9.481637573242187
1.90300000000002,6.706546020507813,0.6847259521484376,10.094287109375
1.913000000000011,6.335696411132813,-0.279632568359375,6.836343383789063
1.9230000000000016,7.42476806640625,-0.4720855712890625,4.295126342773438
1.9329999999999927,8.042352294921876,-0.0925628662109375,4.041363525390626
1.942999999999984,9.303689575195314,-0.5606109619140626,4.016989135742188
1.954000000000008,7.643240356445313,-1.1295959472656252,4.949346923828125
1.9639999999999984,5.701214599609376,-0.624462890625,5.854339599609375
1.973999999999989,6.340780639648438,-0.7499237060546875,6.566131591796876
1.9839999999999804,7.959957885742188,-0.937890625,7.971322631835938
1.994000000000028,8.65814208984375,-0.2205657958984375,8.066577148437501
2.004000000000019,7.774234008789063,1.16339111328125,6.720004272460938
2.01400000000001,6.680825805664063,0.78895263671875,6.454129028320313
2.024000000000001,6.299359130859376,0.5235260009765625,6.695779418945313
2.033999999999992,6.154159545898438,0.89542236328125,6.842175292968751
2.045000000000016,6.748117065429688,1.2644775390625,7.080984497070313
2.0540000000000305,8.045492553710938,0.9550872802734376,5.88035888671875
2.0640000000000214,8.362509155273438,-0.0823944091796875,4.896859741210938
2.0740000000000123,7.066479492187501,-0.8121307373046875,5.253652954101563
2.084000000000003,5.966641235351563,0.0861328125,6.112887573242188
2.095000000000028,5.124154663085938,-0.5117126464843751,6.910513305664063
2.105000000000018,8.11622314453125,-1.1683258056640626,7.755093383789063
2.115000000000009,11.357717895507813,-0.471038818359375,6.612487792968751
2.125,10.05884704589844,-0.7135864257812501,5.032489013671875
2.134999999999991,6.914251708984375,-0.0488983154296875,6.272592163085938
2.144999999999982,5.346963500976563,0.3122314453125,8.464193725585938
2.1550000000000296,5.933145141601563,0.002392578125,9.649716186523438
2.1650000000000205,6.325677490234376,1.1545684814453123,7.364804077148438
2.175000000000012,7.476657104492188,0.98035888671875,4.575656127929688
2.1850000000000023,9.074899291992187,0.3228485107421875,4.632180786132813
2.194999999999993,9.714166259765626,0.488385009765625,5.597286987304688
2.204999999999984,7.388729858398438,0.5897705078125001,8.376416015625
2.215000000000032,5.536126708984376,0.08553466796875,8.4398193359375
2.225999999999999,6.492709350585938,-0.1081146240234375,7.210632324218751
2.2350000000000136,7.9660888671875005,-0.6775482177734375,5.151220703125
2.245999999999981,9.388027954101563,-0.4158599853515625,4.63262939453125
2.2560000000000286,8.617019653320312,-0.8842071533203125,3.153118896484376
2.26600000000002,7.352691650390626,-0.6234161376953126,4.3544921875
2.2760000000000105,5.7888427734375005,0.51260986328125,7.342822265625
2.2860000000000014,6.161337280273438,-0.0533843994140625,8.110690307617189
2.2959999999999923,7.176687622070313,0.97318115234375,7.439572143554688
2.305999999999983,8.456118774414064,1.1452972412109377,6.577346801757813
2.316000000000031,8.586813354492188,0.4414306640625,6.361865234375
2.326000000000022,7.338635253906251,0.0777587890625,6.9277099609375
2.3360000000000127,5.866452026367188,0.0049346923828125,7.041207885742188
2.3459999999999965,5.359225463867188,0.146844482421875,7.460955810546875
2.3560000000000016,6.389529418945313,0.0856842041015625,7.204800415039063
2.365999999999993,8.035174560546876,0.0466552734375,5.290887451171876
2.376000000000033,7.848703002929688,-0.2691650390625,4.20914306640625
2.3870000000000005,5.986828613281251,-0.6836791992187501,3.764273071289063
2.396999999999992,5.741140747070313,-0.1052734375,6.184365844726563
2.4069999999999823,10.141989135742188,0.398065185546875,8.813360595703125
2.41700000000003,12.270486450195314,0.036785888671875,8.368490600585938
2.427000000000021,8.453726196289063,0.4047943115234375,6.361566162109376
2.437000000000012,5.167669677734375,0.136376953125,6.235507202148438
2.4470000000000027,5.437283325195313,-0.6494354248046875,8.125942993164063
2.4570000000000007,6.507662963867188,-0.6090606689453125,8.862857055664064
2.466999999999992,6.48807373046875,0.584088134765625,5.744131469726563
2.4770000000000323,7.511648559570313,0.4795623779296875,3.7599365234375
2.487000000000023,8.923269653320313,-0.074169921875,4.934094238281251
2.497000000000014,8.829061889648438,0.3768310546875,8.114578247070312
2.507000000000005,7.152313232421876,0.389990234375,9.905871582031253
2.518000000000029,6.705200195312501,-0.1574615478515625,8.398248291015626
2.52800000000002,7.251007080078126,0.408233642578125,5.364459228515625
2.538000000000011,7.972668457031251,0.42587890625,4.109402465820313
2.548000000000002,8.755490112304688,0.1332366943359375,4.021624755859375
2.5579999999999927,8.193533325195313,0.0671417236328125,4.05960693359375
2.567999999999984,6.467437744140626,0.04486083984375,5.396310424804688
2.578000000000032,6.245077514648438,-0.401953125,6.241339111328125
2.5880000000000223,6.9821411132812505,-0.7612884521484375,7.463796997070313
2.598000000000013,8.175439453125001,-0.6057708740234375,8.40931396484375
2.607999999999997,8.496493530273439,0.38221435546875,7.290335083007813
2.618000000000002,7.447946166992188,0.09989013671875,6.611590576171875
2.627999999999993,6.335995483398438,0.1478912353515625,6.610842895507813
2.6380000000000337,5.9503417968750005,0.062506103515625,6.904382324218751
2.648000000000025,6.210385131835938,0.75784912109375,7.023263549804688
2.6580000000000155,7.456021118164063,1.0344909667968751,6.086569213867188
2.6689999999999827,8.270245361328126,0.1206756591796875,5.474069213867188
2.6790000000000305,8.477951049804688,0.2232574462890625,5.3466644287109375
2.6890000000000214,7.371533203125001,0.50244140625,5.836843872070313
2.6990000000000123,5.849554443359375,0.05203857421875,6.528897094726563
2.709000000000003,4.322940063476563,0.0162994384765625,6.459362792968751
2.719000000000001,6.739593505859376,-0.6799407958984376,7.063488769531251
2.728999999999992,11.910702514648438,-0.0949554443359375,6.936233520507813
2.7390000000000327,11.882589721679688,-0.15970458984375,5.129238891601563
2.7490000000000165,7.123452758789063,-0.7434936523437501,5.579641723632813
2.7590000000000146,4.646984863281251,0.2021728515625,8.17603759765625
2.769000000000005,5.395413208007813,-0.4119720458984375,10.094586181640626
2.7789999999999964,6.357229614257813,0.1622467041015625,8.847903442382814
2.788999999999988,7.415496826171876,0.81287841796875,4.5626464843750005
2.802000000000021,9.3370361328125,0.020037841796875,4.242190551757813
2.8100000000000023,9.521414184570313,-0.456982421875,5.53582763671875
2.819999999999993,7.651165771484376,0.139068603515625,6.697723388671876
2.829999999999984,5.612390136718751,0.5944061279296875,9.192733764648438
2.840000000000032,6.087765502929688,0.5851348876953125,8.160336303710938
2.8500000000000227,8.102615356445312,0.389691162109375,5.922976684570313
2.8600000000000136,8.798556518554689,-0.264678955078125,3.6576538085937504
2.8700000000000045,9.243576049804688,-0.239556884765625,3.095846557617188
2.8800000000000026,7.670306396484375,-0.4990020751953125,3.558810424804688
2.8899999999999864,6.383248901367188,0.2097991943359375,7.319195556640626
2.90300000000002,5.562893676757813,0.3476715087890625,7.610342407226563
2.910000000000025,6.7593322753906255,-0.067889404296875,8.176336669921875
2.920000000000016,8.119961547851563,0.4296173095703125,7.073208618164063
2.930000000000007,9.22039794921875,0.209649658203125,6.165225219726563
2.9399999999999977,7.625445556640625,-0.200079345703125,6.962402343750001
2.951000000000022,5.566632080078126,-0.1990325927734375,7.338037109375
2.9610000000000127,5.1443420410156255,0.1616485595703125,7.346710205078126
2.9709999999999965,6.3705383300781255,0.5743682861328125,7.138854980468751
2.9810000000000016,8.3943603515625,0.278436279296875,5.773291015625
2.990999999999993,8.6623291015625,0.08553466796875,4.427615356445313
3.002999999999993,7.471722412109376,-0.1915557861328125,3.495407104492188
3.011000000000017,4.843026733398438,-0.1383209228515625,4.730276489257813
3.021000000000015,5.54599609375,0.2522674560546875,7.697671508789063
3.031000000000006,10.543942260742188,0.4786651611328125,9.6863525390625
3.040999999999997,12.925604248046875,0.1739105224609375,6.801800537109376
3.050999999999988,8.567523193359376,0.3817657470703125,4.767062377929688
3.060999999999978,5.195184326171876,-0.1658355712890625,6.554916381835938
3.0720000000000027,5.195782470703126,-0.9879852294921876,9.67139892578125
3.0820000000000007,5.362515258789063,-0.7464843750000001,9.590200805664065
3.091999999999992,5.889031982421876,0.3026611328125,6.02451171875
3.1030000000000086,7.8001037597656255,0.2824737548828125,2.93389892578125
3.112000000000023,9.731661987304689,-0.0764129638671875,4.943963623046876
3.122000000000014,9.65704345703125,0.548797607421875,7.210632324218751
3.132000000000005,7.955023193359375,0.7333251953125001,8.835192871093751
3.142000000000003,5.660839843750001,0.1422088623046875,9.008953857421876
3.151999999999987,6.051876831054688,0.4050933837890625,6.695181274414063
3.1619999999999777,7.737149047851563,0.3820648193359375,4.6786865234375
3.172000000000025,9.46070251464844,0.139068603515625,4.502532958984375
3.1820000000000164,8.742480468750001,0.0868804931640625,3.1683715820312504
3.192000000000008,6.947448730468751,0.4496551513671875,3.4195922851562504
3.203000000000032,5.7260375976562505,-0.5363861083984376,6.86490478515625
3.211999999999989,6.673797607421876,-1.021182250976563,8.065829467773439
3.223000000000013,7.787094116210938,-0.7487274169921876,8.901437377929689
3.232999999999997,8.524755859375,-0.5408721923828126,6.989617919921876
3.243000000000002,8.042800903320312,0.2202667236328125,5.8730316162109375
3.252999999999993,6.75723876953125,0.2009765625,6.59215087890625
3.2630000000000337,5.819049072265625,0.3297271728515625,7.237249755859375
3.273000000000025,5.895013427734376,0.9706390380859377,7.304241943359376
3.2830000000000155,7.284503173828125,1.0932586669921875,6.582431030273438
3.2930000000000064,8.119662475585939,0.23148193359375,5.413656616210938
3.3029999999999973,8.508905029296876,0.2093505859375,4.925271606445313
3.312999999999988,8.316900634765625,0.584088134765625,5.50113525390625
3.322999999999979,7.251754760742188,0.147442626953125,7.269100952148438
3.333000000000027,5.4084228515625,-0.0091217041015625,7.289138793945313
3.3430000000000177,3.928463745117188,-0.5217315673828126,6.00357666015625
3.3530000000000086,5.915499877929688,-0.6225189208984375,5.7369537353515625
3.3629999999999995,12.017620849609376,-0.317315673828125,6.336593627929688
3.3729999999999905,13.236041259765626,-0.3868499755859375,5.531192016601563
3.3840000000000146,7.715765380859375,-0.9197967529296877,5.461209106445313
3.394000000000005,4.3006591796875,-0.0246734619140625,8.017529296875
3.4039999999999964,4.925271606445313,-0.16748046875,10.323825073242189
3.413999999999988,6.803594970703125,0.6177337646484375,10.38079833984375
3.423999999999978,7.078442382812501,1.1998779296875002,5.554669189453126
3.434000000000026,8.788687133789063,0.4412811279296875,3.263327026367188
3.444000000000017,8.768051147460938,-0.229388427734375,4.4059326171875
3.454000000000008,8.134317016601564,0.1727142333984375,5.714224243164063
3.463999999999998,6.842474365234375,0.9183013916015624,8.535223388671875
3.473999999999989,6.149822998046876,0.0976470947265625,9.661380004882814
3.4839999999999804,7.413253784179688,0.0913665771484375,6.581384277343751
3.494000000000028,9.075946044921876,0.0647491455078125,3.927117919921875
3.5050000000000026,9.0248046875,-0.6125,3.810031127929688
3.51400000000001,8.122503662109375,-0.8403930664062501,3.3412353515625
3.5249999999999773,6.0953918457031255,-0.4376922607421875,5.5485382080078125
3.535000000000025,5.61358642578125,0.209649658203125,7.951583862304688
3.545000000000016,6.258984375000001,0.40853271484375,7.743728637695313
3.555000000000007,8.284002685546875,0.5181427001953125,7.456021118164063
3.5649999999999977,9.417935180664063,0.6153411865234375,6.3361450195312505
3.5749999999999886,7.997640991210938,0.295184326171875,6.911709594726563
3.5849999999999795,5.535379028320313,-0.10946044921875,7.356280517578125
3.595000000000028,4.929458618164063,0.105572509765625,7.428805541992188
3.605000000000018,6.274984741210938,0.2956329345703125,7.519873046875
3.615000000000009,8.168710327148439,0.6664825439453126,5.777777099609375
3.625,8.168261718750001,0.02093505859375,4.315762329101563
3.634999999999991,6.457867431640626,-0.49586181640625,3.254953002929688
3.644999999999982,5.463003540039063,-0.6736602783203125,4.4460083007812505
3.6550000000000296,8.512643432617189,-0.16568603515625,9.030935668945313
3.665999999999997,12.272879028320313,0.7256988525390625,8.982186889648439
3.675999999999988,10.02176208496094,-0.153424072265625,6.760079956054688
3.685999999999978,5.609698486328125,-0.149237060546875,5.853143310546876
3.6960000000000255,5.02501220703125,-0.399261474609375,6.806137084960938
3.706000000000017,6.0687744140625,-0.7708587646484376,8.823529052734376
3.719000000000001,6.503775024414063,0.130096435546875,7.533331298828125
3.725999999999999,7.044497680664063,0.87747802734375,4.470233154296875
3.73599999999999,8.748760986328126,0.4595245361328125,4.725790405273438
3.745999999999981,9.598574829101564,0.7907470703125,6.817501831054688
3.7560000000000286,7.666567993164063,0.62147216796875,10.083071899414064
3.76600000000002,6.495101928710938,0.44501953125,9.105255126953123
3.7760000000000105,6.274386596679688,-0.212640380859375,6.05740966796875
3.786000000000002,7.140499877929688,0.0079254150390625,4.077999877929688
3.7970000000000255,8.340377807617188,0.35111083984375,3.957473754882813
3.807000000000016,9.253445434570311,0.4433746337890625,3.855191040039063
3.819000000000017,8.005267333984376,-0.1562652587890625,5.404086303710938
3.826999999999998,6.235955810546876,-0.4367950439453125,6.442913818359376
3.836999999999989,6.734359741210938,-0.6596038818359375,6.899148559570313
3.84699999999998,7.134967041015625,-1.0107147216796877,7.723541259765626
3.857000000000028,8.136111450195314,-0.8602813720703125,7.751205444335938
3.867000000000018,7.800552368164063,0.6401641845703125,6.079092407226563
3.8770000000000095,7.251007080078126,0.2438934326171875,5.96170654296875
3.887000000000001,6.303097534179688,0.20635986328125,6.412557983398438
3.896999999999992,6.154757690429688,0.7340728759765626,7.341326904296875
3.9069999999999823,6.734060668945313,1.1429046630859376,7.752401733398438
3.918999999999983,7.642044067382813,0.5911163330078125,6.936083984375
3.927000000000021,7.8727783203125,0.218023681640625,5.567828369140625
3.937000000000012,8.258880615234375,0.150433349609375,5.06090087890625
3.947999999999979,7.75255126953125,0.563153076171875,5.474517822265625
3.958000000000027,6.311172485351563,-0.136676025390625,6.3750244140625005
3.9680000000000177,4.424325561523438,-0.7850646972656251,6.202310180664063
3.9780000000000086,6.224740600585938,-0.8816650390625,6.72733154296875
3.988,11.018869018554687,-0.5449096679687501,6.905279541015625
3.9979999999999913,11.821578979492188,-0.4364959716796875,6.136065673828125
4.007999999999981,7.414450073242188,-0.2516693115234375,5.717214965820313
4.0190000000000055,4.8377929687500005,0.622967529296875,7.661483764648438
4.02800000000002,5.559005737304688,0.2495758056640625,9.178826904296876
4.038000000000011,6.932046508789063,0.8990112304687501,8.304040527343751
4.048000000000002,7.343270874023438,1.0338928222656252,5.021722412109376
4.057999999999993,8.52774658203125,0.1628448486328125,4.828671264648438
4.067999999999984,9.171200561523438,-0.774298095703125,5.816058349609375
4.078000000000031,7.850497436523438,-0.2558563232421875,8.190542602539063
4.088999999999999,6.436932373046876,1.0651458740234376,9.07744140625
4.0989999999999895,5.979501342773438,-0.318511962890625,7.290634155273438
4.1089999999999804,7.732363891601563,-0.02213134765625,5.280270385742188
4.119000000000028,8.698367309570314,-0.2247528076171875,3.969586181640625
4.129000000000019,8.776873779296876,-0.7853637695312501,3.526510620117188
4.13900000000001,8.056558227539064,-0.149237060546875,4.152767944335938
4.149000000000001,6.372930908203125,0.0480010986328125,7.182220458984376
4.158999999999992,6.842175292968751,0.8889923095703126,7.834197998046876
4.168999999999983,6.810025024414063,0.8359069824218751,7.042105102539063
4.179000000000031,8.055511474609375,0.2041168212890625,6.490017700195313
4.189000000000021,8.252151489257812,0.44681396484375,5.906527709960938
4.199000000000012,7.300503540039063,-0.2298370361328125,6.495849609375001
4.209000000000003,6.302499389648438,-0.4246826171875,6.8080810546875
4.219000000000001,5.779571533203125,-0.1625457763671875,7.600323486328126
4.230000000000018,6.144589233398438,0.3748870849609375,8.2005615234375
4.240000000000009,7.686456298828125,0.29488525390625,6.990664672851563
4.25,8.444604492187501,-0.477618408203125,5.65665283203125
4.259999999999991,7.700662231445313,-0.3007171630859375,4.660592651367188
4.269999999999982,6.037521362304688,-0.3644195556640625,4.166973876953126
4.28000000000003,4.281219482421875,-0.3724945068359375,5.3332061767578125
4.2900000000000205,7.303793334960938,0.4080841064453125,6.934140014648438
4.300000000000011,12.621148681640626,0.9912750244140626,7.137808227539063
4.310000000000002,12.36648864746094,0.4137664794921875,6.392669677734376
4.319999999999993,7.279269409179688,0.2896514892578125,6.581234741210938
4.329999999999984,4.161590576171875,-0.28411865234375,8.217459106445313
4.340000000000032,4.598385620117188,-0.78177490234375,10.034024047851563
4.350000000000023,5.786001586914063,-0.13817138671875,9.257034301757812
4.360000000000014,6.94505615234375,0.6433044433593751,4.360324096679688
4.370999999999981,8.885287475585939,0.1846771240234375,3.075360107421876
4.381000000000029,10.252496337890626,-0.010467529296875,4.8126708984375
4.39100000000002,8.218505859375,0.6914550781250001,8.041156005859376
4.4010000000000105,7.064086914062501,0.153125,8.844015502929688
4.411000000000001,5.589511108398438,-0.100787353515625,8.381649780273438
4.420999999999992,6.654656982421876,0.4810577392578125,6.0121002197265625
4.430999999999983,8.997439575195314,0.493768310546875,4.210787963867188
4.441000000000031,9.570611572265626,0.0563751220703125,4.739547729492188
4.451000000000022,8.20355224609375,0.087628173828125,3.6362701416015626
4.461000000000013,6.38878173828125,0.4571319580078125,3.867303466796875
4.4709999999999965,5.43115234375,-0.5157501220703126,6.895858764648438
4.481000000000002,6.660787963867188,-0.7705596923828125,8.504269409179688
4.4909999999999926,8.318994140625001,-0.9727325439453126,8.500531005859376
4.5020000000000095,9.206640625,-0.394476318359375,6.213226318359376
4.5120000000000005,8.025454711914064,0.2702117919921875,5.924172973632813
4.521999999999991,5.909518432617188,0.0761138916015625,7.086965942382813
4.531999999999982,5.182772827148438,0.216827392578125,7.691390991210938
4.54200000000003,5.929556274414063,0.6866699218750001,7.527349853515625
4.552000000000021,7.782159423828125,0.8553466796875001,6.119915771484376
4.562000000000012,8.670254516601563,0.3234466552734375,4.602273559570313
4.572000000000003,8.84356689453125,0.21832275390625,4.461111450195313
4.582000000000001,7.784402465820313,0.7660736083984375,4.897308349609375
4.591999999999992,5.334402465820313,0.1449005126953125,7.327569580078125
4.602000000000032,4.141253662109375,-0.3871490478515625,7.106854248046876
4.612000000000023,7.156649780273438,-0.5923126220703125,7.943807983398438
4.622000000000014,12.610382080078129,-0.5042358398437501,7.661633300781251
4.632000000000005,11.65589294433594,-0.368756103515625,5.601025390625001
4.642000000000003,6.2912841796875005,-0.7520172119140626,4.510009765625
4.65300000000002,3.8789672851562496,0.21593017578125,7.41759033203125
4.663000000000011,4.822091674804688,0.246136474609375,8.574850463867188
4.673000000000002,6.418539428710938,0.7720550537109375,7.271493530273438
4.682999999999993,7.853488159179688,0.8237945556640626,4.1698150634765625
4.692999999999984,10.202252197265626,0.0360382080078125,5.496051025390625
4.703000000000031,10.620504760742188,-0.5812469482421876,7.264016723632813
4.713000000000022,7.193435668945313,0.325390625,10.737741088867187
4.723000000000013,5.482293701171876,0.377728271484375,9.241033935546875
4.732999999999997,5.326177978515625,0.3081939697265625,6.491363525390626
4.743000000000002,7.024011230468751,0.197088623046875,4.2157226562500005
4.752999999999993,8.691339111328126,-0.0970489501953125,3.347067260742188
4.763000000000034,9.618014526367189,-0.3135772705078125,2.600433349609375
4.773000000000025,7.896853637695313,-0.6198272705078125,3.372488403320313
4.783000000000016,7.009805297851563,-0.212939453125,6.548037719726563
4.793000000000006,7.030291748046875,0.347821044921875,9.643884277343751
4.804000000000031,7.201062011718751,0.0456085205078125,9.605154418945313
4.814000000000021,7.416543579101563,0.6361267089843751,6.722994995117188
4.824000000000012,8.204898071289064,0.5686859130859375,4.537075805664063
4.834000000000003,7.777822875976563,0.1317413330078125,4.2623779296875
4.844000000000001,5.9971466064453125,-0.602032470703125,6.239096069335938
4.853999999999992,5.164080810546875,0.1447509765625,7.972668457031251
4.864000000000033,6.222348022460938,0.6178833007812501,8.739041137695313
4.8740000000000165,7.679129028320313,-0.0820953369140625,8.081082153320313
4.884000000000015,8.459857177734376,-0.21353759765625,5.707046508789063
4.8940000000000055,7.684213256835938,-0.1230682373046875,4.808932495117188
4.903999999999996,5.577996826171876,-0.081646728515625,4.394418334960938
4.913999999999987,5.5380706787109375,-0.1263580322265625,5.760580444335938
4.923999999999978,9.763363647460938,0.30206298828125,7.184762573242188
4.935000000000002,12.102407836914065,0.6271545410156251,7.167266845703126
4.944999999999993,9.003271484375,0.32359619140625,5.4483489990234375
4.954999999999984,5.244680786132813,-0.134283447265625,6.875372314453125
4.965000000000032,4.9765625,-0.581396484375,8.560046386718751
4.975000000000023,6.427362060546876,-0.5833404541015625,9.142340087890624
4.985000000000014,7.034927368164063,0.2761932373046875,5.951239013671875
4.9950000000000045,7.800701904296876,0.288604736328125,3.939678955078125
5.005000000000003,9.44873962402344,0.27454833984375,5.8845458984375005
5.018000000000029,8.149270629882814,0.5295074462890625,8.089306640625
5.024999999999977,6.310574340820313,0.26019287109375,10.298553466796877
5.035000000000025,5.885144042968751,0.0085235595703125,7.518078613281251
5.045000000000016,7.615426635742188,0.332568359375,5.17454833984375
5.055000000000007,8.556158447265625,0.3150726318359375,3.8676025390625
5.066000000000031,9.446197509765623,0.389093017578125,4.0392700195312505
5.076000000000022,8.416790771484376,0.7490264892578126,3.774740600585938
5.086000000000013,6.437979125976563,0.060113525390625,5.828469848632813
5.0959999999999965,5.8677978515625,-0.653173828125,6.659890747070313
5.106000000000002,6.977804565429688,-0.9541900634765624,7.650567626953125
5.118000000000002,8.2974609375,-1.1624938964843752,7.306185913085938
5.126000000000033,8.796313476562501,-0.0109161376953125,6.369491577148438
5.136000000000017,7.555612182617188,0.375634765625,6.506765747070313
5.146000000000015,6.231021118164063,-0.0838897705078125,6.7997070312500005
5.156000000000006,5.540911865234375,0.053533935546875,7.329513549804688
5.165999999999997,5.854190063476563,0.5190399169921875,7.698419189453125
5.175999999999988,7.364654541015626,1.0395751953125,6.859222412109376
5.185999999999979,8.320339965820313,0.5229278564453126,5.521771240234376
5.196000000000026,8.585018920898438,0.3955230712890625,5.337243652343751
5.206000000000017,8.07315673828125,0.625958251953125,5.11832275390625
5.218000000000018,5.996548461914063,0.389093017578125,6.064736938476563
5.227000000000032,4.0183349609375005,-0.2074066162109375,5.638409423828126
5.237000000000023,6.419287109375,-0.8261871337890626,7.072760009765625
5.247000000000014,11.443252563476562,-0.581097412109375,7.479199218750001
5.257000000000005,12.158782958984377,-0.13876953125,5.975164794921875
5.267000000000003,7.610940551757813,-0.72196044921875,6.288742065429688
5.276999999999987,4.4992431640625,0.521881103515625,8.139700317382813
5.286999999999978,5.36954345703125,-0.006280517578125,9.078488159179688
5.2970000000000255,5.986529541015625,0.2763427734375,8.044744873046875
5.307000000000016,7.383197021484375,0.7603912353515625,4.85693359375
5.319000000000017,8.837435913085939,-0.1105072021484375,4.453335571289063
5.326999999999998,10.28330078125,-0.3581390380859375,5.517584228515625
5.338000000000022,7.822833251953125,0.3796722412109375,8.206692504882813
5.348000000000013,6.0209228515625,0.7077545166015625,9.30413818359375
5.357999999999997,5.664578247070313,0.4251312255859375,7.628585815429688
5.368000000000002,7.245623779296875,-0.0874786376953125,5.89591064453125
5.377999999999993,8.985775756835938,-0.029608154296875,3.980950927734375
5.388000000000034,9.142041015625,-0.3147735595703125,3.279327392578125
5.398000000000025,8.041006469726563,-0.5486480712890626,2.877972412109376
5.408000000000016,6.826324462890626,0.2483795166015625,6.189450073242188
5.418999999999983,6.582879638671876,0.03050537109375,8.0593994140625
5.427999999999997,6.327023315429688,-0.1682281494140625,8.410211181640626
5.437999999999988,7.192837524414063,0.6548187255859376,7.209735107421875
5.447999999999979,8.89560546875,0.30445556640625,5.720803833007813
5.458000000000027,8.315853881835938,-0.2743988037109375,6.154458618164063
5.468000000000018,6.281863403320313,-0.0444122314453125,7.195828247070313
5.478000000000009,5.416348266601563,0.2492767333984375,7.699166870117188
5.488,5.87796630859375,0.3111846923828125,7.725933837890626
5.4990000000000165,7.07425537109375,0.1915557861328125,6.847109985351563
5.509000000000015,8.564981079101564,0.126507568359375,5.3586273193359375
5.5190000000000055,8.455072021484376,-0.1709197998046875,4.521673583984375
5.528999999999996,6.837240600585938,-0.2201171875,3.548941040039063
5.538999999999987,4.247723388671876,-0.1341339111328125,5.035330200195313
5.548999999999978,6.451138305664063,-0.43724365234375,7.778121948242188
5.559000000000026,11.903524780273438,0.8777770996093751,8.324676513671875
5.569000000000017,12.203494262695314,0.190509033203125,6.523214721679688
5.579000000000008,7.906124877929688,-0.407037353515625,6.501083374023438
5.588999999999999,4.624703979492188,-0.0315521240234375,7.57310791015625
5.5989999999999895,5.178585815429688,-0.6114532470703126,9.676632690429688
5.6089999999999804,5.8031982421875,-0.0106170654296875,8.885287475585939
5.619000000000028,6.451287841796876,0.8873474121093751,5.014245605468751
5.629000000000019,8.272189331054689,0.297576904296875,3.6380645751953127
5.639999999999986,9.213369750976565,0.1638916015625,5.6835693359375
5.649999999999977,8.7101806640625,1.1113525390625,7.109097290039063
5.660000000000025,7.097283935546876,0.503338623046875,9.978695678710938
5.670000000000016,6.709088134765626,0.0369354248046875,8.17005615234375
5.680000000000007,7.3822998046875,0.136077880859375,5.116528320312501
5.689999999999998,8.3225830078125,0.2627349853515625,3.841134643554688
5.699999999999989,9.418234252929688,-0.0961517333984375,3.612643432617188
5.70999999999998,7.5138916015625,-0.791943359375,3.682177734375
5.720000000000027,5.82353515625,-0.094207763671875,5.2315216064453125
5.730000000000018,5.871237182617188,-0.5247222900390626,6.473269653320313
5.740000000000009,7.331008911132813,-1.12152099609375,8.523410034179689
5.75,8.293572998046876,-0.0856842041015625,8.902633666992188
5.759999999999991,8.640048217773439,0.450701904296875,7.300204467773438
5.769999999999982,7.377514648437501,0.296380615234375,6.516934204101563
5.78000000000003,6.100476074218751,0.2205657958984375,6.529794311523438
5.7900000000000205,5.699719238281251,0.5658447265625001,6.71177978515625
5.800999999999988,6.374276733398438,0.8840576171875001,7.0497314453125
5.810999999999979,7.619314575195313,0.74708251953125,5.71287841796875
5.821000000000026,8.5666259765625,0.4852447509765625,4.6703125000000005
5.831000000000017,8.471221923828125,-0.19439697265625,4.8168579101562505
5.841000000000008,6.83499755859375,-0.0859832763671875,5.979949951171875
5.850999999999999,5.2075958251953125,-0.1185821533203125,6.458914184570313
5.86099999999999,4.660891723632813,-0.6805389404296875,6.537271118164063
5.870999999999981,9.032730102539062,-0.907086181640625,7.749560546875
5.881000000000029,13.025045776367188,-0.0348419189453125,7.069470214843751
5.89100000000002,10.924212646484376,-0.8290283203125001,5.142098999023438
5.9010000000000105,5.169314575195313,0.03170166015625,6.690545654296876
5.911000000000001,3.752459716796875,0.485693359375,8.224636840820313
5.920999999999992,5.475115966796875,0.1685272216796875,9.746914672851563
5.934000000000026,6.582281494140625,1.1113525390625,7.5138916015625
5.942000000000007,7.919134521484375,0.844281005859375,4.368698120117188
5.951999999999998,10.047781372070313,0.2062103271484375,5.468835449218751
5.961999999999989,9.896600341796876,0.03170166015625,6.150271606445313
5.97199999999998,7.157696533203126,0.781475830078125,8.337387084960938
5.982000000000028,4.9873291015625005,0.36546630859375,8.813211059570314
5.992000000000019,5.756393432617188,-0.140863037109375,6.971224975585938
6.0020000000000095,8.456417846679688,0.021533203125,4.840036010742188
6.0120000000000005,9.380850219726565,-0.228790283203125,3.4728271484375
6.021999999999991,9.266754150390623,-0.6092102050781251,2.8438781738281254
6.033999999999992,7.416394042968751,-0.93609619140625,3.3478149414062504
6.04200000000003,6.533233642578126,-0.419000244140625,7.392169189453125
6.052000000000021,6.074606323242188,-0.0312530517578125,8.329461669921876
6.062999999999988,6.664227294921876,0.20396728515625,8.683563232421875
6.072999999999979,8.109344482421875,0.957928466796875,6.914102172851563
6.083000000000027,9.051422119140623,0.530853271484375,5.500238037109376
6.093000000000018,7.261175537109375,0.3802703857421875,6.249114990234376
6.103000000000009,5.1906982421875005,0.06400146484375,7.744775390625
6.113,5.139407348632813,0.1975372314453125,7.978051757812499
6.122999999999991,6.741836547851563,0.6174346923828126,7.2273803710937505
6.134999999999991,8.847155761718751,0.2561553955078125,5.426666259765625
6.143000000000029,8.399594116210938,-0.6054718017578126,4.282266235351563
6.15300000000002,6.591702270507813,-0.520086669921875,3.615185546875
6.163000000000011,4.863961791992188,-0.8694030761718751,4.190899658203126
6.173000000000002,6.970327758789063,-0.9419281005859376,7.896853637695313
6.182999999999993,11.648565673828124,0.7980743408203126,8.719451904296875
6.194000000000017,11.832943725585938,0.0154022216796875,7.238894653320313
6.204000000000008,7.544247436523438,-0.29129638671875,6.482241821289063
6.213999999999999,4.831512451171875,0.411224365234375,7.346261596679688
6.2239999999999895,5.312570190429688,-0.49227294921875,9.564480590820311
6.235000000000014,6.008212280273438,0.2906982421875,8.849847412109376
6.244000000000028,6.374127197265626,1.1058197021484375,4.8904296875
6.254000000000019,7.713223266601563,0.5336944580078126,3.35618896484375
6.26400000000001,9.340176391601563,0.5776580810546875,5.470181274414063
6.274000000000001,9.31849365234375,1.6350280761718752,7.326223754882813
6.283999999999992,7.12210693359375,0.865216064453125,9.737493896484375
6.293999999999983,6.240142822265626,-0.159405517578125,8.198916625976564
6.304000000000031,6.807931518554688,-0.3529052734375,5.326327514648438
6.314000000000021,8.495895385742188,0.1326385498046875,4.458120727539063
6.324000000000012,9.299951171875,-0.3297271728515625,4.185665893554688
6.33499999999998,8.157196044921875,-0.97437744140625,3.869097900390625
6.344000000000001,5.734112548828126,-0.7971771240234375,5.061798095703125
6.355000000000018,5.972772216796876,-0.6464447021484375,6.261526489257813
6.365000000000009,7.233511352539063,-0.741400146484375,7.92601318359375
6.375,8.250057983398438,-0.2833709716796875,8.877362060546876
6.384999999999991,8.270843505859375,0.7318298339843751,7.295718383789063
6.394999999999982,7.222296142578125,0.7553070068359375,6.269302368164063
6.40500000000003,6.396258544921875,0.4972076416015625,6.510803222656251
6.4150000000000205,6.150421142578126,0.5464050292968751,6.950888061523438
6.425000000000011,6.653161621093751,1.0937072753906252,7.058853149414063
6.435000000000002,7.74417724609375,0.8964691162109376,5.77269287109375
6.444999999999993,8.200262451171875,0.0686370849609375,4.7361083984375005
6.454999999999984,7.7615234375,-0.6884643554687501,4.668667602539063
6.465000000000032,6.785949707031251,-0.1128997802734375,5.917593383789063
6.475000000000023,5.315560913085938,-0.3578399658203125,6.596786499023438
6.485000000000014,5.8954620361328125,-1.1183807373046877,7.385739135742188
6.495999999999981,9.7700927734375,-0.7385589599609376,6.913653564453125
6.506000000000029,11.406915283203126,-0.1215728759765625,6.182720947265626
6.51600000000002,8.765359497070314,-0.5860321044921876,6.238049316406251
6.5260000000000105,5.682373046875,0.7783355712890626,7.359869384765625
6.536000000000001,5.169613647460938,0.38101806640625,9.408364868164064
6.545999999999992,6.192141723632813,0.5135070800781251,8.9781494140625
6.555999999999983,7.069619750976563,1.2140838623046877,6.106158447265625
6.566000000000031,8.180523681640626,0.6156402587890626,4.3956146240234375
6.576000000000022,9.83289794921875,0.3291290283203125,4.985833740234376
6.586000000000013,8.392565917968751,0.675604248046875,6.312817382812501
6.5959999999999965,6.245077514648438,0.3889434814453125,8.353237915039063
6.606000000000002,5.875125122070313,-0.06639404296875,8.069268798828126
6.617000000000019,7.2064453125,-0.87269287109375,6.616824340820313
6.626000000000033,9.03018798828125,-0.1926025390625,4.926318359375
6.636000000000017,9.119461059570312,-0.4708892822265625,4.166525268554688
6.646999999999991,8.285049438476562,-0.8275329589843751,3.629989624023438
6.656999999999982,6.433343505859376,-0.185125732421875,5.2853546142578125
6.66700000000003,5.836544799804688,-0.130694580078125,7.220651245117188
6.677000000000021,6.495700073242188,0.2672210693359375,7.500134277343751
6.687000000000012,7.764663696289063,0.9598724365234376,7.288092041015625
6.697000000000003,8.61148681640625,0.40494384765625,6.117971801757813
6.707000000000001,8.183215332031251,0.6006866455078126,6.816754150390626
6.716999999999992,6.699667358398438,0.201275634765625,7.692138671875001
6.727000000000032,5.701812744140625,-0.0988433837890625,7.960406494140625
6.737000000000023,5.50950927734375,0.305352783203125,7.358074951171876
6.747000000000014,7.36973876953125,0.3796722412109375,5.804544067382813
6.757000000000005,8.5427001953125,-0.1526763916015625,4.661041259765625
6.767000000000003,7.928106689453125,-0.659454345703125,4.24383544921875
6.77800000000002,6.196478271484375,-0.4318603515625,3.834405517578125
6.788000000000011,4.8904296875,-0.494964599609375,5.435638427734375
6.798000000000002,7.56533203125,-0.521282958984375,8.596832275390625
6.807999999999993,12.148165893554689,1.0633514404296875,8.700161743164063
6.817999999999984,11.9904052734375,0.5733215332031251,6.865203857421876
6.828000000000031,6.969580078125,-0.3129791259765625,6.564337158203125
6.838000000000022,4.163983154296876,0.2271453857421875,7.461703491210938
6.848000000000013,5.086172485351563,-0.52337646484375,9.104357910156253
6.857999999999997,5.80020751953125,-0.1703216552734375,7.997042846679688
6.868000000000002,6.993804931640626,0.75186767578125,4.584329223632813
6.877999999999993,8.556756591796876,0.289801025390625,4.0830841064453125
6.888000000000034,10.094586181640626,0.1834808349609375,5.72843017578125
6.898000000000025,8.495147705078125,0.9703399658203126,8.56483154296875
6.908000000000016,6.457717895507813,0.422589111328125,10.111932373046876
6.918000000000006,6.218609619140626,-0.1269561767578125,7.691091918945313
6.929000000000031,7.091302490234376,0.0968994140625,4.529150390625
6.939000000000021,8.272488403320313,0.3551483154296875,3.891677856445313
6.949000000000012,9.153106689453123,0.1614990234375,3.5525299072265626
6.959000000000003,8.376565551757814,-0.0059814453125,3.362020874023438
6.969000000000001,5.917144775390625,-0.170172119140625,5.638858032226563
6.978999999999992,6.111541748046875,-0.5514892578125,7.512246704101563
6.989000000000033,7.247119140625,-0.6578094482421876,8.308825683593751
6.9990000000000165,8.27174072265625,-1.1150909423828126,8.614028930664062
7.009000000000015,8.062240600585938,0.007177734375,6.647778320312501
7.0190000000000055,7.198818969726563,0.5461059570312501,6.242535400390626
7.028999999999996,6.308331298828126,0.0898712158203125,6.626843261718751
7.038999999999987,5.8785644531250005,0.4430755615234375,7.0942932128906255
7.048999999999978,6.625497436523438,1.1725128173828123,6.852792358398438
7.059000000000026,8.097979736328126,0.8015136718750001,5.7354583740234375
7.069999999999993,8.459857177734376,0.003289794921875,5.007366943359376
7.079999999999984,8.134765625,0.0758148193359375,5.152416992187501
7.090000000000032,7.457815551757813,0.875982666015625,6.282012939453126
7.100000000000023,5.939425659179688,-0.258099365234375,7.076049804687501
7.110000000000014,4.390530395507813,-0.7852142333984375,6.308929443359376
7.1200000000000045,5.648278808593751,-0.8273834228515625,5.799609375
7.130000000000003,11.654397583007814,-0.5849853515625001,6.134719848632813
7.139999999999986,13.02041015625,-0.2029205322265625,6.670657348632813
7.149999999999977,8.257684326171876,-0.257501220703125,6.358276367187501
7.160000000000025,3.830816650390626,0.151031494140625,7.5757995605468755
7.170000000000016,4.600180053710938,0.284716796875,9.5858642578125
7.180999999999983,6.513644409179688,0.6581085205078125,9.310568237304688
7.189999999999998,7.313363647460938,1.04495849609375,5.253054809570313
7.199999999999989,8.733657836914062,0.3485687255859375,3.77608642578125
7.211000000000013,9.240286254882813,-0.179144287109375,5.363262939453126
7.2209999999999965,8.878707885742188,0.1511810302734375,6.781314086914063
7.2339999999999804,6.426315307617188,0.772802734375,9.626239013671876
7.240999999999992,5.7673095703125,0.068487548828125,8.751452636718751
7.251000000000033,6.628189086914063,-0.0201873779296875,6.031240844726563
7.261000000000017,8.987869262695312,-0.06400146484375,4.174600219726563
7.271000000000015,9.351690673828124,-0.5438629150390626,3.3481140136718754
7.281000000000006,8.613879394531251,-0.7629333496093751,2.7417449951171875
7.290999999999997,5.913555908203126,-0.6401641845703125,5.765814208984375
7.300999999999988,6.348706054687501,0.3778778076171875,7.675241088867188
7.310999999999979,6.6576477050781255,0.3584381103515625,8.226431274414063
7.322000000000003,7.727728271484375,0.54132080078125,7.8599182128906255
7.334000000000003,8.991757202148438,0.8450286865234375,5.6560546875
7.341999999999992,8.2125244140625,0.2971282958984375,5.561398315429688
7.352000000000032,5.825479125976563,-0.3718963623046875,7.228277587890625
7.362000000000023,5.029049682617188,0.0213836669921875,7.884442138671876
7.372000000000014,5.963949584960938,0.3934295654296875,8.114129638671876
7.382000000000005,7.890573120117188,0.366363525390625,6.526953125
7.392000000000003,8.728274536132814,-0.2486785888671875,5.041760253906251
7.401999999999987,7.880255126953125,-0.4182525634765625,4.33056640625
7.411999999999978,6.122308349609376,-0.6856231689453125,4.350604248046875
7.4220000000000255,4.753753662109375,-0.5064788818359376,6.053372192382813
7.434000000000026,7.354187011718751,0.2660247802734375,7.914498901367188
7.442000000000007,12.108688354492188,0.6925018310546875,7.338635253906251
7.451999999999998,11.587255859375,0.4161590576171875,5.890078735351563
7.463000000000022,7.277923583984376,0.4221405029296875,6.23984375
7.473000000000013,4.80728759765625,-0.285614013671875,7.969528198242188
7.482000000000028,4.8920745849609375,-0.5549285888671875,9.536068725585938
7.493000000000002,5.692990112304688,0.0011962890625,8.450585937500001
7.502999999999993,6.696078491210938,0.7183715820312501,4.4923645019531255
7.513000000000034,8.958709716796875,0.284716796875,3.879864501953125
7.523000000000025,10.12598876953125,0.0913665771484375,6.105111694335938
7.533999999999992,8.877960205078125,0.8797210693359375,7.630081176757813
7.543000000000006,6.1656738281250005,0.3234466552734375,9.664669799804688
7.552999999999997,5.465396118164063,-0.3701019287109375,7.813861083984375
7.562999999999988,6.590057373046876,0.113946533203125,5.50113525390625
7.572999999999979,8.945101928710939,0.3512603759765625,4.36944580078125
7.583000000000027,9.818692016601563,0.15850830078125,4.23486328125
7.594000000000001,8.49783935546875,0.2382110595703125,2.9766662597656253
7.603999999999992,6.09927978515625,-0.0545806884765625,5.129537963867188
7.612999999999999,5.771047973632813,-0.464459228515625,7.4265625
7.624000000000016,6.689349365234375,-0.684576416015625,8.893362426757813
7.6340000000000146,8.011996459960939,-0.9214416503906252,8.251254272460939
7.644000000000005,8.791378784179688,0.16688232421875,5.674746704101563
7.653999999999996,8.043548583984375,0.08134765625,5.361618041992188
7.663999999999987,6.344219970703126,0.098394775390625,6.886737060546875
7.673999999999978,5.555267333984375,0.6096588134765626,7.889227294921875
7.684000000000026,6.066830444335938,0.7775878906250001,7.830758666992188
7.694000000000017,7.408169555664063,0.472833251953125,6.108401489257813
7.704000000000008,8.350396728515626,0.1758544921875,4.870989990234375
7.713999999999999,8.491259765625001,0.29129638671875,4.715023803710938
7.723999999999989,7.310971069335938,0.3313720703125,4.971926879882813
7.7339999999999804,4.889981079101563,-0.2112945556640625,6.511102294921876
7.744000000000028,5.205651855468751,-0.4810577392578125,7.5025268554687505
7.755000000000003,9.632669067382814,-1.0466033935546877,7.72623291015625
7.764999999999986,12.191680908203123,-0.3279327392578125,6.359024047851563
7.774999999999977,9.299652099609377,-0.4888336181640625,4.811624145507813
7.785000000000025,5.6500732421875,-0.29608154296875,6.577944946289063
7.795000000000016,4.998544311523438,0.462664794921875,9.032431030273438
7.805000000000007,6.050531005859376,0.6276031494140626,9.45950622558594
7.814999999999998,6.48209228515625,1.2178222656250002,6.4198852539062505
7.824999999999989,8.182168579101564,0.7663726806640626,4.546646118164063
7.8349999999999795,9.288287353515626,0.039178466796875,5.295672607421875
7.845000000000027,9.297409057617188,0.460272216796875,6.983935546875
7.855000000000018,6.811520385742188,0.9390869140625,9.302792358398438
7.865000000000009,5.728729248046875,0.103778076171875,7.826272583007813
7.875,6.387585449218751,-0.1167877197265625,5.691943359375
7.887,8.110690307617189,-0.3357086181640625,4.425820922851563
7.894999999999982,9.53247985839844,-0.4318603515625,4.305593872070313
7.90500000000003,8.639898681640625,-0.87867431640625,3.190353393554688
7.915999999999997,6.623553466796875,-0.9434234619140626,4.961010742187501
7.925999999999988,6.415399169921876,0.2118927001953125,7.89610595703125
7.935999999999979,7.224090576171876,-0.0841888427734375,8.536419677734376
7.946000000000026,7.1137329101562505,0.3820648193359375,7.901040649414063
7.956000000000017,8.023660278320314,1.2626831054687502,5.755047607421876
7.966000000000008,7.881900024414063,0.16090087890625,5.485433959960938
7.975999999999999,6.642544555664063,-0.2594451904296875,6.639105224609375
7.98599999999999,5.813366699218751,0.6555664062500001,7.418487548828126
7.995999999999981,6.260928344726563,0.599041748046875,7.910012817382813
8.006000000000029,7.565930175781251,0.3237457275390625,6.9779541015625
8.01600000000002,8.252301025390626,-0.070281982421875,5.6876068115234375
8.02600000000001,8.330209350585939,-0.5647979736328126,4.956076049804688
8.036000000000001,6.734658813476563,-0.8695526123046876,4.85155029296875
8.047000000000025,4.658200073242188,-0.4125701904296875,5.469433593750001
8.057000000000016,4.964300537109375,-0.4128692626953125,6.511102294921876
8.067000000000007,10.030136108398438,0.133685302734375,7.515386962890625
8.076999999999998,13.454364013671876,0.7995697021484376,6.717312622070313
8.086999999999989,10.09368896484375,0.0847869873046875,6.170309448242188
8.09699999999998,4.949945068359376,-0.511114501953125,7.060049438476563
8.107000000000028,4.1309356689453125,-0.3482696533203125,8.818743896484376
8.119000000000028,5.268008422851563,-0.3820648193359375,9.276025390625
8.12700000000001,6.842773437500001,0.721661376953125,6.411062622070313
8.137,7.924816894531251,0.60711669921875,2.800363159179688
8.146999999999991,9.757531738281251,0.4652069091796875,4.7331176757812505
8.156999999999982,9.71670837402344,0.9999481201171876,6.8798583984375
8.168000000000006,7.891918945312501,1.123016357421875,8.98712158203125
8.177000000000021,5.093649291992188,0.1894622802734375,9.556256103515626
8.187000000000012,5.6237548828125,-0.030804443359375,6.851296997070313
8.197999999999979,8.00137939453125,0.03050537109375,5.137164306640625
8.208000000000027,9.363504028320314,0.0958526611328125,4.629788208007813
8.218000000000018,8.836837768554688,-0.0803009033203125,4.350155639648438
8.228000000000009,7.550827026367188,-0.282623291015625,3.055023193359375
8.238,5.758786010742188,-0.5106658935546875,6.2841064453125
8.24799999999999,6.36246337890625,-0.6299957275390625,7.767803955078126
8.257999999999981,7.542901611328125,-0.90618896484375,8.489315795898438
8.268000000000029,9.085366821289064,-0.53533935546875,6.293527221679688
8.27800000000002,8.758480834960938,0.5474517822265625,5.5186309814453125
8.288000000000011,6.877166748046876,0.7258483886718751,6.135317993164063
8.298000000000002,5.339935302734375,0.284417724609375,7.517630004882813
8.307999999999993,5.444760131835938,0.4493560791015625,7.841525268554688
8.317999999999984,6.672601318359376,1.0564727783203125,7.410113525390625
8.328000000000031,8.376416015625,0.6332855224609375,5.734112548828126
8.338000000000022,8.7341064453125,-0.019140625,5.067330932617188
8.350999999999999,8.244076538085938,0.1614990234375,5.147930908203126
8.35899999999998,6.723294067382813,0.5682373046875,6.378164672851563
8.369000000000028,4.721304321289063,-0.3935791015625,6.806137084960938
8.379000000000019,5.0973876953125,-0.8258880615234375,6.421530151367188
8.38900000000001,9.37711181640625,-0.6373229980468751,6.498092651367188
8.399000000000001,12.2655517578125,-0.1625457763671875,5.7474212646484375
8.408999999999992,9.464590454101565,-0.8327667236328126,4.8023529052734375
8.418999999999983,5.770599365234375,0.2959320068359375,7.453329467773438
8.42900000000003,5.081088256835938,0.1296478271484375,9.561788940429688
8.439000000000021,6.105410766601563,0.160302734375,9.930844116210938
8.451000000000022,6.489569091796875,1.1402130126953125,6.398800659179688
8.459000000000003,8.19158935546875,0.4789642333984375,4.262078857421876
8.470000000000027,9.456814575195311,-0.1413116455078125,5.474368286132813
8.478999999999992,8.742330932617188,-0.0629547119140625,5.99639892578125
8.490000000000009,6.624450683593751,0.8493652343750001,8.192935180664064
8.5,5.648727416992188,0.118731689453125,8.214169311523438
8.509999999999991,6.986776733398438,-0.6975860595703125,6.671853637695313
8.519999999999982,8.784051513671876,-0.02452392578125,5.007666015625
8.53000000000003,9.293820190429688,-0.3026611328125,3.877023315429688
8.54000000000002,8.439520263671875,-0.6434539794921875,3.2420928955078128
8.550999999999988,7.245474243164063,0.1081146240234375,5.034432983398438
8.560000000000002,6.391921997070313,0.1454986572265625,7.554565429687501
8.569999999999993,6.242984008789063,0.208453369140625,7.8608154296875
8.579999999999984,6.569271850585938,0.8067474365234376,7.515536499023438
8.590000000000032,8.266955566406251,0.4149627685546875,6.098980712890626
8.600000000000023,8.545391845703126,0.253912353515625,6.203207397460938
8.610000000000014,7.203305053710938,-0.08074951171875,7.220352172851563
8.620999999999981,5.911013793945313,0.0880767822265625,7.786645507812499
8.631000000000029,5.793478393554688,0.4517486572265625,7.826123046875001
8.64100000000002,6.7668090820312505,0.02452392578125,6.9301025390625
8.65100000000001,7.938873291015626,-0.274249267578125,5.544351196289063
8.661000000000001,8.375817871093751,-0.3120819091796875,4.3963623046875
8.670999999999992,7.503125000000001,-0.0154022216796875,3.779226684570313
8.680999999999983,5.167819213867188,-0.0037384033203125,4.630386352539063
8.691000000000031,5.0423583984375,-0.4436737060546875,7.141546630859375
8.701000000000022,10.0237060546875,0.8762817382812501,9.371279907226564
8.711000000000013,12.921417236328129,0.7484283447265625,7.189099121093751
8.720999999999997,9.349746704101562,0.093011474609375,5.650521850585938
8.731000000000002,5.209240722656251,0.225201416015625,6.957766723632813
8.740999999999993,4.714126586914063,-0.8481689453125001,8.835043334960938
8.75200000000001,5.797515869140625,-0.7388580322265625,9.287539672851564
8.762,6.055166625976563,0.2500244140625,5.6771392822265625
8.771999999999991,8.222244262695312,0.244940185546875,3.1131927490234377
8.781999999999982,9.601715087890623,-0.0130096435546875,5.339486694335938
8.79200000000003,8.846258544921875,0.136376953125,7.0712646484375
8.802000000000021,7.315606689453125,0.5429656982421875,8.931643676757814
8.812000000000012,6.05980224609375,0.136376953125,9.06607666015625
8.822000000000003,6.949841308593751,0.3859527587890625,6.395211791992188
8.832,8.138803100585939,0.548199462890625,4.451092529296876
8.841999999999992,8.972616577148438,0.2572021484375,4.174749755859375
8.852000000000032,8.409762573242189,0.1036285400390625,3.1321838378906253
8.862000000000023,6.833651733398438,0.39896240234375,4.279125976562501
8.872000000000014,5.8685455322265625,-0.50184326171875,6.650021362304688
8.882000000000005,6.6525634765625,-0.850262451171875,8.008706665039064
8.893000000000029,7.648773193359376,-0.8242431640625001,8.846707153320313
8.90300000000002,8.768649291992189,-0.304754638671875,7.059899902343751
8.913000000000011,8.017529296875,0.325091552734375,6.484036254882813
8.923000000000002,6.399548339843751,-0.062506103515625,6.817202758789063
8.932999999999993,5.699420166015625,0.28770751953125,7.013244628906251
8.942999999999984,6.075802612304688,0.8242431640625001,6.792977905273438
8.953000000000031,7.406375122070313,0.7596435546875,5.972622680664063
8.963000000000022,8.22149658203125,0.3856536865234375,5.337991333007813
8.973000000000013,8.793173217773438,0.2332763671875,4.834054565429688
8.98399999999998,7.467535400390625,0.7167266845703125,5.3761230468750005
8.993000000000002,5.301354980468751,-0.1280029296875,6.550131225585938
9.002999999999993,4.488327026367188,-0.5206848144531251,7.0763488769531255
9.013000000000034,8.274282836914063,-0.512310791015625,8.085717773437501
9.024,11.926852416992189,-0.0865814208984375,6.823184204101563
9.035000000000023,10.14273681640625,-0.5084228515625,5.000338745117188
9.055000000000009,4.912261962890625,-0.00657958984375,8.543746948242188
9.06400000000002,5.544650268554688,-0.3061004638671875,9.656744384765624
9.074000000000012,6.528747558593751,0.8828613281250001,7.725335693359375
9.084000000000003,8.010052490234376,0.6766510009765625,4.374530029296875
9.094,9.821981811523438,-0.0198883056640625,5.134771728515625
9.103999999999992,9.301745605468753,-0.249725341796875,5.77269287109375
9.114000000000033,7.213623046875001,0.733624267578125,7.976107788085938
9.124000000000017,5.324383544921876,0.4940673828125,8.489016723632814
9.134000000000016,5.894863891601563,-0.0417205810546875,7.426263427734375
9.144000000000004,8.174691772460939,0.301763916015625,5.235260009765625
9.153999999999996,9.380401611328123,-0.2385101318359375,4.021026611328125
9.163999999999987,9.023907470703126,-0.4885345458984375,3.115435791015625
9.175000000000011,7.701409912109375,-0.11185302734375,3.766815185546875
9.185000000000002,6.529345703125,-0.17525634765625,7.173098754882813
9.194999999999991,6.075503540039063,-0.1419097900390625,8.385238647460938
9.204999999999984,6.333303833007813,0.205462646484375,8.147476196289062
9.215000000000032,8.116372680664064,0.32479248046875,6.335098266601563
9.225000000000025,8.853436279296876,0.1565643310546875,5.862564086914063
9.235000000000014,7.463946533203125,-0.1927520751953125,6.874774169921875
9.245000000000005,5.830264282226563,0.2429962158203125,7.566976928710938
9.255000000000004,5.458517456054688,0.4394866943359375,7.703802490234375
9.264999999999986,6.477307128906251,0.444720458984375,7.279269409179688
9.274999999999975,8.142840576171876,0.158209228515625,5.763720703125
9.285000000000023,8.568569946289063,-0.0370849609375,4.872036743164063
9.295000000000016,7.553817749023438,-0.0934600830078125,3.879116821289063
9.305000000000009,5.259933471679688,-0.408831787109375,3.82393798828125
9.314999999999998,4.46275634765625,-0.433056640625,6.4372314453125
9.326000000000022,9.500778198242188,0.409130859375,9.341970825195313
9.336000000000013,13.698257446289064,0.433953857421875,7.418936157226563
9.345999999999997,10.65833740234375,-0.0512908935546875,5.540313720703125
9.356000000000002,5.330813598632813,0.03768310546875,6.63760986328125
9.369000000000028,4.122860717773438,-0.5555267333984375,8.860015869140625
9.376000000000031,5.364459228515625,-0.7138854980468751,10.380349731445314
9.386000000000015,5.80499267578125,0.3925323486328125,7.356280517578125
9.396000000000017,7.429403686523438,0.6702209472656251,2.8275787353515627
9.406000000000006,9.464291381835938,0.083740234375,4.0437561035156255
9.415999999999997,9.741082763671876,0.32598876953125,6.443661499023438
9.425999999999988,8.043548583984375,1.160699462890625,8.760723876953126
9.43599999999998,6.27872314453125,0.5546295166015626,9.656744384765624
9.446000000000026,5.85045166015625,0.0826934814453125,7.514041137695313
9.456000000000016,7.698568725585938,0.3887939453125,3.8970611572265614
9.469,9.203350830078126,0.1143951416015625,3.9688385009765614
9.477000000000032,9.210678100585938,-0.1434051513671875,3.7739929199218754
9.487000000000023,7.001580810546876,0.0468048095703125,3.5905120849609378
9.497000000000014,5.752505493164063,-0.370550537109375,5.631082153320313
9.507000000000003,6.355734252929688,-0.7248016357421876,7.623052978515625
9.517000000000005,7.604959106445313,-1.047650146484375,9.25030517578125
9.526999999999989,8.758630371093751,-0.9105255126953126,7.933041381835938
9.536999999999978,8.364154052734376,0.23148193359375,6.365603637695313
9.547000000000024,6.564785766601563,0.2160797119140625,6.545944213867188
9.557000000000016,5.41141357421875,0.637921142578125,6.731219482421875
9.569000000000017,5.778524780273438,0.9601715087890624,7.2626708984375
9.576999999999998,7.397552490234376,1.0424163818359375,6.7473693847656255
9.586999999999987,8.453427124023438,0.60352783203125,5.275784301757813
9.59699999999998,8.593392944335939,0.2764923095703125,4.726388549804688
9.607000000000028,8.2017578125,0.1915557861328125,4.823138427734375
9.618000000000002,6.295022583007813,-0.026019287109375,7.175192260742188
9.627999999999991,4.9843383789062505,-0.4568328857421875,7.1361633300781255
9.638000000000034,4.7983154296875,-0.6413604736328126,6.55386962890625
9.648000000000025,8.722293090820314,-1.0383789062500002,6.677835083007813
9.658000000000015,12.737039184570314,-0.36666259765625,6.1122894287109375
9.668999999999984,10.9041748046875,-0.4916748046875,4.7948760986328125
9.677999999999995,5.3671508789062505,-0.2021728515625,6.839633178710938
9.687999999999988,4.166525268554688,0.4972076416015625,8.676385498046876
9.69799999999998,5.521771240234376,0.4062896728515625,9.926657104492188
9.708000000000029,6.875671386718751,1.1704193115234376,7.682717895507813
9.718000000000018,8.36624755859375,0.7940368652343751,4.284060668945313
9.728000000000009,9.493002319335938,0.134881591796875,4.688406372070313
9.738,9.658837890625,0.109759521484375,5.4493957519531255
9.749000000000017,6.72972412109375,0.5117126464843751,8.25439453125
9.759000000000016,5.431301879882813,0.276641845703125,9.50137634277344
9.769000000000004,5.958865356445313,0.0683380126953125,7.2626708984375
9.778999999999996,8.573205566406251,-0.0740203857421875,5.218362426757813
9.788999999999987,9.497488403320313,-0.396868896484375,3.6706634521484376
9.798999999999978,9.071759033203126,-0.5984436035156251,3.0237701416015628
9.809000000000026,7.278372192382813,-1.0627532958984376,3.678588867187501
9.819000000000017,5.691943359375,-0.0764129638671875,7.800851440429688
9.829000000000008,6.367098999023438,0.2510711669921875,7.820291137695313
9.839,6.9462524414062505,0.4486083984375,8.160336303710938
9.84899999999999,8.796163940429688,0.905889892578125,6.143841552734376
9.85899999999998,9.123348999023438,0.5000488281250001,5.304196166992188
9.869000000000028,6.894363403320313,0.320306396484375,6.871783447265625
9.87900000000002,5.097686767578125,-0.10587158203125,7.806982421875
9.889999999999986,5.1597442626953125,-0.0408233642578125,8.012744140625001
9.899999999999975,6.585272216796875,0.4723846435546875,7.533630371093751
9.910000000000023,8.574850463867188,0.0527862548828125,5.32169189453125
9.920000000000016,8.090951538085939,-0.3488677978515625,4.33056640625
9.930000000000009,6.130981445312501,-0.60233154296875,3.763525390625
9.939999999999998,5.664578247070313,-0.9046936035156252,5.368795776367188
9.949999999999989,9.50272216796875,0.30924072265625,8.882595825195313
9.95999999999998,12.058892822265626,0.21533203125,8.264862060546875
9.970000000000027,8.94764404296875,0.10467529296875,6.1227569580078125
9.980000000000018,5.341131591796875,0.2555572509765625,5.6502227783203125
9.990000000000007,5.1452392578125,-0.5743682861328125,7.507461547851563
10.0,6.528149414062501,-0.4212432861328125,9.033776855468751
10.011000000000015,6.769949340820313,0.8598327636718751,6.407174682617188
10.019999999999982,7.36734619140625,0.740203857421875,4.47412109375
10.031000000000006,8.801547241210939,0.8818145751953126,5.576202392578125
10.040999999999997,8.865548706054689,1.2919921875,8.781210327148438
10.050999999999988,7.037170410156251,0.5333953857421876,10.249954223632812
10.06099999999998,6.606506347656251,-0.25181884765625,7.575949096679688
10.071000000000026,6.769500732421876,-0.0788055419921875,4.676443481445313
10.081000000000016,7.858123779296876,0.224005126953125,3.848162841796875
10.091000000000008,8.73590087890625,0.0285614013671875,3.891827392578125
10.101,8.547933959960938,-0.1626953125,5.018881225585938
10.11099999999999,7.197921752929688,-0.4969085693359375,5.662783813476563
10.12099999999998,6.603216552734375,-0.85474853515625,5.853890991210938
10.131000000000029,7.116873168945313,-0.8791229248046876,7.064984130859376
10.14100000000002,7.764663696289063,-1.0793518066406251,8.041754150390625
10.15100000000001,8.227926635742188,0.2459869384765625,7.104611206054688
10.161,7.183117675781251,0.7451385498046875,6.025408935546875
10.172000000000024,6.572860717773438,0.166583251953125,6.218460083007813
10.182000000000016,6.367398071289063,0.5339935302734375,6.815258789062501
10.192000000000007,6.645236206054688,0.9534423828125,7.339532470703125
10.201999999999998,6.9462524414062505,1.0014434814453126,7.450936889648438
10.211999999999987,7.536322021484375,0.6029296875000001,6.564337158203125
10.22199999999998,7.785150146484375,0.004486083984375,5.729177856445313
10.232000000000028,7.929901123046876,-0.05203857421875,5.362066650390625
10.24200000000002,7.002627563476563,-0.45458984375,5.237353515625
10.25200000000001,5.33544921875,-0.5722747802734376,5.14224853515625
10.262,5.142547607421875,-0.9643585205078126,5.889779663085938
10.271999999999991,9.798953247070314,-1.2239532470703125,7.675390625
10.281999999999982,12.698309326171875,-0.1915557861328125,6.909466552734376
10.293000000000006,9.115573120117189,-0.5507415771484375,7.216165161132813
10.302999999999995,4.916299438476563,0.54132080078125,7.150668334960938
10.312999999999988,4.78336181640625,0.96181640625,7.940069580078125
10.32299999999998,6.487924194335938,1.0340423583984375,8.793023681640626
10.333000000000029,7.145883178710938,1.0935577392578126,5.757589721679688
10.343000000000018,7.941415405273438,0.7568023681640625,4.279425048828125
10.353000000000009,9.261221313476565,0.5084228515625,5.248419189453125
10.363,8.520718383789063,0.4394866943359375,8.401388549804688
10.37299999999999,6.407623291015626,0.4224395751953125,9.60904235839844
10.38299999999998,6.234460449218751,0.2406036376953125,8.119961547851563
10.393000000000027,7.048086547851563,-0.5301055908203125,5.355487060546875
10.40300000000002,8.776126098632814,-0.46715087890625,4.396212768554688
10.413000000000013,8.716311645507814,-0.5881256103515625,3.4061340332031254
10.423000000000002,8.309872436523438,-0.8737396240234375,3.269308471679688
10.432999999999993,6.624151611328125,-0.8780761718750001,5.371487426757813
10.442999999999984,6.527999877929688,-0.061309814453125,7.728475952148438
10.454000000000008,6.912307739257813,0.2947357177734375,8.090203857421876
10.464,7.866348266601563,0.80869140625,7.035076904296876
10.47399999999999,8.762966918945313,1.120025634765625,5.7967681884765625
10.48399999999998,7.662081909179688,0.3769805908203125,6.684713745117188
10.494000000000028,6.116925048828126,0.120526123046875,7.314709472656251
10.50400000000002,5.357730102539063,0.008673095703125,7.494900512695313
10.51400000000001,5.9252197265625,0.381317138671875,7.315756225585938
10.524,7.488919067382813,0.47432861328125,6.443063354492188
10.533999999999992,8.650665283203125,-0.437841796875,5.688803100585938
10.543999999999984,8.486175537109375,-0.462664794921875,5.432498168945313
10.55400000000003,7.101022338867188,-0.7364654541015625,4.769754028320313
10.56400000000002,4.376773071289063,-0.590069580078125,4.918841552734375
10.574000000000012,4.476364135742188,-0.5423675537109376,5.9522857666015625
10.58499999999998,9.857272338867189,-0.011065673828125,7.3245788574218755
10.594,13.984768676757811,1.0642486572265626,7.210482788085938
10.605000000000018,11.060140991210938,0.2145843505859375,5.8535919189453125
10.615000000000007,5.343524169921875,0.0393280029296875,7.393963623046876
10.625,3.6184753417968754,-0.154620361328125,9.210079956054688
10.634999999999993,5.3526458740234375,-0.3814666748046875,10.892062377929689
10.644999999999982,5.853741455078126,0.605322265625,7.165023803710938
10.65500000000003,7.604360961914063,0.5268157958984375,2.4447662353515627
10.66500000000002,9.78983154296875,0.1912567138671875,3.848013305664063
10.675000000000011,9.899890136718753,0.6928009033203125,5.2313720703125
10.685000000000002,6.743930053710938,0.689361572265625,9.855029296875
10.694999999999991,7.011898803710938,-0.1873687744140625,8.224188232421875
10.704999999999984,6.123056030273438,0.1078155517578125,8.100820922851563
10.715000000000032,7.857525634765626,0.2572021484375,4.835250854492188
10.725000000000025,9.38892517089844,0.0518890380859375,4.226937866210938
10.73599999999999,8.880053710937501,-0.2394073486328125,4.2217041015625005
10.74599999999998,6.8071838378906255,-0.4151123046875,3.2165222167968754
10.756000000000029,5.801104736328125,-0.3623260498046875,4.890130615234376
10.76600000000002,6.054568481445313,-0.4583282470703125,7.667465209960938
10.77600000000001,7.603314208984376,-0.6480895996093751,9.372476196289064
10.786,8.795864868164063,0.05203857421875,7.667465209960938
10.795999999999992,8.815005493164064,0.7588958740234375,6.1611877441406255
10.805999999999983,7.055563354492188,0.7428955078125,6.656301879882813
10.816000000000033,5.501434326171875,-0.152825927734375,7.44869384765625
10.826000000000022,5.333953857421875,0.4940673828125,7.5043212890625
10.836000000000013,6.756939697265626,0.9595733642578126,6.450390625000001
10.845999999999997,8.173495483398439,0.1143951416015625,4.783660888671875
10.856000000000002,8.604907226562501,-0.086431884765625,4.442269897460938
10.869000000000028,8.242431640625,0.0142059326171875,4.1574035644531255
10.876000000000031,6.242984008789063,0.01495361328125,5.932247924804688
10.887,4.575656127929688,-0.4601226806640625,7.221697998046875
10.896999999999991,7.423123168945313,-0.718670654296875,9.130975341796876
10.906999999999982,11.5130859375,-0.148638916015625,7.610940551757813
10.91700000000003,10.49564208984375,-0.383709716796875,5.378366088867188
10.92700000000002,6.672152709960938,0.061907958984375,5.33365478515625
10.937000000000012,5.13626708984375,0.7373626708984375,8.026202392578126
10.947000000000005,5.922079467773438,0.0623565673828125,9.635211181640626
10.957,6.14713134765625,0.8279815673828126,7.386337280273438
10.969,7.438076782226563,0.7553070068359375,4.710089111328125
10.977000000000032,9.251052856445312,-0.3297271728515625,4.768707275390625
10.987000000000023,9.977499389648438,-0.2555572509765625,6.1193176269531255
10.997000000000014,7.437777709960938,0.819158935546875,8.286544799804688
11.00799999999998,5.820843505859376,0.2355194091796875,8.3740234375
11.018000000000027,6.030642700195313,-0.3043060302734375,7.126293945312501
11.02800000000002,7.773934936523438,-0.4227386474609375,5.250662231445313
11.038000000000013,9.173294067382812,-0.0471038818359375,4.585675048828126
11.048000000000002,8.588906860351564,-0.6687255859375001,3.3165618896484377
11.057999999999993,7.353140258789063,-0.572125244140625,3.637017822265625
11.069999999999991,6.539215087890626,0.681884765625,6.8191467285156255
11.078000000000031,6.718209838867188,0.0462066650390625,8.266357421875
11.089,7.011151123046876,0.4880859375,8.025903320312501
11.098000000000011,7.744476318359376,1.0741180419921876,6.6397033691406255
11.107999999999995,8.269647216796876,-0.0725250244140625,6.164926147460938
11.118000000000002,7.162631225585938,-0.073870849609375,6.689797973632813
11.127999999999991,6.002828979492188,-0.2380615234375,7.2961669921875005
11.138000000000034,5.934640502929688,0.4055419921875,7.505966186523438
11.148000000000025,6.973617553710938,0.4533935546875,6.822586059570313
11.158999999999992,7.913003540039063,-0.39537353515625,5.73441162109375
11.170000000000016,8.097830200195313,-0.3177642822265625,4.8143157958984375
11.17900000000003,6.630432128906251,-0.46595458984375,4.035980224609375
11.18900000000002,5.082284545898438,-0.1451995849609375,5.109051513671876
11.199000000000012,6.304592895507813,-0.0557769775390625,6.824230957031251
11.209000000000003,11.539703369140623,0.7965789794921876,8.209832763671876
11.219,12.666458129882814,0.9446197509765626,7.485629272460938
11.228999999999992,8.124298095703125,-0.3985137939453125,6.912307739257813
11.239000000000033,4.256695556640626,-0.151031494140625,7.077545166015626
11.249000000000017,4.443914794921875,-0.5268157958984375,8.157495117187501
11.259000000000016,6.02391357421875,-0.6655853271484375,8.435482788085938
11.269999999999982,6.834848022460938,0.2041168212890625,4.931103515625001
11.278999999999996,8.430099487304688,0.5112640380859376,3.976763916015625
11.288999999999987,9.875515747070311,0.2062103271484375,6.072213745117188
11.298999999999978,9.080880737304687,0.9812561035156252,8.23944091796875
11.310000000000002,6.189450073242188,0.6231170654296876,10.47156677246094
11.319999999999991,5.743533325195313,-0.0659454345703125,7.9625
11.329999999999984,6.574655151367188,0.1284515380859375,5.224343872070313
11.340000000000032,8.512493896484376,0.32000732421875,3.891079711914063
11.350000000000025,9.343167114257811,0.23267822265625,3.985137939453125
11.360000000000014,8.90338134765625,0.2869598388671875,3.05233154296875
11.370000000000005,6.717910766601563,0.2476318359375,5.2218017578125
11.380000000000004,5.839535522460938,-0.4541412353515625,7.167864990234375
11.389999999999986,6.596487426757813,-0.8545989990234376,8.535372924804689
11.399999999999975,7.795169067382813,-1.0469024658203123,8.13416748046875
11.410000000000023,8.867791748046876,-0.6267059326171875,6.084774780273438
11.420000000000016,8.115924072265626,0.3333160400390625,5.517584228515625
11.430000000000009,6.429156494140625,0.49586181640625,6.490017700195313
11.439999999999998,5.462704467773438,0.005682373046875,7.49534912109375
11.451000000000022,5.814862060546876,0.6691741943359375,7.738046264648438
11.461000000000013,7.282708740234375,1.151727294921875,6.925167846679688
11.470999999999997,8.461203002929688,0.265875244140625,5.4646484375
11.481000000000002,8.72393798828125,0.06041259765625,5.149725341796875
11.490999999999993,7.929751586914063,0.6114532470703126,4.876821899414063
11.501000000000031,5.827273559570313,0.33974609375,6.134420776367188
11.511000000000015,4.48907470703125,-0.5893218994140625,6.636413574218751
11.521000000000017,6.1764404296875,-0.8456268310546876,6.89720458984375
11.531000000000006,11.173937988281253,-0.6271545410156251,6.983786010742188
11.540999999999997,12.3134033203125,-0.3509613037109375,6.006268310546876
11.550999999999988,8.229571533203126,-0.2743988037109375,5.4562744140625
11.56099999999998,4.658648681640625,0.4415802001953125,7.7073913574218755
11.571000000000026,4.792034912109376,0.1431060791015625,9.217706298828126
11.582,6.099130249023438,0.6331359863281251,8.444754028320313
11.591999999999992,7.268203735351563,0.9485076904296876,5.3175048828125
11.602000000000032,8.629580688476564,0.1200775146484375,4.358380126953126
11.612000000000023,9.950732421875,-0.16090087890625,5.8187500000000005
11.622000000000014,8.297311401367189,0.271258544921875,8.073455810546875
11.632000000000003,6.438577270507813,0.8166168212890625,9.895404052734376
11.642000000000005,5.286102294921875,0.0922637939453125,7.436282348632813
11.651999999999989,7.190444946289063,-0.258099365234375,5.506967163085938
11.661999999999978,8.532681274414063,-0.1030303955078125,3.863714599609376
11.672000000000024,9.491506958007813,-0.5127593994140626,3.606063842773438
11.682000000000016,8.055810546875001,-0.7748962402343751,2.958123779296875
11.692000000000007,6.9073730468750005,-0.22908935546875,5.755496215820313
11.701999999999998,6.623852539062501,0.1356292724609375,8.348751831054688
11.711999999999987,6.788940429687501,0.200079345703125,8.750704956054689
11.723000000000011,7.305587768554688,0.8578887939453126,7.190594482421876
11.732999999999995,8.506512451171876,0.4541412353515625,5.5615478515625005
11.743000000000002,7.855731201171875,0.1323394775390625,5.603268432617188
11.752999999999991,6.210385131835938,-0.2274444580078125,6.851296997070313
11.763000000000034,5.681027221679688,0.3198577880859375,7.706195068359375
11.773000000000025,6.2733398437500005,0.6092102050781251,7.86739501953125
11.783000000000015,7.570864868164063,0.151629638671875,6.817352294921876
11.793000000000006,8.026202392578126,-0.3832611083984375,5.576950073242188
11.802999999999995,7.431198120117188,-0.39058837890625,4.597039794921876
11.812999999999988,5.868994140625,-0.2714080810546875,4.137814331054688
11.82299999999998,5.5914550781250005,-0.4502532958984375,5.790487670898438
11.833000000000029,9.768447875976562,0.609808349609375,7.335644531250001
11.843000000000018,12.322674560546876,0.5508911132812501,7.479049682617188
11.853000000000009,9.08282470703125,-0.8833099365234376,7.0270019531250005
11.863,5.285952758789063,0.0515899658203125,6.9755615234375
11.87299999999999,4.706948852539063,-0.4725341796875,8.12579345703125
11.886000000000015,6.063540649414063,-0.59754638671875,8.916390991210939
11.894000000000004,7.230520629882813,0.6942962646484375,6.432745361328125
11.903999999999996,7.646978759765625,0.5507415771484375,3.762777709960938
11.913999999999987,9.002523803710938,0.554779052734375,5.116677856445313
11.923999999999978,9.087908935546876,1.4434722900390626,7.216763305664063
11.934000000000026,6.881802368164063,0.7251007080078126,10.101315307617188
11.944000000000017,5.804843139648438,0.0970489501953125,8.644833374023438
11.954000000000008,6.594244384765625,-0.0937591552734375,5.493807983398438
11.964,8.67847900390625,0.1652374267578125,4.125851440429688
11.97399999999999,9.384738159179689,0.05323486328125,4.189404296875001
11.987000000000023,8.51279296875,-0.0494964599609375,3.8486114501953126
11.995000000000005,6.769650268554688,-0.2400054931640625,5.775234985351563
12.005000000000004,5.851348876953125,-0.9619659423828124,6.446502685546876
12.014999999999986,6.543103027343751,-0.9093292236328124,7.270745849609375
12.024999999999975,7.680923461914063,-0.957928466796875,7.422225952148438
12.035000000000023,9.200061035156253,-0.26258544921875,6.411959838867188
12.045000000000016,8.057604980468751,1.053631591796875,6.178384399414063
12.055000000000009,6.600076293945313,0.8842071533203125,6.848007202148438
12.064999999999998,5.7338134765625,0.0390289306640625,7.59404296875
12.074999999999989,5.8117218017578125,0.6376220703125001,7.583126831054688
12.086999999999987,6.8071838378906255,1.1563629150390626,6.944906616210938
12.095000000000027,8.137008666992188,0.455487060546875,5.5567626953125
12.105000000000018,8.6455810546875,0.0593658447265625,5.20445556640625
12.115000000000007,8.270245361328126,0.165386962890625,5.012899780273438
12.125,6.681274414062501,-0.1102081298828125,6.079092407226563
12.134999999999993,4.640704345703125,-0.5224792480468751,6.381604003906251
12.144999999999982,4.96519775390625,-0.7751953125000001,6.375772094726563
12.156000000000006,9.582125854492189,-1.0445098876953125,7.108050537109375
12.165999999999997,12.828854370117188,-0.264080810546875,6.758883666992188
12.175999999999988,9.518572998046876,-0.0861328125,5.404385375976563
12.187000000000012,5.304943847656251,0.3375030517578125,7.027151489257813
12.196000000000026,4.62784423828125,0.173760986328125,8.856875610351564
12.206000000000016,5.8666015625000005,0.4218414306640625,9.178826904296876
12.216000000000008,6.975860595703126,1.21064453125,6.316555786132813
12.226,8.28968505859375,0.5108154296875,4.3522491455078125
12.23599999999999,9.853384399414065,0.033197021484375,5.541210937500001
12.24599999999998,8.852389526367189,0.2017242431640625,6.792080688476563
12.256000000000029,6.23924560546875,0.7158294677734376,9.4841796875
12.267000000000005,5.433694458007813,0.21473388671875,8.175888061523438
12.276999999999989,6.887933349609376,-0.7337738037109376,5.804095458984375
12.286999999999978,8.687451171875,0.008673095703125,4.229928588867188
12.297000000000024,9.343316650390626,-0.530255126953125,3.5021362304687504
12.307000000000016,8.556307983398439,-0.71119384765625,3.0098632812500004
12.317000000000007,7.02640380859375,-0.42288818359375,5.033535766601563
12.326999999999998,6.465942382812501,0.052935791015625,8.28968505859375
12.336999999999987,6.344070434570313,0.2660247802734375,8.609542846679688
12.34699999999998,6.885690307617188,0.6539215087890625,7.639501953125
12.357000000000028,8.443258666992188,0.7318298339843751,5.58128662109375
12.36700000000002,8.425613403320312,0.437542724609375,5.590557861328126
12.37700000000001,6.937130737304688,-0.0797027587890625,6.961953735351563
12.388000000000034,5.516387939453125,0.27095947265625,7.853787231445313
12.396999999999991,5.678634643554688,0.2842681884765625,7.917190551757813
12.406999999999982,7.054367065429688,-0.0201873779296875,7.012496948242188
12.41700000000003,8.291778564453125,-0.2406036376953125,5.356982421875
12.42700000000002,8.016033935546876,-0.3880462646484375,4.501187133789063
12.437999999999988,6.408969116210938,-0.404046630859375,3.4901733398437504
12.44799999999998,4.880560302734375,-0.49227294921875,4.9933105468750005
12.458000000000029,7.857525634765626,0.1460968017578125,8.208337402343751
12.468000000000018,12.569558715820314,1.079949951171875,8.656198120117189
12.478000000000009,10.844061279296875,-0.5176940917968751,7.3440185546875005
12.488,6.134121704101563,0.0025421142578125,6.300555419921875
12.49799999999999,4.313818359375,-0.2735015869140625,7.034628295898438
12.50799999999998,5.642895507812501,-0.7001281738281251,8.700759887695312
12.518000000000027,7.104910278320313,0.331072998046875,7.304541015625
12.52800000000002,7.052871704101563,0.7454376220703125,3.985885620117188
12.538000000000013,8.2508056640625,0.6706695556640625,4.687957763671875
12.548000000000002,9.71925048828125,1.4324066162109377,6.916644287109375
12.557999999999993,7.38887939453125,0.5426666259765626,10.353433227539064
12.567999999999984,6.266162109375,0.33316650390625,9.1288818359375
12.579000000000008,6.644039916992188,-0.04007568359375,6.16806640625
12.589,8.205496215820313,-0.0222808837890625,4.125701904296875
12.59899999999999,8.503372192382812,0.3123809814453125,3.7306274414062495
12.60899999999998,8.876016235351564,0.0345428466796875,4.238751220703126
12.619000000000028,7.095938110351563,-0.8429351806640626,5.476162719726563
12.62900000000002,6.130383300781251,-0.6148925781250001,6.120065307617188
12.63900000000001,6.348556518554688,-0.9651062011718752,6.604562377929688
12.649,7.833749389648438,-1.2058593750000002,7.598828125000001
12.658999999999992,8.937176513671876,0.108563232421875,7.1310791015625
12.668999999999984,8.188748168945313,1.0352386474609376,6.403137207031251
12.67900000000003,6.677236938476563,0.420196533203125,6.6382080078125005
12.68900000000002,5.8247314453125005,0.0022430419921875,7.094891357421876
12.699000000000012,5.860321044921875,1.0522857666015626,7.342224121093751
12.709000000000003,6.719705200195313,1.0298553466796876,6.87626953125
12.720000000000027,8.051025390625,0.5347412109375,5.883200073242188
12.730000000000018,8.18201904296875,0.2068084716796875,5.521920776367188
12.740000000000007,8.365798950195312,0.083441162109375,5.950192260742188
12.75,7.412506103515626,-0.0168975830078125,6.487774658203126
12.759999999999993,5.960211181640625,-0.6732116699218751,6.4542785644531255
12.769999999999982,4.657452392578126,-1.0603607177734375,5.401394653320313
12.78000000000003,5.560052490234376,-1.15322265625,5.158547973632813
12.79000000000002,11.160330200195313,-0.75904541015625,5.992510986328125
12.800000000000011,13.077981567382814,0.1973876953125,6.752752685546875
12.810000000000002,8.279217529296876,-0.3031097412109375,7.781262207031251
12.819999999999991,4.08951416015625,0.4284210205078125,7.423721313476563
12.829999999999984,4.495654296875,0.77579345703125,8.832650756835939
12.840000000000032,6.373977661132813,0.9953125,9.209033203125
12.850000000000025,7.535125732421876,1.2780853271484376,5.509957885742188
12.860000000000014,8.829360961914062,0.6243133544921875,3.701766967773438
12.87099999999998,9.193032836914064,0.096600341796875,5.026208496093751
12.88299999999998,8.796014404296876,0.4385894775390625,7.280465698242188
12.89100000000002,6.462503051757813,0.45458984375,10.031033325195311
12.90100000000001,5.519229125976563,-0.0614593505859375,9.047833251953126
12.911,6.653012084960938,-0.308642578125,5.771646118164063
12.920999999999992,9.096731567382813,-0.5945556640625,3.0773040771484377
12.930999999999983,9.45606689453125,-0.4127197265625,3.8030029296875
12.941000000000033,8.570364379882813,-0.7568023681640625,3.689654541015625
12.951000000000022,6.315957641601563,-0.5997894287109375,5.619119262695313
12.961000000000013,6.497195434570313,0.2510711669921875,6.831857299804688
12.970999999999997,6.01195068359375,0.232977294921875,8.659936523437501
12.981000000000002,7.777224731445313,0.8269348144531251,7.275979614257813
12.990999999999993,9.409112548828126,0.786260986328125,5.621063232421875
13.00200000000001,8.628085327148439,0.33555908203125,5.4857330322265625
13.012,6.2987609863281255,0.1102081298828125,6.737948608398438
13.021999999999991,4.912860107421875,-0.14415283203125,8.182766723632813
13.031999999999982,5.308084106445313,-0.01973876953125,8.432940673828126
13.04200000000003,7.123901367187501,0.504833984375,7.364654541015626
13.05200000000002,8.588308715820313,-0.3817657470703125,5.095144653320313
13.062000000000012,8.765957641601563,-0.293389892578125,4.87188720703125
13.072000000000005,7.323382568359375,-0.4891326904296875,4.188357543945313
13.082,4.992413330078126,-0.7150817871093751,5.033087158203125
13.091999999999992,4.644442749023438,-0.3572418212890625,6.512896728515625
13.102000000000032,9.80657958984375,0.3892425537109375,7.710531616210938
13.112000000000023,13.359857177734376,1.0608093261718752,6.543252563476563
13.122000000000014,10.602859497070312,-0.2941375732421875,5.738748168945313
13.132000000000003,5.493807983398438,-0.0,7.125845336914063
13.142000000000005,4.045550537109375,-0.017645263671875,8.897998046875001
13.15300000000002,5.105612182617188,-0.3569427490234375,10.416986083984376
13.163000000000013,6.073410034179688,0.9583770751953126,7.149771118164063
13.173000000000002,7.863507080078126,0.5852844238281251,2.15391845703125
13.182999999999993,9.962545776367188,-0.1054229736328125,3.399554443359375
13.192999999999984,9.419879150390626,1.0615570068359377,7.920181274414063
13.203000000000031,6.913653564453125,0.7562042236328126,11.067617797851565
13.213000000000022,6.441268920898438,-0.091217041015625,7.9107604980468755
13.223000000000011,6.036624145507813,-0.4173553466796875,6.615029907226563
13.232999999999995,8.618066406250001,-0.031402587890625,3.508416748046875
13.243000000000002,9.712371826171877,-0.15791015625,3.264971923828125
13.252999999999991,8.742031860351563,-0.2115936279296875,3.9921661376953126
13.263000000000034,6.844268798828126,0.4302154541015625,4.264172363281251
13.274,5.541958618164063,-0.424383544921875,6.641946411132813
13.283999999999992,6.524261474609376,-0.7475311279296876,7.946499633789063
13.293999999999984,8.202804565429688,-0.119329833984375,7.758682250976563
13.30400000000003,8.315106201171876,-1.1841766357421877,7.981341552734375
13.31400000000002,8.363705444335938,0.3141754150390625,5.783010864257813
13.324000000000012,6.785800170898438,0.6605010986328126,6.094195556640625
13.334000000000003,6.0464935302734375,-0.10048828125,7.391571044921876
13.344,6.051129150390626,1.0053314208984376,7.3200927734375005
13.353999999999992,7.052124023437501,1.0095184326171875,6.2553955078125005
13.364000000000033,8.065679931640625,0.097198486328125,5.065686035156251
13.374000000000017,8.728872680664063,-0.002392578125,4.622760009765625
13.388000000000034,8.137905883789063,0.4912261962890625,5.174099731445313
13.394000000000004,6.486428833007813,0.106170654296875,6.469979858398438
13.403999999999996,4.517636108398438,-0.759344482421875,6.920083618164063
13.413999999999987,5.604016113281251,-1.2133361816406252,6.952383422851563
13.425000000000011,11.06253356933594,0.0976470947265625,6.4228759765625005
13.435000000000002,12.410302734375,-0.7034179687500001,6.218011474609376
13.444999999999991,8.008407592773438,-0.0423187255859375,6.267059326171876
13.454999999999984,4.527056884765625,1.0014434814453126,7.998538208007813
13.465000000000032,4.912710571289063,0.093011474609375,9.169705200195311
13.475000000000025,7.097882080078126,0.7490264892578126,7.84227294921875
13.487000000000023,7.530191040039063,0.5659942626953125,3.876275634765625
13.495000000000005,8.87646484375,-0.7034179687500001,3.653765869140625
13.505000000000004,9.707437133789064,-0.8312713623046876,6.0569610595703125
13.514999999999986,7.742083740234375,0.1362274169921875,9.033926391601565
13.524999999999975,6.193637084960938,1.11075439453125,9.21680908203125
13.535000000000023,5.775982666015626,0.361578369140625,7.538265991210938
13.545000000000016,7.817599487304688,-0.5307037353515626,5.068228149414063
13.555000000000009,9.172845458984376,-0.19559326171875,3.578997802734375
13.564999999999998,8.909213256835939,-0.8683563232421876,3.519332885742188
13.576000000000022,8.001229858398439,-0.3165679931640625,4.3891845703125005
13.586999999999987,6.094494628906251,0.66932373046875,6.694284057617188
13.595999999999997,6.36844482421875,0.579901123046875,8.304489135742188
13.606000000000002,6.950888061523438,0.5973968505859375,7.149920654296875
13.615999999999993,8.330957031250001,-0.1748077392578125,6.255545043945313
13.626000000000031,8.804837036132813,0.4595245361328125,5.308831787109376
13.636000000000015,7.909414672851563,0.354400634765625,6.315509033203125
13.646000000000017,6.138009643554688,-0.6670806884765625,7.314859008789063
13.656000000000006,5.2816162109375,-0.306549072265625,8.044146728515626
13.665999999999997,6.241040039062501,0.7476806640625,7.254147338867188
13.675999999999988,8.021716308593751,-0.0040374755859375,6.207992553710938
13.687000000000012,8.861810302734376,-0.4173553466796875,5.027255249023438
13.696000000000026,7.8479553222656255,-0.348419189453125,4.460064697265626
13.707,5.585772705078125,0.3704010009765625,4.862615966796875
13.716999999999992,3.9606140136718753,-0.2404541015625,5.627941894531251
13.727000000000032,7.519723510742188,-0.2184722900390625,6.723294067382813
13.737000000000023,13.254882812500002,1.103875732421875,6.6920410156250005
13.747000000000014,12.924258422851564,0.1487884521484375,6.483139038085938
13.757000000000003,7.564434814453126,0.6886138916015625,7.060049438476563
13.767000000000005,3.647634887695313,0.108563232421875,9.19751892089844
13.776999999999989,4.356137084960938,-1.0029388427734376,9.775177001953123
13.786999999999978,4.937234497070313,-0.8749359130859375,9.427355957031253
13.797000000000024,7.556060791015626,-0.23447265625,2.2264434814453127
13.807000000000016,9.61038818359375,-0.6759033203125,1.5645965576171876
13.817000000000007,10.16651306152344,0.1649383544921875,5.226885986328125
13.826999999999998,7.875320434570313,1.185671997070313,10.36943359375
13.836999999999987,6.139953613281251,0.3318206787109375,12.029434204101562
13.848000000000011,6.879409790039063,0.535040283203125,6.3406311035156255
13.857999999999995,6.280667114257813,0.262286376953125,5.500836181640626
13.868000000000002,9.550872802734377,0.19439697265625,2.138815307617188
13.877999999999991,10.216757202148438,-0.0569732666015625,2.871542358398438
13.888000000000034,8.195925903320314,0.422589111328125,3.678439331054688
13.898000000000025,5.233166503906251,0.6192291259765625,5.624353027343751
13.908000000000015,5.367001342773438,-0.340643310546875,7.613931274414063
13.918000000000006,7.179229736328126,-0.4083831787109375,8.373275756835938
13.927999999999995,9.014785766601562,-1.0821929931640626,7.625595092773438
13.937999999999988,8.70240478515625,-1.4122192382812502,7.295718383789063
13.94799999999998,8.136709594726563,0.301165771484375,5.571417236328125
13.958000000000029,6.205300903320313,-0.1280029296875,6.954476928710938
13.968000000000018,4.985086059570313,0.5480499267578125,7.528396606445313
13.978000000000009,6.071316528320313,1.3005157470703126,7.236950683593751
13.989000000000033,7.855282592773438,0.5001983642578125,5.5425567626953125
13.999000000000017,8.848651123046876,-0.0859832763671875,4.175048828125
14.009000000000016,8.951831054687501,0.25421142578125,4.34312744140625
14.019000000000004,8.245272827148439,0.9666015625,6.213674926757813
14.028999999999996,6.1058593750000005,0.48988037109375,7.984332275390625
14.038999999999987,4.201217651367188,0.0370849609375,7.554415893554688
14.048999999999978,4.881307983398438,-0.5558258056640626,5.624652099609375
14.059000000000026,9.875067138671875,-1.6256072998046875,5.390927124023438
14.069000000000017,13.68375244140625,-0.552685546875,4.4673919677734375
14.079000000000008,9.470272827148438,-0.210247802734375,5.999090576171875
14.089,4.945159912109375,0.480010986328125,8.72513427734375
14.09899999999999,4.239947509765625,0.2782867431640625,10.43463134765625
14.10899999999998,6.29666748046875,-0.063104248046875,9.853085327148438
14.119000000000028,6.88284912109375,0.1353302001953125,6.616824340820313
14.130000000000004,9.701605224609375,0.226397705078125,1.8442291259765624
14.139999999999986,9.7294189453125,-1.0814453125,3.547894287109376
14.149999999999975,8.532083129882814,0.3733917236328125,6.02391357421875
14.160000000000023,5.725439453125,1.2667205810546875,9.32791442871094
14.170000000000016,5.790786743164063,0.297576904296875,9.28724060058594
14.180000000000009,7.574603271484375,0.226995849609375,6.211282348632813
14.189999999999998,8.790182495117188,-0.668426513671875,4.557412719726563
14.199999999999989,9.798953247070314,-0.8218505859375,2.5747131347656254
14.20999999999998,8.205795288085938,-0.6916046142578125,3.84188232421875
14.220000000000027,6.772640991210938,0.4616180419921875,5.812469482421875
14.230000000000018,5.831011962890625,0.636724853515625,8.198617553710939
14.240000000000007,6.2210021972656255,0.279034423828125,7.412057495117188
14.25,7.080386352539063,0.234771728515625,7.143341064453126
14.259999999999993,8.887081909179688,0.1303955078125,6.234609985351563
14.269999999999982,8.691787719726562,-0.046356201171875,6.36485595703125
14.281000000000006,6.818997192382813,0.4984039306640625,6.971673583984376
14.29000000000002,5.56932373046875,-0.1045257568359375,7.660736083984376
14.300999999999988,6.001034545898438,0.2136871337890625,7.616024780273438
14.31099999999998,7.50491943359375,0.6252105712890625,6.167767333984376
14.321000000000026,8.490811157226563,-0.1069183349609375,4.5212249755859375
14.331000000000016,7.226333618164063,-0.6246124267578126,3.4915191650390627
14.341999999999992,5.133575439453125,0.1745086669921875,4.090859985351563
14.351,5.754150390625,0.3970184326171875,6.499139404296876
14.36099999999999,11.499627685546876,0.300567626953125,8.781658935546876
14.37099999999998,13.131365966796876,0.0776092529296875,8.274880981445314
14.381000000000029,8.55167236328125,-0.100787353515625,6.484036254882813
14.39100000000002,4.194937133789063,-0.4290191650390625,6.831259155273438
14.40500000000003,4.130487060546876,-1.4810058593750002,8.555111694335938
14.411999999999978,6.078494262695313,-1.4288177490234375,8.485577392578126
14.422000000000024,7.153509521484375,0.9488067626953126,3.86162109375
14.432000000000016,8.790780639648439,0.0560760498046875,2.539572143554688
14.442000000000007,9.633416748046876,0.163592529296875,5.03099365234375
14.451999999999998,8.647824096679688,1.2936370849609375,9.92261962890625
14.461999999999987,7.033132934570313,0.7117919921875,11.466879272460938
14.47199999999998,6.246871948242188,0.5133575439453125,8.039511108398438
14.482000000000028,5.977407836914063,0.167181396484375,5.44610595703125
14.49200000000002,8.203103637695314,0.1457977294921875,2.2772857666015627
14.50400000000002,9.512142944335938,0.2148834228515625,3.653616333007813
14.512,9.321334838867188,0.40255126953125,3.8055450439453127
14.521999999999991,6.426016235351563,0.5431152343750001,5.845068359375
14.531999999999982,5.655905151367188,-0.313427734375,7.409515380859376
14.54200000000003,6.923822021484376,-1.1608489990234376,6.978103637695313
14.55200000000002,7.790084838867188,-1.4920715332031251,8.533129882812501
14.562000000000012,9.083572387695312,-1.0309020996093752,6.609048461914063
14.57299999999998,8.625991821289062,0.3500640869140625,5.183819580078126
14.583000000000029,6.55087890625,0.0231781005859375,5.8311614990234375
14.593000000000018,5.225241088867188,0.64420166015625,7.056011962890626
14.603999999999992,5.800506591796875,1.21064453125,7.945901489257813
14.613,7.380056762695313,1.0374816894531251,7.200613403320313
14.62299999999999,8.419033813476563,0.5722747802734376,5.420236206054688
14.63299999999998,8.767153930664064,0.0103179931640625,4.741940307617188
14.643000000000027,8.324526977539064,0.5357879638671875,5.380609130859376
14.65300000000002,6.471026611328125,0.419598388671875,6.814361572265626
14.663000000000013,4.562197875976563,-0.5468536376953126,7.178482055664063
14.673000000000002,5.248269653320313,-1.2525146484375,6.8056884765625005
14.682999999999993,10.010247802734376,-1.0413696289062502,5.571267700195313
14.692999999999984,12.021359252929688,-0.317913818359375,4.957571411132813
14.704000000000008,8.842669677734376,-0.2259490966796875,5.82353515625
14.714,5.6835693359375,0.6806884765625001,8.136410522460938
14.72399999999999,5.38031005859375,0.5595642089843751,8.945101928710939
14.73399999999998,5.859124755859376,-0.1251617431640625,8.663824462890625
14.744000000000028,7.096087646484375,0.4595245361328125,5.400198364257813
14.75400000000002,8.826968383789064,0.184527587890625,3.8670043945312496
14.76400000000001,9.929797363281253,-0.76263427734375,5.562744140625
14.774,8.330807495117188,0.757550048828125,7.875619506835938
14.783999999999992,6.735556030273438,0.8534027099609376,8.765957641601563
14.793999999999984,5.661886596679688,0.5181427001953125,7.4187866210937505
14.80400000000003,6.671255493164063,-0.10347900390625,6.393267822265625
14.81400000000002,8.540008544921875,-0.6234161376953126,4.339837646484376
14.824000000000012,9.194528198242187,-0.8178131103515626,3.550286865234375
14.834000000000003,8.555859375,-0.6279022216796876,3.9073791503906254
14.845000000000027,7.302896118164063,0.145947265625,5.622109985351563
14.855000000000018,6.6995178222656255,0.5776580810546875,8.062838745117189
14.865000000000007,6.731219482421875,0.2594451904296875,7.757635498046875
14.875,7.091751098632813,0.37503662109375,6.74228515625
14.884999999999993,8.04205322265625,0.2202667236328125,5.354888916015625
14.894999999999982,8.137158203125,-0.165386962890625,5.513995361328125
14.90500000000003,7.297811889648438,0.1565643310546875,6.625347900390626
14.91500000000002,6.232815551757813,-0.12979736328125,7.850646972656251
14.925000000000011,5.896209716796875,0.7852142333984375,8.044296264648438
14.935000000000002,6.699069213867188,0.5262176513671876,7.530490112304688
14.944999999999991,7.724887084960938,-0.736614990234375,6.27274169921875
14.954999999999984,8.150616455078126,-0.2229583740234375,4.693490600585938
14.965000000000032,7.1002746582031255,0.19619140625,3.9132110595703127
14.976,5.104116821289063,0.05443115234375,4.517636108398438
14.98599999999999,6.658245849609376,-0.3207550048828125,6.658694458007813
14.99599999999998,11.4951416015625,0.8258880615234375,8.096783447265626
15.006000000000029,11.7236328125,0.4246826171875,7.518078613281251
15.01600000000002,7.262521362304688,-0.8405426025390625,6.891970825195313
15.02600000000001,4.147235107421875,-0.6418090820312501,7.637408447265625
15.036,5.3270751953125,-1.3157684326171877,8.49365234375
15.045999999999992,7.273886108398438,-0.281427001953125,6.384295654296875
15.055999999999983,8.046987915039063,1.3002166748046875,3.408078002929688
15.066000000000033,8.073605346679688,0.3940277099609375,3.728683471679688
15.076000000000022,9.234902954101564,1.038677978515625,7.643090820312499
15.086000000000013,7.343869018554688,0.29727783203125,10.510147094726562
15.095999999999997,6.482241821289063,0.3707000732421875,9.82452392578125
15.107000000000028,6.158944702148438,0.38221435546875,7.031039428710938
15.115999999999993,8.124447631835938,0.0408233642578125,3.363665771484375
15.12700000000001,9.125442504882812,0.4047943115234375,3.653018188476562
15.137,8.84954833984375,0.447711181640625,4.2958740234375
15.146999999999991,7.175491333007813,0.20635986328125,5.1563049316406255
15.156999999999982,6.18302001953125,-0.076263427734375,6.331509399414063
15.16700000000003,6.392221069335938,-1.078005981445313,6.911410522460938
15.17700000000002,7.568173217773438,-1.703067016601563,7.191192626953126
15.187000000000012,8.978448486328126,-0.995611572265625,6.633273315429688
15.197000000000005,8.984130859375,0.24583740234375,5.815310668945313
15.207,7.179229736328126,0.4306640625,6.417642211914063
15.216999999999992,5.595343017578125,0.4858428955078125,7.244277954101563
15.227000000000032,5.601324462890625,0.2597442626953125,7.815655517578126
15.237000000000023,6.625946044921876,1.33326416015625,7.008309936523438
15.247000000000014,7.890872192382813,1.0065277099609375,5.857479858398438
15.25799999999998,8.308078002929689,-0.043365478515625,5.529696655273438
15.268000000000027,8.493951416015626,0.63941650390625,5.7185607910156255
15.27800000000002,7.470675659179688,0.555975341796875,6.31700439453125
15.288000000000013,6.010006713867188,-0.28531494140625,6.673199462890626
15.298000000000002,4.640554809570313,-1.0343414306640626,6.120962524414063
15.307999999999993,6.533981323242188,-1.0842864990234375,5.560202026367188
15.317999999999984,11.36160583496094,-0.3090911865234375,5.5465942382812505
15.328000000000031,11.580676269531253,-0.6851745605468751,6.168814086914063
15.338000000000022,7.289886474609376,0.2501739501953125,6.861614990234376
15.348000000000011,4.692742919921876,0.705810546875,8.23944091796875
15.357999999999995,4.926766967773438,-0.170172119140625,9.847103881835938
15.368000000000002,7.092947387695313,1.0244720458984375,7.1167236328125005
15.377999999999991,8.47510986328125,0.6525756835937501,3.999044799804688
15.388000000000034,9.26466064453125,-0.5378814697265626,4.356884765625001
15.398000000000025,9.063534545898438,-0.1586578369140625,6.539962768554688
15.408999999999992,7.121209716796876,0.3542510986328125,9.108544921875
15.418999999999984,6.124850463867188,0.8910858154296876,8.538812255859376
15.42900000000003,5.85882568359375,0.1128997802734375,7.526901245117188
15.43900000000002,7.659988403320313,-0.3928314208984375,4.407727050781251
15.449000000000012,9.510348510742189,-0.509619140625,3.2745422363281254
15.459000000000003,9.090151977539064,-1.0993896484375,3.3898345947265627
15.469,7.996594238281251,-0.2274444580078125,4.4539337158203125
15.478999999999992,6.220852661132813,0.5504425048828125,7.414151000976563
15.489000000000033,6.849203491210938,0.1111053466796875,8.336041259765626
15.499000000000017,6.297863769531251,0.4677490234375,7.817449951171875
15.509000000000016,7.825225830078126,0.699530029296875,5.70689697265625
15.519000000000004,8.951980590820312,0.3985137939453125,4.984487915039063
15.528999999999996,8.107400512695314,-0.039178466796875,6.323434448242188
15.538999999999987,6.186608886718751,-0.233575439453125,7.446301269531251
15.550000000000011,5.184567260742188,0.4024017333984375,8.215365600585939
15.560000000000002,6.051129150390626,0.14056396484375,7.871731567382813
15.569999999999991,7.606753540039063,-0.2127899169921875,6.609497070312501
15.579999999999984,8.630776977539064,-0.040673828125,4.9050842285156255
15.590000000000032,8.183215332031251,-0.4086822509765625,3.8589294433593753
15.600000000000025,5.719906616210938,-0.0955535888671875,4.171759033203125
15.610000000000014,4.605264282226563,-0.1691253662109375,5.996249389648438
15.620000000000005,9.108544921875,0.5015441894531251,8.040557861328125
15.630000000000004,12.787881469726564,0.5819946289062501,7.686904907226563
15.639999999999986,9.985275268554688,-0.5633026123046876,6.274237060546875
15.649999999999975,5.660989379882813,0.2178741455078125,6.808679199218751
15.660000000000023,4.6722564697265625,-0.9174041748046876,9.091049194335938
15.670000000000016,6.149075317382813,-1.1656341552734375,9.557003784179688
15.680000000000009,6.749612426757813,1.4771179199218751,5.61956787109375
15.691000000000033,7.253848266601563,0.4329071044921875,2.823092651367188
15.701000000000022,9.076095581054688,0.1112548828125,4.088018798828125
15.711000000000013,8.856427001953126,0.9079833984375,7.437927246093751
15.720999999999997,7.300054931640625,0.5778076171875001,9.9495361328125
15.731000000000002,6.97197265625,0.381317138671875,8.639151000976563
15.740999999999993,7.05032958984375,0.043365478515625,6.645086669921875
15.751000000000031,7.897750854492188,0.315521240234375,4.013250732421875
15.761000000000015,8.735751342773439,0.0861328125,4.170114135742188
15.771000000000017,8.312713623046875,-0.49287109375,4.34671630859375
15.781000000000006,7.354486083984375,0.0195892333984375,4.571170043945313
15.790999999999997,6.012847900390625,-0.7867095947265625,5.760580444335938
15.800999999999988,6.664227294921876,-1.2101959228515626,6.775631713867188
15.81099999999998,7.582080078125,-0.60950927734375,8.265161132812501
15.822000000000005,8.631524658203126,0.069384765625,7.939321899414063
15.832,7.984033203125,0.43544921875,6.930551147460938
15.841999999999992,6.836193847656251,0.5203857421875,6.452334594726563
15.852000000000032,6.126345825195313,0.1350311279296875,6.640301513671876
15.862000000000023,6.27872314453125,1.0703796386718751,6.756790161132813
15.872000000000014,7.093844604492188,0.9283203125,6.482540893554688
15.882000000000003,7.614379882812501,0.3177642822265625,5.665924072265625
15.892000000000005,8.357574462890625,0.266473388671875,5.184567260742188
15.90500000000003,7.968182373046876,0.020037841796875,5.324533081054688
15.911999999999978,6.750509643554688,-0.1804901123046875,6.118569946289063
15.922000000000024,5.04534912109375,-0.80689697265625,6.765762329101563
15.932000000000016,6.008511352539063,-1.0956512451171876,6.8236328125000005
15.942000000000007,10.669403076171877,-0.274847412109375,6.644039916992188
15.951999999999998,11.930291748046876,-0.383111572265625,6.0958404541015625
15.961999999999987,7.885638427734375,0.38819580078125,5.978305053710938
15.973000000000011,4.842877197265626,0.588873291015625,7.551574707031251
15.982999999999995,4.530197143554688,0.1745086669921875,9.281707763671877
15.993000000000002,6.543850708007813,0.8933288574218751,7.400393676757813
16.005000000000003,8.133718872070313,0.7976257324218751,4.511056518554688
16.013000000000034,9.070562744140624,-0.160003662109375,4.380361938476563
16.023000000000025,9.735400390625,-0.234173583984375,6.782809448242188
16.033000000000015,7.814010620117188,0.0671417236328125,9.343316650390626
16.043000000000006,5.966641235351563,0.8486175537109376,9.436178588867188
16.052999999999997,5.429058837890626,-0.0931610107421875,6.927560424804688
16.062999999999988,7.245922851562501,-0.6304443359375,4.570272827148438
16.07299999999998,9.04693603515625,-0.402252197265625,3.217868041992188
16.083000000000027,9.700408935546877,-0.7061096191406251,3.5514831542968754
16.093000000000018,8.090951538085939,-0.4182525634765625,4.202114868164063
16.105000000000018,6.624899291992188,0.1825836181640625,6.512896728515625
16.114000000000033,6.539215087890626,0.1335357666015625,8.102615356445312
16.124000000000017,6.537719726562501,0.5269653320312501,8.73590087890625
16.134000000000015,7.6574462890625,0.8825622558593751,6.275433349609376
16.144000000000005,9.18271484375,0.5864807128906251,4.50701904296875
16.153999999999996,8.068670654296875,-0.152227783203125,5.361618041992188
16.163999999999987,6.306237792968751,-0.0674407958984375,7.134368896484376
16.173999999999978,5.1093505859375,0.3050537109375,8.340975952148439
16.184000000000026,5.549435424804688,-0.2065093994140625,8.951531982421876
16.194000000000017,7.308428955078125,0.1303955078125,6.78355712890625
16.206000000000017,8.821734619140626,-0.0859832763671875,5.049087524414063
16.214,8.3106201171875,-0.8273834228515625,4.0412139892578125
16.22399999999999,6.053372192382813,-0.430364990234375,4.034783935546876
16.23399999999998,4.44541015625,-0.105572509765625,5.595492553710938
16.244000000000028,8.599075317382812,0.043963623046875,7.571313476562499
16.255000000000003,12.562530517578129,0.6969879150390625,7.399346923828125
16.264999999999986,10.24307556152344,-0.2247528076171875,6.3167053222656255
16.274999999999977,6.360220336914063,0.5797515869140626,6.667816162109376
16.285000000000025,4.834503173828125,-0.3802703857421875,9.28724060058594
16.295000000000016,6.078494262695313,-0.8701507568359376,10.374368286132814
16.305000000000007,6.7907348632812505,1.73402099609375,6.330911254882813
16.314999999999998,6.854138183593751,0.6207244873046875,2.910272216796875
16.32499999999999,8.6037109375,0.11005859375,3.610400390625
16.33499999999998,8.861660766601563,0.606817626953125,7.0329833984375005
16.345000000000027,7.426861572265626,0.620574951171875,9.674240112304688
16.355000000000018,7.174743652343751,0.271258544921875,8.724087524414063
16.365999999999993,7.095938110351563,-0.41451416015625,6.679629516601563
16.376000000000033,7.924368286132813,0.165985107421875,4.266116333007813
16.386000000000017,8.519522094726563,0.236865234375,4.377072143554688
16.396000000000015,8.819192504882814,-0.6572113037109375,4.5645904541015625
16.40500000000003,7.174893188476563,-0.3162689208984375,4.3221923828125
16.415999999999997,6.06279296875,-0.4906280517578125,5.045947265625
16.425999999999988,6.418240356445313,-0.8345611572265625,6.612786865234376
16.43599999999998,7.722195434570313,-0.7941864013671875,8.406771850585939
16.446000000000026,8.284899902343751,0.2175750732421875,8.397500610351564
16.456000000000017,7.873526000976563,0.6869689941406251,7.098480224609376
16.466000000000008,7.115078735351563,0.136376953125,6.521719360351563
16.476,6.477456665039063,0.1419097900390625,6.589459228515626
16.48599999999999,6.395062255859376,1.167877197265625,6.745574951171876
16.49599999999998,6.832904052734375,0.611004638671875,6.575103759765626
16.509000000000015,7.5638366699218755,0.5508911132812501,5.461508178710938
16.517000000000003,7.940518188476563,0.066693115234375,4.903738403320313
16.52600000000001,7.764962768554688,-0.32120361328125,5.012899780273438
16.536999999999978,6.732565307617188,0.0656463623046875,5.731719970703125
16.547000000000025,4.88504638671875,-0.8889923095703126,6.569869995117188
16.557000000000016,7.117770385742188,-1.2981231689453123,7.419384765625001
16.567000000000007,11.60684509277344,0.1012359619140625,7.172650146484376
16.576999999999998,11.023654174804689,-0.8115325927734376,6.477307128906251
16.58699999999999,6.818548583984375,0.0955535888671875,6.375323486328125
16.59699999999998,4.457223510742188,0.96959228515625,8.208187866210938
16.607000000000028,5.577548217773438,0.39298095703125,9.089553833007812
16.61700000000002,7.196725463867188,1.4838470458984376,6.5783935546875005
16.62700000000001,7.706793212890625,0.8822631835937501,3.952838134765625
16.637,9.050375366210938,-0.3348114013671875,4.3413330078125005
16.64699999999999,9.30234375,0.2842681884765625,7.496395874023438
16.656999999999982,7.389926147460938,0.4876373291015625,9.295913696289062
16.66700000000003,5.884246826171875,0.6246124267578126,8.962747192382814
16.67700000000002,6.031689453125001,-0.46236572265625,6.266461181640626
16.687999999999988,8.097680664062501,-0.4987030029296875,4.1937408447265625
16.69799999999998,9.6337158203125,-0.3943267822265625,3.842330932617188
16.708000000000027,8.815902709960938,-0.9691436767578124,3.997848510742188
16.718000000000018,7.189697265625001,-0.558966064453125,4.294229125976563
16.72800000000001,5.822338867187501,0.1401153564453125,7.012796020507813
16.738,6.99051513671875,0.046356201171875,7.793972778320313
