time,ax,ay,az
0.0,6.846212768554688,1.2915435791015626,6.033932495117188
0.0099999999999944,6.612338256835938,1.298272705078125,6.221450805664063
0.0199999999999818,6.903335571289063,1.4590240478515626,6.801351928710938
0.0300000000000295,7.665521240234375,1.2610382080078126,6.417791748046875
0.04200000000003,7.838833618164063,-0.5836395263671875,5.6644287109375
0.0500000000000113,7.87218017578125,-1.296328735351563,5.163632202148438
0.0600000000000022,7.506713867187501,-1.3579376220703123,5.905630493164063
0.0699999999999967,7.122555541992188,-1.6604492187500002,7.138555908203125
0.079999999999984,6.904681396484375,-1.6184295654296876,7.399795532226563
0.0910000000000081,6.888531494140626,-1.5124084472656252,6.882101440429688
0.100999999999999,7.425814819335938,-1.5865783691406252,7.128836059570313
0.11099999999999,7.745672607421875,-1.414910888671875,6.216366577148438
0.1209999999999773,8.0235107421875,-0.9302642822265624,5.640652465820313
0.1310000000000322,7.282110595703125,1.7859100341796876,6.196926879882813
0.1430000000000326,7.343270874023438,2.2216583251953126,6.282312011718751
0.1510000000000069,7.70469970703125,1.8152191162109377,6.430801391601563
0.1610000000000013,7.73221435546875,1.586428833007813,6.452932739257813
0.1709999999999958,6.93668212890625,1.478912353515625,6.586767578125
0.1809999999999831,6.613385009765626,1.3841064453125,6.588262939453125
0.1910000000000344,6.599179077148438,0.954937744140625,7.139752197265626
0.2010000000000218,7.856179809570313,-0.8631225585937501,6.595440673828126
0.2110000000000127,8.158541870117189,-1.2288879394531251,6.024661254882813
0.2210000000000036,8.092446899414064,-1.331768798828125,5.7529541015625005
0.2309999999999945,7.5497802734375,-1.4531921386718751,5.998791503906251
0.2420000000000186,6.941915893554688,-1.7135345458984377,6.551028442382813
0.252000000000006,4.420138549804688,-1.248028564453125,5.574856567382813
0.2620000000000004,5.45029296875,-0.5348907470703126,4.984487915039063
0.2719999999999949,10.636056518554687,0.2917449951171875,5.6292877197265625
0.2819999999999822,10.041500854492188,0.6029296875000001,5.208343505859375
0.29200000000003,7.183865356445313,1.2302337646484376,6.866549682617188
0.3020000000000173,7.8120666503906255,2.183676147460938,11.115469360351565
0.3120000000000118,7.0419555664062505,1.1387176513671875,14.371917724609377
0.3220000000000027,5.34442138671875,1.4232849121093751,11.927749633789062
0.3319999999999936,5.6038665771484375,1.103875732421875,3.9432678222656254
0.3419999999999845,7.956817626953126,0.2124908447265625,1.7350677490234376
0.3520000000000358,8.15809326171875,-0.5728729248046875,2.5325439453125003
0.3620000000000232,6.655853271484376,0.0623565673828125,4.570272827148438
0.3729999999999904,9.212921142578123,-0.560760498046875,7.034927368164063
0.3829999999999778,7.751504516601563,-1.18851318359375,3.592306518554688
0.3930000000000326,6.257638549804688,-1.16339111328125,7.256390380859376
0.40300000000002,9.4279541015625,-1.0765106201171877,6.7099853515625005
0.4130000000000109,12.034817504882811,-1.1720642089843751,5.67998046875
0.4230000000000018,8.846258544921875,-0.599041748046875,3.504827880859376
0.4329999999999963,5.803646850585938,0.871197509765625,3.571969604492188
0.4429999999999836,5.313766479492188,0.9308624267578126,6.938027954101563
0.4530000000000349,5.9563232421875005,0.091217041015625,9.722091674804688
0.4630000000000223,5.696878051757813,0.3497650146484375,10.049127197265626
0.4730000000000096,6.964645385742188,1.3845550537109377,8.781658935546876
0.4830000000000041,7.5497802734375,0.9248809814453126,6.53592529296875
0.492999999999995,7.059750366210938,-0.4927215576171875,6.353640747070313
0.5029999999999859,6.902288818359375,-0.90140380859375,7.111938476562501
0.5130000000000337,7.153659057617188,-0.95882568359375,7.587313842773438
0.5240000000000045,7.644436645507813,-0.05562744140625,5.801553344726563
0.5339999999999954,7.0045715332031255,-0.086431884765625,4.153366088867188
0.5439999999999827,4.60391845703125,-0.5701812744140625,2.989227294921875
0.5540000000000305,6.706695556640626,-0.4272247314453125,4.235311889648438
0.5640000000000178,11.2487060546875,0.7089508056640625,6.462353515625001
0.5740000000000123,13.202395629882814,1.7296844482421876,7.386337280273438
0.5840000000000032,9.067422485351564,1.6943939208984375,8.56363525390625
0.5939999999999941,5.1612396240234375,0.741400146484375,8.71795654296875
0.603999999999985,4.819100952148438,-0.1997802734375,10.418630981445313
0.6140000000000363,5.736654663085938,-0.109759521484375,9.306381225585938
0.6240000000000236,5.554220581054688,-0.299371337890625,4.253704833984376
0.6340000000000146,6.934738159179688,-0.23746337890625,2.0138031005859376
0.6440000000000055,9.128283691406253,-0.395074462890625,4.3846984863281255
0.6550000000000296,9.852188110351562,0.23626708984375,6.363809204101563
0.6650000000000205,9.056057739257811,0.0207855224609375,8.464492797851562
0.6750000000000114,6.0759521484375005,-0.0354400634765625,9.528591918945311
0.6850000000000023,6.225787353515625,0.43604736328125,7.048086547851563
0.6949999999999967,8.320489501953126,0.259893798828125,4.759735107421875
0.7049999999999841,8.569018554687501,-0.096600341796875,4.586721801757813
0.7150000000000354,7.651016235351563,-0.1230682373046875,3.442770385742188
0.7250000000000227,7.227978515625001,-0.134283447265625,2.0528320312500004
0.7350000000000136,5.961557006835938,-0.365765380859375,4.431652832031251
0.7450000000000045,7.345364379882813,-0.377130126953125,8.523260498046875
0.7590000000000146,8.451333618164064,-0.2863616943359375,10.957110595703126
0.7649999999999864,8.469277954101564,-0.048150634765625,9.8322998046875
0.7760000000000069,6.981842041015626,0.8058502197265626,6.725238037109375
0.785000000000025,5.93658447265625,0.019439697265625,6.529495239257813
0.7950000000000159,5.302401733398438,0.158807373046875,7.174743652343751
0.8059999999999832,6.039614868164063,0.7439422607421875,6.565084838867188
0.8160000000000345,7.185659790039063,0.5416198730468751,4.931402587890625
0.8260000000000218,7.2411376953125,0.2286407470703125,3.487631225585938
0.8360000000000127,5.7006164550781255,-0.061309814453125,3.0816406250000004
0.8460000000000036,6.773986816406251,-0.569732666015625,5.126995849609376
0.8589999999999804,11.661575317382812,0.7379608154296875,9.561489868164063
0.8659999999999854,13.710220336914064,-0.2322296142578125,10.570260620117187
0.8760000000000367,7.786795043945313,-1.3923309326171875,7.91165771484375
0.8860000000000241,3.3412353515625,-0.286810302734375,5.591006469726563
0.896000000000015,4.110150146484376,-0.29129638671875,7.257437133789063
0.906000000000006,6.905578613281251,0.5102172851562501,8.86689453125
0.9159999999999932,7.601818847656251,1.167877197265625,5.445956420898438
0.9259999999999912,8.122503662109375,0.3935791015625,3.964651489257813
0.9370000000000118,8.643338012695313,-0.2450897216796875,4.352548217773438
0.9460000000000264,8.585018920898438,0.7077545166015625,7.548583984375001
0.9580000000000268,7.194033813476563,0.6799407958984376,11.466879272460938
0.9669999999999844,7.052124023437501,0.5082733154296876,9.704595947265624
0.9770000000000358,7.607650756835938,0.516796875,5.070172119140626
0.9870000000000232,7.942013549804688,-0.1281524658203125,2.268014526367188
0.997000000000014,7.237100219726563,-0.4646087646484375,1.8659118652343751
1.007000000000005,7.784103393554688,-0.6421081542968751,3.4249755859375
1.016999999999996,7.661932373046875,-0.8390472412109375,4.961309814453125
1.0269999999999868,7.331158447265626,-0.1024322509765625,7.01085205078125
1.0370000000000346,6.942813110351563,-0.20277099609375,7.721896362304688
1.0470000000000257,8.135513305664062,-0.000897216796875,9.1264892578125
1.059000000000026,8.731863403320313,0.456683349609375,9.146676635742187
1.0670000000000035,6.683367919921875,0.527264404296875,8.560943603515625
1.078000000000035,5.029498291015625,0.2507720947265625,6.573458862304688
1.0880000000000225,4.832858276367188,0.0578704833984375,5.6920928955078125
1.09699999999998,6.369342041015625,0.2827728271484375,5.770599365234375
1.108000000000004,7.590454101562501,0.57840576171875,4.821044921875
1.117999999999995,7.096685791015625,0.16090087890625,3.886593627929688
1.127999999999986,5.002731323242188,-0.527862548828125,3.589315795898438
1.1380000000000337,8.908914184570314,-0.714483642578125,6.378613281250001
1.1480000000000246,14.690130615234375,1.0238739013671876,9.934732055664064
1.1589999999999954,12.48148193359375,-0.40972900390625,9.703250122070314
1.1680000000000064,4.9050842285156255,-0.9739288330078124,6.701312255859375
1.1779999999999935,1.5855316162109376,-0.4344024658203125,5.9817443847656255
1.1879999999999915,5.08243408203125,-0.5030395507812501,9.463394165039062
1.197999999999979,7.428955078125001,-0.19918212890625,8.285348510742189
1.2080000000000268,7.778121948242188,0.211444091796875,3.437088012695313
1.2180000000000175,8.2244873046875,0.5075256347656251,3.9338470458984376
1.2280000000000086,9.142938232421876,1.26746826171875,6.421829223632813
1.2390000000000363,8.464791870117189,1.8657623291015624,9.6265380859375
1.2490000000000236,6.430801391601563,0.9437225341796877,11.39285888671875
1.2590000000000146,6.964944458007813,0.9763214111328126,6.845913696289063
1.2690000000000057,8.401239013671876,0.461468505859375,2.878570556640625
1.2789999999999964,8.068820190429689,-0.1447509765625,2.811578369140625
1.2889999999999873,7.346710205078126,-0.2791839599609375,2.866607666015625
1.299000000000035,6.578991699218751,-0.46116943359375,4.321295166015625
1.309000000000026,7.815505981445313,-0.7298858642578125,4.800408935546876
1.3190000000000204,7.075451660156251,-0.8985626220703126,7.03836669921875
1.3290000000000075,8.344564819335938,-1.401004028320313,8.522662353515626
1.3389999999999986,9.090151977539064,-1.6090087890625002,8.570214843750001
1.3489999999999895,8.157943725585938,-0.8916839599609375,8.546438598632813
1.3600000000000136,5.441171264648438,1.121820068359375,7.69034423828125
1.3700000000000043,4.711883544921875,0.9055908203125,7.262820434570313
1.3799999999999957,4.880560302734375,0.8505615234375,6.408819580078125
1.3899999999999864,6.971374511718751,1.1722137451171877,5.67938232421875
1.400000000000034,8.321685791015625,0.9299652099609376,5.2349609375
1.410000000000025,9.58033142089844,0.8095886230468751,5.284906005859376
1.420000000000016,7.976556396484375,0.9135162353515626,4.805792236328125
1.4300000000000033,5.152865600585938,0.4653564453125,5.6859619140625
1.4399999999999975,3.654513549804688,-0.551788330078125,5.98204345703125
1.4499999999999922,8.558251953125001,-1.0466033935546877,8.348452758789064
1.4599999999999795,14.443096923828126,-1.0041351318359375,7.679278564453125
1.4700000000000273,12.021060180664064,-1.1735595703125,4.365856933593751
1.4800000000000182,5.678784179687501,-1.1429046630859376,4.382904052734375
1.4900000000000055,3.3448242187500004,-0.7378112792968751,8.951382446289063
1.5,5.253353881835938,-0.395074462890625,14.80691833496094
1.5099999999999945,4.832858276367188,1.1834289550781252,10.097576904296876
1.521000000000015,7.561294555664063,0.8782257080078125,4.565338134765625
1.531000000000006,10.120755004882811,0.2379119873046875,2.8917297363281254
1.5409999999999933,9.063833618164065,0.4966094970703125,3.6287933349609376
1.5509999999999913,7.165173339843751,1.3090393066406252,7.215567016601563
1.5610000000000357,8.398098754882813,1.4042938232421875,5.869891357421875
1.5710000000000264,6.459661865234375,0.5788543701171875,8.595935058593751
1.5810000000000173,6.212777709960938,0.541021728515625,5.034732055664063
1.5910000000000082,8.524606323242189,-0.33555908203125,3.6287933349609376
1.600999999999999,9.273483276367188,-0.8791229248046876,4.651171875
1.61099999999999,8.841622924804689,-1.033294677734375,3.4300598144531254
1.6209999999999771,6.255096435546876,-0.9120208740234376,5.241540527343751
1.6310000000000322,5.488125610351563,-0.634930419921875,7.035076904296876
1.6410000000000196,7.309027099609375,-0.7292877197265626,9.951629638671877
1.6519999999999868,8.147625732421876,-0.1655364990234375,10.397845458984376
1.6620000000000346,8.410958862304689,1.1789428710937502,7.545443725585938
1.6720000000000257,6.404034423828126,0.9942657470703126,5.639456176757813
1.6820000000000164,5.355786132812501,0.992919921875,5.797515869140625
1.6920000000000035,5.436087036132813,1.0382293701171876,6.859671020507813
1.7019999999999982,7.298260498046876,1.3645172119140625,7.246072387695313
1.7119999999999926,8.267852783203125,0.8658142089843751,5.836544799804688
1.72199999999998,7.153210449218751,0.0794036865234375,4.225741577148438
1.7320000000000313,5.573809814453125,-0.51978759765625,3.272299194335938
1.7420000000000186,6.003875732421875,-0.8227478027343751,5.060302734375
1.752000000000006,10.377359008789064,-0.6422576904296875,8.6336181640625
1.7620000000000005,14.092135620117189,-0.059814453125,8.289385986328126
1.771999999999995,10.013687133789062,-0.5733215332031251,6.062643432617188
1.7819999999999825,4.583432006835938,-0.646893310546875,5.756542968750001
1.79200000000003,4.025213623046875,-0.9023010253906252,8.874072265625001
1.8029999999999933,6.007763671875001,-1.0036865234375,11.904870605468751
1.812999999999992,5.662484741210938,-0.2268463134765625,8.500979614257814
1.822999999999979,7.022665405273438,0.3533538818359375,2.6645843505859377
1.8330000000000268,8.347854614257812,0.0823944091796875,3.285757446289063
1.8430000000000173,9.2676513671875,0.569732666015625,5.6023712158203125
1.8530000000000089,9.079983520507811,1.5287078857421876,8.693582153320314
1.8629999999999995,7.949789428710938,1.2537109375000002,10.117315673828124
1.8729999999999905,6.298312377929688,0.9854431152343752,6.520672607421876
1.8829999999999776,6.612936401367188,0.6416595458984375,3.3706939697265628
1.8930000000000329,7.760177612304688,0.1734619140625,4.159347534179688
1.90300000000002,9.117068481445314,-0.131890869140625,3.97825927734375
1.913000000000011,7.869488525390626,-0.7023712158203126,3.02720947265625
1.924000000000035,6.325677490234376,-0.9630126953125,5.447451782226563
1.9329999999999965,6.5604492187500005,-1.027313232421875,6.161038208007813
1.9440000000000204,8.386883544921876,-1.36077880859375,8.947195434570313
1.954000000000008,8.512194824218751,-0.9202453613281252,10.066622924804689
1.9639999999999984,7.49534912109375,0.6201263427734376,9.393411254882814
1.973999999999989,6.174346923828126,1.1919525146484375,6.698919677734375
1.9839999999999804,5.208343505859375,0.5909667968750001,5.967388916015626
1.994000000000032,5.49515380859375,0.8907867431640626,5.7720947265625
2.004000000000019,6.976458740234375,1.1234649658203126,5.912808227539063
2.0140000000000065,8.437426757812501,1.1097076416015623,5.869143676757813
2.0240000000000045,8.575897216796875,0.7879058837890626,5.060153198242188
2.033999999999996,6.993057250976563,0.0297576904296875,4.845867919921876
2.0439999999999827,4.786203002929688,-0.6030792236328125,5.779721069335938
2.0540000000000305,5.224493408203125,-0.715679931640625,6.647030639648438
2.064000000000018,11.050271606445314,-1.2299346923828125,8.876913452148438
2.0740000000000123,14.266793823242187,-0.68726806640625,6.974813842773438
2.084000000000003,9.769943237304688,-1.4527435302734375,4.2755371093750005
2.095000000000028,3.88076171875,-0.9398345947265626,5.601025390625001
2.105000000000018,4.1458892822265625,-0.3146240234375,10.303936767578126
2.115000000000005,5.324234008789063,0.4798614501953125,13.514776611328124
2.125,4.966543579101563,1.419097900390625,7.194033813476563
2.1349999999999945,8.235403442382813,0.710296630859375,2.424429321289063
2.144999999999982,10.505062866210938,0.2633331298828125,2.9243286132812503
2.1580000000000155,9.667810058593751,1.069033813476563,4.97476806640625
2.1650000000000205,7.60361328125,1.878024291992188,8.346209716796876
2.175000000000012,7.0643859863281255,0.9876861572265626,7.944256591796876
2.1850000000000023,5.595492553710938,0.43006591796875,8.395108032226563
2.1949999999999967,7.148873901367188,0.2095001220703125,4.284060668945313
2.204999999999984,9.111984252929688,-0.6032287597656251,3.8595275878906254
2.2150000000000354,8.140447998046875,-0.9890319824218752,4.689154052734375
2.225999999999999,7.756887817382813,-1.0943054199218751,3.90648193359375
2.23599999999999,6.071316528320313,-1.030154418945313,4.43524169921875
2.2459999999999773,6.590954589843751,-0.7179229736328125,8.449838256835939
2.257999999999978,7.694531250000001,-0.5490966796875001,9.805831909179688
2.26600000000002,9.229071044921875,0.6183319091796875,8.931344604492189
2.276000000000007,8.273983764648438,1.134829711914063,6.1492248535156255
2.2860000000000014,6.05023193359375,1.01864013671875,5.706298828125
2.295999999999996,4.6658264160156255,0.7865600585937501,6.6740966796875005
2.305999999999983,5.1014251708984375,0.9482086181640624,7.218109130859376
2.3160000000000345,5.933294677734375,1.0627532958984376,6.243283081054688
2.326000000000022,5.566632080078126,0.2899505615234375,3.6392608642578126
2.3360000000000127,7.013693237304688,-0.7325775146484376,4.23187255859375
2.346000000000004,12.899136352539063,-0.49825439453125,6.996347045898438
2.358000000000004,14.58680114746094,-1.059912109375,7.544845581054688
2.367000000000018,8.792276000976564,-1.179541015625,8.904278564453126
2.377000000000006,3.476116943359376,-0.5583679199218751,7.5258544921875
2.3870000000000005,3.8821075439453128,-0.618780517578125,8.7891357421875
2.396999999999995,5.420086669921876,-0.29727783203125,9.269146728515626
2.4069999999999823,7.639950561523438,0.314923095703125,4.8487091064453125
2.41700000000003,7.999584960937501,0.3061004638671875,3.147137451171876
2.4270000000000174,8.302694702148438,0.402252197265625,3.7038604736328127
2.437000000000012,8.237496948242189,1.5622039794921876,6.102120971679688
2.4470000000000027,8.56363525390625,1.48758544921875,9.553713989257814
2.458000000000027,7.435684204101563,1.1955413818359375,10.987167358398438
2.4669999999999845,7.462152099609375,1.53065185546875,6.469830322265626
2.477000000000036,7.667913818359375,0.38460693359375,3.3122253417968754
2.487000000000023,7.231567382812501,-0.30684814453125,3.0541259765625
2.497000000000014,7.351046752929688,-0.750372314453125,2.7701568603515625
2.507999999999978,7.0823303222656255,-1.235467529296875,4.0980377197265625
2.5180000000000327,6.911560058593751,-1.1620452880859375,6.8191467285156255
2.52800000000002,7.473217773437501,-1.2567016601562502,8.256936645507814
2.538000000000011,8.485128784179688,-1.4252288818359375,9.118862915039063
2.548000000000002,8.488568115234376,-0.813177490234375,8.987570190429688
2.5579999999999963,7.049282836914063,0.9520965576171876,8.083624267578125
2.567999999999984,5.460162353515625,0.9091796875,7.072760009765625
2.578000000000035,5.090359497070313,0.999798583984375,6.207843017578125
2.5880000000000223,6.051278686523438,1.016845703125,5.346514892578125
2.5980000000000096,7.387533569335938,0.9441711425781252,4.716070556640625
2.608000000000004,7.599276733398438,0.8243927001953125,4.057962036132813
2.617999999999995,6.057110595703126,0.9177032470703126,3.9132110595703127
2.627999999999986,7.332504272460938,0.5172454833984376,7.408917236328126
2.6380000000000337,12.206036376953126,0.10108642578125,9.571658325195314
2.648000000000025,11.92640380859375,-1.002789306640625,8.032034301757813
2.658999999999996,6.551327514648438,-0.9820037841796876,6.965093994140625
2.6689999999999827,4.249517822265625,-0.6751556396484375,6.649273681640626
2.6790000000000305,5.4598632812500005,-0.7262969970703126,8.601617431640626
2.689000000000018,6.555514526367188,-0.8160186767578126,7.584173583984375
2.6990000000000123,7.176687622070313,-0.1016845703125,4.305145263671875
2.709000000000003,7.956668090820313,-0.0865814208984375,3.981997680664063
2.718999999999994,8.953475952148438,-0.4768707275390625,4.864859008789063
2.728999999999985,7.426861572265626,0.8692535400390625,9.124844360351563
2.7390000000000363,8.088708496093751,1.621868896484375,10.834191894531251
2.749000000000024,8.080633544921875,1.393975830078125,8.1407470703125
2.7590000000000146,7.478302001953126,0.5776580810546875,4.046896362304688
2.769000000000005,6.624151611328125,-0.0043365478515625,2.4061859130859378
2.7789999999999964,7.348355102539063,-0.0835906982421875,2.36446533203125
2.788999999999988,8.636160278320313,0.1924530029296875,4.017886352539063
2.799000000000035,7.165621948242188,0.334063720703125,7.440618896484375
2.8100000000000023,6.832455444335938,-0.3919342041015625,6.704751586914063
2.8199999999999967,7.115975952148438,-0.7188201904296876,6.965841674804688
2.829999999999984,8.359967041015626,-0.8845062255859376,9.18690185546875
2.8400000000000354,7.627090454101563,-0.6368743896484376,9.95596618652344
2.8500000000000227,6.897802734375,0.1063201904296875,8.316900634765625
2.8600000000000136,5.235260009765625,-0.3473724365234375,5.707644653320313
2.8700000000000045,5.4378814697265625,0.1631439208984375,4.7408935546875
2.8799999999999955,6.158047485351563,0.8051025390625001,4.633078002929688
2.8899999999999864,6.916345214843751,0.8634216308593751,4.9215332031250005
2.900000000000034,5.640353393554688,0.786260986328125,4.566235351562501
2.910000000000025,7.917041015625,0.6135467529296875,5.8132171630859375
2.920000000000016,13.836129760742187,0.6356781005859375,8.341275024414063
2.930999999999983,13.368530273437502,0.6739593505859376,7.830160522460938
2.9410000000000345,6.499139404296876,-0.6285003662109375,8.270993041992188
2.951000000000022,2.7013702392578125,-0.4868896484375,7.8368896484375
2.9610000000000127,4.406680297851563,-0.6883148193359375,9.764111328125
2.971000000000004,5.646932983398438,-0.48988037109375,7.278521728515625
2.9809999999999945,7.756439208984376,-0.460870361328125,3.2398498535156253
2.990999999999985,8.510250854492188,-0.217425537109375,3.2450836181640628
3.0010000000000367,9.274380493164063,-0.072674560546875,4.757791137695313
3.011000000000024,8.125494384765625,0.1688262939453125,8.885736083984376
3.021000000000015,7.779766845703126,0.3626251220703125,11.394204711914064
3.031000000000006,7.123602294921875,1.000247192382813,8.816201782226564
3.0409999999999933,7.85423583984375,0.948956298828125,3.886593627929688
3.050999999999992,7.576397705078126,0.23626708984375,2.746530151367188
3.0610000000000355,7.398150634765625,0.1075164794921875,2.94586181640625
3.0720000000000027,7.237698364257813,0.5582183837890625,3.222802734375
3.0819999999999936,7.3335510253906255,0.280828857421875,5.366253662109376
3.0919999999999845,6.479998779296875,-0.7053619384765626,6.620114135742188
3.102000000000036,8.205795288085938,-0.9353485107421876,8.290582275390626
3.112000000000023,8.859567260742189,-1.3841064453125,9.525152587890624
3.122000000000014,8.448641967773439,-0.8212524414062501,9.482385253906251
3.132000000000005,6.312518310546875,0.4771697998046875,7.513742065429688
3.141999999999996,4.9937591552734375,0.0249725341796875,6.375473022460938
3.1550000000000296,4.521673583984375,0.159405517578125,5.9697814941406255
3.1620000000000346,6.331210327148438,0.917852783203125,5.23675537109375
3.175999999999992,8.16287841796875,0.7822235107421875,4.8748779296875
3.1820000000000164,8.897848510742188,0.86072998046875,4.580291748046875
3.192000000000004,6.2763305664062505,0.9031982421875,4.214974975585938
3.201999999999998,6.318948364257813,0.611602783203125,7.464694213867188
3.2130000000000223,10.945147705078126,0.296978759765625,10.459454345703126
3.2230000000000096,11.560787963867188,-0.2044158935546875,8.222543334960939
3.233000000000004,7.002627563476563,-0.9368438720703126,6.476559448242188
3.242999999999995,4.318603515625,-0.4222900390625,5.521023559570313
3.252999999999986,5.456423950195313,-0.6293975830078126,6.907971191406251
3.2630000000000337,6.653610229492188,-0.20157470703125,7.389477539062501
3.275000000000034,7.619165039062499,0.026019287109375,5.227783203125
3.2830000000000155,8.270993041992188,-0.3665130615234375,5.113986206054688
3.2930000000000064,8.901287841796876,-0.6331359863281251,6.880606079101563
3.3029999999999937,7.470825195312501,0.4708892822265625,9.239688110351564
3.312999999999992,7.528546142578126,1.117333984375,9.726876831054687
3.322999999999979,7.546041870117188,0.95762939453125,7.083975219726563
3.333000000000027,7.659240722656251,0.3512603759765625,3.9311553955078127
3.3430000000000177,6.630282592773438,0.141461181640625,2.537030029296876
3.3530000000000086,7.8273193359375,0.203070068359375,2.019186401367188
3.3640000000000363,8.450735473632813,0.7684661865234376,3.958071899414063
3.3760000000000367,7.815805053710938,0.75904541015625,7.5282470703125
3.3840000000000146,7.107901000976563,-0.2848663330078125,7.204351806640625
3.394000000000005,7.369589233398438,-0.6570617675781251,7.363906860351563
3.4039999999999964,8.064932250976563,-0.9039459228515626,8.911306762695313
3.413999999999988,7.743728637695313,-0.7739990234375,9.42959899902344
3.424000000000035,6.193188476562501,-0.4505523681640625,7.522116088867188
3.434000000000026,5.040414428710938,-0.5061798095703125,5.576800537109375
3.4440000000000204,5.354440307617188,-0.318212890625,4.980899047851563
3.454000000000008,6.123953247070313,0.9529937744140624,4.93289794921875
3.463999999999998,5.6716064453125,0.9066375732421876,5.200119018554688
3.475999999999999,6.270648193359375,1.0328460693359376,6.0568115234375
3.4839999999999804,11.951974487304687,0.665435791015625,7.826123046875001
3.4950000000000045,14.566613769531251,0.8309722900390626,7.74058837890625
3.504000000000019,9.602911376953124,0.2835205078125,6.055615234375001
3.5149999999999864,3.791189575195313,-0.3297271728515625,7.2258850097656255
3.525000000000034,3.5333892822265627,-0.672314453125,8.151214599609375
3.535000000000025,5.441171264648438,-0.530853271484375,8.687899780273439
3.545000000000016,6.516635131835938,-0.46834716796875,4.758688354492188
3.555000000000004,8.442361450195314,-0.168377685546875,3.519033813476563
3.5649999999999977,10.01712646484375,-0.062506103515625,6.09329833984375
3.576000000000022,8.800949096679688,-0.1538726806640625,8.671899414062501
3.5849999999999795,7.3724304199218755,-0.275146484375,9.848150634765624
3.595000000000028,5.547940063476563,0.1435546875,9.358120727539063
3.605000000000018,7.047637939453126,1.030154418945313,5.51190185546875
3.6150000000000055,8.51099853515625,0.425579833984375,3.4493499755859376
3.625,8.662179565429689,0.1951446533203125,3.5857269287109377
3.6349999999999945,7.532882690429688,0.279931640625,2.4488037109375003
3.646000000000015,7.468283081054688,0.6739593505859376,3.2630279541015628
3.656000000000006,7.012197875976563,0.08433837890625,5.875274658203125
3.665999999999993,7.48338623046875,-0.4664031982421875,8.196374511718751
3.6759999999999913,8.370584106445314,-0.7509704589843751,9.523806762695314
3.686000000000036,8.646627807617188,-0.9754241943359376,9.193780517578126
3.6960000000000255,7.094143676757813,-0.1481903076171875,6.767257690429688
3.706000000000017,5.500238037109376,0.04964599609375,6.450241088867188
3.716000000000008,4.515542602539063,-0.4290191650390625,6.750509643554688
3.725999999999999,5.484387207031251,0.6667816162109376,7.060498046875001
3.73599999999999,7.368991088867188,0.9416290283203126,6.132626342773438
3.745999999999977,8.526251220703125,0.562255859375,4.881008911132813
3.756000000000032,7.505517578125,0.545208740234375,4.006970214843751
3.76600000000002,4.9349914550781255,0.9262268066406252,4.319052124023438
3.776999999999987,8.591149902343751,0.99830322265625,8.880203247070312
3.7870000000000346,14.133706665039064,1.054229736328125,9.708782958984376
3.7970000000000255,10.53153076171875,-0.7965789794921876,6.904382324218751
3.807000000000016,3.7101409912109378,-0.447113037109375,5.2744384765625005
3.817000000000004,3.3729370117187503,-0.483001708984375,6.387734985351563
3.826999999999998,6.1764404296875,-0.7617370605468751,9.379953002929687
3.8369999999999926,7.694381713867188,-0.4320098876953125,7.375271606445313
3.84699999999998,8.018725585937501,0.0049346923828125,3.929809570312501
3.8570000000000313,8.8417724609375,-0.90379638671875,4.900149536132813
3.867000000000018,9.017626953125,-1.5690826416015626,6.503924560546875
3.877000000000006,6.728976440429688,-0.5417694091796875,11.071954345703126
3.887000000000001,6.629534912109375,0.757550048828125,10.345208740234376
3.896999999999995,7.550677490234375,1.26148681640625,6.057708740234375
3.9069999999999823,7.706344604492188,0.43006591796875,2.524020385742188
3.91700000000003,7.882946777343751,0.1287506103515625,1.95174560546875
3.9279999999999937,7.851992797851563,0.3552978515625,2.502188110351563
3.937999999999992,8.162429809570312,1.0175933837890625,4.556814575195313
3.947999999999979,7.494451904296875,1.2269439697265625,6.5499816894531255
3.958000000000027,7.219155883789063,0.7648773193359375,7.91405029296875
3.9680000000000177,7.727130126953125,-0.2645294189453125,8.416940307617189
3.9780000000000086,8.572308349609376,-0.9091796875,8.330807495117188
3.988,7.400543212890626,-0.7955322265625001,8.315554809570314
3.9979999999999913,5.4673400878906255,-0.4287200927734375,7.335943603515625
4.007999999999978,4.625750732421875,-0.6093597412109375,6.366201782226563
4.018000000000033,5.2090911865234375,-0.7022216796875,6.34990234375
4.028999999999996,7.381851196289063,0.185723876953125,6.0903076171875
4.038000000000011,9.163424682617189,0.73212890625,6.091503906250001
4.048000000000002,8.591748046875,0.3935791015625,5.3107757568359375
4.057999999999996,6.50302734375,0.8548980712890626,4.7839599609375005
4.06900000000002,4.287350463867188,0.6225189208984375,5.88394775390625
4.079000000000008,6.434091186523438,0.6359771728515625,7.655651855468751
4.088999999999999,12.733599853515626,0.7684661865234376,8.416641235351562
4.0989999999999895,12.9833251953125,0.29847412109375,5.839535522460938
4.1089999999999804,7.700961303710938,-0.5453582763671876,3.161941528320313
4.119000000000032,3.6697662353515614,-0.6799407958984376,6.843820190429688
4.129000000000019,4.984786987304688,-0.954638671875,11.3491943359375
4.139000000000007,5.535678100585938,-0.7255493164062501,12.520959472656251
4.1490000000000045,5.773440551757813,-0.0201873779296875,5.422030639648438
4.158999999999995,8.782107543945314,-0.0626556396484375,2.5157958984375
4.168999999999983,9.871627807617188,-0.14176025390625,3.6706634521484376
4.179000000000031,9.240286254882813,0.808392333984375,6.81944580078125
4.189999999999998,8.448342895507814,0.9583770751953126,8.052819824218751
4.199999999999992,5.668316650390626,0.684576416015625,8.778369140625001
4.20999999999998,5.623904418945313,1.006378173828125,5.40244140625
4.220000000000027,8.233010864257814,0.9903778076171876,4.320697021484375
4.230000000000018,9.350643920898438,0.33077392578125,5.009161376953125
4.2400000000000055,8.822781372070313,-0.0916656494140625,3.9458099365234376
4.25,6.9507385253906255,-0.8384490966796876,2.777334594726563
4.2599999999999945,5.493658447265625,-1.1141937255859375,6.792828369140626
4.269999999999982,6.795669555664063,-1.0733703613281251,8.292376708984376
4.28000000000003,8.566925048828125,-1.23756103515625,10.14991455078125
4.2900000000000205,8.814257812500001,-0.7778869628906251,8.13177490234375
4.300000000000011,7.686007690429688,0.494366455078125,5.539266967773438
4.310000000000002,5.4347412109375,0.232379150390625,6.067578125000001
4.319999999999997,4.698724365234376,0.113348388671875,6.954327392578126
4.329999999999984,5.826376342773438,1.3887420654296876,7.848553466796876
4.340000000000035,7.873825073242188,1.5185394287109375,6.962103271484375
4.350999999999999,8.043698120117188,0.8868988037109375,4.783660888671875
4.36099999999999,6.850399780273438,0.480609130859375,3.138015747070313
4.3700000000000045,5.3551879882812505,0.53653564453125,3.426022338867188
4.381000000000032,9.154901123046876,0.0494964599609375,8.421725463867189
4.39100000000002,13.315444946289064,0.1105072021484375,10.018472290039064
4.401000000000007,10.348199462890626,-1.3365539550781251,7.366748046875
4.411000000000001,4.168618774414063,-0.8037567138671876,4.86710205078125
4.420999999999996,4.0845794677734375,-0.625958251953125,6.617871093750001
4.430999999999983,6.446353149414063,-0.7798309326171876,10.05181884765625
4.4410000000000345,7.35538330078125,0.032598876953125,8.537466430664063
4.451000000000022,7.5760986328125,0.6802398681640626,4.348660278320313
4.461000000000013,8.148672485351563,-0.10467529296875,4.12181396484375
4.471000000000004,8.587112426757812,0.064300537109375,5.9518371582031255
4.482000000000031,7.137957763671875,1.2103454589843752,10.39874267578125
4.492000000000019,7.163079833984376,1.0981933593750002,10.343713378906251
4.502000000000006,7.757934570312501,1.0887725830078123,5.73082275390625
4.5120000000000005,7.721298217773438,0.2112945556640625,2.637069702148437
4.521999999999995,7.8030944824218755,-0.15013427734375,2.026663208007813
4.531999999999982,8.371331787109376,-0.405242919921875,3.079696655273438
4.54200000000003,7.880105590820313,-0.4059906005859375,5.155557250976563
4.552000000000017,6.759930419921876,0.2740997314453125,7.567425537109376
4.562000000000012,6.723593139648438,-0.2729034423828125,7.026702880859376
4.574999999999992,7.9804443359375,-1.5758117675781251,7.355084228515626
4.581999999999994,8.46314697265625,-0.6735107421875001,8.665469360351564
4.5919999999999845,7.591351318359376,0.0287109375,8.663375854492188
4.602000000000036,5.676092529296875,0.2304351806640625,7.0593017578125
4.612000000000023,4.969235229492188,-0.1694244384765625,5.978005981445313
4.622000000000014,5.5346313476562505,0.393878173828125,6.570019531250001
4.632000000000005,7.477554321289063,1.1953918457031252,6.562991333007813
4.643000000000033,8.7269287109375,1.2206634521484376,5.7517578125
4.65300000000002,7.876068115234376,0.7979248046875,4.609002685546876
4.663000000000011,5.703756713867188,0.8451782226562501,4.6033203125
4.675000000000011,4.316061401367188,0.3551483154296875,5.454180908203125
4.682999999999996,9.020318603515626,0.11663818359375,7.946350097656251
4.692999999999984,15.13529968261719,0.3952239990234375,8.39136962890625
4.703000000000035,12.321627807617189,-0.380718994140625,5.750711059570313
4.713000000000022,4.20555419921875,-0.9631622314453124,5.271597290039063
4.72300000000001,2.325735473632813,-0.8886932373046875,7.605407714843751
4.733000000000004,4.788595581054688,-1.3041046142578123,12.810910034179688
4.742999999999995,5.1791839599609375,-0.6652862548828126,8.9614013671875
4.752999999999986,8.195477294921876,-0.3049041748046875,3.167623901367188
4.763000000000034,9.727474975585938,-0.3467742919921875,2.530599975585938
4.775000000000034,10.643084716796876,0.3533538818359375,5.079443359375
4.783999999999995,8.372827148437501,0.8915344238281251,9.404626464843751
4.793999999999983,6.880755615234375,0.5389282226562501,11.179022216796875
4.804000000000031,5.096041870117188,0.8913848876953125,7.962799072265626
4.814000000000018,6.582431030273438,0.9224884033203126,2.58099365234375
4.824000000000012,8.808575439453126,0.2534637451171875,2.5983398437500003
4.834000000000003,9.687249755859376,0.195294189453125,4.366156005859375
4.843999999999994,7.961752319335938,0.5191894531250001,2.5863769531250003
4.853999999999985,5.753253173828125,0.189312744140625,5.761328125
4.864000000000036,7.294223022460938,-0.8411407470703126,4.98074951171875
4.875,8.058950805664063,-1.0974456787109377,9.319241333007811
4.884000000000015,8.750106811523438,-1.495361328125,10.397546386718751
4.8940000000000055,8.60072021484375,-1.0747161865234376,7.777972412109375
4.90500000000003,6.444110107421875,0.47552490234375,5.878713989257813
4.9150000000000205,4.398455810546875,0.1208251953125,6.723144531250001
4.925000000000011,4.444064331054688,0.304156494140625,6.983038330078125
4.935000000000002,6.168814086914063,1.3085906982421875,7.161434936523438
4.944999999999997,8.624795532226564,1.3253387451171876,6.415399169921876
4.954999999999984,9.14383544921875,0.8720947265625001,5.263821411132813
4.965000000000035,7.639950561523438,0.7209136962890625,3.7425903320312495
4.975000000000023,5.29178466796875,1.0981933593750002,4.417745971679688
4.985000000000014,6.212628173828126,0.54132080078125,8.051623535156251
4.9950000000000045,11.343212890625,-0.2522674560546875,9.901535034179688
5.004999999999996,12.3971435546875,-0.7408020019531251,5.938977050781251
5.014999999999986,6.7961181640625,-1.23995361328125,3.844573974609376
5.025000000000034,4.36107177734375,-0.9595733642578126,5.285055541992188
5.035000000000025,5.097088623046876,-0.9105255126953126,9.266754150390623
5.045000000000016,6.791931152343751,-0.6356781005859375,10.85318298339844
5.055999999999983,7.297213745117188,0.3285308837890625,6.608001708984376
5.0660000000000345,8.346359252929688,-0.0629547119140625,4.145590209960938
5.076000000000022,8.958709716796875,-0.2938385009765625,5.756692504882813
5.086000000000013,8.239889526367188,0.6092102050781251,7.912255859375
5.096000000000004,6.601123046875,1.1451477050781251,9.982733154296875
5.1059999999999945,6.4782043457031255,1.21363525390625,7.12210693359375
5.1159999999999854,7.111489868164063,0.6359771728515625,3.9106689453125
5.126000000000037,8.2436279296875,0.0270660400390625,2.9775634765625
5.136000000000024,8.759228515625,-0.210247802734375,2.66353759765625
5.146000000000015,9.033477783203123,0.1529754638671875,3.584979248046875
5.156000000000006,7.207043457031251,0.4975067138671875,6.692788696289063
5.165999999999993,6.9001953125,0.3213531494140625,7.295718383789063
5.175999999999991,6.981393432617188,-0.5498443603515626,7.954724121093751
5.186000000000036,7.615277099609376,-1.01923828125,8.220599365234376
5.197000000000003,7.831805419921875,-0.91396484375,7.848703002929688
5.206999999999994,6.782659912109375,-0.0255706787109375,7.135864257812501
5.216000000000008,5.719906616210938,-0.444122314453125,6.572711181640625
5.227000000000036,5.295223999023438,0.0459075927734375,6.613983154296876
5.237000000000023,6.330462646484375,0.9712371826171876,6.983337402343751
5.247000000000014,7.505667114257813,1.20406494140625,6.114382934570313
5.257000000000005,7.299008178710938,0.6416595458984375,4.680331420898438
5.266999999999996,4.989572143554688,0.5289093017578126,3.44591064453125
5.276999999999987,7.365551757812501,0.8040557861328126,4.661041259765625
5.287000000000035,14.125930786132814,1.0280609130859375,7.820739746093751
5.2970000000000255,13.991198730468753,0.65616455078125,9.313409423828126
5.307000000000016,6.1048126220703125,-0.7684661865234376,8.093493652343751
5.317000000000004,1.9266235351562504,-0.5818450927734375,6.659741210937501
5.326999999999998,3.993063354492188,-0.9416290283203126,10.034771728515626
5.336999999999993,6.064587402343751,-0.95164794921875,9.2796142578125
5.34699999999998,7.925863647460938,-0.7445404052734376,4.0113067626953125
5.358000000000004,8.676684570312501,-0.5700317382812501,2.6122467041015627
5.367999999999995,9.4267578125,-0.6036773681640626,3.757394409179688
5.377999999999986,8.368939208984376,-0.1099090576171875,8.074053955078126
5.388000000000034,7.398898315429688,0.5997894287109375,11.602359008789064
5.398000000000025,6.788491821289063,0.9343017578125,9.721194458007814
5.408000000000016,7.363009643554688,1.214532470703125,4.314865112304688
5.418000000000006,7.853189086914063,0.5471527099609376,2.7043609619140625
5.427999999999994,8.260525512695313,0.2268463134765625,3.5242675781250004
5.437999999999992,7.552621459960938,0.5196380615234375,3.3783203125
5.447999999999979,6.993804931640626,0.6990814208984375,4.478607177734375
5.458000000000027,6.4602600097656255,-0.21533203125,5.93419189453125
5.468000000000018,7.555014038085938,-0.8888427734375001,8.235403442382813
5.478000000000009,8.799603271484376,-1.618280029296875,9.125143432617188
5.4909999999999854,9.154153442382814,-1.5980926513671876,8.682666015625001
5.499000000000024,6.8296142578125005,0.5124603271484376,7.258932495117188
5.509000000000015,5.0845275878906255,-0.07476806640625,6.863110351562501
5.5190000000000055,4.521374511718751,-0.1203765869140625,6.595440673828126
5.528999999999996,5.933743286132813,0.9434234619140626,6.558505249023438
5.538999999999987,7.867993164062501,1.1641387939453125,5.636315917968751
5.549000000000035,9.298455810546876,0.9918731689453124,5.3294677734375
5.559000000000026,8.926559448242188,0.94327392578125,4.5327392578125005
5.56900000000002,6.934439086914063,1.325787353515625,5.6408020019531255
5.579000000000008,4.35509033203125,0.624761962890625,6.39835205078125
5.591000000000008,4.988226318359375,-0.3925323486328125,7.242782592773438
5.5989999999999895,11.131320190429689,-0.7385589599609376,8.457614135742189
5.6089999999999804,14.16346435546875,-0.3946258544921875,6.366500854492188
5.619000000000032,8.729022216796876,-1.1270538330078126,3.750814819335938
5.629000000000019,3.56673583984375,-0.8439819335937501,5.340832519531251
5.639999999999986,3.658999633789063,-0.6536224365234375,10.12942810058594
5.650000000000034,5.754299926757813,-0.2238555908203125,12.878201293945311
5.660000000000025,6.640451049804688,0.6540710449218751,6.493157958984376
5.670000000000016,9.456814575195311,0.194696044921875,3.146090698242188
5.680000000000003,10.404275512695314,-0.286810302734375,4.304547119140626
5.6910000000000345,8.593991088867188,0.23507080078125,6.6429931640625
5.699999999999992,6.785800170898438,0.5941070556640625,8.401837158203126
5.70999999999998,5.40782470703125,0.7895507812500001,9.600070190429689
5.720000000000027,6.586318969726563,1.131689453125,6.313116455078125
5.730000000000018,8.896054077148438,0.5112640380859376,3.486434936523438
5.7400000000000055,9.061740112304689,-0.27215576171875,3.1909515380859377
5.75,8.395108032226563,-0.409130859375,2.455831909179688
5.7599999999999945,7.160687255859376,-0.23028564453125,4.364959716796875
5.769999999999982,7.1301818847656255,0.186920166015625,6.298461914062501
5.78000000000003,7.078143310546875,-0.2011260986328125,8.18800048828125
5.790999999999993,7.399496459960938,-0.5012451171875001,8.969326782226563
5.800999999999991,8.47869873046875,-0.5194885253906251,7.799804687500001
5.811000000000036,7.866946411132813,0.0494964599609375,6.786697387695313
5.821000000000026,5.547341918945313,-0.2923431396484375,7.550079345703126
5.831000000000017,4.515841674804688,-0.0788055419921875,7.072610473632813
5.841000000000008,5.180081176757813,0.7995697021484376,7.471572875976563
5.850999999999999,7.313812255859376,1.2203643798828123,6.402688598632813
5.86099999999999,8.278619384765626,0.55926513671875,4.661938476562501
5.870999999999977,6.304144287109375,0.126806640625,3.48897705078125
5.881000000000032,6.219656372070313,0.3210540771484375,3.0997344970703127
5.89100000000002,11.2056396484375,0.8275329589843751,7.616772460937501
5.901000000000007,14.0408447265625,0.3509613037109375,10.469323730468751
5.912000000000035,8.924615478515626,-0.7774383544921876,8.453576660156251
5.9220000000000255,3.241793823242188,-0.5863311767578125,5.6093994140625005
5.932000000000016,3.576156616210938,-0.7158294677734376,7.166519165039063
5.942000000000004,6.710284423828125,-1.0902679443359375,9.242529296875
5.951999999999998,7.547537231445313,-1.0228271484375,6.133224487304688
5.961999999999993,7.300503540039063,0.1419097900390625,3.096145629882813
5.97199999999998,8.147775268554689,0.274847412109375,5.0520782470703125
5.982000000000031,8.6144775390625,1.105072021484375,8.112335205078125
5.992000000000019,7.952780151367188,1.2556549072265626,12.064276123046875
6.002000000000006,7.435086059570313,1.2164764404296875,9.849945068359377
6.0120000000000005,7.315307617187501,0.908880615234375,4.332211303710938
6.021999999999995,7.521667480468751,0.2438934326171875,2.2645751953125
6.031999999999982,8.181420898437501,0.0647491455078125,2.7031646728515626
6.04200000000003,7.883096313476563,0.0823944091796875,3.502584838867188
6.052999999999994,7.383944702148438,-0.27335205078125,4.4015960693359375
6.062999999999992,6.562991333007813,-0.585882568359375,5.9874267578125
6.072999999999979,7.374075317382813,-0.8791229248046876,6.882400512695313
6.083000000000027,8.713919067382813,-1.52646484375,9.138900756835938
6.093000000000018,8.633468627929688,-1.681982421875,9.347503662109377
6.103000000000009,7.254895019531251,0.3811676025390625,8.169308471679688
6.113,5.526257324218751,0.63642578125,6.811221313476563
6.122999999999991,4.9409729003906255,0.2583984375,6.55985107421875
6.132999999999978,5.565585327148438,0.9604705810546876,5.973519897460938
6.143000000000033,7.261624145507813,1.2092987060546876,5.713925170898438
6.15300000000002,8.791827392578126,1.1840270996093751,5.589062500000001
6.163999999999987,9.093142700195314,1.1390167236328126,5.045947265625
6.173000000000002,6.865802001953125,0.9366943359375,5.775234985351563
6.182999999999996,4.81207275390625,-0.072674560546875,6.0479888916015625
6.19400000000002,5.487826538085938,-0.5656951904296875,7.002777099609376
6.204000000000008,10.82447204589844,-1.102978515625,8.579336547851563
6.213999999999999,13.607638549804689,-0.5414703369140625,6.325228881835938
6.2239999999999895,8.515036010742188,-1.088623046875,4.071868896484375
6.2339999999999804,3.5513336181640627,-0.6933990478515626,5.445806884765625
6.244000000000032,3.928314208984376,-0.2352203369140625,9.159088134765623
6.254000000000019,6.205899047851563,-0.15372314453125,11.109487915039065
6.264000000000007,7.298110961914063,0.997705078125,7.5862670898437505
6.2740000000000045,8.930895996093751,0.3361572265625,3.878369140625
6.283999999999995,9.486123657226564,-0.1511810302734375,5.6141845703125
6.293999999999983,8.888278198242189,0.6089111328125001,7.23037109375
6.304000000000031,6.037521362304688,0.923834228515625,9.73465270996094
6.314000000000018,5.325430297851563,0.6951934814453126,7.981939697265625
6.324000000000012,6.874325561523438,0.8874969482421876,4.743136596679688
6.334000000000003,9.056506347656253,0.03409423828125,3.164633178710938
6.345000000000027,9.734054565429688,-0.5226287841796875,2.8912811279296875
6.355000000000018,7.92601318359375,-0.6844268798828126,2.6983795166015625
6.3650000000000055,7.66103515625,-0.6971374511718751,5.786300659179688
6.375,6.271844482421876,0.3386993408203125,7.452133178710938
6.3849999999999945,7.556210327148438,-0.1084136962890625,7.656399536132813
6.394999999999982,7.392468261718751,-0.2426971435546875,8.124298095703125
6.40500000000003,8.554812622070314,-0.3291290283203125,6.959710693359376
6.4150000000000205,7.3230834960937505,0.1876678466796875,6.644638061523438
6.425000000000011,5.511602783203125,-0.09749755859375,7.189099121093751
6.435000000000002,4.761380004882813,-0.122021484375,7.435983276367188
6.444999999999997,5.663830566406251,0.7553070068359375,7.911807250976563
6.454999999999984,7.439871215820313,1.4774169921875,7.195379638671875
6.465000000000035,8.467483520507812,0.63343505859375,5.120266723632813
6.475999999999999,7.034179687500001,-0.0886749267578125,4.0602050781250005
6.485000000000014,5.249017333984376,-0.0610107421875,3.107809448242188
6.495999999999977,7.927658081054688,0.0418701171875,6.30504150390625
6.506000000000032,13.293313598632814,0.6790435791015625,9.101217651367188
6.51600000000002,12.040499877929689,-0.5908172607421875,8.003771972656251
6.526000000000007,5.3835998535156255,-0.4819549560546875,5.883349609375
6.536000000000001,3.175100708007813,-0.6480895996093751,6.525607299804688
6.545999999999996,5.577099609375001,-1.0220794677734375,9.819140625
6.555999999999983,7.182818603515625,-1.1058197021484375,8.958859252929688
6.5660000000000345,7.300204467773438,0.15970458984375,3.930108642578125
6.576000000000022,7.899395751953126,0.41690673828125,3.5631469726562504
6.586000000000013,8.9661865234375,0.689361572265625,6.798361206054688
6.59699999999998,8.408865356445313,1.406985473632813,9.397448730468753
6.607000000000031,7.103564453125,1.05751953125,10.838079833984375
6.617000000000019,6.670358276367188,0.8931793212890625,6.816006469726563
6.627000000000006,7.291830444335938,0.530853271484375,2.984591674804688
6.6370000000000005,8.186355590820312,0.0300567626953125,3.360525512695313
6.646999999999995,8.739938354492189,-0.0886749267578125,3.4957061767578126
6.656999999999982,8.496194458007814,-0.1266571044921875,3.71806640625
6.66700000000003,6.454129028320313,-0.5866302490234375,5.477059936523438
6.677000000000017,6.567477416992188,-0.7777374267578125,6.233114624023438
6.687000000000012,7.652810668945313,-1.1571105957031251,7.793823242187501
6.697000000000003,8.885137939453125,-1.5852325439453123,9.15400390625
6.706999999999994,7.908966064453126,-0.213836669921875,8.10904541015625
6.7169999999999845,6.824679565429688,1.1266052246093752,6.734957885742188
6.727000000000036,5.207296752929688,0.177947998046875,6.724938964843751
6.737000000000023,5.182473754882813,0.4918243408203125,6.8619140625
6.747000000000014,6.298611450195313,1.13348388671875,6.72733154296875
6.757999999999978,8.023660278320314,1.4032470703125002,6.203955078125
6.766999999999996,8.799603271484376,0.9872375488281252,5.695681762695313
6.77800000000002,7.899844360351563,0.4708892822265625,4.842279052734376
6.790999999999993,5.743084716796876,0.1517791748046875,5.17095947265625
6.798000000000002,4.42626953125,-0.3386993408203125,5.9687347412109375
6.807999999999996,8.184262084960938,-1.0712768554687502,7.987472534179688
6.817999999999984,13.803829956054688,-0.61309814453125,7.802795410156251
6.828000000000035,11.977096557617188,-0.9317596435546877,5.38031005859375
6.838000000000022,4.932000732421876,-1.01505126953125,4.866802978515626
6.84800000000001,3.0995849609375004,-0.29727783203125,7.39366455078125
6.858000000000004,5.088116455078126,-0.06280517578125,10.835986328125
6.867999999999995,6.860867309570313,1.033294677734375,9.183163452148438
6.877999999999986,7.595089721679688,0.9183013916015624,3.4704345703125004
6.889999999999986,9.315203857421876,0.043963623046875,3.9845397949218753
6.8990000000000045,9.74676513671875,0.1146942138671875,6.987075805664063
6.908999999999995,7.9077697753906255,0.728240966796875,9.335540771484377
6.918999999999983,5.523565673828125,0.7822235107421875,10.571157836914065
6.929000000000031,5.784954833984376,0.677099609375,6.5380187988281255
6.939000000000018,7.838684082031251,0.4529449462890625,3.399554443359375
6.949000000000012,9.56119079589844,-0.2729034423828125,3.2808227539062504
6.959000000000003,9.074002075195311,-0.6343322753906251,2.62286376953125
6.968999999999994,7.231417846679688,-0.5893218994140625,3.2718505859375004
6.978999999999985,6.8320068359375,-0.3467742919921875,5.233465576171875
6.9909999999999854,7.463946533203125,0.048748779296875,7.358822631835938
6.999000000000024,7.569519042968751,-0.3096893310546875,9.214117431640624
7.009000000000015,8.241235351562501,-0.1087127685546875,8.091400146484375
7.0190000000000055,8.554513549804689,0.3240447998046875,6.449493408203126
7.028999999999996,6.306387329101563,-0.1051239013671875,7.331307983398438
7.038999999999987,4.64578857421875,-0.15252685546875,7.245175170898438
7.050000000000011,4.792333984375,0.203070068359375,7.742681884765625
7.060000000000002,6.234609985351563,1.045556640625,7.307830810546876
7.069999999999997,8.351742553710938,1.1191284179687502,5.770449829101563
7.079999999999984,7.863955688476563,0.06998291015625,4.514346313476563
7.090000000000035,6.163281250000001,-0.2758941650390625,3.4898742675781254
7.100000000000023,5.776431274414063,-0.3482696533203125,4.360174560546875
7.110000000000014,11.129974365234377,0.5070770263671875,8.816500854492189
7.1200000000000045,14.288027954101564,0.222509765625,9.019869995117189
7.129999999999996,8.888726806640626,-0.8106353759765625,6.722695922851563
7.139999999999986,2.935842895507813,-0.602630615234375,5.280270385742188
7.150000000000034,3.684420776367188,-0.5864807128906251,7.772439575195313
7.160000000000025,6.882550048828126,-0.9748260498046876,10.161578369140626
7.170000000000016,7.373477172851563,-0.332568359375,6.3047424316406255
7.180000000000003,7.380654907226563,0.5281616210937501,3.020330810546876
7.1910000000000345,8.601766967773438,0.6171356201171876,5.313168334960938
7.201000000000022,9.45008544921875,1.8623229980468752,8.789584350585939
7.211000000000013,7.3470092773437505,1.6486358642578127,11.877505493164064
7.221000000000004,6.397155761718751,0.7424468994140625,8.861660766601563
7.230999999999994,6.675292968750001,0.41331787109375,3.353347778320313
7.2409999999999854,7.84227294921875,0.0432159423828125,2.4502990722656253
7.251000000000037,9.040655517578124,-0.085833740234375,3.1940917968750004
7.261000000000024,8.420529174804688,-0.37384033203125,4.087719726562501
7.271000000000015,7.468582153320313,-0.4689453125,4.63621826171875
7.281000000000006,6.215170288085938,-0.64300537109375,5.682373046875
7.290999999999993,7.201361083984375,-1.072024536132813,7.373776245117188
7.300999999999991,8.632122802734376,-1.7132354736328126,8.886782836914064
7.3110000000000355,8.921923828125001,-1.225,8.708535766601564
7.321000000000026,7.288241577148438,1.0563232421875002,6.767855834960938
7.331000000000017,5.4493957519531255,0.7705596923828125,6.387585449218751
7.341999999999984,4.856634521484375,0.3605316162109375,6.700115966796876
7.352000000000036,5.584576416015626,0.8885437011718751,7.344168090820313
7.362000000000023,7.30513916015625,1.5840362548828126,6.956869506835938
7.372000000000014,8.835491943359376,1.1092590332031251,5.774188232421875
7.382000000000005,8.863754272460938,0.690557861328125,5.145837402343751
7.391999999999996,7.231417846679688,0.20576171875,5.1492767333984375
7.401999999999987,5.255148315429688,-0.2232574462890625,6.332257080078126
7.412000000000035,4.580291748046875,-0.9398345947265626,6.091802978515625
7.4220000000000255,9.15699462890625,-1.2332244873046876,7.422674560546875
7.432000000000016,13.434027099609375,-0.9175537109375,6.384893798828125
7.442000000000004,10.204794311523438,-0.9556854248046877,4.302005004882813
7.451999999999998,4.989871215820313,-0.720465087890625,5.585025024414063
7.461999999999993,3.5739135742187504,0.304754638671875,9.060693359375
7.47300000000001,6.456671142578125,0.478814697265625,12.085958862304688
7.483000000000004,6.864306640625,1.5140533447265625,8.697619628906251
7.492999999999995,8.093344116210938,0.63343505859375,4.0142974853515625
7.502999999999986,8.968130493164063,0.1885650634765625,4.452288818359375
7.513000000000034,8.947943115234375,0.4711883544921875,6.856979370117188
7.523000000000025,7.211380004882813,1.0316497802734377,8.168112182617188
7.533000000000015,5.588763427734375,0.6567626953125001,9.166714477539063
7.543000000000006,6.6645263671875,0.6329864501953125,5.763421630859376
7.552999999999994,8.685208129882813,-0.0506927490234375,3.6636352539062496
7.562999999999992,9.212472534179687,-0.6969879150390625,3.2265411376953126
7.572999999999979,8.61148681640625,-0.8059997558593751,2.940478515625
7.583000000000027,7.780364990234376,-1.29737548828125,4.047494506835938
7.593000000000018,6.689349365234375,0.0035888671875,7.2830078125
7.603000000000009,7.055413818359376,-0.16209716796875,7.057058715820313
7.614000000000036,7.290484619140625,-0.2561553955078125,7.939920043945313
7.624000000000024,7.9146484375,0.485693359375,7.98941650390625
7.6340000000000146,7.969229125976563,0.6006866455078126,7.3455139160156255
7.644000000000005,5.9014434814453125,0.350811767578125,7.508209228515626
7.653999999999996,5.0580596923828125,0.2169769287109375,7.229324340820313
7.663999999999987,5.230325317382813,0.3404937744140625,7.341925048828125
7.674000000000035,7.019226074218751,1.254608154296875,6.9911132812500005
7.684000000000026,8.046240234375,0.4342529296875,4.779324340820313
7.69400000000002,7.169659423828126,-0.08553466796875,3.973623657226563
7.706999999999994,5.5919036865234375,-0.6850250244140625,3.26646728515625
7.713999999999999,8.553167724609375,-0.9574798583984376,5.8954620361328125
7.723999999999989,13.328454589843751,0.8146728515625,8.949139404296876
7.7339999999999804,11.233004760742189,-1.097894287109375,8.966635131835938
7.744000000000032,5.278924560546876,-1.0753143310546875,6.956869506835938
7.754000000000019,3.0188354492187504,-0.292791748046875,6.836642456054688
7.764999999999986,5.801702880859375,-0.6593048095703126,9.183163452148438
7.775000000000034,7.589855957031251,-0.1999298095703125,8.214468383789063
7.785000000000025,7.290036010742188,0.7373626708984375,3.958071899414063
7.795000000000016,7.614678955078125,0.7731018066406251,4.276434326171875
7.807000000000016,8.869735717773438,1.6469909667968752,6.632974243164063
7.814999999999998,7.911209106445313,2.0846832275390628,9.760671997070313
7.824999999999992,7.043899536132813,1.0606597900390626,10.656842041015626
7.8349999999999795,7.129434204101563,0.7790832519531251,6.333453369140625
7.845000000000027,8.070614624023438,0.192901611328125,3.1848205566406254
7.855000000000018,7.934237670898438,-0.2356689453125,2.5392730712890628
7.865000000000005,8.835342407226562,-0.47672119140625,3.083734130859375
7.875,7.510452270507813,-1.092959594726563,5.24871826171875
7.884999999999994,6.57779541015625,-0.9005065917968751,5.902340698242188
7.894999999999982,6.411212158203125,-0.9725830078125,5.628240966796875
7.906000000000006,8.056109619140626,-1.4392852783203125,7.410113525390625
7.915999999999993,8.897998046875001,-1.9016510009765624,9.069216918945314
7.925999999999991,8.215664672851563,0.4840484619140625,8.408715820312501
7.9360000000000355,6.211431884765625,1.5153991699218752,7.113134765625
7.946000000000026,5.1787353515625005,0.8329162597656251,6.682470703125
7.956000000000017,5.263821411132813,0.7064086914062501,6.900344848632813
7.966000000000008,6.486578369140625,1.41700439453125,6.904531860351563
7.975999999999999,8.253945922851564,1.4342010498046875,5.80020751953125
7.98599999999999,8.742031860351563,0.8865997314453126,5.397357177734375
7.995999999999977,8.292376708984376,0.5688354492187501,5.128192138671875
8.007000000000005,5.982492065429688,-0.05682373046875,6.0807373046875
8.01600000000002,4.9179443359375,-0.75784912109375,6.253451538085938
8.026000000000007,5.741140747070313,-0.8028594970703126,6.452035522460938
8.036000000000001,10.858865356445314,-1.4223876953125,7.136013793945313
8.047000000000025,14.08914489746094,-1.20406494140625,5.763720703125
8.057000000000016,9.57315368652344,-1.060061645507813,4.6154327392578125
8.067000000000004,3.36336669921875,-0.4499542236328125,6.238049316406251
8.076999999999998,2.954086303710937,0.2021728515625,9.43094482421875
8.086999999999993,5.757440185546876,0.9727325439453126,12.045584106445313
8.09699999999998,7.187753295898438,1.241448974609375,7.038217163085938
8.107000000000031,9.064581298828124,0.3817657470703125,3.404489135742188
8.117000000000019,10.060791015625,0.21353759765625,4.72952880859375
8.127000000000006,8.712573242187501,0.5194885253906251,7.663427734375
8.137,6.389529418945313,0.7001281738281251,10.490408325195313
8.146999999999995,5.042807006835938,0.4756744384765625,9.16297607421875
8.156999999999982,6.6262451171875005,0.5785552978515626,5.103070068359376
8.16700000000003,9.074899291992187,-0.0004486083984375,2.9579742431640628
8.177000000000017,9.752896118164063,-0.6999786376953125,3.088668823242188
8.187999999999992,7.953079223632813,-0.7158294677734376,2.198779296875
8.197999999999979,7.020272827148438,-0.7822235107421875,4.748220825195313
8.208000000000027,7.492657470703126,-0.3410919189453125,5.64708251953125
8.218000000000018,7.824627685546876,0.012860107421875,8.206842041015626
8.228000000000009,7.484881591796875,0.3090911865234375,8.190542602539063
8.238,8.825323486328125,0.7871582031250001,6.085223388671875
8.24799999999999,7.773037719726563,0.44442138671875,7.332504272460938
8.257999999999978,5.535977172851563,0.0925628662109375,8.100372314453125
8.268000000000033,4.299761962890625,-0.265277099609375,7.779617309570313
8.27800000000002,4.6134887695312505,0.3620269775390625,7.3574768066406255
8.288000000000011,6.941018676757813,1.125857543945313,7.35478515625
8.298000000000002,8.902633666992188,0.6518280029296876,5.848358154296875
8.307999999999996,8.242282104492189,-0.0922637939453125,4.7425384521484375
8.317999999999984,5.572015380859376,-0.142059326171875,3.678439331054688
8.329000000000008,5.428610229492188,-0.3826629638671875,4.00218505859375
8.338999999999999,11.229714965820314,0.1493865966796875,8.03128662109375
8.34899999999999,14.450274658203126,0.6177337646484375,8.538662719726563
8.35899999999998,9.59244384765625,-0.263482666015625,7.186257934570313
8.369000000000032,3.1954376220703127,-0.5890228271484376,5.798114013671875
8.379000000000019,3.2353637695312503,-0.8167663574218751,7.597183227539063
8.389000000000006,5.623904418945313,-1.02103271484375,9.704446411132814
8.399000000000004,6.825576782226563,-0.622967529296875,6.785650634765625
8.408999999999995,8.268899536132814,0.161199951171875,3.67978515625
8.418999999999983,9.702502441406253,0.2833709716796875,5.47720947265625
8.42900000000003,9.25269775390625,0.8142242431640626,8.892315673828126
8.439000000000018,7.238446044921876,0.6129486083984376,10.319039916992187
8.449000000000012,5.786599731445313,0.6045745849609375,9.239688110351564
8.459000000000003,6.360818481445313,0.7868591308593751,4.6236572265625
8.468999999999994,8.228076171875001,0.4158599853515625,2.932403564453125
8.480000000000018,9.108395385742188,0.0115142822265625,3.595895385742188
8.490000000000006,8.4828857421875,0.0321502685546875,2.691650390625
8.5,6.862811279296875,0.04007568359375,3.9565765380859377
8.509999999999994,6.989169311523438,-0.308642578125,5.179483032226563
8.519999999999982,7.530490112304688,-0.7657745361328125,8.293872070312501
8.53000000000003,8.447445678710938,-1.1435028076171876,9.15101318359375
8.54000000000002,9.091796875,-1.2788330078125,8.058502197265625
8.550000000000011,7.286297607421876,0.8978149414062501,6.491363525390626
8.560000000000002,5.390478515625,0.22789306640625,6.7721923828125
8.569999999999997,4.738052368164063,0.0396270751953125,6.834249877929688
8.579999999999984,5.35040283203125,0.702520751953125,7.872329711914063
8.591000000000008,7.0449462890625005,1.34462890625,7.046890258789063
8.600000000000023,8.866595458984376,0.97916259765625,5.660241699218751
8.61099999999999,8.717507934570314,0.5284606933593751,5.106509399414063
8.620999999999977,8.312265014648439,0.48629150390625,5.809329223632813
8.631000000000032,6.074456787109376,0.3261383056640625,7.228576660156251
8.64100000000002,4.740744018554688,-0.5854339599609375,6.079241943359375
8.651000000000007,4.285107421875001,-0.7206146240234376,4.675396728515626
8.661000000000001,10.216159057617189,-1.0832397460937502,5.624353027343751
8.670999999999996,14.970062255859377,-0.6984832763671875,5.253503417968751
8.680999999999983,11.12234802246094,-0.9174041748046876,4.50462646484375
8.691000000000034,4.412661743164063,-0.1495361328125,7.856628417968751
8.701000000000022,3.577801513671876,-0.007476806640625,12.236990356445313
8.711000000000013,4.903887939453125,0.2217620849609375,15.776510620117188
8.721000000000004,4.85513916015625,1.015200805664063,5.342477416992188
8.730999999999995,8.882296752929689,0.4127197265625,2.9854888916015625
8.740999999999985,9.40686950683594,0.0357391357421875,2.4486541748046875
8.752000000000006,9.059796142578126,0.7840179443359375,4.4804016113281255
8.762,7.509255981445313,1.538128662109375,7.322933959960938
8.771999999999995,7.363607788085938,0.6075653076171875,8.463595581054689
8.781999999999982,6.699069213867188,0.1093109130859375,8.608197021484376
8.79200000000003,7.985528564453125,-0.374737548828125,4.674798583984376
8.802000000000017,8.894110107421875,-0.39656982421875,3.7174682617187504
8.812000000000012,9.074301147460938,-0.7188201904296876,3.4898742675781254
8.822000000000003,7.514340209960938,-0.6030792236328125,2.7749420166015626
8.831999999999994,5.3825531005859375,-0.0148040771484375,6.149374389648438
8.841999999999985,5.913555908203126,-0.18123779296875,7.133023071289063
8.852000000000036,7.484432983398438,-0.4861419677734375,8.914297485351563
8.862000000000023,9.120956420898438,0.5701812744140625,9.852786254882814
8.872000000000014,8.678778076171875,0.9585266113281252,7.979696655273438
8.882000000000005,6.006866455078125,0.423187255859375,7.028198242187501
8.893000000000033,4.488626098632813,-0.2310333251953125,6.539813232421875
8.90300000000002,5.056564331054688,0.6286499023437501,6.868942260742188
8.913000000000011,7.050180053710938,1.1783447265625,6.2314697265625005
8.923000000000002,7.472918701171875,0.3632232666015625,4.001437377929688
8.932999999999996,6.136663818359375,-0.26258544921875,2.552880859375
8.942999999999984,7.094891357421876,-0.6712677001953126,2.7103424072265625
8.953000000000035,13.421017456054688,0.0011962890625,8.315255737304689
8.963000000000022,13.353576660156252,0.493170166015625,12.216204833984376
8.97300000000001,7.370635986328126,-1.0187896728515626,8.864651489257813
8.983000000000004,2.0577667236328128,-0.5764617919921875,5.631680297851563
8.992999999999995,3.5792968750000003,-0.5564239501953125,7.0389648437500005
9.002999999999986,6.865652465820313,-0.8421875000000001,8.506512451171876
9.01400000000001,7.805636596679688,-0.2394073486328125,4.801007080078126
9.023000000000025,8.352490234375,0.5662933349609376,4.126150512695313
9.033999999999992,8.661282348632813,1.0011444091796875,5.970379638671876
9.043999999999984,8.609393310546876,1.7253479003906251,8.989364624023438
9.05400000000003,6.546243286132813,1.06051025390625,12.005358886718753
9.06400000000002,7.217361450195313,0.8614776611328125,9.097628784179689
9.074000000000012,7.969677734375001,0.6820343017578125,3.678439331054688
9.084000000000003,8.245870971679688,0.0285614013671875,2.4002044677734378
9.093999999999994,8.273086547851562,-0.177947998046875,1.977316284179688
9.103999999999983,6.947897338867188,-0.4547393798828125,2.9173004150390627
9.114000000000033,6.398800659179688,-0.877178955078125,5.703158569335938
9.124000000000024,7.511349487304688,-0.7624847412109376,4.850653076171875
9.134000000000016,8.127737426757813,-1.110903930664063,8.488418579101562
9.144000000000004,9.26809997558594,-1.6226165771484375,8.720498657226564
9.153999999999996,8.983831787109375,-1.1481384277343751,8.60849609375
9.163999999999987,6.267507934570313,0.923834228515625,7.334298706054688
9.175000000000011,4.735659790039063,0.7253997802734375,7.029544067382813
9.185000000000002,4.6643310546875005,0.5553771972656251,7.025656127929688
9.194999999999991,5.941818237304688,1.197186279296875,7.046591186523438
9.208000000000029,7.821487426757813,1.2631317138671876,5.721102905273438
9.215000000000032,8.592047119140625,0.884954833984375,5.249615478515626
9.225000000000025,8.682366943359376,0.8152709960937501,5.108303833007813
9.235000000000014,6.712228393554688,0.7671203613281251,5.887686157226563
9.245000000000005,5.2943267822265625,-0.2343231201171875,7.102517700195313
9.254999999999995,5.454928588867188,-0.887945556640625,6.424221801757813
9.264999999999986,10.523306274414065,-1.2596923828125002,7.208389282226563
9.275000000000034,13.170993041992189,-1.0005462646484375,5.441021728515626
9.285000000000023,9.491656494140626,-1.3881439208984376,3.92442626953125
9.295000000000016,4.074560546875,-0.7061096191406251,6.317453002929688
9.307000000000016,4.171310424804688,0.1828826904296875,10.010546875
9.316000000000038,6.301303100585938,0.44202880859375,11.853878784179688
9.326000000000022,6.562542724609376,1.30634765625,7.649520874023438
9.336000000000013,8.294021606445312,0.5802001953125,3.716720581054688
9.346000000000004,9.355429077148438,0.4364959716796875,5.223297119140625
9.355999999999996,8.893362426757813,1.0872772216796875,7.219155883789063
9.365999999999984,6.928009033203126,1.3926300048828126,8.119512939453125
9.376000000000031,5.628390502929688,0.6847259521484376,8.72991943359375
9.386000000000024,6.731518554687501,0.4975067138671875,5.1476318359375
9.396000000000017,8.772238159179688,-0.33197021484375,3.5517822265625
9.408000000000015,8.657693481445314,-0.7692138671875001,3.344076538085938
9.415999999999997,8.925363159179689,-0.9679473876953124,2.97576904296875
9.425999999999988,7.665521240234375,-1.1943450927734376,4.819100952148438
9.436000000000035,6.496896362304688,-0.3792236328125,7.333102416992188
9.446000000000026,6.6800781250000005,-0.2358184814453125,7.141247558593751
9.456000000000016,7.678082275390626,-0.5266662597656251,7.748364257812501
9.466999999999985,8.690740966796875,0.5549285888671875,8.363555908203125
9.477000000000032,7.605557250976563,0.8508605957031251,7.694381713867188
9.487000000000023,5.593099975585938,0.5674896240234375,6.841128540039063
9.497000000000014,4.700817871093751,0.0892730712890625,6.509158325195313
9.50799999999998,5.376870727539063,0.616986083984375,7.194631958007813
9.516999999999996,7.536621093750001,1.3543487548828126,7.255642700195313
9.526999999999989,8.487969970703126,0.6805389404296875,5.4562744140625
9.537000000000036,7.198669433593751,-0.09510498046875,3.973623657226563
9.547000000000024,5.2026611328125005,-0.3407928466796875,2.78795166015625
9.557000000000016,6.829763793945313,-0.7197174072265625,5.889779663085938
9.567000000000007,13.17652587890625,0.6296966552734375,9.259875488281253
9.576999999999998,13.498776245117188,-0.3787750244140625,9.219201660156251
9.586999999999987,6.9193359375000005,-1.383209228515625,6.733013916015626
9.59699999999998,2.2461822509765628,-0.5316009521484375,5.404833984375
9.608000000000004,3.916201782226562,-0.8121307373046875,7.986276245117188
9.617999999999997,6.774285888671876,-0.8647674560546875,9.685604858398438
9.627999999999986,7.814758300781251,-0.0171966552734375,5.717813110351563
9.638000000000034,8.708535766601564,0.6314910888671875,3.986782836914063
9.648000000000025,9.084918212890626,0.6886138916015625,6.1208129882812505
9.658000000000015,8.229721069335938,1.5805969238281252,8.570663452148438
9.668000000000006,6.8655029296875005,1.19808349609375,10.531082153320312
9.677999999999995,6.340780639648438,0.9948638916015624,8.47391357421875
9.687999999999988,7.273587036132813,0.8388977050781251,3.739599609375
9.69799999999998,8.372528076171875,0.1882659912109375,2.872140502929688
9.708000000000029,8.938522338867188,-0.12860107421875,2.74010009765625
9.718000000000018,7.875021362304688,-0.2740997314453125,3.1354736328125004
9.728000000000009,7.003524780273438,-0.7556060791015625,4.8920745849609375
9.739000000000033,6.48448486328125,-0.765625,6.600973510742188
9.749000000000024,7.851394653320313,-1.1285491943359376,7.977902221679688
9.759000000000016,8.691787719726562,-1.50313720703125,8.784500122070312
9.769000000000004,8.652908325195312,-1.3166656494140625,7.994201660156251
9.778999999999996,6.612637329101563,0.7532135009765626,6.6764892578125
9.788999999999987,5.158847045898438,1.0154998779296875,6.826922607421875
9.799000000000037,4.9683380126953125,0.6359771728515625,7.055862426757813
9.809000000000026,5.988922119140625,1.0971466064453126,7.572509765625001
9.819000000000017,7.641296386718751,1.3166656494140625,6.417642211914063
9.829000000000008,8.911605834960938,1.0114624023437502,5.348159790039063
9.839,8.22987060546875,0.6030792236328125,4.733416748046875
9.84899999999999,6.860418701171875,0.8261871337890626,4.750613403320313
9.85899999999998,5.116976928710938,-0.0465057373046875,6.260330200195313
9.869000000000028,6.417343139648438,-0.871197509765625,7.5162841796875
9.879999999999995,10.980438232421877,-1.2427947998046875,7.855581665039063
9.889999999999986,12.332095336914064,-0.753662109375,5.640652465820313
9.900000000000034,7.69034423828125,-1.164886474609375,4.747772216796875
9.910000000000023,4.493560791015625,-0.3467742919921875,7.387234497070313
9.920000000000016,4.790240478515625,-0.0037384033203125,10.039108276367188
9.930000000000009,6.276181030273438,0.2848663330078125,9.509451293945313
9.939999999999998,6.862811279296875,0.6500335693359376,5.046395874023438
9.949999999999989,8.505764770507813,0.2654266357421875,3.987380981445313
9.95999999999998,9.726129150390626,0.23865966796875,7.0018798828125
9.970000000000027,8.734255981445314,1.0204345703125002,7.712176513671875
9.980000000000018,6.110345458984376,1.086529541015625,9.730166625976564
9.990000000000007,5.88634033203125,0.7879058837890626,7.420132446289063
10.0,7.510751342773438,0.11424560546875,4.417147827148438
10.009999999999998,8.585617065429688,-0.309539794921875,3.5465484619140626
10.019999999999982,9.01044921875,-0.552685546875,3.042013549804688
10.031000000000006,8.433987426757813,-0.86671142578125,2.4012512207031254
10.040999999999997,6.767855834960938,-0.3002685546875,6.189450073242188
10.050999999999988,6.392669677734376,0.0052337646484375,6.806884765625001
10.061000000000035,7.616622924804688,-0.212640380859375,7.83389892578125
10.071000000000026,7.8572265625,-0.037982177734375,8.702853393554689
10.081000000000016,8.554064941406251,0.1179840087890625,8.419332885742188
10.091000000000008,6.912008666992188,0.4535430908203125,6.739593505859376
10.101,5.328421020507813,-0.213836669921875,6.362164306640626
10.11099999999999,4.721752929687501,0.04007568359375,6.821389770507813
10.12099999999998,5.930004882812501,1.1563629150390626,7.035076904296876
10.131000000000029,7.099377441406251,0.94327392578125,5.3237854003906255
10.14100000000002,6.554916381835938,0.24703369140625,3.67440185546875
10.15100000000001,6.338238525390626,-0.483001708984375,4.0243164062500005
10.161,11.63809814453125,0.01854248046875,6.830212402343751
10.172000000000024,14.164361572265626,0.8839080810546875,9.372775268554689
10.182000000000016,9.23953857421875,-0.6709686279296876,9.056805419921876
10.192000000000007,3.0831359863281254,-0.7035675048828125,6.4731201171875
10.201999999999998,3.028704833984375,-0.4511505126953125,6.761874389648438
10.211999999999987,6.464596557617188,-0.690557861328125,8.107400512695314
10.226,7.849899291992188,-0.5923126220703125,5.737103271484376
10.232000000000028,8.389425659179688,0.3680084228515625,4.943215942382813
10.24200000000002,8.947494506835938,0.672314453125,6.011801147460938
10.25200000000001,8.205795288085938,1.0643981933593751,8.334695434570314
10.262,6.124401855468751,0.5921630859375,11.143881225585938
10.271999999999998,6.935037231445313,0.874188232421875,8.810369873046875
10.281999999999982,8.22867431640625,0.8743377685546876,4.630087280273438
10.29200000000003,8.297311401367189,0.179742431640625,2.898458862304688
10.30200000000002,8.132672119140626,-0.0291595458984375,1.8938751220703127
10.312000000000012,7.292279052734376,-0.1302459716796875,2.64439697265625
10.324999999999989,7.332504272460938,-0.5135070800781251,5.145986938476563
10.333000000000029,6.839483642578125,-0.8426361083984376,6.952832031250001
10.343000000000018,7.621109008789063,-0.8335144042968751,7.48458251953125
10.353000000000009,8.691488647460938,-1.047650146484375,7.865151977539063
10.363,8.97755126953125,-1.0588653564453123,8.477053833007814
10.37299999999999,6.902587890625001,0.4678985595703125,7.601968383789063
10.38299999999998,5.066134643554688,0.5028900146484375,6.838885498046875
10.393000000000027,4.7051544189453125,0.3814666748046875,7.049880981445313
10.40300000000002,5.738299560546875,0.9069366455078126,7.060498046875001
10.413000000000013,7.58507080078125,1.194644165039063,6.108551025390625
10.425000000000011,8.663973999023439,0.9628631591796876,5.560800170898438
10.432999999999993,8.704647827148438,0.7826721191406251,5.188305664062501
10.444000000000017,6.835745239257813,0.69384765625,5.352944946289063
10.453000000000038,5.1492767333984375,-0.153125,6.126794433593751
10.464,5.759982299804688,-0.8620758056640626,6.89481201171875
10.47399999999999,10.665963745117187,-0.9870880126953124,7.645782470703126
10.48399999999998,12.633261108398438,-0.520086669921875,5.879162597656251
10.494000000000028,8.378509521484375,-1.11673583984375,4.252508544921875
10.50400000000002,4.404138183593751,-0.5151519775390625,6.327770996093751
10.51400000000001,4.7545013427734375,0.224005126953125,10.018472290039064
10.525000000000034,6.83739013671875,0.27574462890625,11.264556884765623
10.533999999999992,6.89720458984375,1.1541198730468751,6.753051757812501
10.543999999999984,8.023660278320314,0.3189605712890625,3.792984008789063
10.55400000000003,8.674142456054689,0.1365264892578125,5.7720947265625
10.56400000000002,8.774032592773438,0.7838684082031251,7.526602172851563
10.574000000000012,6.388034057617188,1.3343109130859376,9.690240478515626
10.584000000000003,6.395510864257813,0.7572509765625001,7.49893798828125
10.593999999999994,7.567575073242188,0.1963409423828125,4.122561645507813
10.605000000000018,8.250057983398438,-0.366064453125,3.392974853515625
10.615000000000007,9.104507446289062,-0.5782562255859376,2.778680419921875
10.625,8.6934326171875,-0.936993408203125,3.230728149414063
10.634999999999998,7.228576660156251,-0.3683074951171875,6.741537475585938
10.644999999999982,6.331509399414063,0.0444122314453125,7.15201416015625
10.65500000000003,7.010104370117188,-0.5610595703125001,6.525457763671875
10.66500000000002,7.739242553710938,-0.4412811279296875,7.511648559570313
10.675000000000011,8.355181884765626,0.1463958740234375,8.529690551757813
10.685000000000002,7.440170288085938,0.3937286376953125,7.6478759765625
10.694999999999991,5.631231689453125,0.0222808837890625,6.66751708984375
10.704999999999984,4.779623413085938,0.0234771728515625,6.840530395507813
10.715000000000032,5.68955078125,0.7602416992187501,7.258334350585938
10.726,7.716513061523438,1.3275817871093751,6.653909301757813
10.735000000000014,7.9720703125,0.596051025390625,5.014843750000001
10.74599999999998,6.277825927734376,0.066693115234375,3.6495788574218753
10.756000000000029,5.194137573242188,-0.362774658203125,3.055770874023437
10.76600000000002,10.499679565429688,-0.046954345703125,7.001730346679688
10.77600000000001,14.212661743164064,0.6859222412109376,9.841571044921876
10.786,10.438220214843753,-0.772503662109375,9.053665161132812
10.795999999999992,3.7998626708984378,-0.7138854980468751,6.242086791992188
10.805999999999983,2.9153564453125003,-0.5864807128906251,6.9985900878906255
10.816000000000038,5.8680969238281255,-0.8239440917968751,9.308474731445314
10.826000000000022,7.334896850585938,-0.7361663818359375,7.246221923828125
10.836000000000013,7.904330444335938,0.329876708984375,3.768310546875
10.846000000000004,8.340377807617188,0.4379913330078125,4.993460083007813
10.855999999999996,8.985476684570314,1.101931762695313,6.789987182617188
10.865999999999984,7.5159851074218755,1.3823120117187502,10.48831481933594
10.876000000000031,6.904083251953126,0.8538513183593751,10.382891845703126
10.887,7.20943603515625,0.8661132812500001,5.4972473144531255
10.896999999999998,7.865301513671875,0.30086669921875,2.8035034179687504
10.906999999999982,8.34830322265625,0.0378326416015625,2.39437255859375
10.91700000000003,8.495745849609376,-0.0103179931640625,2.721408081054688
10.92700000000002,7.11612548828125,-0.5295074462890625,4.3144165039062505
10.937000000000012,6.345565795898438,-0.6697723388671876,6.057559204101563
10.947000000000005,7.186557006835938,-0.8743377685546876,7.066629028320313
10.956999999999994,8.60550537109375,-1.3776763916015626,8.370883178710939
10.966999999999985,9.151611328125,-1.349713134765625,9.510797119140626
10.977000000000032,7.25010986328125,0.0249725341796875,8.058053588867189
10.987000000000023,5.493658447265625,0.8830108642578126,7.002178955078126
10.997000000000014,4.618572998046876,0.3452789306640625,6.634469604492188
11.007000000000003,5.484536743164063,0.7285400390625001,6.789987182617188
11.016999999999996,7.392617797851563,1.3734893798828125,6.182421875
11.02800000000002,8.50262451171875,1.088623046875,5.5687255859375
11.038000000000013,8.609393310546876,0.8441314697265626,4.935589599609376
11.048000000000002,7.207791137695313,0.8578887939453126,4.781567382812501
11.057999999999993,5.56573486328125,0.1136474609375,6.349752807617188
11.067999999999984,5.3596740722656255,-0.7553070068359375,6.5783935546875005
11.078000000000038,9.740036010742188,-1.1189788818359376,7.969528198242188
11.088000000000022,13.166207885742187,-0.7795318603515625,6.194683837890626
11.098000000000011,9.81435546875,-1.08802490234375,4.430307006835938
11.108000000000004,4.568328857421875,-0.7929901123046875,5.898751831054688
11.117999999999997,4.2411437988281255,0.19798583984375,9.77786865234375
11.127999999999986,6.132177734375,0.0011962890625,12.100015258789064
11.138000000000034,6.209786987304688,1.0334442138671875,8.252749633789064
11.148000000000025,7.699465942382813,0.441729736328125,3.1683715820312504
11.158000000000015,8.9781494140625,0.0859832763671875,4.44122314453125
11.168999999999984,9.314007568359376,0.6338836669921876,7.000085449218751
11.17900000000003,7.591500854492188,1.323394775390625,8.100521850585938
11.18900000000002,6.422726440429688,0.9057403564453126,9.068618774414062
11.199000000000012,6.412258911132813,0.6482391357421875,5.562744140625
11.209000000000003,8.252749633789064,-0.16807861328125,3.4975006103515627
11.218999999999994,8.969326782226563,-0.6177337646484375,3.649429321289063
11.228999999999983,9.1528076171875,-0.9583770751953126,2.3658111572265628
11.239000000000033,7.104312133789063,-0.5495452880859375,5.4000488281250005
11.249000000000024,6.170907592773438,-0.155517578125,7.360916137695313
11.259000000000016,6.565982055664063,-0.3692047119140625,7.283157348632813
11.269000000000004,7.590304565429688,-0.46715087890625,7.652810668945313
11.278999999999996,8.67130126953125,0.209649658203125,8.101718139648439
11.288999999999987,7.935134887695313,0.5921630859375,7.925115966796875
11.300000000000011,6.252255249023438,0.0829925537109375,6.557159423828126
11.310000000000002,5.020526123046875,-0.003887939453125,5.799609375
11.319999999999991,5.224194335937501,0.3147735595703125,7.365551757812501
11.329999999999984,6.964645385742188,1.253411865234375,7.574603271484375
11.340000000000032,8.489016723632814,0.9906768798828126,5.887835693359375
11.350000000000025,7.649371337890625,0.182135009765625,4.255947875976563
11.360000000000014,5.548687744140626,-0.093609619140625,3.244036865234375
11.370000000000005,5.663980102539063,0.0704315185546875,5.4269653320312505
11.379999999999995,11.04114990234375,0.1021331787109375,9.187948608398438
11.389999999999986,14.173931884765626,0.509619140625,8.706741333007812
11.400000000000034,8.977700805664064,-0.9091796875,6.585720825195313
11.410000000000023,3.331964111328125,-0.6593048095703126,5.445208740234375
11.420000000000016,3.50572509765625,-0.8327667236328126,7.413552856445313
11.430999999999983,5.986978149414063,-1.1197265625,9.893011474609375
11.441000000000038,7.379010009765626,-0.6153411865234375,6.668414306640625
11.451000000000022,8.364303588867188,0.4792633056640625,3.3520019531250003
11.461000000000013,9.223388671875,0.39298095703125,5.804843139648438
11.471000000000004,8.828314208984375,1.0793518066406251,9.2078369140625
11.480999999999996,7.041806030273438,1.0041351318359375,10.576690673828123
11.490999999999984,5.996249389648438,0.6930999755859375,9.232958984375
11.501000000000031,6.710134887695313,0.9072357177734376,4.2685089111328125
11.511000000000024,8.192935180664064,0.3153717041015625,2.8722900390625004
11.521000000000017,9.034524536132814,-0.0016448974609375,3.0162933349609378
11.531000000000006,8.655749511718751,0.102581787109375,2.4024475097656253
11.540999999999997,7.051675415039063,-0.280230712890625,4.114187622070313
11.550999999999988,6.607553100585938,-0.8031585693359375,6.808679199218751
11.561000000000035,7.610791015625001,-0.7861114501953126,7.063488769531251
11.571000000000026,8.939569091796876,-1.1894104003906252,8.386734008789062
11.581000000000016,8.542999267578125,-1.082940673828125,8.501727294921876
11.591999999999985,6.976757812500001,0.0584686279296875,7.600772094726563
11.602000000000032,5.27623291015625,0.6984832763671875,6.515438842773438
11.612000000000023,4.886541748046875,0.243145751953125,7.077993774414063
11.622000000000014,5.475415039062501,0.88046875,7.200015258789063
11.632000000000003,7.197921752929688,1.4434722900390626,6.877914428710938
11.641999999999996,8.433389282226564,1.1328857421875,5.633624267578125
11.651999999999989,8.26875,0.5327972412109375,5.1383605957031255
11.662000000000036,7.134219360351563,0.605322265625,4.851400756835938
11.672000000000024,5.203558349609375,0.32838134765625,5.8057403564453125
11.682000000000016,6.925167846679688,-0.9127685546875,7.91763916015625
11.692000000000007,11.201751708984377,-0.8613281250000001,7.45108642578125
11.701999999999998,11.388522338867189,-0.5274139404296876,5.228680419921876
11.711999999999987,7.379010009765626,-1.1572601318359377,4.7545013427734375
11.72199999999998,4.828671264648438,-0.1314422607421875,7.4531799316406255
11.733000000000004,5.778076171875,-0.141461181640625,10.898641967773438
11.742999999999997,6.361715698242188,0.1341339111328125,9.696520996093753
11.752999999999986,6.770098876953125,0.67410888671875,5.4434143066406255
11.763000000000034,8.138653564453126,0.0925628662109375,3.646438598632813
11.773000000000025,9.211126708984375,0.15491943359375,6.138458251953126
11.783000000000015,8.347854614257812,1.1883636474609376,7.253549194335938
11.793000000000006,6.789987182617188,1.1983825683593752,9.435879516601563
11.802999999999995,6.227731323242188,0.7295867919921876,6.979449462890625
11.812999999999988,7.362561035156251,0.1224700927734375,4.259237670898438
11.824999999999989,8.556307983398439,-0.564947509765625,3.80479736328125
11.833000000000029,9.027346801757814,-0.6113037109375,3.2263916015625003
11.843000000000018,8.398397827148438,-0.6280517578125,4.1215148925781255
11.853000000000009,6.773388671875001,-0.029608154296875,6.062045288085938
11.863,6.273489379882813,0.032000732421875,6.641946411132813
11.874000000000024,7.118368530273438,-0.3494659423828125,7.487274169921876
11.884000000000016,7.978051757812499,-0.6069671630859376,8.555111694335938
11.894000000000004,8.378359985351564,0.387896728515625,8.147326660156251
11.903999999999996,7.019674682617188,0.130096435546875,7.37930908203125
11.913999999999987,5.491714477539063,-0.1380218505859375,6.5831787109375
11.925999999999988,5.018582153320313,0.082843017578125,6.650918579101563
11.934000000000026,6.479849243164063,1.0627532958984376,6.9806457519531255
11.944000000000017,7.879656982421875,1.0742675781250002,6.0719146728515625
11.954000000000008,7.583874511718751,0.22310791015625,4.453485107421876
11.964,5.591754150390625,-0.289202880859375,3.0293029785156254
11.97399999999999,5.7338134765625,-0.47073974609375,4.2206573486328125
11.98399999999998,12.104800415039064,0.4702911376953125,8.575897216796875
11.994000000000028,14.363095092773438,1.0735198974609377,9.883441162109376
12.00400000000002,8.526400756835939,-1.0815948486328126,8.177084350585938
12.01400000000001,2.724996948242188,-0.5522369384765625,5.91624755859375
12.02600000000001,3.342282104492188,-0.6537719726562501,7.479797363281251
12.035000000000023,6.301303100585938,-0.9334045410156252,9.946395874023438
12.045000000000016,7.275082397460938,-0.4993011474609375,5.71048583984375
12.055000000000009,8.54569091796875,0.3796722412109375,3.2730468750000004
12.064999999999998,8.833099365234375,0.3913360595703125,5.136715698242188
12.074999999999989,8.881100463867188,1.256402587890625,7.6119873046875
12.08499999999998,7.19029541015625,1.1420074462890626,11.132366943359376
12.095000000000027,6.703555297851563,0.862225341796875,9.816299438476562
12.105000000000018,7.224838256835938,1.0483978271484375,4.55845947265625
12.115000000000007,8.088858032226563,0.2749969482421875,2.391830444335937
12.126000000000031,8.700161743164063,-0.1066192626953125,3.0548736572265627
12.134999999999998,8.042800903320312,-0.2008270263671875,2.8041015625
12.144999999999982,6.689050292968751,-0.63702392578125,4.458718872070313
12.15500000000003,6.865203857421876,-0.6252105712890625,5.357281494140626
12.165999999999997,7.473666381835938,-0.9196472167968752,8.211627197265626
12.175999999999988,8.510101318359375,-1.3959197998046875,9.51932067871094
12.186000000000035,9.007608032226564,-1.456781005859375,8.847604370117189
12.196000000000026,6.950588989257813,0.4858428955078125,7.040310668945313
12.206000000000016,5.201016235351563,0.8457763671875,6.734658813476563
12.216000000000008,4.708743286132813,0.3733917236328125,6.7279296875000005
12.227000000000032,5.870639038085938,1.089968872070313,7.072909545898438
12.23599999999999,7.42955322265625,1.2916931152343751,6.294573974609375
12.24599999999998,8.591448974609376,1.0053314208984376,5.429656982421875
12.256000000000029,8.547933959960938,0.6301452636718751,4.844671630859375
12.26600000000002,7.230670166015625,0.7834197998046876,4.854241943359376
12.27600000000001,5.347561645507813,-0.19320068359375,6.637460327148438
12.286,6.036474609375,-0.9679473876953124,7.508059692382813
12.295999999999992,10.794265747070312,-1.1396148681640623,7.726083374023438
12.307000000000016,12.192428588867188,-0.50662841796875,5.3776184082031255
12.317000000000007,7.754943847656251,-1.1176330566406252,4.1309356689453125
12.326999999999998,4.287799072265625,-0.333465576171875,6.182421875
12.336999999999987,5.245278930664063,0.2456878662109375,10.266403198242188
12.34699999999998,6.701611328125001,0.2385101318359375,10.928549194335938
12.357000000000028,6.963299560546876,0.9962097167968752,6.5448974609375
12.36700000000002,8.3345458984375,0.26497802734375,3.897210693359375
12.37700000000001,9.151611328125,0.1443023681640625,6.163879394531251
12.387,8.575448608398439,1.1922515869140626,8.228524780273439
12.396999999999998,6.220104980468751,1.3864990234375,9.547134399414062
12.406999999999982,6.000286865234376,0.7870086669921875,6.465344238281251
12.41700000000003,7.138256835937501,0.133984375,3.589315795898438
12.42700000000002,8.746966552734376,-0.6434539794921875,3.551931762695313
12.437999999999988,9.476852416992188,-0.7083526611328126,3.013751220703125
12.44799999999998,8.409613037109375,-1.101483154296875,3.673056030273438
12.458000000000029,7.123751831054688,-0.5286102294921875,6.919485473632813
12.468000000000018,6.655404663085938,0.1075164794921875,6.621609497070313
12.480000000000018,7.197174072265626,-0.2328277587890625,7.358074951171876
12.488,7.548434448242188,-0.416607666015625,7.741336059570313
12.49799999999999,8.40333251953125,0.3787750244140625,7.749261474609375
12.50799999999998,7.083975219726563,0.2743988037109375,7.384542846679688
12.518000000000027,5.5500335693359375,0.1577606201171875,6.8370910644531255
12.52800000000002,4.8636627197265625,-0.0731231689453125,6.9028869628906255
12.538000000000013,6.045745849609375,1.04376220703125,7.495797729492188
12.548000000000002,7.931546020507813,1.45050048828125,6.938626098632813
12.557999999999993,8.390621948242188,0.4945159912109375,5.220755004882813
12.567999999999984,6.699966430664063,-0.5139556884765626,4.0243164062500005
12.579000000000008,4.906130981445313,-0.5790039062500001,3.258840942382813
12.589,7.332205200195313,-0.948956298828125,5.99161376953125
12.59899999999999,13.709622192382811,0.9005065917968751,8.878408813476563
12.60899999999998,13.118505859375,-0.3677093505859375,8.512493896484376
12.619000000000028,6.210235595703126,-1.030154418945313,6.37681884765625
12.62900000000002,2.3723907470703125,-0.3751861572265625,6.109597778320313
12.63900000000001,4.317556762695313,-0.6643890380859375,9.391915893554687
12.649,6.483288574218751,-0.5673400878906251,10.512689208984376
12.658999999999992,7.946499633789063,0.4996002197265625,4.381707763671876
12.668999999999984,8.407070922851563,0.5748168945312501,3.124557495117188
12.67900000000003,9.137106323242188,0.5745178222656251,5.272344970703125
12.68900000000002,8.407070922851563,1.5478485107421875,9.024655151367188
12.699000000000012,7.356430053710938,1.253411865234375,10.68226318359375
12.709000000000003,6.097335815429688,1.2613372802734375,8.928353881835939
12.718999999999994,7.118368530273438,0.9308624267578126,2.625704956054688
12.730000000000018,8.736798095703126,-0.5837890625000001,1.6395141601562502
12.742999999999997,9.812261962890624,-0.6108551025390625,3.1756988525390626
12.75,7.395309448242188,-0.826336669921875,4.375726318359376
12.761000000000024,6.306686401367188,-1.0144531250000002,5.817404174804688
12.769999999999982,5.931649780273438,-0.4044952392578125,6.447998046875001
12.78000000000003,8.592645263671876,-1.412966918945313,7.105059814453125
12.79000000000002,8.851492309570313,-1.986886596679688,9.536218261718751
12.800000000000011,8.95841064453125,0.1840789794921875,7.55516357421875
12.810000000000002,6.562991333007813,1.8087890625,6.350350952148438
12.819999999999991,4.93529052734375,0.5967987060546875,7.035226440429688
12.829999999999984,5.031741333007813,1.1551666259765625,7.333999633789063
12.843000000000018,6.468933105468751,1.749871826171875,7.012646484375001
12.850000000000025,8.019772338867188,1.646243286132813,5.5065185546875
12.86099999999999,8.84356689453125,0.10347900390625,4.637265014648438
12.87099999999998,7.968182373046876,-0.301763916015625,4.649676513671875
12.881000000000029,6.339285278320313,-0.6643890380859375,5.749813842773438
12.89100000000002,4.799511718750001,-0.8626739501953126,6.465942382812501
12.90100000000001,8.012594604492188,-2.12999267578125,8.083474731445314
12.911,13.21226501464844,-0.8089904785156251,6.8224365234375
12.920999999999992,11.263958740234376,-1.1659332275390626,5.894863891601563
12.930999999999983,5.036077880859375,-0.4855438232421875,5.4586669921875
12.942999999999984,3.414059448242188,1.1043243408203125,7.851693725585938
12.951000000000022,5.297018432617188,1.43255615234375,10.80054626464844
12.961000000000013,7.399945068359376,1.8032562255859377,7.093695068359375
12.971000000000004,7.975659179687501,0.38221435546875,1.9948120117187504
12.980999999999996,9.519619750976563,-0.545806884765625,3.459219360351563
12.990999999999984,9.912002563476562,0.6628936767578125,9.288287353515626
13.001000000000031,7.246820068359375,0.9574798583984376,13.268191528320314
13.012,6.13516845703125,0.76263427734375,8.6934326171875
13.021999999999998,4.7959228515625005,0.39178466796875,5.54779052734375
13.031999999999982,8.102017211914063,-0.8409912109375001,1.2092987060546876
13.043000000000006,10.116119384765623,-1.0196868896484377,2.150927734375
13.05200000000002,9.69293212890625,-1.1225677490234376,2.7794281005859376
13.062000000000012,6.91514892578125,-0.721661376953125,4.476962280273438
13.072000000000005,6.244479370117188,0.1733123779296875,7.051525878906251
13.081999999999994,6.944458007812501,0.2773895263671875,8.25977783203125
13.091999999999985,8.985626220703125,-0.0330474853515625,6.998141479492188
13.102000000000032,8.506063842773438,-0.4031494140625,7.727429199218751
13.112000000000023,8.700460815429688,0.831121826171875,5.951388549804688
13.122000000000014,6.14713134765625,0.296380615234375,6.941467285156251
13.132000000000003,4.186413574218751,-0.620574951171875,7.854983520507813
13.143000000000027,4.478607177734375,0.9045440673828126,7.762271118164063
13.15300000000002,6.743930053710938,1.6142425537109375,6.991711425781251
13.163000000000013,8.712274169921876,0.8121307373046875,5.6751953125000005
13.173000000000002,8.498886108398438,-1.1695220947265623,4.652517700195313
13.182999999999993,6.340332031250001,-0.6575103759765626,3.6681213378906254
13.192999999999984,4.703958129882813,-1.032098388671875,4.901644897460938
13.203000000000038,9.790280151367188,0.0234771728515625,7.64847412109375
13.213000000000022,14.427395629882811,0.6667816162109376,8.811267089843751
13.223000000000011,10.780209350585938,-1.1988311767578126,6.979299926757813
13.233000000000004,3.4315551757812504,-0.692352294921875,5.677438354492188
13.244000000000028,2.404840087890625,-0.243743896484375,7.645932006835938
13.252999999999986,5.970977783203125,-0.7739990234375,9.766653442382813
13.263000000000034,8.979794311523438,0.815869140625,6.409567260742188
13.273000000000025,8.198168945312501,1.493865966796875,2.9083282470703127
13.283000000000015,8.49664306640625,1.1399139404296876,4.212881469726563
13.293000000000006,8.28848876953125,1.8050506591796875,9.4841796875
13.304000000000038,6.831707763671876,0.9329559326171876,12.486416625976563
13.31400000000002,6.8984008789062505,0.7198669433593751,8.810519409179689
13.324000000000012,6.889578247070313,0.289202880859375,4.05960693359375
13.334000000000003,8.491259765625001,-0.6895111083984375,0.98634033203125
13.343999999999994,9.171200561523438,-0.5872283935546876,2.6152374267578127
13.353999999999983,8.55885009765625,-0.566143798828125,4.134075927734376
13.364000000000033,6.786398315429688,-1.0403228759765626,6.079840087890625
13.374000000000024,6.250012207031251,-0.8403930664062501,5.973818969726563
13.384000000000016,7.544546508789063,-1.0292572021484376,6.606655883789063
13.394000000000004,8.627337646484376,-1.603326416015625,8.160037231445314
13.403999999999996,9.265856933593753,-1.2326263427734376,7.964743041992188
13.413999999999987,7.588360595703126,1.732974243164063,6.2150207519531255
13.424000000000037,5.602072143554688,1.167578125,6.86490478515625
13.434000000000026,4.854391479492188,0.9730316162109376,7.560995483398438
13.444999999999991,5.8319091796875,0.9009552001953126,7.838833618164063
13.454999999999984,7.198818969726563,1.926025390625,6.346762084960938
13.465000000000032,8.378958129882813,1.070977783203125,5.191595458984375
13.475000000000025,8.609542846679688,-0.1428070068359375,5.149725341796875
13.485000000000014,8.035922241210939,-0.1718170166015625,5.963201904296875
13.495000000000005,6.153860473632813,-0.0746185302734375,6.274087524414063
13.504999999999995,4.597787475585938,-0.959423828125,5.6781860351562505
13.514999999999986,5.882452392578125,-1.9146606445312504,5.614483642578126
13.525000000000034,12.572848510742189,-1.921240234375,5.6751953125000005
13.535000000000023,14.003311157226564,-0.7079040527343751,5.539266967773438
13.545000000000016,7.760925292968751,-0.189312744140625,6.805389404296876
13.555000000000009,2.656210327148438,0.4493560791015625,9.322830200195312
13.564999999999998,4.195834350585938,0.6216217041015626,9.845907592773438
13.574999999999996,5.775982666015626,1.4316589355468752,11.146722412109376
13.586000000000013,8.217309570312501,0.8028594970703126,2.9036926269531254
13.596000000000004,9.716110229492188,0.282623291015625,2.0517852783203128
13.605999999999996,9.909161376953126,0.5837890625000001,5.201016235351563
13.615999999999984,7.520172119140626,0.6551177978515625,9.957760620117188
13.626000000000031,5.086920166015625,-0.028411865234375,11.156741333007814
13.636000000000024,6.750509643554688,0.6353790283203126,5.6393066406250005
13.646000000000017,7.114630126953125,0.106170654296875,5.960958862304688
13.656000000000006,10.45242614746094,-0.7986724853515625,2.684771728515625
13.665999999999997,9.30054931640625,-1.011761474609375,2.110552978515625
13.675999999999988,7.7076904296875,-0.8378509521484375,2.53074951171875
13.686000000000035,6.37083740234375,-0.654669189453125,5.843722534179688
13.696000000000026,6.356781005859376,-0.0752166748046875,8.01932373046875
13.706000000000016,8.405874633789063,0.2008270263671875,5.956622314453125
13.716999999999985,7.510153198242188,0.5610595703125001,8.872277832031251
13.727000000000032,9.373373413085938,0.69384765625,6.668862915039063
13.737000000000023,7.22618408203125,0.7233062744140626,7.7058959960937505
13.747000000000014,4.835549926757813,-0.0171966552734375,7.98702392578125
13.757000000000003,4.444363403320313,0.113348388671875,7.743130493164063
13.766999999999996,5.953033447265625,1.2957305908203125,6.744229125976563
13.776999999999989,8.326321411132813,0.3505126953125,5.726336669921875
13.787000000000036,9.043197631835938,-0.0662445068359375,4.668368530273438
13.797000000000024,7.937527465820313,-1.19449462890625,4.306042480468751
13.807000000000016,5.591305541992188,0.0462066650390625,4.626199340820313
13.817000000000007,4.641152954101563,0.22430419921875,6.313864135742188
13.826999999999998,8.533129882812501,-0.5627044677734375,8.245272827148439
13.836999999999996,13.768988037109375,0.843084716796875,6.971673583984376
13.848000000000011,11.738287353515624,0.039776611328125,5.284008789062501
13.858000000000004,5.82652587890625,-0.476422119140625,5.700765991210938
13.867999999999997,3.533987426757813,-0.3297271728515625,8.336489868164064
13.877999999999986,4.9364868164062505,-0.8362060546875001,11.827111816406251
13.888000000000034,5.725289916992188,-0.49586181640625,9.751400756835938
13.898000000000025,7.9421630859375005,0.2603424072265625,2.0854309082031253
13.908000000000015,9.265557861328126,-0.60233154296875,2.1441986083984377
13.918000000000006,9.598126220703126,0.5359375000000001,6.172402954101563
13.927999999999995,7.233660888671875,1.0783050537109375,11.010195922851564
13.937999999999988,6.882400512695313,0.34393310546875,10.769891357421876
13.94799999999998,6.921728515625,0.9129180908203126,5.064938354492188
13.958000000000029,7.25609130859375,0.8224487304687501,3.613540649414063
13.968000000000018,9.191387939453126,-0.6963897705078126,2.348016357421875
13.978000000000009,9.472515869140626,-0.2456878662109375,3.327777099609375
13.988,7.779766845703126,0.3425872802734375,3.969436645507813
13.997999999999998,6.100775146484375,0.0133087158203125,5.6647277832031255
14.009000000000016,6.2362548828125,-0.55926513671875,7.21781005859375
14.019000000000004,7.814160156250001,-0.70880126953125,7.671054077148438
14.028999999999996,8.540008544921875,-1.463809204101563,9.301745605468753
14.038999999999987,8.711077880859376,0.30804443359375,7.566976928710938
14.049000000000037,7.296765136718751,0.5025909423828125,6.640899658203126
14.059000000000026,5.02142333984375,0.0895721435546875,7.000085449218751
14.069000000000017,4.624105834960938,0.581695556640625,7.267605590820313
14.079000000000008,6.345565795898438,1.4080322265625,6.5754028320312505
14.088999999999992,8.41708984375,0.8309722900390626,5.538668823242188
14.098999999999997,8.892016601562501,0.0394775390625,4.602572631835938
14.108999999999988,8.355181884765626,0.0411224365234375,4.721304321289063
14.119000000000028,6.31162109375,0.3345123291015625,5.618072509765625
14.129000000000012,4.675546264648438,-0.4451690673828125,7.00845947265625
14.13900000000001,6.978701782226563,-1.0992401123046875,7.77169189453125
14.150000000000034,12.71281433105469,-0.6510803222656251,6.916793823242188
14.160000000000023,12.3468994140625,-0.7270446777343751,5.137911987304688
14.170000000000016,6.260479736328126,-0.2619873046875,5.115780639648438
14.180000000000009,3.1139404296875,0.5492462158203125,8.509503173828126
14.189999999999998,5.211782836914063,0.4457672119140625,9.950582885742188
14.199999999999996,6.619515991210938,0.902899169921875,9.513787841796876
14.209999999999988,8.372976684570313,0.5097686767578126,3.0098632812500004
14.220000000000027,9.733905029296876,-0.91815185546875,3.047845458984375
14.230000000000018,9.231463623046876,-0.151031494140625,6.816754150390626
14.244000000000028,6.906924438476563,0.8462249755859376,10.927352905273438
14.25,6.027801513671875,0.5794525146484375,9.307278442382811
14.261000000000024,6.395660400390626,0.7065582275390625,6.508261108398438
14.271000000000017,7.891021728515626,-0.3859527587890625,2.7552032470703125
14.281000000000006,9.694427490234377,-0.8181121826171875,2.369549560546876
14.290999999999997,8.703601074218751,-0.6003875732421875,2.5793487548828127
14.300999999999988,8.111886596679689,-0.444720458984375,4.019232177734375
14.311000000000035,6.466091918945313,0.6763519287109375,7.079040527343751
14.321000000000026,6.868344116210938,0.3075958251953125,8.031884765625001
14.331000000000016,7.684512329101563,0.0904693603515625,7.543798828125
14.343000000000018,7.679129028320313,-0.2803802490234375,8.109793090820313
14.350999999999992,8.6802734375,0.3129791259765625,6.618768310546876
14.360999999999995,6.686807250976563,-0.0614593505859375,7.421029663085938
14.370999999999988,4.922430419921875,-0.2890533447265625,7.231268310546875
14.381000000000029,4.90299072265625,0.168975830078125,7.17294921875
14.39100000000002,6.618170166015625,1.202569580078125,6.484036254882813
14.40100000000001,7.929153442382813,0.362774658203125,5.3103271484375005
14.411,7.473217773437501,-0.1341339111328125,4.080093383789063
14.420999999999992,6.546243286132813,-0.4640106201171875,4.256246948242188
14.432000000000016,8.823977661132814,0.02452392578125,6.304592895507813
14.442999999999984,12.1961669921875,0.6264068603515626,8.295516967773438
14.451999999999998,9.618313598632811,-0.9936676025390626,8.333349609375
14.461999999999996,4.848858642578126,-0.7049133300781251,7.016384887695313
14.471999999999989,3.8218444824218754,-0.299371337890625,6.95701904296875
14.482000000000028,7.219604492187501,-0.5630035400390625,7.577743530273438
14.492000000000012,8.823828125,0.120526123046875,6.884045410156251
14.50200000000001,8.16407470703125,1.3506103515625,5.28580322265625
14.512,7.5384155273437505,0.67410888671875,5.652615356445313
14.521999999999998,7.0942932128906255,0.3063995361328125,7.959808349609376
14.531999999999982,6.617721557617188,0.5640502929687501,9.606500244140626
14.543000000000006,7.798159790039063,1.1541198730468751,7.967434692382813
14.552999999999995,8.929849243164064,0.464459228515625,4.557412719726563
14.562999999999988,8.387033081054689,-0.0432159423828125,2.483346557617188
14.57299999999998,7.154556274414063,-0.29847412109375,2.983395385742188
14.583000000000029,7.461553955078125,0.3410919189453125,4.736257934570313
14.593000000000018,7.786346435546876,-0.25540771484375,6.897952270507813
14.603000000000009,7.654904174804688,-0.8205047607421876,6.31700439453125
14.613,7.091900634765626,-1.4027984619140623,5.8117218017578125
14.622999999999998,7.8748718261718755,-1.6543182373046876,6.149374389648438
14.632999999999988,8.521316528320312,-0.59814453125,7.939770507812501
14.643000000000027,7.301400756835938,0.8178131103515626,8.663375854492188
14.65300000000002,5.685812377929688,0.6377716064453125,8.148672485351563
14.663000000000013,5.316009521484375,0.5408721923828126,6.9552246093750005
14.673000000000002,6.0131469726562505,0.500347900390625,6.249563598632813
14.682999999999993,7.3368408203125,1.2535614013671876,5.800357055664063
14.692999999999984,8.413351440429688,1.362274169921875,5.9264160156250005
14.703000000000038,8.586663818359376,0.73990478515625,5.810076904296875
14.713000000000022,6.920233154296875,-0.0124114990234375,5.6393066406250005
14.723999999999997,5.07047119140625,-0.09749755859375,5.661288452148438
14.733999999999988,4.853045654296875,-0.608612060546875,5.8980041503906255
14.744000000000028,9.32806396484375,-0.9024505615234376,6.552075195312501
14.754000000000012,13.673434448242189,0.1622467041015625,6.593347167968751
14.76400000000001,10.9927001953125,-0.8254394531250001,5.186361694335938
14.774,5.362216186523438,-0.8697021484375,6.001483154296875
14.783999999999992,3.3431793212890626,-0.0692352294921875,9.182266235351562
14.793999999999984,5.14224853515625,-0.134283447265625,12.042443847656251
14.804000000000038,7.005169677734376,0.66094970703125,8.427557373046875
14.81400000000002,8.616122436523439,0.40614013671875,2.169769287109375
14.824000000000012,9.313858032226562,-0.7116424560546876,2.9591705322265627
14.834000000000003,8.601916503906251,0.4152618408203125,6.904531860351563
14.845000000000027,6.030642700195313,0.9745269775390626,11.048776245117187
14.855000000000018,6.812567138671875,0.6539215087890625,9.052468872070314
14.865000000000007,7.166519165039063,0.8429351806640626,6.101223754882813
14.875,8.590701293945314,-0.548797607421875,2.6943420410156254
14.884999999999998,9.478347778320312,-0.5082733154296876,2.7351654052734378
14.894999999999982,8.530438232421876,-0.4290191650390625,2.8826080322265626
14.905000000000037,7.687503051757813,0.0192901611328125,4.695584106445313
14.91500000000002,5.778823852539063,0.1541717529296875,6.702209472656251
14.925000000000011,7.270745849609375,0.3120819091796875,6.4611572265625
14.935000000000002,7.274334716796876,-0.232080078125,8.495895385742188
14.944999999999991,8.892764282226564,-0.7629333496093751,8.022912597656251
14.954999999999984,8.080783081054689,0.6261077880859376,7.402487182617188
14.965000000000032,6.229376220703125,-0.0551788330078125,7.731018066406251
14.975000000000025,4.7863525390625,-0.3165679931640625,7.462301635742188
14.985000000000014,5.295822143554688,0.7415496826171876,7.136611938476563
14.995999999999988,7.027450561523438,1.1668304443359376,6.292181396484375
15.006000000000029,8.6025146484375,0.3078948974609375,5.120266723632813
15.01600000000002,7.802346801757813,-0.506329345703125,4.140655517578125
15.02600000000001,6.174496459960938,0.02572021484375,3.8529479980468753
15.036,5.160043334960938,0.1688262939453125,5.033834838867188
15.045999999999992,9.119610595703126,0.37384033203125,8.295217895507813
15.055999999999983,13.875607299804688,0.6830810546875,8.562139892578125
15.066000000000038,11.533273315429687,-0.5375823974609375,6.211880493164063
15.076000000000022,4.7769317626953125,-0.9760223388671876,5.719009399414063
15.086000000000013,3.1478851318359378,-0.5224792480468751,7.909863281250001
15.096000000000004,5.113088989257813,-1.13826904296875,11.15958251953125
15.105999999999996,6.597982788085938,-0.5887237548828126,8.343667602539064
15.115999999999984,8.015435791015626,0.6047241210937501,2.337399291992188
15.126000000000031,8.730517578125001,0.174359130859375,3.0469482421875003
15.137,9.446047973632814,0.8196075439453125,7.458862304687501
15.146999999999998,7.247418212890626,0.9223388671875,11.899786376953124
15.156999999999982,7.580883789062501,0.7771392822265626,8.979196166992189
15.167000000000035,5.894863891601563,1.2269439697265625,6.224441528320313
15.17700000000002,7.859469604492188,-0.0091217041015625,1.5272125244140626
15.187000000000012,8.715414428710938,-0.019140625,2.9216369628906254
15.197000000000005,9.556854248046877,0.3632232666015625,3.0200317382812503
15.206999999999994,7.920330810546876,0.4341033935546875,4.555169677734376
15.216999999999985,5.882901000976563,-0.7391571044921875,6.066979980468751
15.227000000000032,6.399548339843751,-0.9829010009765624,6.672750854492188
15.237000000000023,8.268899536132814,-1.1900085449218751,7.828814697265625
15.247000000000014,8.675936889648439,-2.1331329345703125,10.0715576171875
15.261000000000024,8.564682006835938,0.048748779296875,7.036273193359375
15.268000000000027,6.3798095703125,1.0020416259765623,6.691293334960938
15.27800000000002,4.7265380859375,-0.0390289306640625,6.894363403320313
15.288000000000013,4.759884643554688,0.8374023437500001,6.97496337890625
15.298000000000002,6.782659912109375,1.61917724609375,6.692938232421875
15.307999999999993,8.672647094726564,1.21124267578125,5.9029388427734375
15.317999999999984,9.162826538085938,0.6963897705078126,4.6812286376953125
15.328000000000038,7.731915283203126,0.37144775390625,4.925421142578125
15.338000000000022,5.727532958984376,0.48748779296875,5.950491333007813
15.348000000000011,4.952337646484375,-0.6165374755859375,6.740490722656251
15.360000000000014,7.750009155273438,-1.16458740234375,7.725485229492188
15.367999999999997,13.156787109375,-0.9290679931640624,6.068475341796876
15.379000000000012,11.874365234375,-0.9048431396484377,4.882205200195313
15.388000000000034,5.553024291992188,-0.9832000732421876,5.3222900390625005
15.399,3.166128540039063,0.232379150390625,8.372976684570313
15.408999999999992,5.250662231445313,0.1879669189453125,10.8204345703125
15.418999999999984,7.0258056640625,1.0531829833984376,8.787191772460938
15.429000000000038,8.421127319335938,0.427374267578125,2.64080810546875
15.43900000000002,9.427505493164062,-0.25780029296875,4.00218505859375
15.449000000000012,9.180770874023438,-0.1105072021484375,7.989865112304688
15.461000000000013,6.720602416992188,0.5845367431640626,10.955615234375
15.468999999999994,6.0807373046875,1.1662322998046877,8.600421142578126
15.478999999999983,5.919088745117188,1.0075744628906251,6.505569458007813
15.489000000000033,8.787640380859376,-0.448309326171875,2.07735595703125
15.499000000000024,9.204547119140626,-0.388494873046875,3.0799957275390626
15.509000000000016,8.902035522460938,-0.5758636474609375,2.4585235595703128
15.519000000000004,7.888778686523438,-0.4855438232421875,3.868649291992188
15.528999999999996,6.539215087890626,0.21593017578125,7.470825195312501
15.538999999999987,7.447198486328125,0.3141754150390625,7.3200927734375005
15.549000000000037,7.566079711914063,-0.3958221435546875,8.010052490234376
15.560000000000002,7.868740844726563,-0.7524658203125001,7.137957763671875
15.569000000000017,8.534027099609375,0.55029296875,6.455624389648438
15.579999999999984,6.4841857910156255,0.168377685546875,7.735504150390626
15.590000000000032,4.885195922851563,-0.3994110107421875,7.746868896484376
15.600000000000025,4.704556274414063,0.4789642333984375,7.358224487304688
15.610000000000014,6.502279663085938,1.5334930419921875,6.461904907226563
15.620000000000005,7.908218383789063,0.1580596923828125,5.340533447265625
15.629999999999995,7.138406372070313,-0.0569732666015625,3.9024444580078126
15.639999999999986,5.696578979492188,-0.6691741943359375,3.691598510742188
15.650000000000034,9.227725219726564,0.0871795654296875,6.195730590820313
15.660000000000023,14.350534057617187,0.762335205078125,8.881399536132813
15.670000000000016,11.239733886718753,-0.7920928955078126,8.620458984375
15.680000000000009,4.224545288085938,-1.3157684326171877,6.952981567382813
15.689999999999998,1.81177978515625,-0.3506622314453125,7.064086914062501
15.701000000000022,5.395114135742188,-0.9048431396484377,9.08387145996094
15.711000000000013,8.913101196289062,-0.14534912109375,5.804095458984375
15.721000000000004,8.6790771484375,0.8635711669921876,2.918048095703125
15.730999999999996,8.266506958007813,0.8994598388671876,4.623507690429688
15.740999999999984,8.375369262695314,1.222607421875,9.019720458984375
15.751000000000031,7.036273193359375,0.9470123291015624,11.968124389648438
15.761000000000024,6.961804199218751,0.9953125,9.824972534179688
15.771000000000017,6.85234375,1.4261260986328126,5.3716369628906255
15.781000000000006,8.953924560546875,-0.49945068359375,0.5310028076171875
15.790999999999997,8.290283203125,-0.6287994384765625,2.0135040283203125
15.800999999999988,8.284750366210938,0.1117034912109375,2.6595001220703125
15.811000000000035,7.000534057617188,-0.256304931640625,5.946005249023438
15.821000000000026,7.009954833984375,-1.21602783203125,6.849502563476563
15.831000000000016,6.857876586914063,-0.9514984130859376,6.939224243164063
15.841000000000008,9.117068481445314,-0.8426361083984376,6.001034545898438
15.852000000000032,8.791229248046875,-1.9511474609375,9.657492065429688
15.862000000000023,8.434585571289062,0.0677398681640625,7.589407348632813
15.872000000000014,5.344271850585938,1.416107177734375,7.382598876953126
15.882000000000003,4.288247680664063,0.6398651123046876,7.23575439453125
15.891999999999996,5.1093505859375,0.8420379638671875,6.526953125
15.901999999999989,7.347607421875001,1.36795654296875,5.8476104736328125
15.912000000000036,8.816201782226564,1.3956207275390626,5.435040283203126
15.922000000000024,9.28724060058594,0.7929901123046875,5.832806396484376
15.932000000000016,7.936181640625,0.198583984375,5.464199829101563
15.942000000000007,5.506069946289063,-0.322698974609375,6.148327636718751
15.951999999999998,4.35150146484375,-1.1979339599609375,6.201861572265625
15.961999999999996,6.997244262695313,-1.550540161132813,6.263470458984376
15.971999999999989,13.12613220214844,-1.1898590087890626,6.061895751953125
15.983000000000004,12.729113769531253,-0.5549285888671875,5.3825531005859375
15.992999999999997,6.586917114257813,-0.9293670654296876,5.576052856445313
16.002999999999986,2.8712432861328128,0.0088226318359375,7.916592407226563
16.013000000000034,4.7929321289062505,0.780279541015625,11.57708740234375
16.023000000000025,6.793276977539063,1.6489349365234376,11.3539794921875
16.033000000000015,8.817547607421876,0.45159912109375,2.484243774414063
16.043000000000006,9.101666259765626,-0.22310791015625,1.9035949707031248
16.054000000000038,8.961999511718751,0.8815155029296876,6.340481567382813
16.062999999999988,7.086367797851563,1.404144287109375,10.678674316406251
16.07299999999998,5.788992309570313,0.318511962890625,11.02320556640625
16.083000000000027,7.000833129882813,0.7822235107421875,4.7171173095703125
16.093000000000018,7.915097045898438,-0.198883056640625,3.7617309570312494
16.10300000000001,9.572406005859376,-0.8933288574218751,2.5998352050781253
16.113,8.658441162109376,-0.6960906982421875,3.840536499023438
16.122999999999998,8.243927001953125,-0.790447998046875,3.290093994140625
16.13299999999999,6.506167602539063,-0.3763824462890625,6.076998901367188
16.144000000000005,6.958514404296875,-0.1736114501953125,6.617572021484375
16.153999999999996,7.253997802734376,-0.3171661376953125,7.817898559570313
16.163999999999987,8.016033935546876,-0.6153411865234375,7.837936401367188
16.174000000000035,9.071310424804688,0.6694732666015626,7.087115478515625
16.184000000000026,6.760827636718751,0.7158294677734376,7.917190551757813
16.194000000000017,4.882653808593751,0.02332763671875,7.899844360351563
16.204000000000008,4.554571533203125,0.638519287109375,7.455422973632813
16.21399999999999,6.425717163085938,1.5717742919921875,6.522766113281251
16.223999999999997,8.129382324218751,0.59754638671875,5.269204711914063
16.233999999999988,8.256188964843751,-0.31761474609375,3.8768737792968753
16.244000000000028,6.264218139648438,-0.973779296875,3.1025756835937504
16.254000000000012,4.770053100585938,-0.708502197265625,3.977661132812501
16.264999999999986,10.91494140625,-0.0115142822265625,7.893862915039063
16.275000000000034,14.592483520507814,0.9619659423828124,10.192233276367189
16.285000000000025,10.4400146484375,-1.68018798828125,8.980691528320314
16.295000000000016,3.01644287109375,-0.79971923828125,6.043801879882813
16.305000000000007,2.3906341552734376,-0.358587646484375,7.034628295898438
16.314999999999998,5.89471435546875,-0.7722045898437501,9.988565063476564
16.324999999999996,8.760125732421876,0.183929443359375,5.494256591796876
16.334999999999987,7.887881469726563,1.3127777099609377,1.951296997070313
16.345000000000027,8.086465454101564,0.9305633544921876,4.762576293945313
16.355000000000018,8.520120239257814,1.639813232421875,10.205841064453123
16.36500000000001,7.768252563476563,0.9081329345703124,12.923809814453126
16.375,7.121957397460938,1.1037261962890623,9.0020751953125
16.384999999999998,6.63162841796875,1.0292572021484376,3.763525390625
16.394999999999982,8.240786743164064,-0.4705902099609375,0.7639801025390626
16.405000000000037,8.441763305664063,-0.1858734130859375,3.4692382812500004
16.41500000000002,8.799005126953126,-0.2525665283203125,2.9895263671875
16.425999999999988,6.599478149414063,-0.9978546142578124,5.183969116210938
16.436000000000035,6.1919921875,-0.8930297851562501,6.121859741210938
16.446000000000026,7.968930053710938,-1.0774078369140625,5.177838134765626
16.456000000000017,8.856427001953126,-1.2906463623046875,9.521115112304688
16.466000000000008,9.20963134765625,-1.8147705078125,9.827066040039064
16.475999999999992,7.732064819335938,0.36068115234375,7.487722778320313
16.485999999999997,4.9346923828125,1.6211212158203123,6.598431396484376
16.495999999999988,4.21512451171875,0.3198577880859375,6.805389404296876
16.50600000000003,5.427713012695313,1.1592041015625,6.757388305664063
16.51600000000002,7.768551635742188,1.4252288818359375,6.112738037109375
16.52600000000001,8.9673828125,1.1016326904296876,5.6739990234375
16.536,8.962896728515625,0.7636810302734376,5.1978759765625
16.545999999999992,7.744326782226563,0.7439422607421875,5.474368286132813
16.555999999999983,5.648876953125001,-0.33914794921875,7.135864257812501
16.567000000000007,4.9275146484375005,-0.563751220703125,6.215618896484376
16.576999999999998,5.91026611328125,-0.9852935791015626,5.620166015625
16.586999999999996,11.783297729492189,-1.301263427734375,6.310275268554688
16.596999999999987,14.157183837890626,-1.1071655273437502,5.142547607421875
16.607000000000028,8.949288940429689,-1.188812255859375,4.450643920898438
16.61700000000001,2.75804443359375,-0.3895416259765625,6.952832031250001
16.62700000000001,3.4512939453125004,0.3650177001953125,12.216055297851565
16.637,4.94486083984375,1.3178619384765626,13.310061645507814
