time,ax,ay,az
0.0,7.682568359375001,1.2218597412109375,6.100476074218751
0.0100000000000157,7.807281494140626,0.8185607910156251,6.183319091796876
0.0200000000000066,7.958163452148438,0.428271484375,6.38040771484375
0.0310000000000023,7.676437377929688,-0.186322021484375,6.640151977539063
0.0410000000000216,7.2019592285156255,-0.9766204833984377,6.975860595703126
0.0510000000000161,6.653161621093751,-0.898114013671875,7.072760009765625
0.0610000000000034,6.451437377929688,-0.784765625,6.689498901367188
0.0709999999999944,5.992959594726563,-0.968695068359375,5.746673583984375
0.0810000000000137,3.971380615234376,-0.18363037109375,3.620718383789063
0.0910000000000046,9.309521484375,0.1057220458984375,4.912860107421875
0.1009999999999955,12.425256347656251,-0.037982177734375,6.654507446289063
0.1110000000000148,10.30543212890625,0.1543212890625,7.086965942382813
0.1210000000000057,6.706246948242188,0.6174346923828126,9.386233520507814
0.1309999999999966,5.2340637207031255,0.4275238037109375,9.088507080078124
0.141000000000016,6.070269775390625,0.5908172607421875,10.181915283203123
0.1510000000000069,4.367202758789063,1.1725128173828123,6.00955810546875
0.1609999999999978,6.9387756347656255,0.9860412597656252,3.9686889648437504
0.1710000000000171,8.002725219726564,0.22789306640625,4.02012939453125
0.1820000000000128,10.037612915039062,0.0777587890625,5.737252807617188
0.1920000000000037,8.900091552734375,0.5688354492187501,6.316555786132813
0.2019999999999946,7.855581665039063,-0.7669708251953126,8.943606567382814
0.2120000000000139,6.908270263671875,-1.0077239990234377,8.81365966796875
0.2220000000000048,6.921878051757813,-0.8208038330078126,6.41868896484375
0.2319999999999957,8.785696411132813,-0.492572021484375,5.147183227539063
0.2420000000000151,7.864553833007813,-0.2032196044921875,3.5501373291015628
0.252000000000006,6.461007690429688,-0.1087127685546875,1.851705932617188
0.2619999999999969,6.786846923828126,0.898114013671875,3.962109375
0.2720000000000127,7.432095336914063,0.9383392333984376,7.544845581054688
0.2820000000000107,8.00855712890625,0.3802703857421875,9.153405761718751
0.291999999999998,8.057156372070313,0.7666717529296876,8.94764404296875
0.3020000000000173,8.086166381835938,1.1810363769531251,7.543948364257813
0.313000000000013,7.441067504882813,-0.27275390625,7.100872802734376
0.3230000000000039,5.854339599609375,-0.8043548583984376,7.467385864257813
0.3329999999999948,4.919888305664063,-0.6779968261718751,6.987374877929688
0.3430000000000142,5.793478393554688,-0.6344818115234375,6.057858276367188
0.3530000000000051,7.624249267578126,-0.3473724365234375,4.772894287109375
0.362999999999996,7.980593872070313,-0.3572418212890625,4.21392822265625
0.3730000000000153,7.150668334960938,-0.1601531982421875,4.154562377929688
0.3830000000000062,6.414801025390625,0.14295654296875,5.522219848632813
0.3929999999999971,8.416043090820313,0.5105163574218751,8.823977661132814
0.4030000000000129,11.051467895507812,1.0818939208984375,10.0165283203125
0.4130000000000109,9.098974609375,0.6341827392578125,7.591500854492188
0.4229999999999982,6.2362548828125,1.042117309570313,5.640203857421875
0.4330000000000176,5.032339477539063,0.325689697265625,5.8869384765625
0.443000000000012,6.350350952148438,-0.5794525146484375,7.312316894531251
0.4540000000000042,6.609497070312501,-0.20576171875,6.226235961914063
0.4639999999999951,7.58267822265625,-0.4990020751953125,4.78037109375
0.4740000000000144,9.117367553710938,-0.021234130859375,5.672802734375001
0.4840000000000053,9.278717041015623,0.4825531005859375,8.260974121093751
0.4939999999999998,7.798757934570313,-0.424981689453125,9.16043395996094
0.5040000000000155,6.736901855468751,-0.1643402099609375,7.793225097656251
0.5140000000000065,5.976959228515625,-0.0491973876953125,5.823385620117188
0.5239999999999974,7.636810302734376,0.6283508300781251,4.9768615722656255
0.5340000000000131,8.221795654296876,0.3198577880859375,4.659097290039063
0.5440000000000111,7.808178710937501,0.08673095703125,4.730426025390625
0.5539999999999985,7.111639404296875,0.7526153564453125,4.942019653320313
0.5640000000000178,7.233511352539063,0.7357177734375,6.441268920898438
0.5740000000000087,7.498040771484375,-0.6929504394531251,7.964743041992188
0.5839999999999996,7.656698608398438,-0.2308837890625,7.605706787109375
0.5949999999999953,7.82791748046875,-0.32479248046875,6.395510864257813
0.6050000000000146,7.293774414062501,-0.058319091796875,5.914154052734375
0.6150000000000055,6.808529663085938,-0.384307861328125,6.495999145507813
0.625,6.402239990234375,-0.5075256347656251,6.788192749023438
0.6350000000000158,6.513345336914063,0.3440826416015625,6.634918212890626
0.6450000000000067,7.2291748046875,0.621771240234375,6.327023315429688
0.6549999999999976,7.737448120117188,-0.0997406005859375,6.820492553710938
0.6650000000000169,8.089605712890625,0.2392578125,7.029244995117188
0.6750000000000114,8.204598999023439,0.8347106933593751,6.318798828125001
0.6849999999999987,7.027600097656251,0.423486328125,5.495303344726563
0.695000000000018,5.569174194335938,0.2615386962890625,5.245428466796875
0.705000000000009,3.9553802490234378,0.344232177734375,4.928112792968751
0.7149999999999999,7.076049804687501,-0.627752685546875,6.396258544921875
0.7250000000000192,11.765802001953126,0.084637451171875,7.528994750976563
0.7350000000000136,11.572750854492188,0.313427734375,6.887933349609376
0.7480000000000153,7.643539428710938,-0.6634918212890626,7.613482666015625
0.7559999999999967,4.993908691406251,-0.1547698974609375,7.707241821289063
0.766000000000016,5.457769775390625,-0.2452392578125,8.688796997070312
0.7760000000000069,6.222497558593751,0.395074462890625,7.490414428710938
0.7859999999999978,7.367196655273438,0.5419189453125001,4.58238525390625
0.7960000000000171,8.393762207031251,-0.308642578125,4.6419006347656255
0.8060000000000116,9.5619384765625,-0.442926025390625,5.658596801757813
0.815999999999999,7.974911499023438,-0.2062103271484375,7.438525390625
0.8260000000000183,6.257638549804688,0.2821746826171875,8.987570190429688
0.8360000000000092,6.558804321289063,0.628948974609375,8.341424560546876
0.8480000000000096,7.489517211914063,0.6856231689453125,6.235507202148438
0.8560000000000194,8.916241455078126,0.0647491455078125,4.486532592773438
0.8670000000000151,8.399743652343751,-0.0788055419921875,3.489425659179688
0.8760000000000012,7.829113769531251,-0.119329833984375,3.00926513671875
0.8860000000000241,6.465493774414063,0.294586181640625,6.2338623046875
0.8970000000000127,6.1285888671875,0.0584686279296875,7.376019287109376
0.9070000000000108,6.53592529296875,-0.1057220458984375,7.87935791015625
0.916999999999998,8.077194213867188,0.3983642578125,7.77109375
0.9270000000000174,9.038562011718753,-0.2097991943359375,6.2613769531250005
0.9370000000000118,7.594491577148438,-0.275445556640625,6.746472167968751
0.948000000000004,5.839535522460938,-0.1580596923828125,7.524807739257813
0.9570000000000184,5.350851440429688,-0.0022430419921875,7.568920898437501
0.9670000000000094,6.532635498046876,0.485394287109375,6.650021362304688
0.9769999999999968,8.175888061523438,0.3481201171875,5.532388305664063
0.9870000000000196,8.43623046875,0.0339447021484375,4.557711791992188
0.997000000000014,7.426412963867188,-0.061309814453125,4.134823608398438
1.0070000000000014,5.009909057617188,-0.136676025390625,4.52615966796875
1.0170000000000208,5.7738891601562505,-0.028411865234375,7.6072021484375005
1.028000000000013,10.284646606445314,0.6850250244140625,9.83050537109375
1.038000000000011,12.1794189453125,0.6051727294921876,7.544097900390626
1.0479999999999985,8.6455810546875,0.008673095703125,5.385543823242188
1.0580000000000176,5.3671508789062505,-0.5730224609375001,5.781515502929688
1.068000000000012,4.9538330078125,-0.6301452636718751,7.457366943359376
1.0779999999999994,6.183767700195313,-0.4984039306640625,8.81904296875
1.0880000000000187,6.306237792968751,0.2298370361328125,6.024661254882813
1.0980000000000096,7.8033935546875,0.3955230712890625,4.7929321289062505
1.107999999999997,9.723138427734376,0.5178436279296875,6.240142822265626
1.11800000000002,9.44275817871094,0.6347808837890625,8.109942626953126
1.1280000000000143,7.107901000976563,0.3775787353515625,9.29456787109375
1.1380000000000017,5.7484680175781255,0.2296875,7.2722412109375005
1.148000000000021,6.548785400390625,0.5763122558593751,5.564538574218751
1.1580000000000157,7.8240295410156255,0.31881103515625,4.529299926757813
1.1690000000000111,8.716012573242189,0.1903594970703125,4.525262451171876
1.1789999999999985,8.249908447265625,0.2190704345703125,3.974371337890626
1.1890000000000178,7.6326232910156255,-0.001495361328125,4.391726684570313
1.1990000000000087,6.608749389648438,-0.6899597167968751,6.786099243164063
1.2089999999999996,6.968234252929688,-0.7614379882812501,8.036520385742188
1.219000000000019,7.676437377929688,-0.8010650634765626,8.372827148437501
1.22900000000001,7.872030639648438,-0.5673400878906251,6.807931518554688
1.2389999999999972,7.328317260742188,0.10108642578125,5.577847290039063
1.2490000000000236,6.846212768554688,0.025421142578125,6.415249633789063
1.2590000000000146,6.236553955078126,0.5785552978515626,7.008010864257813
1.269000000000002,6.4013427734375,1.0134063720703126,7.364804077148438
1.2790000000000212,7.140499877929688,0.9191986083984376,6.809127807617188
1.2890000000000157,8.01334228515625,0.40972900390625,6.096438598632813
1.299000000000003,8.559149169921875,0.28172607421875,5.684915161132813
1.3090000000000224,7.716812133789063,0.3922332763671875,5.2221008300781255
1.320000000000018,6.1492248535156255,0.2752960205078125,5.8251800537109375
1.330000000000009,4.742388916015625,-0.3267364501953125,5.995950317382813
1.34,6.0390167236328125,-0.712689208984375,7.055413818359376
1.3500000000000192,10.203897094726564,-0.59036865234375,7.144686889648438
1.3600000000000136,11.99578857421875,0.1164886474609375,6.313265991210938
1.370000000000001,8.23465576171875,-0.478216552734375,5.292532348632813
1.380000000000024,5.544500732421875,-0.12261962890625,7.3787109375
1.3900000000000148,5.511004638671875,-0.061907958984375,9.068319702148438
1.400000000000002,6.56224365234375,-0.07716064453125,9.152209472656253
1.4100000000000217,6.909915161132813,0.7820739746093751,5.781515502929688
1.420000000000016,8.376416015625,0.304754638671875,4.6045166015625005
1.4300000000000033,9.077740478515626,-0.1894622802734375,5.367001342773438
1.4400000000000226,8.173345947265625,0.1535736083984375,6.349154663085938
1.4500000000000135,6.231918334960938,0.8903381347656251,8.336788940429688
1.4610000000000092,6.310873413085938,0.5613586425781251,7.749710083007813
1.471,7.8389831542968755,-0.11304931640625,6.703106689453126
1.4810000000000194,8.651113891601563,-0.40614013671875,4.442718505859375
1.491000000000014,8.923419189453126,-0.0734222412109375,4.350155639648438
1.5010000000000012,7.75853271484375,-0.7923919677734376,3.3107299804687504
1.511000000000024,6.389978027343751,-0.394775390625,6.403137207031251
1.521000000000015,6.046942138671875,0.52457275390625,7.135714721679688
1.5310000000000024,6.7147705078125,0.076861572265625,7.597183227539063
1.5410000000000217,7.819992065429688,0.6984832763671875,7.075152587890625
1.551000000000016,8.778518676757812,0.4370941162109375,6.466690063476563
1.5610000000000035,7.60062255859375,0.0859832763671875,7.228277587890625
1.5709999999999944,6.231918334960938,-0.082244873046875,7.164126586914063
1.5810000000000135,5.4108154296875,0.039776611328125,7.280764770507813
1.5910000000000046,6.606655883789063,0.6829315185546876,7.231567382812501
1.6019999999999968,7.959957885742188,0.1951446533203125,5.646035766601563
1.6120000000000196,7.6658203125,-0.18363037109375,4.4434661865234375
1.622000000000014,5.863162231445313,-0.295782470703125,3.4657989501953126
1.6320000000000014,5.419189453125,-0.717474365234375,4.778576660156251
1.6420000000000208,9.714913940429687,0.4861419677734375,8.620758056640625
1.6520000000000152,12.51737060546875,0.1864715576171875,8.973065185546876
1.6620000000000026,9.675137329101563,0.1039276123046875,7.029693603515626
1.672000000000022,5.510107421875,0.4311126708984375,6.157150268554688
1.6820000000000128,5.078396606445313,-0.5982940673828125,7.053021240234376
1.6920000000000035,6.391024780273438,-0.6754547119140626,9.092395019531253
1.7019999999999946,5.938528442382813,0.29249267578125,6.373080444335938
1.712000000000014,6.870437622070313,0.5474517822265625,4.030895996093751
1.7220000000000049,8.547036743164064,0.2023223876953125,5.052676391601563
1.732999999999997,9.60919189453125,0.59754638671875,7.26207275390625
1.74300000000002,7.9705749511718755,0.585882568359375,10.231561279296876
1.7530000000000143,6.707293701171875,0.04486083984375,8.540008544921875
1.7630000000000017,6.425418090820313,0.2743988037109375,6.330313110351563
1.773000000000021,7.534527587890626,0.424981689453125,4.329071044921875
1.7830000000000157,8.324975585937501,0.2328277587890625,4.216619873046875
1.7930000000000028,8.57679443359375,0.2141357421875,4.2049560546875
1.803000000000022,7.43314208984375,0.386700439453125,3.9232299804687503
1.813000000000013,6.430203247070313,-0.557470703125,6.105410766601563
1.823000000000004,6.842175292968751,-0.78775634765625,7.159490966796875
1.8329999999999949,7.614678955078125,-0.810186767578125,8.622851562500001
1.8430000000000144,8.181570434570313,-0.6543701171875,8.311068725585939
1.853000000000005,7.6206604003906255,0.0177947998046875,6.352145385742188
1.8639999999999968,6.566281127929688,0.031103515625,6.060101318359376
1.874000000000024,6.344967651367188,0.259295654296875,6.577197265625
1.8840000000000143,6.40433349609375,0.7571014404296875,6.855484008789063
1.894000000000002,7.112835693359376,0.8943756103515625,6.7294250488281255
1.9040000000000208,7.816253662109376,0.7270446777343751,5.771646118164063
1.914000000000016,8.410061645507813,0.4140655517578125,5.40184326171875
1.924000000000003,7.595089721679688,0.4868896484375,5.356234741210938
1.9340000000000224,6.173599243164063,0.603826904296875,6.316107177734375
1.9440000000000133,5.282064819335938,-0.12142333984375,6.906027221679688
1.954000000000004,7.14244384765625,-0.5748168945312501,8.0402587890625
1.963999999999995,10.414593505859376,-0.5423675537109376,6.8744750976562505
1.9740000000000144,10.143783569335938,-0.1481903076171875,5.668466186523438
1.984000000000005,7.101470947265626,-0.422589111328125,5.1074066162109375
1.994,5.621661376953125,-0.4134674072265625,7.4322448730468755
2.0040000000000155,5.929556274414063,-0.0737213134765625,8.14613037109375
2.0140000000000065,6.815557861328125,0.3802703857421875,7.631277465820313
2.025000000000002,7.595837402343751,0.2875579833984375,5.081387329101563
2.035000000000021,9.481637573242187,-0.020635986328125,5.515042114257813
2.047000000000022,8.94166259765625,-0.7968780517578126,7.201062011718751
2.055000000000004,7.280914306640626,0.160302734375,8.680722045898438
2.0650000000000226,5.851947021484375,0.7494750976562501,7.191940307617188
2.075000000000013,5.822488403320313,0.6916046142578125,6.549084472656251
2.0850000000000044,8.130877685546876,0.322998046875,5.45806884765625
2.094999999999996,8.855081176757814,-0.405242919921875,4.677041625976563
2.105000000000014,8.588009643554688,-0.2069580078125,4.530645751953125
2.115000000000005,7.882049560546876,-0.17047119140625,4.227835083007813
2.125,6.761724853515625,-0.3515594482421875,6.979748535156251
2.135000000000016,6.625048828125,0.318212890625,8.071063232421876
2.148000000000021,7.13406982421875,0.4517486572265625,7.467834472656251
2.1560000000000024,7.868292236328125,0.408233642578125,5.617922973632813
2.1660000000000217,8.189495849609376,0.5001983642578125,5.141949462890626
2.176000000000016,7.256838989257813,-0.1140960693359375,6.481195068359376
2.1860000000000035,6.186160278320313,-0.3560455322265625,7.521817016601563
2.1959999999999944,5.873480224609375,0.212042236328125,7.698269653320313
2.2060000000000137,6.230422973632813,0.4239349365234375,8.163027954101564
2.2160000000000046,7.78245849609375,0.18363037109375,6.726434326171876
2.2259999999999955,8.123101806640626,-0.2080047607421875,5.299111938476563
2.236000000000015,6.636712646484376,-0.032000732421875,4.1080566406250005
2.247000000000014,4.673751831054688,-0.2409027099609375,4.07635498046875
2.2559999999999967,7.830010986328125,0.1081146240234375,7.158444213867188
2.266000000000016,12.400582885742187,0.7774383544921876,8.015435791015626
2.276000000000007,11.538806152343753,-0.0961517333984375,7.0045715332031255
2.285999999999998,6.4396240234375,0.1064697265625,6.175842285156251
2.296000000000017,4.687359619140626,-0.1709197998046875,7.293325805664063
2.307000000000013,5.562145996093751,-0.771307373046875,9.020318603515626
2.317000000000004,6.052774047851563,-0.4720855712890625,7.7283264160156255
2.326999999999994,6.764266967773438,0.3267364501953125,4.08353271484375
2.337000000000014,8.151812744140626,0.2124908447265625,4.295425415039063
2.347000000000005,9.812261962890624,0.3386993408203125,6.393865966796875
2.356999999999996,8.652310180664063,0.8396453857421876,8.749209594726564
2.367000000000015,6.767855834960938,0.399261474609375,9.8873291015625
2.377000000000006,5.842376708984375,0.2657257080078125,7.407720947265625
2.386999999999997,6.8343994140625,0.3449798583984375,5.289691162109375
2.3970000000000127,8.3082275390625,0.24583740234375,4.573114013671876
2.4080000000000155,8.858670043945313,0.1906585693359375,4.1559082031250005
2.416999999999998,8.118316650390625,0.343035888671875,3.2688598632812504
2.4270000000000174,6.560000610351563,0.32718505859375,5.528948974609375
2.438000000000013,6.78056640625,-0.5959014892578125,7.30693359375
2.446999999999999,7.56114501953125,-0.8388977050781251,8.263067626953125
2.457999999999995,7.818795776367188,-0.9359466552734376,7.682418823242188
2.468000000000014,8.129531860351562,-0.4098785400390625,6.180926513671875
2.478000000000005,7.249511718750001,0.2382110595703125,5.871087646484376
2.487999999999996,6.37681884765625,-0.4556365966796875,6.6286376953125
2.498000000000016,6.032437133789063,0.407037353515625,6.834249877929688
2.5080000000000062,6.635366821289063,1.1879150390625002,7.246820068359375
2.517999999999997,7.547985839843751,1.0552764892578126,6.860717773437501
2.528000000000013,8.091250610351564,0.2684173583984375,6.110943603515626
2.538000000000011,8.088708496093751,0.4496551513671875,5.87437744140625
2.5479999999999983,8.010202026367189,0.6153411865234375,5.965893554687501
2.5580000000000176,6.221749877929688,-0.0692352294921875,6.1078033447265625
2.568000000000012,4.693341064453126,-0.396868896484375,5.87437744140625
2.5779999999999994,5.4060302734375005,-0.65736083984375,6.402389526367188
2.588999999999995,10.307974243164065,-0.789251708984375,7.136761474609376
2.5990000000000144,12.027938842773438,-0.1184326171875,6.420333862304688
2.6090000000000053,8.578140258789062,-0.296978759765625,5.206698608398438
2.619,5.505621337890625,-0.159405517578125,6.776528930664063
2.6290000000000155,5.680728149414063,0.27454833984375,8.728274536132814
2.6390000000000065,6.305340576171876,0.3313720703125,8.936279296875
2.6489999999999974,6.895559692382813,0.9633117675781252,6.372482299804688
2.659000000000013,8.131924438476563,0.5453582763671876,4.487579345703125
2.669000000000011,8.864202880859375,-0.2229583740234375,5.159445190429688
2.6789999999999985,8.643637084960938,0.0363372802734375,6.897055053710938
2.689000000000018,6.744827270507813,0.6916046142578125,8.965737915039064
2.7010000000000183,6.670657348632813,0.463262939453125,7.993603515625001
2.709,6.465493774414063,-0.0155517578125,5.938079833984375
2.719000000000019,8.122653198242189,-0.303857421875,4.408474731445313
2.730000000000014,9.0044677734375,-0.3644195556640625,4.437634277343751
2.740000000000005,8.73111572265625,-0.8064483642578125,4.131832885742188
2.75,6.414202880859375,-0.8691040039062501,5.330364990234376
2.760000000000016,6.288442993164063,0.3108856201171875,7.464096069335938
2.7700000000000067,7.05631103515625,0.12860107421875,8.013790893554688
2.7799999999999976,7.84346923828125,0.5882751464843751,7.429403686523438
2.790000000000017,8.099923706054689,1.107763671875,5.995053100585938
2.800000000000012,7.672250366210938,0.6634918212890626,5.968884277343751
2.8099999999999987,6.444259643554688,-0.21533203125,6.760977172851563
2.820000000000018,5.732766723632813,-0.03170166015625,7.011151123046876
2.830000000000009,6.295620727539063,0.5426666259765626,7.867245483398438
2.8410000000000046,7.749710083007813,0.385205078125,6.909915161132813
2.850000000000019,8.429949951171876,-0.47373046875,5.687905883789063
2.863999999999997,7.341775512695313,-0.5000488281250001,4.686761474609376
2.8710000000000058,5.482443237304688,-0.6418090820312501,4.939178466796875
2.8809999999999967,4.874728393554688,-0.3692047119140625,6.056512451171876
2.891000000000016,8.900091552734375,0.03648681640625,7.746719360351563
2.901000000000007,12.566567993164064,0.390289306640625,7.093395996093751
2.910999999999998,10.5357177734375,0.3695037841796875,5.742037963867188
2.921000000000017,6.428109741210938,0.2770904541015625,5.7517578125
2.931000000000012,4.863363647460938,-0.4170562744140625,8.345910644531251
2.940999999999999,5.6292877197265625,-0.4939178466796875,9.925012207031251
2.9510000000000183,5.6183715820312505,0.1963409423828125,7.400393676757813
2.9630000000000187,7.202407836914063,0.7385589599609376,3.9746704101562496
2.971,8.56483154296875,0.237164306640625,4.317556762695313
2.9810000000000194,9.852188110351562,0.3177642822265625,6.55087890625
2.991000000000014,8.603561401367188,1.113894653320313,7.5497802734375
3.002000000000006,6.008810424804688,0.1112548828125,9.352587890625
3.011999999999997,5.942266845703125,-0.01614990234375,7.549630737304688
3.0220000000000127,7.050628662109376,0.31163330078125,5.328121948242188
3.0320000000000107,8.919830322265625,0.22191162109375,4.952038574218751
3.041999999999998,9.250753784179688,0.067291259765625,4.440475463867188
3.0520000000000174,7.828366088867188,-0.1993316650390625,3.163137817382813
3.063000000000013,6.0449981689453125,-0.4403839111328125,5.466741943359375
3.071999999999999,6.307135009765625,-0.5374328613281251,7.254296875
3.0820000000000185,7.244427490234376,-0.723455810546875,8.55885009765625
3.0920000000000094,8.042202758789063,-0.2456878662109375,7.976107788085938
3.1019999999999968,8.509503173828126,0.6084625244140626,5.897406005859375
3.11200000000002,7.579986572265626,-0.166583251953125,6.076699829101563
3.122000000000014,6.159841918945313,0.3730926513671875,6.867745971679688
3.132000000000001,5.620913696289063,0.6838287353515625,7.580136108398438
3.142999999999997,6.446054077148438,0.8903381347656251,7.240240478515625
3.1520000000000152,7.64189453125,0.426177978515625,6.034829711914063
3.163000000000011,8.294619750976564,-0.0131591796875,5.103219604492188
3.1729999999999983,8.850894165039064,0.253912353515625,5.006021118164063
3.1830000000000176,7.275680541992188,0.2346221923828125,5.930303955078125
3.193000000000012,5.221203613281251,-0.265875244140625,6.656301879882813
3.2029999999999994,4.27135009765625,-0.5036376953125,6.768603515625
3.2130000000000187,7.990911865234375,-0.8231964111328126,7.733261108398438
3.2230000000000096,12.116763305664064,-0.1686767578125,7.150369262695313
3.232999999999997,10.6242431640625,-0.057720947265625,5.400796508789063
3.24300000000002,6.90677490234375,-0.111553955078125,4.524215698242188
3.2530000000000143,5.299261474609375,0.397467041015625,7.84227294921875
3.2630000000000017,5.475564575195313,0.093011474609375,9.488516235351565
3.273000000000021,6.008062744140625,0.7780364990234375,7.975958251953125
3.284000000000013,7.510452270507813,1.029705810546875,4.932150268554688
3.294000000000011,9.084170532226564,0.0705810546875,5.074658203125001
3.3039999999999985,9.618612670898438,-0.4269256591796875,6.045297241210938
3.314000000000018,7.475311279296876,0.023028564453125,7.841525268554688
3.3240000000000087,5.933145141601563,0.2594451904296875,8.996990966796876
3.334,6.369790649414063,-0.1269561767578125,7.621109008789063
3.344000000000019,7.551425170898438,-0.3859527587890625,5.144192504882813
3.35400000000001,8.938821411132814,-0.1173858642578125,3.8708923339843753
3.363999999999997,8.840875244140626,-0.4604217529296875,3.2041107177734376
3.374000000000024,7.917190551757813,-0.53175048828125,3.4662475585937504
3.3840000000000146,6.596786499023438,0.615789794921875,6.773837280273438
3.394000000000002,6.511102294921876,0.2286407470703125,7.848403930664063
3.404000000000021,6.936233520507813,0.4269256591796875,8.260525512695313
3.414000000000016,7.737149047851563,1.2022705078125,7.579986572265626
3.424000000000003,8.4039306640625,0.267669677734375,5.940023803710938
3.4340000000000224,7.02281494140625,-0.122320556640625,6.506466674804688
3.445000000000018,5.723196411132813,-0.351409912109375,7.233810424804688
3.455000000000009,5.665625,0.1308441162109375,7.721746826171875
3.465,6.9462524414062505,0.3416900634765625,7.181024169921876
3.475000000000019,8.288189697265626,-0.3234466552734375,5.89471435546875
3.4850000000000136,8.354583740234375,-0.4391876220703125,4.712481689453125
3.495000000000001,6.452633666992188,-0.562255859375,3.983493041992188
3.505000000000024,4.490570068359375,-0.52457275390625,4.6523681640625005
3.515000000000015,6.431399536132813,-0.18482666015625,7.216165161132813
3.525000000000002,12.556698608398438,0.8441314697265626,8.972616577148438
3.535000000000021,13.604797363281252,1.0415191650390625,7.502676391601563
3.545000000000016,7.61497802734375,0.015850830078125,5.531341552734375
3.555000000000004,3.109005737304688,-0.3745880126953125,6.405081176757813
3.565999999999999,4.051980590820313,-0.3766815185546875,9.012542724609377
3.575000000000013,5.598483276367188,-0.32359619140625,9.868487548828126
3.586000000000009,7.011300659179688,0.3696533203125,4.526608276367188
3.596,8.715115356445313,0.3656158447265625,2.7030151367187503
3.6060000000000194,10.497735595703126,0.2032196044921875,4.802801513671875
3.616000000000014,9.622052001953126,1.0344909667968751,8.307479858398438
3.626000000000001,7.59703369140625,0.3075958251953125,9.671548461914064
3.636000000000024,4.94964599609375,-0.0346923828125,9.745568847656251
3.646000000000015,4.494458007812501,0.303558349609375,5.6143341064453125
3.6560000000000015,7.876516723632813,-0.0275146484375,3.975418090820313
3.6660000000000217,10.19776611328125,0.0722259521484375,5.612240600585938
3.676000000000016,8.702853393554689,-0.0157012939453125,3.502734375
3.686000000000004,7.1735473632812505,0.599041748046875,3.087472534179688
3.6959999999999935,5.694784545898438,0.0491973876953125,6.721649169921876
3.7060000000000137,7.1959777832031255,-0.6613983154296875,9.279913330078124
3.7160000000000046,8.184860229492188,-0.5897705078125001,8.767453002929688
3.7269999999999968,8.864053344726564,-0.3775787353515625,6.118869018554688
3.73700000000002,7.98582763671875,0.2392578125,4.623358154296875
3.747000000000014,6.229376220703125,0.1529754638671875,5.5794921875000005
3.7570000000000014,5.122659301757813,-0.38759765625,7.205697631835938
3.7670000000000208,5.847760009765626,0.208154296875,7.941265869140626
3.7770000000000152,7.268951416015626,1.1566619873046875,7.807730102539063
3.7870000000000026,8.883343505859376,0.4104766845703125,5.812918090820313
3.797000000000022,8.953924560546875,-0.1496856689453125,5.153463745117188
3.807000000000013,7.4202819824218755,0.5453582763671876,5.515341186523438
3.817000000000004,5.4902191162109375,0.7490264892578126,6.698620605468751
3.826999999999994,4.452139282226563,-0.18662109375,6.332257080078126
3.837000000000014,6.344219970703126,-0.5108154296875,6.874624633789063
3.847000000000005,11.457608032226563,-0.163592529296875,6.523812866210938
3.856999999999996,12.054855346679688,-0.1308441162109375,5.069424438476563
3.867000000000015,8.2795166015625,-0.317913818359375,4.445260620117188
3.8780000000000143,5.086471557617188,0.14056396484375,8.297311401367189
3.8890000000000073,5.285055541992188,-0.27095947265625,9.9758544921875
3.898000000000021,5.86181640625,0.0991424560546875,9.010150146484376
3.908000000000016,6.711181640625001,0.84278564453125,5.340982055664063
3.918000000000003,8.325872802734375,0.0083740234375,4.565487670898438
3.928000000000022,9.757232666015623,-0.38101806640625,6.2210021972656255
3.938000000000013,8.304937744140625,-0.22490234375,6.612487792968751
3.948000000000004,6.260629272460938,0.5585174560546875,8.585916137695314
3.957999999999995,5.668765258789063,0.4071868896484375,7.401889038085938
3.968000000000014,7.331008911132813,-0.307147216796875,6.507363891601563
3.978000000000005,9.140097045898438,-0.0285614013671875,4.682574462890625
3.987999999999996,9.162527465820313,-0.2268463134765625,3.873434448242188
3.9980000000000153,8.181719970703126,-0.325390625,2.7076507568359376
4.009000000000015,6.526803588867188,0.4813568115234375,6.398052978515626
4.019000000000002,6.378762817382813,-0.032598876953125,7.998239135742188
4.029000000000021,6.682022094726563,0.3724945068359375,8.108297729492188
4.039000000000016,7.194931030273438,0.8193084716796876,7.14603271484375
4.049000000000003,8.416790771484376,0.263482666015625,5.6303344726562505
4.059000000000022,8.014837646484375,-0.0737213134765625,6.018679809570313
4.069000000000013,6.601870727539063,-0.4988525390625,7.243081665039063
4.079000000000004,5.859423828125,0.11185302734375,7.606304931640626
4.088999999999995,6.207394409179688,0.4658050537109375,7.571313476562499
4.099000000000014,7.394113159179688,-0.0897216796875,6.9701782226562505
4.109000000000005,8.130877685546876,-0.4125701904296875,5.1178741455078125
4.119,7.400094604492188,-0.1661346435546875,4.257293701171875
4.130000000000024,5.468835449218751,0.0058319091796875,4.182675170898438
4.139000000000007,5.278475952148438,-0.1622467041015625,6.356930541992188
4.150000000000002,9.991256713867188,0.7600921630859375,8.565579223632813
4.162000000000003,12.841265869140626,0.893927001953125,7.769299316406251
4.170000000000016,9.201257324218751,0.2328277587890625,5.598034667968751
4.180000000000003,5.260083007812501,0.045758056640625,6.498690795898438
4.190000000000023,4.975067138671875,-0.6018829345703125,8.049829101562501
4.2000000000000135,6.061596679687501,-0.8840576171875001,9.226828002929688
4.210000000000004,6.102120971679688,-0.04306640625,6.248516845703126
4.219999999999995,7.677633666992188,0.3683074951171875,3.6766448974609376
4.230000000000015,9.23953857421875,0.0085235595703125,5.403936767578125
4.2400000000000055,9.475656127929687,0.493768310546875,7.009356689453125
4.25,6.976907348632813,0.487786865234375,9.937274169921876
4.261999999999997,6.109747314453125,0.18243408203125,8.26934814453125
4.270000000000007,6.289489746093751,0.4173553466796875,6.294723510742188
4.279999999999998,8.327816772460938,0.3443817138671875,4.582684326171876
4.291000000000022,9.063235473632814,0.33914794921875,4.259835815429688
4.301000000000016,8.905325317382813,0.466253662109375,3.463107299804688
4.311000000000004,6.550729370117188,0.486590576171875,4.900897216796875
4.320999999999994,5.7433837890625,-0.4080841064453125,6.715817260742188
4.331000000000014,6.562542724609376,-0.820355224609375,7.602566528320313
4.341000000000005,8.0354736328125,-1.01983642578125,8.350695800781251
4.350999999999996,8.846258544921875,-0.71119384765625,6.690246582031251
4.362999999999996,8.156149291992188,0.108563232421875,6.0089599609375
4.371000000000006,6.54788818359375,0.1054229736328125,6.688900756835938
4.380999999999997,5.541360473632813,-0.3455780029296875,7.153210449218751
4.391000000000016,5.8725830078125005,0.484197998046875,7.289288330078126
4.401000000000007,7.030441284179688,1.1669799804687502,6.97855224609375
4.410999999999998,8.490512084960939,0.68487548828125,5.516986083984375
4.421000000000017,8.647973632812501,0.3409423828125,4.996151733398438
4.431000000000012,8.261721801757814,0.64420166015625,5.700018310546875
4.442000000000004,6.778921508789063,0.7907470703125,6.68187255859375
4.451999999999995,4.624105834960938,-0.3372039794921875,6.805239868164063
4.463000000000019,4.182974243164063,-0.478814697265625,6.0185302734375
4.472000000000005,7.865451049804688,-0.6410614013671876,6.817501831054688
4.481999999999996,13.671041870117188,-0.4906280517578125,7.226483154296876
4.492000000000015,12.034817504882811,-0.4176544189453125,5.366851806640625
4.502000000000006,6.109149169921875,-0.2356689453125,5.159146118164063
4.511999999999997,3.9313049316406254,-0.0396270751953125,8.160934448242188
4.522000000000013,4.530645751953125,-0.0886749267578125,9.750054931640626
4.532000000000011,5.720056152343751,0.8848052978515626,8.596832275390625
4.541999999999998,7.517181396484376,0.6524261474609375,3.9742218017578126
4.552000000000017,10.294515991210938,0.1451995849609375,4.336099243164063
4.563000000000013,9.9543212890625,-0.106768798828125,5.038021850585938
4.573000000000004,8.305834960937501,0.3361572265625,7.4531799316406255
4.582999999999995,6.010754394531251,0.429168701171875,10.409957885742188
4.593000000000014,5.313018798828125,0.0013458251953125,8.436529541015625
4.603000000000005,6.610394287109376,0.31103515625,5.314215087890625
4.612999999999996,9.084918212890626,0.0441131591796875,3.939678955078125
4.623000000000015,9.278268432617187,-0.6123504638671875,4.1331787109375
4.633000000000006,8.414547729492188,-0.6591552734375,3.391928100585938
4.642999999999997,6.459960937500001,-0.4891326904296875,4.649826049804688
4.653000000000013,6.3286682128906255,0.1972381591796875,8.659039306640626
4.663000000000011,6.6609375,0.2260986328125,8.833547973632813
4.672999999999998,8.054315185546876,0.7914947509765625,7.834796142578125
4.683000000000018,8.932391357421876,0.7031188964843751,5.387786865234375
4.693000000000012,8.208486938476563,0.4104766845703125,4.678536987304688
4.704000000000004,5.691644287109376,0.0059814453125,6.314910888671876
4.713999999999995,4.864559936523438,-0.07476806640625,7.912704467773438
4.724000000000014,5.893667602539063,0.1852752685546875,8.802593994140626
4.734000000000005,7.764364624023438,0.383111572265625,7.304541015625
4.744,8.588159179687501,-0.4287200927734375,5.163931274414063
4.754000000000016,7.415048217773438,-0.44501953125,4.353445434570313
4.764000000000007,5.78465576171875,-0.7445404052734376,4.271649169921876
4.773999999999997,6.498242187500001,-0.3883453369140625,7.597781372070313
4.784000000000013,10.695123291015626,0.7820739746093751,8.240039062500001
4.794000000000011,10.650411987304688,-0.0656463623046875,5.8654052734375
4.803999999999999,7.3724304199218755,0.3497650146484375,4.930654907226563
4.814000000000018,5.7003173828125,0.0722259521484375,6.81346435546875
4.824000000000009,6.103018188476563,-0.8854034423828125,8.742330932617188
4.834,6.851446533203125,0.2465850830078125,9.112881469726563
4.844000000000019,6.291134643554688,1.026715087890625,5.742337036132813
4.855000000000015,7.694680786132813,0.5045349121093751,4.525860595703126
4.8650000000000055,9.218453979492187,0.6957916259765625,5.897406005859375
4.875,8.076296997070314,0.418402099609375,8.83280029296875
4.885000000000016,6.95103759765625,0.5508911132812501,9.010748291015624
4.895000000000007,6.199618530273438,-0.183929443359375,6.132925415039063
4.904999999999998,7.467834472656251,-0.2133880615234375,4.926766967773438
4.915000000000017,8.251553344726563,0.480010986328125,4.700967407226563
4.925000000000011,9.094488525390624,0.2501739501953125,5.045947265625
4.934999999999999,7.825375366210938,-0.2274444580078125,5.118621826171875
4.945000000000018,6.806735229492188,-0.2702117919921875,5.4610595703125
4.955000000000009,6.445156860351563,-0.8833099365234376,6.290835571289063
4.965,7.367196655273438,-1.0747161865234376,7.376617431640626
4.975000000000019,7.950537109375,-0.197686767578125,7.403683471679688
4.985000000000014,7.84825439453125,0.754559326171875,6.635815429687501
4.996000000000006,7.128387451171876,0.108563232421875,6.446652221679688
5.005999999999997,6.445156860351563,-0.4175048828125,6.752603149414063
5.016000000000016,6.4064270019531255,0.7119415283203125,7.186108398437501
5.026000000000007,6.655853271484376,0.8812164306640625,7.276428222656251
5.035999999999998,7.362710571289063,0.7624847412109376,6.691293334960938
5.046000000000017,7.734457397460938,0.3659149169921875,5.784954833984376
5.056000000000012,8.139999389648438,0.1272552490234375,5.576052856445313
5.065999999999999,7.451684570312499,0.5788543701171875,5.570968627929688
5.079000000000004,6.133822631835938,0.2489776611328125,5.966192626953125
5.086000000000009,4.631582641601563,-0.4438232421875,5.941070556640625
5.096,7.025057983398438,-0.8297760009765626,6.766958618164063
5.106000000000019,11.494692993164064,-0.2914459228515625,7.121807861328126
5.116000000000014,11.362652587890626,0.03768310546875,6.041259765625
5.126000000000001,6.824380493164063,-0.4092803955078125,6.352743530273438
5.136999999999997,4.774688720703125,0.0085235595703125,7.785748291015626
5.147000000000013,5.687756347656251,-0.0252716064453125,8.87945556640625
5.157000000000011,6.849801635742188,0.5214324951171876,7.858721923828125
5.166999999999998,7.628436279296875,0.680389404296875,4.806240844726563
5.178999999999999,8.983084106445313,0.051739501953125,5.201763916015626
5.187000000000012,9.20185546875,-0.8568420410156251,6.1764404296875
5.196999999999999,7.116275024414063,-0.0192901611328125,8.851492309570313
5.2070000000000185,6.031988525390625,0.8800201416015626,8.461352539062501
5.217000000000009,6.036325073242188,0.0378326416015625,6.821389770507813
5.226999999999997,8.157345581054688,0.0512908935546875,5.024862670898438
5.23700000000002,8.938970947265625,-0.2803802490234375,3.955978393554688
5.247000000000014,9.176135253906253,-0.2190704345703125,3.813470458984375
5.2570000000000014,7.748812866210938,-0.3817657470703125,3.868948364257813
5.267000000000021,6.262274169921875,0.3026611328125,7.445553588867188
5.279000000000021,6.330163574218751,0.5253204345703125,7.620809936523438
5.288000000000011,6.7952209472656255,0.160601806640625,7.684512329101563
5.297999999999998,8.110989379882813,0.691754150390625,6.303994750976563
5.308000000000018,8.856875610351564,0.44501953125,5.3571319580078125
5.318000000000012,7.374075317382813,-0.39776611328125,6.896307373046875
5.327999999999999,5.878265380859375,-0.0192901611328125,7.610641479492188
5.338000000000019,5.362066650390625,0.0203369140625,7.781561279296875
5.34800000000001,6.0729614257812505,0.09989013671875,8.094689941406251
5.357999999999997,7.769299316406251,0.5199371337890626,6.542803955078125
5.36800000000002,8.941812133789064,-0.26856689453125,4.939328002929688
5.379000000000016,8.59234619140625,-0.2627349853515625,4.434494018554688
5.388000000000002,6.613983154296876,0.0895721435546875,4.15531005859375
5.398999999999997,4.431802368164063,0.0285614013671875,5.842974853515625
5.408000000000016,5.063592529296876,-0.116937255859375,7.266110229492188
5.418000000000003,10.050772094726565,0.5426666259765626,8.673693847656251
5.428999999999999,13.312454223632814,0.7343719482421875,6.612338256835938
5.439000000000018,10.111184692382814,0.1048248291015625,4.981048583984375
5.449000000000009,5.314364624023438,-0.512310791015625,6.546990966796876
5.459,4.093103027343751,-0.5296569824218751,9.311016845703126
5.469000000000019,5.2624755859375005,-0.593060302734375,10.134512329101565
5.47900000000001,5.180978393554688,-0.0512908935546875,6.3774169921875
5.488999999999997,8.498886108398438,0.248828125,3.7407958984375
5.499000000000024,10.361956787109376,-0.0107666015625,4.673602294921875
5.509000000000015,10.049874877929687,0.2528656005859375,5.304196166992188
5.519000000000002,7.434637451171875,0.6996795654296876,7.471722412109376
5.529000000000021,5.70928955078125,0.270660400390625,9.420327758789064
5.539000000000016,6.021969604492188,0.308642578125,8.131924438476563
5.550000000000011,7.439273071289063,0.7490264892578126,5.314065551757813
5.559999999999999,8.974859619140625,0.3686065673828125,4.341931152343751
5.570000000000018,8.742630004882812,0.0713287353515625,4.242489624023438
5.580000000000009,8.007659912109375,0.23267822265625,3.235662841796876
5.59,6.046942138671875,-0.2056121826171875,5.930752563476563
5.600000000000019,6.186459350585938,-0.8282806396484376,7.966238403320313
5.610000000000014,7.2871948242187505,-0.67410888671875,8.636010742187501
5.620000000000001,8.353237915039063,-0.80689697265625,7.568771362304688
5.630000000000024,8.480642700195313,-0.11065673828125,5.563641357421876
5.640000000000015,6.95103759765625,0.4397857666015625,6.0764007568359375
5.650000000000002,5.940023803710938,0.1661346435546875,7.0927978515625005
5.6600000000000215,5.8426757812500005,0.5788543701171875,7.5354248046875005
5.670000000000016,6.917391967773438,1.1542694091796877,7.034329223632813
5.681000000000012,8.184561157226563,0.6123504638671875,5.651419067382813
5.690000000000023,8.458810424804689,0.2021728515625,4.624554443359376
5.701000000000018,7.3126159667968755,0.6612487792968751,4.95682373046875
5.711000000000009,5.6811767578125005,0.1048248291015625,6.244180297851563
5.721,5.239297485351563,-0.7463348388671875,7.224090576171876
5.731000000000019,8.687899780273439,-0.7831207275390626,8.136709594726563
5.741000000000014,11.46044921875,0.0330474853515625,6.44022216796875
5.751000000000001,9.358868408203126,-0.5420684814453125,5.085574340820313
5.761000000000024,6.167617797851563,-0.1003387451171875,6.065634155273438
5.771000000000015,5.292233276367188,0.408233642578125,8.218206787109375
5.781000000000002,6.405230712890625,-0.082843017578125,9.32327880859375
5.791000000000022,6.628189086914063,0.703717041015625,6.790585327148438
5.801000000000016,7.936331176757813,0.4296173095703125,4.852896118164063
5.811000000000004,9.284100341796876,-0.6196777343750001,5.252755737304688
5.820999999999994,8.839379882812501,-0.1027313232421875,7.672698974609376
5.831000000000014,6.733761596679688,1.191653442382813,8.746368408203125
5.841000000000005,5.903387451171875,0.6373229980468751,7.1813232421875
5.851999999999997,6.631478881835938,0.0610107421875,5.627044677734375
5.86200000000002,8.282058715820312,-0.167181396484375,4.417596435546876
5.872000000000014,9.3824951171875,-0.016748046875,4.961758422851563
5.8820000000000014,8.366546630859375,-0.542218017578125,4.307687377929688
5.892000000000021,7.12210693359375,-0.5633026123046876,5.122659301757813
5.902000000000015,6.187655639648438,0.2071075439453125,7.113882446289063
5.912000000000003,6.791781616210938,-0.1251617431640625,8.25260009765625
5.922000000000022,7.416394042968751,0.563153076171875,7.039114379882813
5.932000000000013,8.451931762695313,0.494964599609375,5.557211303710938
5.942000000000004,7.843319702148438,-0.270361328125,5.6980743408203125
5.951999999999995,6.83140869140625,-0.151031494140625,6.938476562500001
5.962000000000014,5.719757080078125,-0.0931610107421875,7.707092285156251
5.97300000000001,5.997744750976563,0.3004180908203125,8.191290283203125
5.982999999999997,6.980197143554688,0.95284423828125,7.385589599609376
5.994,8.372677612304688,0.0921142578125,5.6816253662109375
6.003000000000014,8.450286865234375,-0.285015869140625,4.62784423828125
6.013000000000002,7.200314331054688,-0.093310546875,4.505075073242188
6.023000000000021,4.829568481445313,-0.375634765625,4.946356201171875
6.033000000000016,4.489373779296876,-0.4768707275390625,6.108102416992188
6.043000000000003,9.434085083007814,0.2304351806640625,7.804290771484376
6.053000000000022,13.788278198242187,0.822149658203125,7.341775512695313
6.063000000000013,10.852285766601565,-0.037384033203125,6.0209228515625
6.073000000000004,5.562145996093751,0.12979736328125,6.966140747070313
6.082999999999995,4.0871215820312505,-0.330474853515625,8.903979492187501
6.093000000000014,5.315859985351563,-0.6978851318359376,9.9830322265625
6.103000000000005,5.299411010742188,0.16807861328125,7.232015991210938
6.112999999999996,7.353738403320313,0.44202880859375,3.1276977539062503
6.123000000000015,9.876712036132814,0.124114990234375,4.3891845703125005
6.134000000000015,10.295263671875,0.4749267578125,5.713775634765625
6.144000000000002,7.853039550781251,1.0654449462890625,7.5369201660156255
6.154000000000021,5.940472412109376,0.2657257080078125,9.618612670898438
6.164000000000016,6.015838623046875,0.095404052734375,8.130279541015625
6.174000000000003,7.2871948242187505,0.3931304931640625,5.432199096679688
6.184000000000022,9.27527770996094,0.2548095703125,4.358978271484375
6.194000000000013,8.813211059570314,-0.14534912109375,4.1668243408203125
6.204000000000004,7.867095947265626,-0.10587158203125,2.6832763671875
6.213999999999995,5.645437622070313,-0.2404541015625,5.384646606445313
6.224000000000014,6.223843383789063,-0.6694732666015626,7.699017333984376
6.234000000000005,7.330111694335938,-0.6311920166015625,8.930447387695313
6.244,8.347854614257812,-0.7400543212890626,8.201907348632814
6.254000000000016,8.61268310546875,0.1233673095703125,5.973818969726563
6.265000000000015,7.365850830078125,0.641510009765625,6.200067138671876
6.275000000000002,5.7848052978515625,0.085235595703125,7.359719848632813
6.2850000000000215,5.490667724609375,0.66932373046875,7.461703491210938
6.295000000000016,6.77757568359375,1.1484375,6.792678833007813
6.305000000000003,8.030389404296876,0.49107666015625,5.334851074218751
6.315000000000023,8.808276367187501,-0.01136474609375,4.534085083007813
6.3250000000000135,8.301199340820313,0.2489776611328125,4.870989990234375
6.335000000000004,6.6071044921875,0.02572021484375,6.0490356445312505
6.344999999999995,4.305743408203125,-0.5319000244140626,6.7174621582031255
6.355000000000015,5.209689331054688,-0.6805389404296875,7.482339477539063
6.3650000000000055,10.086062622070314,-0.6877166748046876,7.773336791992188
6.378000000000014,12.584661865234375,-0.323895263671875,6.314462280273438
6.385000000000016,9.180172729492188,-0.353204345703125,4.588815307617188
6.395000000000007,5.8311614990234375,0.332867431640625,6.653759765625001
6.406000000000002,5.01065673828125,-0.0797027587890625,9.831851196289064
6.416000000000022,5.8666015625000005,0.3707000732421875,10.17144775390625
6.426000000000016,5.96409912109375,1.2940856933593752,6.329266357421876
6.436000000000004,8.547335815429689,0.6447998046875001,4.041363525390626
6.445999999999994,9.443954467773438,0.0046356201171875,4.867401123046875
6.456000000000014,8.97216796875,0.2883056640625,5.69254150390625
6.466000000000005,7.2052490234375,1.1141937255859375,7.072760009765625
6.478000000000005,5.954080200195313,0.0590667724609375,8.956167602539063
6.486000000000015,6.746621704101563,-0.26138916015625,7.878460693359376
6.496000000000006,8.328863525390625,-0.3913360595703125,4.921234130859375
6.505999999999997,9.311764526367188,-0.4538421630859375,3.8605743408203126
6.516000000000016,7.715017700195313,-0.7838684082031251,3.1175292968750004
6.526000000000007,6.774884033203126,-0.7662231445312501,4.555767822265626
6.535999999999998,6.025259399414063,0.25181884765625,7.267007446289063
6.546000000000017,6.734509277343751,0.0025421142578125,8.032931518554689
6.556000000000012,7.295718383789063,0.6599029541015625,8.11502685546875
6.567000000000004,8.817398071289062,1.0681365966796876,6.862661743164063
6.576999999999995,8.206692504882813,0.1586578369140625,6.881204223632813
6.587000000000014,6.277227783203125,0.0118133544921875,7.198220825195313
6.597000000000005,5.465994262695313,0.497357177734375,7.042404174804688
6.606999999999996,6.26676025390625,0.5384796142578125,7.078890991210938
6.617000000000015,7.735205078125,0.049945068359375,5.6381103515625
6.627000000000006,8.589056396484375,-0.112451171875,4.6528167724609375
6.636999999999997,7.499835205078125,-0.5647979736328126,4.152767944335938
6.647000000000013,5.5603515625,-0.6750061035156251,4.805941772460938
6.657000000000011,4.769155883789063,-0.313128662109375,6.6166748046875
6.666999999999998,9.166864013671876,-0.0225799560546875,9.04200134277344
6.678000000000022,13.221536254882814,0.7810272216796875,7.846609497070313
6.687000000000012,10.260122680664065,-0.119927978515625,5.97247314453125
6.698000000000004,5.279672241210938,0.0634033203125,6.174346923828126
6.707999999999995,4.279873657226563,-0.4436737060546875,7.851992797851563
6.718000000000014,5.486331176757813,-0.6922027587890626,9.267202758789065
6.728000000000005,6.171954345703125,0.3814666748046875,7.213473510742188
6.737999999999996,7.530938720703125,0.6566131591796875,3.8388916015625
6.748000000000015,9.8251220703125,0.2705108642578125,4.72952880859375
6.758000000000006,10.212271118164065,0.71478271484375,6.5903564453125005
6.767999999999997,7.66641845703125,0.9344512939453126,8.6431884765625
6.778000000000013,5.5944458007812505,0.0318511962890625,9.145779418945311
6.788000000000011,5.4969482421875,-0.0154022216796875,6.806286621093751
6.797999999999998,7.391421508789063,0.1278533935546875,4.667919921875001
6.808000000000018,9.404925537109376,0.2947357177734375,4.480999755859376
6.818000000000012,9.223837280273438,-0.0285614013671875,4.2875000000000005
6.827999999999999,8.096185302734376,0.1173858642578125,3.2921875000000003
6.838000000000019,5.773590087890625,-0.2092010498046875,5.9697814941406255
6.849000000000014,6.135916137695313,-0.8003173828125001,8.01812744140625
6.859000000000005,6.932943725585938,-0.7826721191406251,9.212173461914062
6.869,8.301947021484375,-0.7587463378906251,7.572061157226563
6.879000000000016,8.591000366210938,0.240155029296875,5.5806884765625
6.889000000000007,7.588809204101563,0.6193786621093751,5.150921630859376
6.898999999999997,5.705999755859375,0.2465850830078125,6.908569335937501
6.909000000000013,5.628988647460938,0.75784912109375,7.960855102539063
6.919000000000011,6.668713378906251,1.0827911376953123,7.705746459960938
6.928999999999999,8.206094360351564,0.4762725830078125,5.806936645507813
6.939000000000018,8.589205932617189,0.1547698974609375,4.711285400390626
6.949000000000009,8.141494750976562,0.256304931640625,4.4753173828125
6.959,6.257937622070313,0.5070770263671875,6.049334716796875
6.969000000000019,4.765716552734375,-0.2298370361328125,7.311270141601563
6.980000000000015,6.902139282226563,-0.7406524658203125,8.459109497070314
6.9900000000000055,10.412051391601564,-0.3958221435546875,6.782958984375001
7.0,10.09952087402344,-0.2142852783203125,4.795175170898438
7.010000000000016,7.801748657226563,-0.0483001708984375,4.919888305664063
7.020000000000007,6.079840087890625,0.220416259765625,7.297512817382813
7.029999999999998,5.873629760742188,-0.3624755859375,9.055609130859375
7.040000000000017,6.327920532226563,0.59036865234375,8.248562622070313
7.050000000000011,7.103115844726563,0.162396240234375,5.577249145507813
7.059999999999999,9.158938598632814,-0.7301849365234375,6.2553955078125005
7.070000000000018,9.119461059570312,-0.338848876953125,6.807333374023438
7.080000000000009,7.608398437500001,0.069384765625,7.673446655273438
7.09,6.183767700195313,1.062005615234375,6.78953857421875
7.100999999999996,5.8510498046875,-0.0142059326171875,6.082083129882813
7.110000000000014,7.909863281250001,-0.0557769775390625,5.929705810546875
7.121000000000006,8.666067504882813,-0.3243438720703125,4.81566162109375
7.130999999999997,8.757284545898438,-0.22310791015625,4.579244995117188
7.141000000000016,7.736251831054688,0.0644500732421875,4.451989746093751
7.151000000000007,7.476806640625001,0.431561279296875,6.287246704101563
7.160999999999998,6.782958984375001,0.33436279296875,7.981192016601563
7.171000000000017,6.853091430664063,0.64300537109375,7.518527221679688
7.181000000000012,7.150070190429688,0.566143798828125,5.7110839843750005
7.190999999999999,7.760626220703125,0.0551788330078125,5.569622802734376
7.201000000000018,7.361813354492188,-0.60233154296875,6.58916015625
7.211000000000009,6.64359130859375,-0.39776611328125,7.569967651367188
7.221,6.402539062500001,0.7277923583984376,7.834048461914063
7.231000000000019,6.585421752929688,0.1906585693359375,7.7776733398437505
7.241000000000014,7.335943603515625,-0.3061004638671875,6.979449462890625
7.251000000000001,8.050875854492189,0.036785888671875,5.45567626953125
7.261000000000024,7.460507202148438,-0.34752197265625,4.49505615234375
7.272000000000013,5.7773284912109375,0.30804443359375,3.993362426757813
7.282000000000011,4.315164184570313,0.093011474609375,4.609002685546876
7.294000000000011,8.466287231445314,0.1846771240234375,7.170257568359376
7.302000000000017,13.141833496093753,1.0533325195312502,8.293872070312501
7.312000000000012,11.506057739257812,0.3919342041015625,7.1600891113281255
7.321999999999999,6.05980224609375,0.01016845703125,7.413552856445313
7.332000000000018,4.115982055664063,-0.4631134033203125,7.940966796875
7.342000000000009,5.448498535156251,-0.8578887939453126,9.447991943359376
7.351999999999997,6.0584564208984375,-0.4726837158203125,7.271792602539063
7.36200000000002,7.394113159179688,0.154022216796875,3.505426025390625
7.372000000000014,8.781509399414062,0.0370849609375,4.240396118164063
7.3820000000000014,9.488815307617188,-0.0429168701171875,6.350350952148438
7.394000000000002,7.944256591796876,0.4711883544921875,7.9690795898437505
7.403000000000013,6.226086425781251,0.2806793212890625,9.76575622558594
7.413000000000011,6.419137573242188,0.3911865234375,8.029043579101563
7.422999999999998,7.815805053710938,0.5636016845703126,4.894317626953125
7.433000000000018,9.243875122070314,0.3518585205078125,4.094149780273438
7.443000000000012,8.536270141601562,0.1888641357421875,3.7176177978515614
7.452999999999999,7.79561767578125,0.6273040771484375,3.3180572509765627
7.463000000000019,5.839984130859375,0.2875579833984375,5.793179321289063
7.47300000000001,6.022268676757813,-0.6563140869140626,7.339981079101563
7.482999999999997,6.892568969726563,-0.7547088623046876,8.309124755859376
7.494,8.681170654296876,-1.182830810546875,7.93199462890625
7.503000000000014,9.199462890625,-0.1416107177734375,6.557308959960938
7.513000000000002,7.222894287109375,0.0530853271484375,6.765014648437501
7.523000000000021,5.412310791015625,-0.02572021484375,7.221997070312501
7.533000000000015,5.361468505859375,0.5531341552734376,7.184762573242188
7.544000000000011,6.670657348632813,0.7876068115234376,6.893914794921876
7.5539999999999985,8.117868041992189,0.5057312011718751,5.557809448242188
7.564000000000018,8.8908203125,0.5489471435546875,4.687808227539063
7.574000000000009,8.739489746093751,0.407037353515625,4.860971069335938
7.584,7.6236511230468755,0.768017578125,6.268704223632813
7.594000000000019,5.4254699707031255,0.173162841796875,7.777972412109375
7.60400000000001,4.149777221679688,-0.5187408447265626,6.332705688476563
7.613999999999997,4.813418579101563,-0.6332855224609375,5.908322143554688
7.624000000000024,10.790676879882811,-0.7594940185546876,6.690097045898438
7.6340000000000146,13.800839233398438,-0.2615386962890625,6.494354248046876
7.644000000000002,9.647323608398438,-0.68607177734375,4.6722564697265625
7.654000000000021,4.564889526367188,-0.1469940185546875,7.139303588867188
7.664000000000016,4.14573974609375,0.1380218505859375,9.663623046875
7.674000000000003,5.89232177734375,0.3689056396484375,11.429495239257813
7.684000000000022,6.061596679687501,0.8918334960937501,6.464596557617188
7.695000000000018,9.339279174804688,0.424981689453125,3.5960449218750004
7.705000000000009,9.888076782226562,-0.02930908203125,4.1728057861328125
7.715,9.140994262695314,0.694744873046875,5.2923828125000005
7.725000000000019,6.983486938476563,0.8776275634765626,7.1855102539062505
7.735000000000014,5.403189086914063,0.175555419921875,9.784298706054688
7.745000000000001,6.292630004882813,0.158807373046875,7.93558349609375
7.755000000000024,8.260076904296875,-0.00777587890625,4.698126220703125
7.765000000000015,9.761419677734375,-0.342437744140625,3.9446136474609377
7.776000000000007,8.496194458007814,-0.814373779296875,3.763076782226563
7.785000000000021,7.136911010742188,-0.9980041503906252,3.892724609375
7.795000000000016,5.972174072265625,-0.127105712890625,6.928009033203126
7.805000000000003,5.965594482421875,-0.0471038818359375,8.014239501953126
7.815999999999999,7.035824584960938,0.410626220703125,8.596084594726562
7.825000000000013,8.733059692382813,0.8471221923828126,6.6609375
7.836000000000009,9.0439453125,0.454290771484375,5.414105224609376
7.846,6.923522949218751,0.7741485595703126,6.786697387695313
7.856000000000019,5.075106811523438,-0.1158905029296875,8.0043701171875
7.866000000000014,5.452984619140626,0.4780670166015625,8.088858032226563
7.876000000000001,7.050180053710938,0.8125793457031251,6.916046142578126
7.886000000000024,8.659039306640626,-0.3074462890625,4.935739135742188
7.896000000000015,8.291928100585938,-0.459674072265625,3.91904296875
7.906000000000002,6.820791625976563,-0.4110748291015625,3.559408569335938
7.916000000000022,5.119519042968751,-0.5924621582031251,5.349356079101563
7.926000000000016,7.197772216796875,-0.2618377685546875,9.21546325683594
7.9360000000000035,11.101412963867189,0.6619964599609376,9.359915161132813
7.945999999999994,11.087506103515626,0.133685302734375,6.378613281250001
7.956000000000014,6.743032836914063,-0.53653564453125,5.175296020507813
7.966000000000005,4.895214843750001,-0.4655059814453125,7.075750732421875
7.976999999999997,5.69732666015625,-0.477020263671875,8.706143188476563
7.98700000000002,6.231918334960938,0.09989013671875,7.959808349609376
7.997000000000014,6.85892333984375,0.9622650146484376,4.47412109375
8.007000000000001,8.824127197265625,0.6163879394531251,4.433746337890625
8.01700000000002,10.46573486328125,0.7711578369140626,6.029446411132813
8.027000000000015,7.997341918945313,0.7971771240234375,9.437075805664064
8.037000000000003,6.182571411132813,0.259295654296875,9.354531860351564
8.047000000000022,5.607156372070313,-0.31043701171875,7.040161132812501
8.057000000000013,7.110891723632813,-0.0384307861328125,5.102023315429688
8.067000000000004,8.608346557617189,0.2758941650390625,4.257144165039063
8.076999999999995,9.204547119140626,0.1706207275390625,4.290789794921875
8.088000000000019,7.796066284179688,-0.0862823486328125,3.654214477539063
8.097000000000005,6.264965820312501,-0.260491943359375,5.97666015625
8.107999999999997,6.416146850585938,-0.5800506591796876,7.126742553710938
8.11800000000002,7.623202514648438,-0.941778564453125,8.283255004882813
8.128000000000014,8.114129638671876,-0.3802703857421875,7.785897827148438
8.138000000000002,8.324676513671875,0.6612487792968751,5.860470581054688
8.148000000000021,7.097732543945313,0.269464111328125,5.985781860351563
8.158000000000015,6.044549560546876,0.3249420166015625,6.784902954101563
8.168000000000003,5.8057403564453125,0.410028076171875,7.41519775390625
8.178000000000022,6.592001342773438,0.7597930908203125,7.327719116210938
8.188000000000013,7.85423583984375,0.6412109375,6.250759887695313
8.198000000000004,8.232412719726563,-0.2308837890625,5.582781982421875
8.207999999999995,7.996295166015625,0.361279296875,5.540463256835938
8.218000000000014,6.695181274414063,0.63941650390625,5.75115966796875
8.228000000000005,5.096041870117188,-0.2944366455078125,6.456521606445313
8.237999999999996,6.224740600585938,-0.6880157470703125,6.6950317382812505
8.248000000000015,9.794317626953124,-0.1700225830078125,6.578244018554688
8.259000000000015,11.176480102539063,0.06878662109375,5.408273315429688
8.269000000000002,8.274133300781251,-0.143255615234375,5.867349243164063
8.279000000000021,5.686859130859375,0.512310791015625,7.863058471679688
8.289000000000016,5.655007934570313,-0.11484375,9.096881103515626
8.299000000000003,6.329116821289063,-0.2130889892578125,8.957662963867188
8.309000000000022,7.09459228515625,0.433355712890625,5.831460571289063
8.319000000000013,8.72513427734375,-0.09510498046875,5.087667846679688
8.329000000000004,9.315802001953124,-0.8928802490234375,5.777478027343751
8.338999999999995,7.893115234375,0.3273345947265625,7.157247924804688
8.349000000000014,5.760281372070313,0.657958984375,7.831057739257813
8.359000000000005,6.169113159179688,0.102581787109375,7.197323608398438
8.369,7.654605102539063,0.16807861328125,5.457919311523438
8.379000000000016,9.44275817871094,-0.3840087890625,4.835101318359375
8.389000000000006,8.657693481445314,-0.45279541015625,4.2067504882812505
8.400000000000002,8.024557495117188,0.1505828857421875,4.430755615234375
8.410000000000021,6.985281372070313,0.635528564453125,5.603567504882813
8.420000000000016,6.381155395507813,0.2187713623046875,8.212973022460938
8.430000000000003,6.0568115234375,0.427374267578125,7.548733520507813
8.440000000000023,7.425067138671875,0.7883544921875001,6.241488647460938
8.450000000000014,8.448043823242188,-0.509918212890625,5.588165283203125
8.460000000000004,8.211029052734375,-0.0617584228515625,6.754547119140626
8.469999999999995,6.586917114257813,-0.0203369140625,7.772888183593751
8.480000000000015,5.765814208984375,-0.244940185546875,7.996743774414063
8.490000000000006,5.798562622070313,0.4203460693359375,7.606304931640626
8.5,7.365103149414063,0.0910675048828125,6.470877075195313
8.510000000000016,8.322882080078125,-0.3859527587890625,5.0423583984375
8.520000000000007,8.124597167968751,0.0219818115234375,4.063943481445313
8.531000000000002,5.99998779296875,0.310137939453125,3.692794799804688
8.541000000000022,4.5571136474609375,0.3458770751953125,5.348458862304688
8.551000000000016,8.273983764648438,0.7070068359375,9.153256225585938
8.561000000000003,12.304431152343753,0.7584472656250001,8.623150634765626
8.570999999999994,10.893258666992187,0.113348388671875,6.293377685546876
8.581000000000014,6.037371826171875,-0.5208343505859375,6.26915283203125
8.593000000000014,4.931851196289063,-0.7298858642578125,7.619763183593751
8.600999999999996,5.841180419921876,-0.8857025146484375,8.900988769531251
8.611000000000015,6.136215209960938,-0.6642395019531251,7.21123046875
8.621000000000006,6.856530761718751,0.26258544921875,4.033139038085938
8.630999999999997,8.909661865234376,0.338250732421875,4.785006713867188
8.641000000000016,9.818991088867188,0.2229583740234375,6.381155395507813
8.651000000000007,7.6550537109375005,0.7318298339843751,9.400588989257812
8.660999999999998,6.385491943359376,0.6135467529296875,8.843118286132814
8.671000000000017,6.73271484375,0.5887237548828126,6.8702880859375
8.681000000000008,7.952481079101563,0.6539215087890625,4.303350830078125
8.693000000000008,8.257534790039063,0.3548492431640625,3.956427001953125
8.701999999999995,8.28250732421875,0.2217620849609375,4.5436553955078125
8.712000000000014,7.536770629882813,-0.01136474609375,4.1929931640625
8.722000000000005,6.522018432617188,-0.4744781494140625,5.978604125976563
8.731999999999996,6.318499755859375,-0.8782257080078125,7.562640380859375
8.742000000000015,7.572958374023438,-1.126904296875,8.126391601562501
8.752000000000006,8.331704711914064,-0.318511962890625,7.477703857421876
8.761999999999997,7.854833984375,0.2023223876953125,6.812866210937501
8.772000000000016,6.934439086914063,0.045758056640625,6.613833618164063
8.782000000000007,6.1671691894531255,0.249725341796875,6.599478149414063
8.793000000000003,6.102569580078125,0.3892425537109375,6.714022827148438
8.802000000000017,7.052273559570313,1.1772979736328126,6.494503784179688
8.812000000000008,7.859469604492188,0.7630828857421875,5.94854736328125
8.823000000000004,8.273684692382814,0.2148834228515625,5.587716674804688
8.832999999999995,8.094839477539063,0.7242034912109375,5.625848388671876
8.843000000000014,6.785800170898438,0.368157958984375,6.025259399414063
8.853000000000005,5.387637329101563,-0.2459869384765625,6.470278930664063
8.862999999999996,4.943814086914063,-0.5857330322265626,6.3226867675781255
8.873000000000015,8.30224609375,-1.0199859619140623,6.978851318359376
8.883000000000006,12.078182983398438,0.087030029296875,6.0759521484375005
8.892999999999997,10.396051025390626,-0.3050537109375,5.983389282226563
8.903000000000016,6.145935058593751,0.2573516845703125,7.012945556640625
8.913000000000007,4.883401489257813,0.2845672607421875,8.364901733398439
8.922999999999998,5.631381225585938,-0.3620269775390625,9.030337524414064
8.933000000000018,6.884344482421875,0.4460662841796875,7.216165161132813
8.943000000000008,8.271890258789064,0.4487579345703125,4.7186126708984375
8.953,9.382794189453126,-0.3696533203125,4.977310180664063
8.963000000000019,9.100021362304688,-0.1416107177734375,6.4168945312500005
8.974000000000014,6.432745361328125,0.462066650390625,8.698965454101563
8.984000000000005,5.8251800537109375,0.7617370605468751,8.427557373046875
8.993999999999996,6.1764404296875,0.16748046875,6.529345703125
9.004000000000016,8.700460815429688,-0.30924072265625,4.765267944335938
9.014000000000006,9.182116699218753,-0.261090087890625,3.913958740234375
9.023999999999996,8.667712402343751,-0.3428863525390625,3.675897216796875
9.034000000000017,7.5982299804687505,-0.4218414306640625,4.5615997314453125
9.044000000000008,6.149673461914063,0.0883758544921875,7.418637084960938
9.053999999999998,6.195281982421876,0.29967041015625,8.077493286132814
9.064000000000018,6.782510375976563,0.76383056640625,7.5892578125
9.074000000000009,8.863156127929688,0.207257080078125,5.6861114501953125
9.084,8.519372558593751,0.34512939453125,5.685513305664063
9.09400000000002,6.930401611328126,-0.0758148193359375,7.360018920898438
9.10400000000001,5.4490966796875,-0.3911865234375,7.833450317382813
9.115000000000006,5.469732666015625,0.3674102783203125,7.868591308593751
9.124999999999996,6.714471435546876,0.4376922607421875,7.377215576171875
9.135000000000016,8.615075683593751,-0.193798828125,5.63272705078125
9.145000000000008,9.167312622070312,0.110955810546875,4.745977783203125
9.154999999999998,7.532882690429688,-0.3386993408203125,4.179534912109375
9.165000000000015,5.127593994140625,-0.110955810546875,4.912411499023438
9.175000000000008,3.746478271484375,-0.0551788330078125,6.026156616210938
9.185,7.197174072265626,-0.0605621337890625,8.006015014648439
9.195000000000018,13.206582641601564,0.8616271972656251,7.49534912109375
9.205000000000007,12.714309692382814,0.3357086181640625,6.0046234130859375
9.215,7.760177612304688,-0.0820953369140625,5.70450439453125
9.22500000000002,4.055419921875,-0.3943267822265625,8.517578125
9.235000000000015,4.549337768554688,-0.7394561767578125,11.17633056640625
9.246000000000006,4.551431274414063,0.0515899658203125,9.3992431640625
9.255999999999997,6.0654846191406255,0.3078948974609375,4.009063720703125
9.266000000000016,9.914694213867188,-0.033795166015625,2.8148681640625
9.276000000000009,10.931689453125,-0.088525390625,3.755599975585938
9.285999999999998,8.513540649414063,0.7091003417968751,7.275082397460938
9.296000000000015,7.54080810546875,0.365765380859375,7.408020019531251
9.306000000000008,5.577398681640625,0.12381591796875,9.807028198242188
9.316,6.164926147460938,0.6794921875000001,7.7232421875
9.326000000000018,8.557504272460939,0.6757537841796876,4.941122436523438
9.33600000000001,9.095535278320312,0.1015350341796875,4.2169189453125
9.346,7.966238403320313,-0.045758056640625,3.3360015869140627
9.35600000000002,6.219805908203125,-0.0390289306640625,3.5915588378906254
9.366000000000016,6.643142700195313,-0.5175445556640625,5.7601318359375
9.376,6.70938720703125,-0.6518280029296876,8.973065185546876
9.38600000000002,7.879208374023438,-0.7209136962890625,9.105255126953123
9.396000000000011,8.878857421875,-0.490777587890625,6.983636474609376
9.407000000000007,7.999285888671875,0.277239990234375,5.933294677734375
9.416999999999998,6.193038940429688,0.093011474609375,7.129434204101563
9.427000000000016,5.340982055664063,0.64599609375,7.30394287109375
9.437000000000008,5.910565185546876,0.936993408203125,7.176239013671876
9.447,7.484432983398438,0.7490264892578126,5.780319213867188
9.45700000000002,8.726629638671875,0.422589111328125,4.72294921875
9.46700000000001,8.446847534179689,0.2213134765625,4.423876953125
9.477,7.523910522460938,0.5956024169921875,4.943963623046876
9.48700000000002,5.281466674804688,0.096600341796875,7.060498046875001
9.497000000000018,5.616427612304688,-0.6471923828125,8.174542236328126
9.510000000000016,9.001626586914064,-0.6933990478515626,8.485577392578126
9.51700000000002,11.0525146484375,-0.2878570556640625,5.999240112304688
9.527000000000012,8.494400024414062,-0.5004974365234376,4.770053100585938
9.537000000000004,6.058905029296875,-0.2917449951171875,5.95811767578125
9.547999999999998,5.58487548828125,0.00538330078125,8.642291259765626
9.558000000000018,6.664227294921876,0.5520874023437501,9.183013916015623
9.569000000000011,6.720602416992188,0.9691436767578124,6.353341674804688
9.578,8.415145874023438,0.1795928955078125,5.302999877929688
9.58800000000002,9.571957397460938,-0.337652587890625,5.789440917968751
9.59800000000001,8.094390869140625,-0.0438140869140625,7.5757995605468755
9.610000000000015,6.270797729492188,1.158905029296875,7.433889770507813
9.61800000000002,5.903387451171875,0.1423583984375,6.843222045898438
9.628000000000018,7.333251953125001,-0.4661041259765625,5.9623046875000005
9.638000000000002,8.88782958984375,0.1806396484375,5.120565795898438
9.64800000000002,8.613729858398438,-0.5653961181640625,4.556365966796875
9.658000000000012,8.11024169921875,-0.4251312255859375,4.610049438476563
9.668000000000005,7.198519897460938,0.09869384765625,5.474368286132813
9.678999999999998,6.6609375,0.01973876953125,7.539761352539063
9.689000000000018,6.536224365234376,0.6555664062500001,7.537069702148438
9.699000000000009,7.45706787109375,0.4071868896484375,6.173898315429688
9.710000000000004,8.165420532226562,0.1888641357421875,5.890826416015625
9.71900000000002,7.551275634765625,-0.11544189453125,6.603665161132813
9.72900000000001,6.491812133789063,-0.3554473876953125,7.446899414062501
9.739,6.074606323242188,0.346923828125,7.837039184570313
9.74900000000002,6.372781372070313,0.3552978515625,7.688699340820313
9.759000000000013,7.542901611328125,0.3395965576171875,6.642694091796876
9.769000000000002,8.248263549804689,-0.0877777099609375,5.356234741210938
9.77900000000002,7.764065551757813,-0.4230377197265625,4.793829345703125
9.789000000000012,6.421978759765626,0.067291259765625,4.156506347656251
9.799000000000005,4.710238647460938,-0.04486083984375,4.981198120117188
9.81,6.581085205078126,-0.359185791015625,7.268801879882813
9.820000000000018,11.642584228515624,0.8118316650390626,8.137905883789063
9.830000000000007,12.243569946289064,0.3910369873046875,6.878512573242188
9.84,7.761972045898438,-0.262884521484375,6.8116699218750005
9.85000000000002,4.388885498046875,-0.2166778564453125,7.3455139160156255
9.860000000000015,4.6872100830078125,-0.6252105712890625,8.621356201171876
9.87,6.088214111328125,-0.3055023193359375,8.316900634765625
9.88000000000002,6.832604980468751,0.4750762939453125,4.782763671875
9.890000000000011,8.800650024414063,0.39716796875,4.080990600585938
9.900000000000002,9.960452270507814,0.3576904296875,6.452035522460938
9.91000000000002,8.742779541015626,0.7345214843750001,7.6550537109375005
9.920000000000012,6.301452636718751,0.5031890869140625,9.830654907226563
9.930000000000003,5.50352783203125,-0.0285614013671875,7.90806884765625
9.940000000000024,6.967935180664063,0.13458251953125,5.591156005859375
9.951000000000018,8.614926147460938,0.4326080322265625,4.195086669921875
9.96100000000001,9.01807556152344,0.1351806640625,4.0726165771484375
9.971,8.7532470703125,0.2169769287109375,3.0889678955078126
9.98100000000002,6.785650634765625,0.075665283203125,4.861569213867188
9.991000000000016,6.099429321289063,-0.6416595458984375,7.350747680664063
10.001,6.486428833007813,-0.593658447265625,8.360864257812501
10.01100000000002,7.7522521972656255,-0.9042449951171876,8.20474853515625
10.021000000000011,8.587261962890626,-0.47672119140625,6.234011840820313
10.031000000000002,8.234207153320312,0.4275238037109375,5.57530517578125
10.041000000000022,6.407473754882813,-0.0777587890625,6.776977539062501
10.051000000000013,5.598483276367188,0.4855438232421875,7.400393676757813
10.061000000000003,5.76671142578125,0.6582580566406251,7.701858520507813
10.070999999999994,7.241436767578126,0.9631622314453124,6.955374145507813
10.081000000000014,8.439968872070313,0.4945159912109375,5.519378662109375
10.091000000000005,8.853286743164062,0.13876953125,4.805343627929688
10.100999999999996,7.9445556640625,0.5685363769531251,5.1278930664062505
10.11200000000002,6.199020385742188,0.605322265625,5.911462402343751
10.122000000000018,4.565487670898438,-0.442327880859375,6.798660278320313
10.132,6.214123535156251,-0.6703704833984375,7.340579223632813
10.14200000000002,10.323825073242189,-0.6645385742187501,7.272390747070313
10.152000000000012,11.200555419921876,-0.071478271484375,5.793927001953126
10.162000000000004,7.918685913085938,-0.1873687744140625,5.421731567382813
10.172000000000022,5.524462890625,0.27215576171875,7.408169555664063
10.182000000000013,5.5305938720703125,0.0928619384765625,8.445053100585938
10.192000000000004,6.59573974609375,0.22789306640625,8.362060546875
10.201999999999996,7.234707641601563,0.2600433349609375,5.466741943359375
10.212000000000014,8.762518310546875,-0.410028076171875,5.6173248291015625
10.222000000000005,9.360064697265626,-0.6824829101562501,6.605160522460938
10.231999999999996,7.804888916015625,0.5127593994140626,8.105157470703126
10.24300000000002,6.355435180664063,0.8673095703125001,7.783206176757813
10.253000000000018,5.682223510742188,0.2755950927734375,6.597384643554688
10.263000000000002,7.660137939453126,0.08673095703125,5.650820922851563
10.27300000000002,8.500082397460938,-0.46954345703125,4.490121459960938
10.283000000000012,8.579187011718751,-0.3709991455078125,4.602124023437501
10.293000000000005,7.953677368164063,-0.11663818359375,3.889135742187501
10.303000000000022,7.707989501953126,0.4475616455078125,6.349154663085938
10.313000000000011,7.035675048828126,0.244940185546875,7.840628051757813
10.323000000000004,6.557907104492188,0.3500640869140625,7.410263061523438
10.332999999999997,7.111788940429688,0.85474853515625,6.393865966796875
10.343000000000014,7.96309814453125,-0.23746337890625,5.602520751953126
10.35400000000001,7.484881591796875,-0.4502532958984375,6.30504150390625
10.362999999999996,6.617572021484375,-0.107965087890625,7.085171508789063
10.37400000000002,6.395361328125,0.1167877197265625,7.807730102539063
10.384000000000013,6.490017700195313,0.5299560546875001,7.810720825195313
10.394000000000002,7.065133666992188,0.0797027587890625,7.275531005859375
10.40400000000002,7.880703735351563,-0.2528656005859375,6.0689239501953125
10.414000000000012,8.0522216796875,0.0441131591796875,5.100827026367188
10.424000000000005,6.869689941406251,0.1616485595703125,3.6528686523437504
10.434000000000022,4.552029418945313,0.3832611083984375,4.011605834960938
10.444000000000011,5.807086181640625,0.0381317138671875,6.228628540039063
10.454000000000004,10.90955810546875,0.813177490234375,7.915545654296875
10.463999999999997,13.007101440429688,0.697735595703125,7.843768310546875
10.475999999999996,8.787640380859376,-0.4879364013671875,7.581332397460938
10.484000000000004,4.784857177734375,-0.3841583251953125,7.711578369140626
10.493999999999996,4.45677490234375,-0.6285003662109375,8.56064453125
10.50500000000002,6.225338745117188,-0.7141845703125,8.938821411132814
10.515000000000011,6.606207275390625,-0.2062103271484375,5.255596923828126
10.525000000000002,8.099774169921876,0.2009765625,3.699224853515626
10.53500000000002,8.99429931640625,-0.0357391357421875,5.328869628906251
10.545000000000012,9.016131591796876,0.2388092041015625,6.770697021484375
10.555000000000003,6.7482666015625,0.3656158447265625,9.417037963867188
10.565000000000024,6.145785522460938,0.4361968994140625,8.935980224609375
10.575000000000014,7.5369201660156255,1.0053314208984376,6.34691162109375
10.585000000000004,8.705694580078125,0.261090087890625,4.187908935546876
10.594999999999995,8.849697875976563,0.29249267578125,3.849957275390625
10.605000000000016,8.090802001953126,0.5156005859375,3.0080688476562503
10.615000000000006,6.413006591796876,0.3055023193359375,4.956076049804688
10.624999999999996,5.8438720703125,-0.4035980224609375,6.76920166015625
10.635000000000016,6.321490478515625,-0.729437255859375,7.668362426757813
10.645000000000008,8.258132934570312,-1.1123992919921877,8.294619750976564
10.656000000000002,9.110339355468753,-0.8421875000000001,7.043899536132813
10.666000000000022,7.990612792968751,0.3363067626953125,7.059451293945313
10.676000000000013,6.095242309570313,0.1311431884765625,7.047937011718751
10.686000000000003,5.415899658203125,-0.054132080078125,7.214370727539063
10.695999999999994,5.929257202148438,0.8414398193359376,7.056161499023438
10.706000000000014,7.563687133789063,0.8495147705078125,5.89471435546875
10.716000000000005,8.690142822265626,0.378326416015625,4.9179443359375
10.725999999999996,8.869137573242188,0.545208740234375,4.8871398925781255
10.736000000000017,8.215814208984376,0.7748962402343751,5.5705200195312505
10.746000000000006,6.771893310546876,0.4951141357421875,7.827767944335938
10.755999999999997,5.35758056640625,0.015252685546875,7.683316040039063
10.766000000000016,4.19598388671875,-0.3464752197265625,5.447451782226563
10.776000000000009,5.357730102539063,-0.5163482666015625,4.8512512207031255
10.785999999999998,11.416485595703126,-0.524273681640625,5.638858032226563
10.797000000000022,14.00061950683594,-0.2705108642578125,6.176141357421876
10.81,9.168060302734377,-0.5790039062500001,6.200216674804688
10.817000000000004,3.9411743164062494,-0.2498748779296875,8.203402709960939
10.826999999999996,4.088766479492188,-0.214434814453125,10.205392456054687
10.837000000000014,5.7065979003906255,0.1541717529296875,11.788681030273438
10.847000000000005,6.972122192382813,0.4565338134765625,6.265713500976563
10.856999999999996,9.13172302246094,0.2253509521484375,3.0020874023437503
10.867000000000017,9.59229431152344,-0.1460968017578125,3.193194580078125
10.877000000000006,8.256787109375,0.322100830078125,5.422628784179688
10.886999999999995,7.315606689453125,0.720465087890625,6.653909301757813
10.897000000000016,5.849853515625,0.2011260986328125,9.973611450195314
10.91000000000002,6.701013183593751,0.475823974609375,8.311068725585939
10.916999999999998,8.557803344726564,0.4009063720703125,4.9110656738281255
10.927000000000016,9.87237548828125,-0.270660400390625,4.3712402343750005
10.937000000000008,8.132672119140626,-0.6782958984375,4.11583251953125
10.947,6.880606079101563,-0.6817352294921876,3.606661987304688
10.957999999999997,5.360870361328125,-0.045458984375,6.614880371093751
10.968000000000014,5.9971466064453125,-0.13876953125,8.019174194335939
10.978000000000003,7.310073852539063,0.3419891357421875,7.914498901367188
10.987999999999996,9.573602294921876,0.612799072265625,6.241488647460938
10.998000000000015,9.159536743164065,0.4819549560546875,5.75714111328125
11.010000000000016,6.525906372070313,0.59036865234375,7.455273437500001
11.017999999999995,4.8262786865234375,0.0094207763671875,8.1885986328125
11.028000000000016,5.346365356445313,0.1658355712890625,8.28848876953125
11.038000000000007,7.240240478515625,0.8901885986328125,6.547738647460938
11.047999999999998,8.764462280273438,0.082244873046875,4.690350341796876
11.058000000000018,8.415594482421875,-0.2872589111328125,4.164431762695313
11.069000000000011,6.980047607421875,-0.351708984375,3.4740234375
11.079000000000004,5.088565063476563,-0.3539520263671875,5.683718872070313
11.088999999999997,5.934341430664063,-0.1084136962890625,8.377462768554688
11.099000000000014,10.257281494140626,0.4988525390625,9.224734497070314
11.109000000000004,12.224429321289064,0.26856689453125,6.217861938476563
11.118999999999996,8.875418090820313,-0.4137664794921875,4.7245941162109375
11.129000000000016,5.4730224609375,-0.60711669921875,6.680975341796875
11.139000000000006,4.623806762695313,-0.52158203125,9.015383911132814
11.148999999999996,5.375973510742188,-0.4385894775390625,9.0307861328125
11.159000000000017,5.89471435546875,0.40255126953125,5.75235595703125
11.169000000000008,8.7341064453125,0.5447601318359375,4.113290405273438
11.180000000000003,10.090847778320311,0.1078155517578125,5.9806976318359375
11.189000000000018,9.900338745117187,0.7422973632812501,7.009506225585938
11.199000000000009,6.984832763671876,0.9473114013671876,9.001925659179689
11.209,5.260382080078125,-0.1457977294921875,8.25858154296875
11.21900000000002,5.9881744384765625,0.3680084228515625,6.456671142578125
11.230000000000016,8.171102905273438,0.3887939453125,4.584179687500001
11.240000000000006,9.075946044921876,0.0629547119140625,4.320248413085938
11.249999999999996,8.907867431640625,0.122021484375,3.551632690429688
11.260000000000016,7.146929931640625,-0.3037078857421875,3.4137603759765627
11.270000000000008,6.453829956054688,-0.4867401123046875,6.7482666015625
11.279999999999998,6.488372802734376,-0.603826904296875,8.490960693359376
11.290000000000015,7.568771362304688,-0.7061096191406251,9.237744140625
11.300000000000008,8.051324462890626,-0.2355194091796875,6.781912231445313
11.31,8.06717529296875,0.2127899169921875,5.332308959960938
11.320000000000018,6.842773437500001,0.4161590576171875,5.940621948242188
11.330000000000007,5.997296142578126,0.2775390625,7.2019592285156255
11.34,5.9193878173828125,0.8384490966796876,7.721298217773438
11.35000000000002,7.108648681640625,1.224551391601563,6.972421264648438
11.360000000000015,8.176187133789064,0.1399658203125,5.6886535644531255
11.371000000000006,8.601766967773438,0.01854248046875,5.129238891601563
11.380999999999997,7.672250366210938,0.67410888671875,4.994058227539063
11.391000000000016,5.983987426757813,0.3721954345703125,6.398800659179688
11.401000000000009,4.9050842285156255,-0.4191497802734375,6.716564941406251
11.410999999999998,6.922027587890626,-0.6902587890625,7.658642578125001
11.421000000000015,10.8240234375,-0.013458251953125,6.757537841796876
11.431000000000008,10.591046142578126,-0.1126007080078125,5.543154907226563
11.441,7.389477539062501,-0.6892120361328126,5.55137939453125
11.451000000000018,5.4867797851562505,0.0671417236328125,8.05999755859375
11.46100000000001,5.871237182617188,-0.3590362548828125,8.995645141601564
11.471,6.747219848632813,0.308642578125,7.847805786132813
11.48100000000002,7.60301513671875,0.4930206298828125,4.835400390625001
11.491000000000016,8.815753173828126,-0.384906005859375,5.06090087890625
11.501,9.288885498046875,-0.34393310546875,6.073110961914063
11.51100000000002,7.036123657226563,0.419000244140625,8.06239013671875
11.522000000000016,6.169860839843751,1.0005462646484375,7.8374877929687505
11.532000000000007,6.229824829101563,0.276043701171875,6.794323730468751
11.541999999999998,8.088409423828125,-0.2779876708984375,5.742337036132813
11.552000000000016,9.19632263183594,0.0348419189453125,4.791287231445313
11.562000000000008,8.383593750000001,-0.389093017578125,4.2700042724609375
11.572,7.456619262695313,-0.1457977294921875,4.422830200195313
11.58200000000002,6.3510986328125005,0.24404296875,6.966290283203126
11.59200000000001,6.602618408203125,-0.1583587646484375,7.691989135742188
11.602,6.784603881835938,0.714483642578125,7.351495361328125
11.61200000000002,8.168411254882812,0.4909271240234375,5.651568603515625
11.622000000000018,8.51697998046875,-0.1419097900390625,5.789440917968751
11.632,7.295718383789063,0.13458251953125,7.061544799804688
11.642999999999995,6.014193725585938,-0.3985137939453125,7.792327880859376
11.653000000000016,5.825030517578125,0.2775390625,7.819842529296875
11.663000000000007,6.586618041992188,0.532049560546875,7.163229370117188
11.672999999999998,7.993304443359375,-0.17645263671875,6.0165863037109375
11.683000000000018,8.53253173828125,0.0801513671875,4.853643798828125
11.693000000000008,7.334298706054688,-0.07476806640625,4.4684387207031255
11.703,5.179333496093751,0.1263580322265625,4.942617797851563
11.71300000000002,4.789791870117188,0.086431884765625,6.487326049804688
11.725999999999996,9.30234375,0.2504730224609375,7.974014282226563
11.733,12.713861083984376,0.7227081298828125,7.476058959960938
11.74300000000002,10.36285400390625,0.09151611328125,5.6141845703125
11.753000000000018,5.883200073242188,-0.2735015869140625,6.121560668945313
11.763000000000002,4.524813842773438,-0.48748779296875,8.392266845703126
11.77300000000002,5.5092102050781255,-0.7612884521484375,9.39969177246094
11.783000000000012,5.966641235351563,-0.2118927001953125,7.054666137695313
11.794000000000008,7.743429565429688,0.377728271484375,4.220806884765626
11.803999999999998,9.384738159179689,-0.0094207763671875,5.075106811523438
11.814000000000018,10.019967651367187,0.1280029296875,6.7697998046875005
11.825000000000014,7.514938354492188,0.6542205810546875,8.892764282226564
11.834,5.679083251953125,0.3276336669921875,8.959756469726564
11.84400000000002,5.8012542724609375,0.5552276611328125,6.828866577148438
11.85400000000001,7.735354614257813,0.3075958251953125,4.651919555664063
11.864,8.908166503906251,0.198284912109375,4.046148681640625
11.87400000000002,9.17972412109375,0.3013153076171875,3.6080078125
11.884000000000013,8.078240966796876,0.3300262451171875,3.4764160156250004
11.894000000000002,6.277825927734376,-0.1625457763671875,6.373379516601563
11.90400000000002,6.115579223632813,-0.5461059570312501,7.900442504882813
11.914000000000012,6.998440551757813,-0.7369140625,8.784201049804688
11.925000000000008,8.059548950195314,-0.9845458984375,7.621408081054688
11.934000000000022,8.402734375000001,0.0554779052734375,5.62913818359375
11.945000000000018,7.569519042968751,0.0142059326171875,5.750411987304688
11.955000000000007,5.9817443847656255,-0.07177734375,6.936981201171876
11.965,5.636764526367188,0.819158935546875,7.647427368164063
11.97500000000002,6.420782470703125,1.32608642578125,7.670605468750001
11.985000000000015,8.0294921875,0.1969390869140625,6.3226867675781255
11.995,8.469577026367189,0.3680084228515625,5.332159423828125
12.00500000000002,8.633319091796876,0.421990966796875,4.788296508789063
12.015000000000011,7.7292236328125,0.5434143066406251,5.589511108398438
12.026000000000009,5.610595703125,-0.0059814453125,6.97855224609375
12.03500000000002,4.287799072265625,-0.5348907470703126,6.467138671875
12.045000000000012,5.9024902343750005,-0.631939697265625,6.877017211914063
12.055000000000003,10.901632690429688,-0.5501434326171876,6.753799438476563
12.065000000000024,12.10584716796875,-0.03648681640625,5.823983764648438
12.075000000000014,8.336489868164064,-0.25899658203125,4.908224487304688
12.08600000000001,5.115631103515625,0.0136077880859375,7.517330932617188
12.096,5.164828491210938,0.2830718994140625,9.178079223632814
12.10600000000002,6.219357299804688,0.3458770751953125,9.10076904296875
12.116000000000016,7.147528076171875,0.6715667724609375,5.853143310546876
12.126,9.029739379882812,0.352008056640625,4.524514770507813
12.13600000000002,9.021365356445314,-0.42288818359375,5.380010986328125
12.146000000000011,8.37103271484375,-0.18721923828125,6.888980102539063
12.156000000000002,6.198123168945313,1.0946044921875,9.080581665039062
12.166000000000022,6.076251220703125,0.068487548828125,7.984930419921875
12.176000000000013,7.115228271484376,0.0142059326171875,6.139505004882813
12.186000000000003,8.567224121093751,-0.1574615478515625,3.848312377929688
12.195999999999994,9.07684326171875,-0.4487579345703125,3.977511596679688
12.20700000000002,8.644683837890625,-0.6089111328125001,3.49974365234375
12.216000000000005,6.846661376953126,-0.2651275634765625,5.945407104492188
12.227,6.306985473632813,0.608013916015625,7.832254028320313
12.23700000000002,6.324780273437501,0.276043701171875,7.808627319335938
12.247000000000018,7.555911254882813,0.677099609375,7.235903930664063
12.257,8.506362915039062,0.4613189697265625,5.7065979003906255
12.26700000000002,7.851693725585938,-0.3545501708984375,6.342724609375001
12.277000000000012,6.321340942382813,0.0964508056640625,6.949392700195313
12.287000000000004,5.948995971679688,-0.0346923828125,7.493106079101563
12.297000000000022,6.101522827148438,0.1048248291015625,8.147177124023438
12.307000000000013,7.385888671875,0.7014739990234375,7.032534790039063
12.317000000000004,8.245721435546876,-0.1945465087890625,5.2793731689453125
12.326999999999996,7.687353515625,-0.423486328125,4.384548950195313
12.337000000000014,5.887835693359375,-0.0817962646484375,4.013699340820313
12.347000000000005,4.98553466796875,-0.2564544677734375,5.896807861328125
12.356999999999996,8.975308227539063,0.3061004638671875,8.1120361328125
12.367000000000017,12.138894653320314,0.6820343017578125,7.49534912109375
12.378000000000018,10.055856323242187,-0.065496826171875,6.285003662109376
12.388000000000002,5.838339233398438,-0.322698974609375,6.495101928710938
12.39800000000002,4.911663818359376,-0.5163482666015625,7.832254028320313
12.408000000000012,6.06219482421875,-0.555975341796875,9.542050170898438
12.418000000000005,6.455325317382813,0.1269561767578125,6.909616088867188
12.428000000000022,7.854385375976563,0.6631927490234375,4.1499267578125005
12.438000000000011,8.714218139648438,0.4314117431640625,4.78575439453125
12.448000000000004,9.47864685058594,0.6709686279296876,6.0161376953125005
12.457999999999997,7.053768920898438,0.7023712158203126,9.371429443359377
12.468000000000014,6.108700561523438,0.3315216064453125,8.900839233398438
12.478000000000003,6.567776489257813,0.0838897705078125,6.856082153320313
12.487999999999996,7.826123046875001,0.29249267578125,4.432101440429688
12.498000000000015,9.123498535156251,0.318212890625,4.309481811523438
12.509000000000013,8.91654052734375,0.0895721435546875,3.827078247070313
12.519000000000002,7.364505004882813,0.0315521240234375,4.684967041015625
12.52900000000002,5.842227172851563,-0.496759033203125,6.3678466796875
12.539000000000012,6.481195068359376,-0.8424865722656251,7.1191162109375
12.549000000000005,7.274185180664063,-0.997705078125,8.057455444335938
12.559000000000022,8.636160278320313,-0.5477508544921875,7.070217895507813
12.569000000000011,8.421426391601564,0.308941650390625,6.393566894531251
12.579000000000004,6.8969055175781255,0.1733123779296875,6.840679931640626
12.588999999999997,5.751458740234376,0.7935882568359376,7.132424926757813
12.599000000000014,5.732318115234375,0.360382080078125,7.221249389648438
12.609000000000004,6.723144531250001,0.7074554443359375,7.109097290039063
12.618999999999996,7.922424316406251,1.0472015380859376,5.810226440429688
12.629000000000016,8.852838134765626,0.2615386962890625,4.847811889648438
12.639000000000006,8.595935058593751,0.1658355712890625,5.224942016601563
12.648999999999996,6.884194946289063,0.6057708740234375,6.030044555664063
12.66000000000002,4.810876464843751,-0.3297271728515625,6.873129272460938
12.670000000000012,4.094747924804688,-0.4945159912109375,6.07535400390625
12.680000000000003,7.761373901367188,-0.9142639160156252,7.361215209960938
12.690000000000024,12.848443603515626,-0.32239990234375,6.788641357421875
12.700000000000014,11.648117065429688,-0.1816864013671875,5.039218139648438
12.710000000000004,6.74527587890625,-0.36068115234375,5.649026489257813
12.719999999999995,4.427316284179688,0.285015869140625,8.668310546875
12.730000000000016,5.242288208007813,-0.1327880859375,10.488015747070314
12.740000000000006,6.000735473632813,0.5256195068359375,8.455819702148439
12.749999999999996,7.426712036132813,0.8792724609375001,4.781866455078125
12.760000000000016,9.345709228515624,0.0073272705078125,4.256695556640626
12.770000000000008,9.922918701171875,-0.19918212890625,5.61956787109375
12.779999999999998,7.921078491210938,0.429168701171875,5.8576293945312505
12.791000000000022,5.9627532958984375,0.40135498046875,8.895306396484376
12.801000000000013,5.4348907470703125,0.11544189453125,8.217010498046875
12.811000000000003,7.706942749023438,-0.2074066162109375,6.273638916015625
12.820999999999994,9.287838745117188,-0.3617279052734375,4.05302734375
12.831000000000014,9.325372314453126,-0.4605712890625,3.5988861083984376
12.841000000000005,7.96190185546875,-0.4729827880859375,2.9727783203125
12.850999999999996,6.561196899414063,-0.0035888671875,5.762225341796875
12.861000000000017,5.530294799804688,0.2615386962890625,8.13177490234375
12.871000000000006,6.485232543945313,0.499749755859375,8.963644409179688
12.880999999999997,7.881002807617188,0.8874969482421876,7.582229614257813
12.89200000000002,8.750555419921875,0.273052978515625,5.798712158203125
12.901000000000009,8.00137939453125,0.3135772705078125,6.170608520507813
12.910999999999998,6.040213012695313,-0.3129791259765625,7.587612915039063
12.921000000000015,5.278475952148438,0.1257598876953125,8.0450439453125
12.932000000000013,6.296517944335938,1.0008453369140626,7.175042724609376
12.942000000000004,8.111737060546876,-0.2977264404296875,5.654708862304688
12.951999999999996,8.552420043945313,-0.4493560791015625,4.753305053710938
12.962000000000014,7.347158813476563,-0.1075164794921875,3.777731323242188
12.972000000000005,5.950939941406251,0.0611602783203125,4.246228027343751
12.981999999999996,5.799459838867188,0.0871795654296875,7.521667480468751
12.992000000000017,9.29202575683594,0.62625732421875,9.710128784179688
13.002000000000006,11.568713378906253,0.8169158935546875,7.291232299804688
13.011999999999995,9.206939697265623,-0.1027313232421875,4.906280517578125
13.022000000000016,5.196231079101563,-0.729437255859375,5.924023437500001
13.032000000000007,5.142398071289063,-0.5268157958984375,8.143289184570314
13.041999999999998,5.9638000488281255,-0.7681671142578126,8.752200317382814
13.052000000000016,6.929803466796876,-0.143853759765625,6.738247680664063
13.062000000000015,7.73221435546875,0.5209838867187501,4.3462677001953125
13.072000000000006,9.855178833007812,0.12381591796875,5.738150024414063
13.082999999999997,8.826968383789064,0.0082244873046875,8.159439086914062
13.093000000000014,6.878063964843751,0.4200469970703125,9.615771484375
13.103000000000003,5.518331909179688,0.127105712890625,6.9327941894531255
13.112999999999996,6.772790527343751,0.127703857421875,5.407974243164063
13.123000000000015,8.289535522460938,0.5151519775390625,4.33116455078125
13.133000000000006,9.1205078125,0.5292083740234376,4.768856811523438
13.142999999999995,8.407220458984376,0.6948944091796876,3.984091186523438
13.153000000000016,7.075451660156251,0.7823730468750001,5.394366455078125
13.163000000000007,6.3331542968750005,-0.404345703125,7.380804443359375
13.172999999999998,6.939523315429688,-1.0009948730468752,7.66881103515625
13.183000000000018,7.672998046875,-1.0159484863281252,7.447048950195313
13.193000000000016,8.419781494140626,-0.27335205078125,5.577398681640625
13.203000000000008,7.917190551757813,-0.067889404296875,5.707196044921876
13.213999999999997,6.441119384765625,-0.1090118408203125,6.763519287109376
13.225999999999996,5.800357055664063,0.090020751953125,7.51329345703125
13.234000000000004,6.05740966796875,0.6392669677734375,7.614379882812501
13.243999999999996,7.2028564453125,1.024172973632813,7.192538452148438
13.254000000000016,8.096185302734376,0.3122314453125,6.373379516601563
13.264000000000006,8.371929931640626,0.3840087890625,5.777178955078125
13.273999999999996,7.977154541015626,0.8254394531250001,5.559155273437501
13.284000000000017,6.558355712890625,0.5324981689453125,5.652017211914063
13.294000000000008,5.029946899414063,-0.1712188720703125,5.9862304687500005
13.303999999999998,4.813568115234375,-0.6447998046875001,5.813665771484375
13.314000000000018,9.169406127929689,-0.754559326171875,6.716564941406251
13.326000000000011,12.305926513671876,0.10108642578125,6.284555053710938
13.334000000000009,9.635211181640626,-0.3674102783203125,6.396109008789063
13.34400000000002,5.965145874023438,0.2077056884765625,7.651763916015626
13.354000000000015,5.168865966796876,0.008673095703125,8.49305419921875
13.364000000000008,5.814712524414063,-0.1949951171875,8.908914184570314
13.374999999999996,6.9567199707031255,0.6543701171875,6.558206176757813
13.385000000000016,7.870086669921876,-0.0494964599609375,4.127197265625
13.395000000000008,9.440515136718751,-0.20635986328125,5.295223999023438
13.404999999999998,8.75384521484375,-0.1327880859375,5.951089477539063
13.415000000000015,6.639553833007813,0.581396484375,9.065478515625
13.426000000000013,5.875872802734375,0.8975158691406251,8.314059448242189
13.435,6.731817626953125,-0.0189910888671875,7.1376586914062505
13.445000000000013,8.563037109375001,-0.0115142822265625,4.922430419921875
13.455000000000016,9.242080688476562,-0.1795928955078125,3.88853759765625
13.465000000000009,8.467333984375001,-0.5869293212890625,3.329421997070313
13.47500000000002,7.448394775390626,0.0327484130859375,4.542010498046875
13.485000000000015,6.09329833984375,0.20516357421875,7.452731323242188
13.495,6.025708007812501,0.024822998046875,8.114129638671876
13.50500000000002,6.877166748046876,0.5852844238281251,7.454824829101563
13.516000000000016,8.731863403320313,0.226995849609375,5.938229370117188
13.526000000000009,8.859567260742189,-0.2337249755859375,5.988922119140625
13.535999999999998,7.003375244140625,-0.233575439453125,7.122555541992188
13.546000000000015,5.61717529296875,0.14833984375,7.712625122070313
13.556000000000015,5.392123413085938,0.379522705078125,8.123699951171876
13.566000000000006,6.553570556640626,0.246734619140625,7.287942504882813
13.576000000000011,8.191140747070314,0.2763427734375,5.4707794189453125
13.586000000000016,8.617169189453126,-0.0456085205078125,4.6607421875
13.596000000000007,7.600323486328126,-0.3055023193359375,3.9313049316406254
13.60600000000002,5.106509399414063,-0.0471038818359375,3.889135742187501
13.616000000000016,4.624554443359376,-0.167779541015625,6.748565673828126
13.627000000000006,10.041201782226564,0.6141448974609376,9.792822265625
13.63600000000002,13.567712402343751,0.768316650390625,7.815655517578126
13.647000000000016,9.977200317382811,-0.3787750244140625,5.719158935546876
13.657000000000007,4.806539916992188,-0.6132476806640625,5.887237548828125
13.666999999999998,4.091009521484375,-0.576611328125,8.182318115234375
13.677000000000016,5.854788208007813,-0.5701812744140625,9.608892822265624
13.687000000000015,5.945108032226563,0.23507080078125,6.643740844726563
13.697000000000006,7.591201782226563,0.49945068359375,3.6440460205078127
13.707000000000011,9.611734008789064,0.3135772705078125,5.188754272460938
13.717000000000017,10.015481567382814,0.5172454833984376,7.267007446289063
13.727000000000007,7.550677490234375,0.747381591796875,9.296810913085938
13.73700000000002,5.850900268554688,0.453094482421875,8.69403076171875
13.747000000000018,5.981893920898438,0.187518310546875,6.368594360351563
13.757,7.746868896484376,0.3481201171875,4.52017822265625
13.76700000000002,8.811117553710938,0.350811767578125,3.9991943359375
13.777000000000012,9.062637329101562,0.1900604248046875,3.4596679687500003
13.788000000000007,7.521966552734375,0.1377227783203125,3.774291992187501
13.797999999999998,6.242086791992188,-0.440234375,6.708938598632813
13.808000000000018,6.536672973632813,-0.8821136474609376,8.195626831054689
13.818000000000016,7.447796630859376,-1.0015930175781251,8.701058959960939
13.828000000000008,8.180075073242188,-0.6536224365234375,7.223043823242188
13.838000000000012,8.074652099609375,0.2851654052734375,5.783609008789063
13.848000000000017,6.701461791992188,-0.179443359375,6.179281616210938
13.858000000000008,5.995352172851563,0.3533538818359375,6.6047119140625
13.86800000000002,6.165374755859376,0.8691040039062501,7.187005615234376
13.878000000000018,6.956271362304688,1.0163970947265626,7.222296142578125
13.888000000000002,8.128335571289064,0.8134765625000001,6.142495727539063
13.89800000000002,8.553018188476564,0.33316650390625,5.423675537109375
13.908000000000012,8.338732910156251,0.3261383056640625,5.593698120117188
13.918000000000005,7.454376220703126,0.6447998046875001,6.456072998046875
13.928000000000022,5.855386352539063,-0.508123779296875,6.6471801757812505
13.939000000000018,4.402194213867188,-0.6183319091796875,5.719607543945313
13.949000000000016,4.631881713867188,-0.6871185302734375,5.419937133789063
13.959000000000009,10.317095947265626,-0.593658447265625,6.534878540039063
13.96900000000002,13.832989501953126,0.034393310546875,7.106704711914063
13.980000000000016,9.86160888671875,-0.564947509765625,5.818899536132813
13.989000000000008,4.5985351562500005,0.1607513427734375,7.192388916015625
13.99900000000002,4.304995727539063,0.2301361083984375,8.766107177734376
14.009000000000013,6.271694946289063,0.092413330078125,10.026248168945314
14.019000000000002,6.741836547851563,1.0038360595703126,6.466839599609376
14.02900000000002,8.054464721679688,0.5028900146484375,3.604718017578125
14.039000000000012,8.954971313476562,-0.13458251953125,4.59674072265625
14.049000000000005,9.137554931640626,-0.27095947265625,6.17344970703125
14.06,6.622207641601563,0.471636962890625,9.511096191406253
14.070000000000013,6.253750610351563,0.397467041015625,9.678277587890626
14.080000000000016,6.893466186523438,-0.1164886474609375,6.90318603515625
14.090000000000009,8.196524047851563,-0.231781005859375,3.9704833984375
14.10000000000002,9.098077392578126,-0.193499755859375,3.671859741210938
14.110000000000015,8.800350952148438,-0.6512298583984375,3.151922607421876
14.12,7.179827880859375,-0.4532440185546875,4.700070190429688
14.13000000000002,5.771945190429688,0.5121612548828125,6.574505615234376
14.140000000000011,6.307733154296876,0.2543609619140625,8.006762695312501
14.150000000000002,7.702606201171876,0.6916046142578125,8.03427734375
14.16000000000002,9.133367919921875,0.7620361328125,6.306387329101563
14.170000000000012,8.164373779296875,0.5837890625000001,6.2030578613281255
14.180000000000003,6.48209228515625,-0.0542816162109375,7.0778442382812505
14.190000000000024,5.246923828125,-0.4664031982421875,7.271792602539063
14.201000000000011,5.52685546875,0.1284515380859375,8.18680419921875
14.211000000000016,7.120013427734375,0.442626953125,6.928906250000001
14.221000000000007,8.67249755859375,-0.212939453125,5.384945678710938
14.23100000000002,8.067474365234375,-0.1742095947265625,4.631582641601563
14.243999999999996,6.814959716796875,-0.5449096679687501,4.221405029296875
14.251,4.984039306640625,-0.34273681640625,5.327523803710938
14.26100000000002,6.022418212890625,0.12022705078125,7.163677978515626
14.271000000000011,11.102609252929687,0.724951171875,7.924966430664063
14.281000000000002,13.033270263671875,0.5229278564453126,6.615029907226563
14.291000000000022,8.53970947265625,-0.173760986328125,6.081784057617188
14.301000000000013,4.46514892578125,-0.0575714111328125,7.281362915039063
14.311000000000003,4.2655181884765625,-0.5658447265625001,8.806182861328125
14.320999999999994,5.6763916015625,-0.5251708984375001,9.4829833984375
14.331000000000014,6.146981811523438,0.4526458740234375,5.50113525390625
14.343000000000014,8.549279785156251,0.41571044921875,3.6727569580078128
14.350999999999996,9.9662841796875,0.014654541015625,5.550930786132813
14.36200000000002,9.806280517578124,0.6003875732421875,7.240240478515625
14.372000000000018,6.792230224609376,0.8160186767578126,9.386981201171876
14.382,5.270849609375,-0.0174957275390625,8.499783325195313
14.39200000000002,6.0056701660156255,0.2011260986328125,6.337789916992188
14.402000000000012,8.503970336914064,0.3425872802734375,4.414007568359375
14.412000000000004,9.508853149414064,0.2328277587890625,4.208395385742188
14.422000000000022,9.025701904296875,0.1128997802734375,3.3137207031250004
14.432000000000013,6.996347045898438,0.212042236328125,3.8098815917968754
14.443000000000016,5.631979370117188,-0.3265869140625,6.932943725585938
14.451999999999996,6.426763916015625,-0.7062591552734375,8.791378784179688
14.462000000000014,7.586715698242188,-0.8100372314453126,8.693881225585939
14.472000000000005,8.627188110351563,-0.7526153564453125,6.517532348632813
14.481999999999996,8.625094604492189,0.41331787109375,5.1537628173828125
14.49300000000002,7.05272216796875,-0.06160888671875,5.929556274414063
14.503000000000018,5.3477111816406255,0.00897216796875,7.261624145507813
14.513000000000002,5.356982421875,0.9663024902343752,7.945452880859375
14.52300000000002,6.975112915039063,1.1423065185546877,7.482788085937501
14.533000000000012,8.555410766601563,0.36546630859375,5.513995361328125
14.543000000000005,8.710928344726563,0.3252410888671875,5.151370239257813
14.553000000000022,8.67249755859375,0.3234466552734375,5.167520141601563
14.563000000000011,7.233511352539063,0.4897308349609375,6.455923461914063
14.573000000000004,4.746426391601563,-0.191107177734375,6.947299194335938
14.582999999999997,3.683224487304688,-0.4846466064453125,5.611044311523438
14.593000000000014,6.699069213867188,-0.7210632324218751,6.315060424804688
14.603000000000003,12.232653808593753,-0.225201416015625,6.446502685546876
14.612999999999996,12.673187255859377,-0.1152923583984375,5.97008056640625
14.623000000000015,7.97745361328125,-0.521881103515625,5.659494018554688
14.634000000000013,4.412362670898438,0.1801910400390625,8.4661376953125
14.644000000000002,4.809829711914063,-0.1469940185546875,10.12942810058594
14.65400000000002,6.294424438476563,0.132489013671875,9.781756591796876
14.664000000000012,6.9073730468750005,0.7568023681640625,5.429806518554688
14.674000000000005,9.192584228515626,0.2645294189453125,3.942819213867188
14.684000000000022,9.225332641601565,-0.19140625,4.581488037109375
14.694000000000011,8.301199340820313,0.3300262451171875,5.4603118896484375
14.704000000000004,6.461007690429688,0.71478271484375,8.241384887695313
14.713999999999997,5.7140747070312505,0.106170654296875,9.270492553710938
14.724000000000014,7.392169189453125,0.3349609375,6.8864379882812505
14.734000000000004,9.109591674804689,-0.1855743408203125,4.179983520507813
14.743999999999996,9.189144897460938,-0.4882354736328125,3.79283447265625
14.754000000000016,8.225833129882814,-0.555975341796875,3.326730346679688
14.764000000000006,6.690396118164063,-0.3455780029296875,5.2554473876953125
14.773999999999996,5.453732299804688,0.21832275390625,7.591799926757813
14.78500000000002,5.945407104492188,0.1721160888671875,8.286843872070314
14.795000000000012,7.727877807617188,0.6521270751953125,7.881451416015626
14.805000000000003,9.1767333984375,0.2235565185546875,6.080587768554688
14.815000000000024,8.269497680664063,0.37144775390625,6.413006591796876
14.825000000000014,6.325527954101563,0.31043701171875,7.511648559570313
14.835000000000004,5.380160522460938,-0.2788848876953125,8.152560424804689
14.844999999999995,5.958267211914063,0.8925811767578126,7.26566162109375
14.855000000000016,7.692886352539063,0.35350341796875,5.656503295898438
14.865000000000006,8.401388549804688,-0.34632568359375,4.411764526367188
14.874999999999996,7.308877563476563,-0.352606201171875,3.758590698242188
14.885000000000016,5.732916259765625,-0.3348114013671875,3.660943603515625
14.895000000000008,5.694784545898438,-0.232977294921875,6.871035766601563
14.904999999999998,10.093838500976563,0.6032287597656251,9.996789550781251
14.915000000000015,12.437219238281251,0.709698486328125,8.100671386718751
14.926000000000013,9.1432373046875,-0.4421783447265625,6.116476440429688
14.936000000000003,4.915252685546875,-0.4314117431640625,6.4423156738281255
14.945999999999994,4.658050537109375,-0.5719757080078125,7.5019287109375
14.956000000000014,5.940921020507813,-0.6966888427734376,8.901287841796876
14.966000000000005,6.290536499023438,0.081646728515625,6.11722412109375
14.975999999999996,8.008706665039064,0.66094970703125,3.74617919921875
14.986000000000017,9.406719970703126,0.3318206787109375,5.04893798828125
14.996000000000006,9.58511657714844,0.9692932128906252,7.734457397460938
15.005999999999997,7.008160400390626,0.8157196044921876,10.426556396484376
15.016000000000016,6.055017089843751,0.1435546875,8.247366333007813
15.026000000000009,6.1567016601562505,-0.0518890380859375,6.027801513671875
15.035999999999998,7.851992797851563,0.284716796875,3.9981475830078126
15.046000000000015,9.21426696777344,0.2954833984375,4.163534545898438
15.057000000000013,9.036618041992188,0.1939483642578125,3.309234619140625
15.067000000000004,6.797463989257813,-0.1048248291015625,4.994656372070313
15.076999999999996,5.759982299804688,-0.3294281005859375,7.091003417968751
15.087000000000014,6.697573852539063,-0.8940765380859376,7.894909667968751
15.097000000000005,7.916143798828125,-1.0286590576171877,8.465988159179688
15.106999999999996,8.796163940429688,-0.0805999755859375,6.572561645507813
15.117000000000017,8.058651733398438,0.2782867431640625,5.7185607910156255
15.127000000000006,6.32657470703125,0.1395172119140625,6.379061889648438
15.136999999999995,5.513995361328125,0.4469635009765625,7.000833129882813
15.147000000000016,5.867199707031251,0.4320098876953125,7.448095703125
15.157000000000007,7.299008178710938,1.0338928222656252,6.964346313476563
15.166999999999998,8.601019287109375,0.7711578369140626,5.603717041015625
15.177000000000016,8.703601074218751,-0.2077056884765625,5.272494506835938
15.187000000000015,7.873974609375001,0.54072265625,5.77030029296875
15.198000000000004,6.278125,0.481805419921875,6.669012451171875
15.207000000000011,4.8844482421875,-0.576611328125,6.632974243164063
15.218000000000014,5.000039672851563,-0.6787445068359376,5.873629760742188
15.228000000000003,9.342568969726564,-0.7200164794921875,6.606506347656251
15.237999999999996,12.398040771484377,-0.0779083251953125,6.2748352050781255
15.248000000000015,9.955218505859376,-0.4242340087890625,5.649325561523438
15.258000000000006,5.230325317382813,0.3994110107421875,7.202108764648438
15.267999999999995,4.641152954101563,0.287408447265625,8.4302490234375
15.278000000000016,5.673699951171876,0.0282623291015625,8.876315307617189
15.288000000000007,7.083078002929688,0.8674591064453125,6.630731201171876
15.297999999999998,8.692984008789063,0.5112640380859376,4.594198608398438
15.308000000000018,9.638052368164065,-0.2032196044921875,5.3272247314453125
15.318000000000016,9.259875488281253,-0.3793731689453125,6.411212158203125
15.328000000000008,6.319845581054688,0.226995849609375,9.261370849609376
15.338999999999997,5.614035034179688,0.4696929931640625,8.758929443359376
15.348000000000017,5.9492950439453125,0.09271240234375,6.460110473632813
15.359000000000004,8.326620483398438,-0.1816864013671875,4.457821655273438
15.368999999999996,9.246267700195313,-0.1628448486328125,3.936987304687501
15.379000000000016,9.185855102539064,-0.4837493896484375,3.363067626953125
15.389000000000006,7.648773193359376,-0.46236572265625,4.332659912109375
15.398999999999996,6.163131713867188,0.2250518798828125,7.639202880859376
15.409000000000017,6.255096435546876,0.29010009765625,8.835192871093751
15.419000000000008,6.865802001953125,0.6581085205078125,7.987622070312501
15.428999999999998,8.235403442382813,0.6084625244140626,5.655755615234376
15.439000000000018,8.674740600585938,0.24703369140625,4.7410430908203125
15.449000000000016,7.492507934570313,-0.0686370849609375,6.002081298828125
15.459000000000009,5.631231689453125,-0.30325927734375,7.817749023437501
15.46900000000002,5.391674804687501,0.2594451904296875,8.120559692382812
15.479000000000015,6.421231079101563,0.406439208984375,8.427108764648438
15.490000000000006,8.114578247070312,-0.2953338623046875,6.1197662353515625
15.499999999999996,8.330957031250001,-0.1389190673828125,4.934243774414063
15.510000000000016,7.038815307617188,-0.2690155029296875,3.880612182617188
15.520000000000008,5.079443359375,-0.5683868408203125,4.12181396484375
15.529999999999998,6.310574340820313,-0.1149932861328125,7.255642700195313
15.540000000000015,11.141339111328126,1.0228271484375,8.409762573242189
15.550000000000008,11.861804199218753,0.3766815185546875,6.652713012695313
15.561000000000003,7.798458862304688,-0.241351318359375,5.927163696289063
15.570000000000013,5.104714965820313,-0.1021331787109375,7.241287231445313
15.581000000000014,5.729626464843751,-0.670819091796875,9.247763061523438
15.590000000000009,6.124850463867188,-0.428271484375,8.811566162109376
15.60000000000002,6.420034790039063,0.8110839843750001,5.374777221679688
15.610000000000015,7.613482666015625,0.4963104248046875,3.676046752929688
15.62,9.528591918945311,0.5073760986328125,5.422628784179688
15.63000000000002,8.731265258789064,1.3977142333984376,7.7417846679687505
15.644000000000002,6.879409790039063,0.3452789306640625,9.897198486328126
15.651000000000009,6.382650756835938,0.13338623046875,7.750308227539063
15.660999999999998,7.135714721679688,0.2905487060546875,5.2819152832031255
15.671000000000015,8.481240844726564,0.1854248046875,4.3642120361328125
15.681000000000015,8.721545410156251,0.0034393310546875,4.766613769531251
15.691000000000006,7.8599182128906255,-0.1795928955078125,4.232321166992188
15.701000000000011,6.558654785156251,-0.447711181640625,4.865008544921875
15.711000000000016,6.418988037109376,-0.9523956298828126,6.29906005859375
15.721000000000007,7.147827148437501,-1.1360260009765626,7.734307861328125
15.73100000000002,8.205047607421875,-0.72674560546875,8.027099609375
15.743999999999996,8.121456909179688,0.29488525390625,7.035974121093751
15.751,7.331158447265626,0.4942169189453125,6.710882568359375
15.76100000000002,6.336743164062501,0.4032989501953125,6.873727416992188
15.772000000000016,6.173748779296876,0.3739898681640625,6.965243530273438
15.782000000000007,6.605459594726563,1.032696533203125,6.615179443359375
15.791999999999998,7.394711303710938,0.9725830078125,6.125448608398438
15.802000000000016,7.865002441406251,0.357391357421875,5.692242431640626
15.812000000000015,8.289236450195313,0.41810302734375,5.661737060546876
15.822000000000006,8.072259521484376,0.1520782470703125,6.004473876953125
15.832000000000011,6.650918579101563,-0.3010162353515625,6.488223266601563
15.84400000000002,4.972973632812501,-0.6401641845703125,6.031539916992188
15.852000000000007,4.526309204101563,-0.7705596923828125,5.529995727539063
15.86200000000002,9.147274780273438,-1.0635009765625,6.833801269531251
15.872000000000018,12.500921630859375,-0.2524169921875,6.96658935546875
15.882,10.2342529296875,-0.303558349609375,5.5933990478515625
15.89200000000002,5.611343383789063,0.1024322509765625,7.179379272460938
15.902000000000012,4.739846801757813,0.29967041015625,8.548083496093751
15.913000000000007,6.319845581054688,0.5815460205078126,10.024005126953126
15.922999999999998,6.922476196289063,1.1982330322265626,7.474713134765626
15.933000000000018,8.008407592773438,0.8716461181640626,4.399502563476563
15.944000000000011,8.614028930664062,0.3787750244140625,4.5272064208984375
15.953000000000008,8.905624389648438,0.251220703125,5.325430297851563
15.963000000000012,7.0569091796875005,0.844580078125,7.756439208984376
15.973000000000017,6.0113525390625,0.2397064208984375,9.069665527343751
15.983000000000008,6.748864746093751,-0.5516387939453126,7.6834655761718755
15.99300000000002,8.572308349609376,-0.5396759033203126,4.776632690429688
16.003000000000018,9.303390502929688,-0.4945159912109375,3.79462890625
16.013,8.687301635742188,-0.76263427734375,3.3057952880859376
16.02300000000002,7.127490234375,-0.6910064697265625,4.765267944335938
16.033000000000012,5.732019042968751,0.03409423828125,7.020123291015626
16.044000000000008,5.67938232421875,0.2468841552734375,7.558004760742188
16.054,7.277774047851563,0.7168762207031251,7.680175781250001
16.064000000000018,9.260772705078123,0.8758331298828126,6.258236694335938
16.074000000000016,8.506213378906251,0.587078857421875,6.656750488281251
16.084000000000007,6.551327514648438,0.26497802734375,7.565032958984376
16.09400000000002,5.4408721923828125,0.215631103515625,7.842123413085938
16.104000000000017,5.381655883789063,-0.11005859375,8.152261352539064
16.114000000000008,7.144238281250001,0.3865509033203125,6.391921997070313
16.12400000000002,8.616421508789063,0.1951446533203125,4.970730590820313
16.13400000000001,8.929400634765626,-0.5190399169921875,4.245480346679688
16.144000000000002,7.448095703125,-0.8264862060546876,3.758441162109375
16.15400000000002,5.12310791015625,-0.600537109375,5.559155273437501
16.165000000000017,4.85155029296875,-0.3126800537109375,7.174743652343751
16.175000000000008,7.999136352539063,0.0560760498046875,8.608346557617189
16.184000000000022,12.606045532226563,0.7292877197265626,7.473965454101563
16.19500000000001,11.796905517578123,0.29488525390625,5.675494384765625
16.205000000000016,6.371435546875,-0.4021026611328125,5.772244262695313
16.215000000000007,3.4034423828125004,-0.1471435546875,7.89072265625
16.22500000000002,4.833755493164063,-0.1697235107421875,9.731512451171875
16.235000000000017,5.6408020019531255,0.184527587890625,8.250057983398438
16.245,7.673596191406251,0.7107452392578125,4.242340087890625
16.25500000000002,9.868637084960938,0.3333160400390625,4.36107177734375
16.26500000000001,10.826715087890626,0.1993316650390625,5.8217407226562505
16.275000000000002,8.312564086914064,0.7194183349609375,7.74417724609375
16.28500000000002,6.0448486328125,0.2582489013671875,8.367144775390626
16.295000000000012,4.721005249023438,-0.04964599609375,8.248712158203126
16.305000000000003,6.395361328125,0.40673828125,6.292031860351563
16.315000000000023,9.036767578125,0.2920440673828125,4.630685424804688
16.325000000000014,9.641641235351564,0.02930908203125,4.69364013671875
16.335000000000004,7.98702392578125,-0.1272552490234375,3.5493896484375003
16.346000000000007,7.048983764648438,0.0095703125,3.772796630859376
16.35600000000002,6.350650024414063,-0.2998199462890625,7.231417846679688
16.366000000000017,6.794921875000001,-0.6890625,9.010748291015624
16.376,7.380654907226563,-0.378924560546875,8.427557373046875
16.38600000000002,8.690740966796875,0.0381317138671875,5.63272705078125
16.39600000000001,8.068072509765626,-0.0689361572265625,5.12071533203125
16.406000000000002,6.456820678710938,0.2761932373046875,6.081784057617188
16.41600000000002,5.323934936523438,0.273052978515625,8.163476562500001
16.426000000000013,5.944061279296875,0.8717956542968751,8.470623779296876
16.436000000000003,7.726083374023438,0.8220001220703126,6.766510009765626
16.445999999999994,8.440866088867189,-0.1112548828125,5.226138305664063
16.456000000000014,8.829660034179689,0.2296875,4.815213012695313
16.467000000000017,7.772439575195313,0.482403564453125,4.8126708984375
16.477000000000007,5.796917724609376,-0.2053131103515625,6.458615112304688
16.48700000000002,4.433447265625,-0.4909271240234375,6.716864013671875
16.498000000000015,6.626544189453125,-0.6613983154296875,7.48099365234375
16.507,10.937969970703126,-0.0970489501953125,6.7626220703125
16.51700000000002,11.460897827148438,0.08912353515625,5.735308837890625
16.52700000000001,7.438674926757813,0.3563446044921875,5.498593139648438
16.537000000000003,5.263372802734375,0.5579193115234375,7.703802490234375
16.547000000000022,5.13626708984375,-0.060711669921875,8.748611450195312
16.557000000000013,6.47611083984375,0.4438232421875,7.949490356445313
16.567000000000004,7.365402221679688,0.471636962890625,5.122210693359375
16.576999999999995,9.210977172851564,-0.350811767578125,5.5400146484375
16.587000000000014,9.413748168945313,-0.7195678710937501,6.407623291015626
16.597000000000005,7.485629272460938,-0.450701904296875,8.704797363281251
16.606999999999996,6.184066772460938,0.8554962158203125,8.721246337890626
16.617000000000015,5.8535919189453125,-0.17525634765625,6.513345336914063
16.628000000000018,7.842422485351563,-0.1879669189453125,5.025460815429688
16.638,8.4709228515625,-0.1721160888671875,4.046896362304688
16.64800000000002,8.6802734375,-0.1763031005859375,4.143197631835938
16.658000000000012,8.39735107421875,-0.03529052734375,4.005624389648438
16.668000000000003,7.180575561523438,0.5244232177734376,6.588113403320313
16.678000000000022,6.729873657226563,0.5658447265625001,7.820739746093751
16.688000000000013,6.72374267578125,0.7334747314453125,7.841375732421875
16.698000000000004,7.4322448730468755,0.7176239013671876,6.519924926757813
16.707999999999995,8.18201904296875,0.0671417236328125,5.393319702148438
16.718000000000014,7.351644897460938,-0.140863037109375,5.804244995117188
16.728000000000005,6.475213623046876,-0.8864501953125,7.11253662109375
16.737999999999996,6.001931762695313,0.0168975830078125,8.124447631835938
16.748000000000015,6.476409912109376,0.3043060302734375,8.151812744140626
16.76100000000002,7.296316528320313,-0.4221405029296875,7.129434204101563
