time,ax,ay,az
0.0,-6.976458740234375,1.3434326171875002,7.347906494140625
0.009999999999998,-6.971374511718751,1.7582458496093751,7.177285766601563
0.0200000000000386,-6.386688232421876,1.4644073486328126,7.145733642578126
0.0300000000000295,-6.879559326171876,0.9534423828125,6.655404663085938
0.0400000000000204,-7.290933227539063,0.5953033447265625,7.053170776367188
0.0500000000000113,-7.579388427734376,0.3177642822265625,6.270648193359375
0.0600000000000022,-7.025506591796876,-0.2618377685546875,6.421530151367188
0.0699999999999931,-6.866549682617188,-0.46834716796875,6.516934204101563
0.0800000000000409,-6.507812500000001,-0.42587890625,7.825076293945313
0.0900000000000318,-5.6636810302734375,-0.2618377685546875,8.802444458007812
0.100999999999999,-6.113037109375,-0.2966796875,8.776724243164063
0.1100000000000207,-7.140350341796876,-0.3146240234375,7.476058959960938
0.1200000000000045,-8.405575561523438,0.341839599609375,5.3656555175781255
0.1299999999999954,-7.44151611328125,1.140811157226563,4.047494506835938
0.1399999999999863,-8.243328857421876,0.941778564453125,4.35150146484375
0.1500000000000341,-6.831259155273438,0.4361968994140625,8.598626708984376
0.160000000000025,-6.692639160156251,-0.0157012939453125,7.67479248046875
0.1700000000000159,-6.156402587890626,-0.1508819580078125,8.563186645507812
0.1800000000000068,-6.07535400390625,-0.0082244873046875,6.968533325195313
0.1899999999999977,-7.569818115234375,-0.1508819580078125,6.481344604492188
0.1999999999999886,-7.368692016601563,0.1978363037109375,7.068572998046876
0.2100000000000363,-7.709634399414063,0.41810302734375,4.957122802734375
0.2200000000000272,-7.286447143554688,0.7648773193359375,6.703555297851563
0.2300000000000182,-6.346762084960938,0.7206146240234376,6.859222412109376
0.2400000000000091,-6.698919677734375,0.8439819335937501,8.069418334960938
0.25,-6.935934448242188,0.9950134277343752,8.029043579101563
0.259999999999998,-6.881802368164063,0.8589355468750001,5.9892211914062505
0.2700000000000386,-7.030740356445313,0.38939208984375,5.969033813476563
0.2800000000000295,-7.187005615234376,-0.3144744873046875,6.766958618164063
0.2900000000000204,-6.97496337890625,-0.6711181640625,8.030239868164063
0.3009999999999877,-6.976010131835938,-1.0344909667968751,7.233511352539063
0.3110000000000354,-6.677236938476563,-0.9395355224609376,6.592300415039063
0.3210000000000264,-6.593646240234375,-0.37144775390625,6.862063598632813
0.3310000000000173,-7.078741455078125,0.39537353515625,7.414300537109375
0.3410000000000082,-7.051675415039063,1.1207733154296875,7.186108398437501
0.3509999999999991,-6.779519653320313,1.7936859130859375,6.62265625
0.36099999999999,-7.132424926757813,1.6224670410156252,6.468634033203125
0.3710000000000377,-6.731967163085938,0.9224884033203126,6.9552246093750005
0.3810000000000286,-7.182818603515625,0.22430419921875,7.170855712890625
0.3910000000000195,-7.127191162109376,-0.1763031005859375,6.196328735351563
0.4010000000000104,-7.4265625,-0.2740997314453125,6.059353637695313
0.4109999999999942,-6.797463989257813,-0.7880554199218751,7.086965942382813
0.4209999999999922,-5.999090576171875,-0.9180023193359376,7.968331909179688
0.43100000000004,-7.207192993164063,-0.2708099365234375,8.5618408203125
0.4410000000000238,-7.581332397460938,0.5580688476562501,7.382748413085938
0.4510000000000289,-6.2015625000000005,0.6204254150390626,5.290887451171876
0.4610000000000198,-7.0018798828125,0.4810577392578125,5.426666259765625
0.4710000000000036,-7.472320556640626,0.81168212890625,7.913601684570313
0.4809999999999945,-7.240090942382813,1.4656036376953123,7.724288940429688
0.4909999999999854,-6.4611572265625,1.0890716552734376,7.2028564453125
0.5010000000000332,-6.215170288085938,-0.2379119873046875,6.585122680664063
0.5110000000000241,-7.020123291015626,-0.91934814453125,7.553817749023438
0.521000000000015,-7.625744628906251,-0.7358673095703125,7.355682373046876
0.5310000000000059,-7.286746215820313,-0.383111572265625,5.954977416992188
0.5409999999999968,-6.656900024414063,-0.4684967041015625,6.084176635742188
0.5509999999999877,-6.497793579101563,-0.2588470458984375,7.664624023437501
0.5610000000000355,-6.7243408203125,0.5254699707031251,8.830108642578125
0.5710000000000264,-6.728228759765625,1.2562530517578123,7.508209228515626
0.5810000000000173,-6.616973876953126,1.26387939453125,6.110345458984376
0.5910000000000082,-6.837539672851563,0.7941864013671875,5.8055908203125
0.6009999999999991,-7.518228149414063,0.6519775390625,7.466339111328126
0.61099999999999,-7.906573486328125,0.3433349609375,6.937728881835938
0.6210000000000377,-7.301998901367188,0.10347900390625,5.2878967285156255
0.6310000000000286,-7.197921752929688,-0.009271240234375,4.7528564453125
0.6410000000000196,-7.126293945312501,0.2093505859375,7.411459350585938
0.6510000000000105,-6.722994995117188,0.320904541015625,9.080731201171876
0.6609999999999943,-5.94854736328125,0.1052734375,7.929153442382813
0.6709999999999923,-5.841778564453126,-0.2095001220703125,7.7193542480468755
0.68100000000004,-6.593496704101563,-0.301165771484375,6.940270996093751
0.6910000000000238,-7.778570556640625,-0.1088623046875,7.225735473632813
0.7010000000000289,-7.488769531250001,-0.058917236328125,6.3226867675781255
0.7110000000000198,-7.768850708007813,0.2510711669921875,4.4001007080078125
0.7210000000000036,-6.947000122070313,1.002789306640625,6.745574951171876
0.7309999999999945,-7.649072265625,1.310235595703125,6.714620971679688
0.7409999999999854,-5.950192260742188,1.3259368896484376,8.287142944335939
0.7510000000000332,-6.246273803710938,0.8511596679687501,6.8559326171875
0.7610000000000241,-6.528448486328125,0.4690948486328125,7.572958374023438
0.771000000000015,-7.465740966796876,0.072674560546875,6.6190673828125
0.7810000000000059,-7.517031860351563,-0.5929107666015625,6.977056884765625
0.7909999999999968,-8.181869506835938,-1.0174438476562502,5.84447021484375
0.8009999999999877,-6.554019165039063,-0.9787139892578126,6.641348266601563
0.8110000000000355,-5.843572998046875,-0.5725738525390626,7.213772583007813
0.8210000000000264,-6.5320373535156255,0.0554779052734375,8.874969482421875
0.8310000000000173,-6.462203979492188,1.07366943359375,7.909564208984375
0.8410000000000082,-7.062591552734376,1.7796295166015623,6.619515991210938
0.8509999999999991,-7.440768432617188,1.21363525390625,6.330911254882813
0.86099999999999,-7.378112792968751,0.3868499755859375,5.358926391601563
0.8710000000000377,-7.623501586914063,0.0620574951171875,6.944607543945313
0.8810000000000286,-7.395758056640625,0.2552581787109375,6.471475219726563
0.8910000000000196,-6.5783935546875005,-0.030206298828125,6.8200439453125
0.9010000000000103,-5.91026611328125,-0.6003875732421875,8.075250244140626
0.9109999999999944,-6.404034423828126,-0.6533233642578126,8.574252319335939
0.9209999999999924,-7.070068359375001,-0.0719268798828125,7.908218383789063
0.93100000000004,-7.263717651367188,0.368157958984375,5.749664306640625
0.9410000000000238,-7.111639404296875,0.22908935546875,4.993460083007813
0.9510000000000288,-7.269100952148438,0.4275238037109375,7.103265380859376
0.9610000000000198,-7.022216796875001,0.6808380126953125,8.108746337890626
0.9710000000000036,-6.422128295898438,0.808392333984375,7.441815185546876
0.9809999999999944,-6.285601806640625,0.5598632812500001,6.831707763671876
0.9909999999999854,-7.045693969726563,0.3141754150390625,6.294125366210938
1.0010000000000332,-7.908966064453126,0.2121917724609375,7.071115112304688
1.011000000000024,-7.714718627929688,0.4350006103515625,5.9754638671875
1.021000000000015,-7.579986572265626,0.3171661376953125,5.2579895019531255
1.031000000000006,-6.1285888671875,0.1484893798828125,6.971374511718751
1.04200000000003,-6.662731933593751,0.0865814208984375,8.404678344726562
1.052000000000028,-6.207095336914063,0.1676300048828125,9.028692626953124
1.062000000000019,-6.643142700195313,0.0608612060546875,7.188052368164063
1.0720000000000027,-6.387734985351563,-0.05562744140625,6.447998046875001
1.0819999999999936,-7.84586181640625,-0.11783447265625,5.433843994140625
1.0920000000000414,-7.671951293945313,0.2456878662109375,7.014739990234376
1.1020000000000325,-7.634866333007813,0.764129638671875,5.5160888671875
1.1120000000000303,-6.96060791015625,1.2166259765625,6.092999267578126
1.122000000000014,-6.4243713378906255,1.3298248291015626,7.51090087890625
1.132000000000005,-6.705200195312501,0.6945953369140625,8.8010986328125
1.141999999999996,-6.943560791015625,-0.0921142578125,8.4398193359375
1.1519999999999868,-5.749215698242188,-0.844281005859375,6.377566528320313
1.1620000000000346,-6.955523681640625,-1.1355773925781252,5.2792236328125
1.1720000000000257,-7.832852172851563,-0.6473419189453126,7.5877624511718755
1.1820000000000164,-7.7657104492187505,-0.0076263427734375,7.057058715820313
1.1920000000000073,-6.714172363281251,0.351708984375,6.855184936523438
1.2019999999999982,-6.268554687500001,0.6711181640625,6.368893432617188
1.211999999999989,-6.711181640625001,1.0992401123046875,7.814459228515625
1.2220000000000368,-7.212277221679688,1.242495727539063,7.88414306640625
1.2320000000000275,-7.0748535156250005,0.8722442626953125,6.499288940429688
1.2420000000000186,-6.854287719726563,0.1160400390625,5.70450439453125
1.2520000000000095,-7.042553710937501,-0.34632568359375,6.587664794921875
1.2620000000000005,-7.2746337890625,-0.674407958984375,8.261123657226562
1.2719999999999985,-6.884045410156251,-0.6057708740234375,7.149322509765626
1.282000000000039,-6.646432495117188,-0.3002685546875,6.269302368164063
1.29200000000003,-6.435287475585938,0.3276336669921875,6.653460693359375
1.302000000000028,-7.04075927734375,0.8378509521484375,8.017977905273439
1.312000000000019,-6.973468017578125,0.798223876953125,8.002426147460938
1.3220000000000027,-6.351696777343751,0.669622802734375,6.430502319335938
1.3319999999999936,-7.04434814453125,0.549993896484375,5.910116577148438
1.3420000000000414,-8.049380493164064,0.6404632568359375,6.06339111328125
1.3520000000000325,-7.944406127929688,0.4900299072265625,6.561196899414063
1.3620000000000303,-7.090853881835938,0.32060546875,5.932995605468751
1.372000000000014,-6.399398803710938,0.081646728515625,7.063040161132813
1.382000000000005,-6.262722778320313,0.08194580078125,7.874572753906251
1.391999999999996,-6.525607299804688,0.0725250244140625,9.0786376953125
1.4019999999999868,-6.606655883789063,-0.1161895751953125,7.201361083984375
1.4120000000000346,-6.707293701171875,-0.2068084716796875,6.438876342773438
1.4220000000000257,-7.313214111328126,-0.1949951171875,6.124401855468751
1.4320000000000164,-7.937677001953125,0.059515380859375,6.552673339843751
1.4420000000000073,-6.987225341796876,0.4701416015625,6.963449096679688
1.4519999999999982,-6.802996826171875,0.6507812500000001,5.691195678710938
1.461999999999989,-6.34451904296875,1.0492950439453126,7.561892700195313
1.4720000000000368,-7.275680541992188,1.3618255615234376,7.202557373046876
1.4820000000000275,-7.007412719726563,1.0611083984375,7.627838134765626
1.4920000000000186,-7.326971435546875,0.38341064453125,6.286199951171875
1.5020000000000095,-7.4920593261718755,-0.4270751953125,6.5305419921875005
1.5120000000000005,-6.10765380859375,-0.9942657470703126,6.72135009765625
1.5219999999999985,-6.696676635742188,-1.1938964843750002,7.748065185546875
1.532000000000039,-6.956121826171875,-0.6643890380859375,7.964892578125
1.54200000000003,-6.639852905273438,0.4385894775390625,6.876119995117188
1.552000000000028,-7.204202270507813,0.7738494873046876,6.9994873046875
1.562000000000019,-6.749761962890625,0.6480895996093751,6.603366088867188
1.5720000000000027,-7.068722534179688,0.8625244140625,7.049432373046876
1.5819999999999936,-7.788589477539063,1.2795806884765626,6.394613647460938
1.5920000000000414,-7.108050537109375,1.2523651123046875,6.028997802734375
1.6020000000000325,-6.749163818359375,0.260491943359375,6.549533081054688
1.6120000000000303,-6.338687133789063,-0.4768707275390625,7.97506103515625
1.622000000000014,-6.957168579101563,-0.5558258056640626,8.367144775390626
1.632000000000005,-6.928906250000001,-0.43843994140625,7.106704711914063
1.641999999999996,-6.800604248046875,-0.396868896484375,5.519528198242188
1.6519999999999868,-7.164874267578125,-0.426177978515625,6.607553100585938
1.6620000000000346,-7.024758911132813,0.2059112548828125,7.966387939453125
1.6720000000000257,-6.849203491210938,0.683380126953125,7.510302734375
1.6820000000000164,-6.267657470703125,0.8508605957031251,6.784005737304688
1.6920000000000073,-6.459960937500001,0.8794219970703125,6.772341918945313
1.7019999999999982,-7.570864868164063,0.7328765869140625,7.21781005859375
1.711999999999989,-8.071661376953125,0.748876953125,6.347509765625
1.7220000000000368,-7.491760253906251,0.717474365234375,5.1117431640625
1.7320000000000275,-7.582379150390626,0.2639312744140625,4.911663818359376
1.742999999999995,-6.004324340820313,0.05263671875,8.175738525390626
1.7520000000000095,-6.753799438476563,-0.2740997314453125,8.809921264648438
1.7620000000000005,-5.929107666015625,-0.2187713623046875,8.773434448242188
1.7719999999999985,-6.607553100585938,-0.17645263671875,6.0472412109375
1.782000000000039,-6.796417236328126,-0.2247528076171875,7.059600830078126
1.79200000000003,-7.635464477539063,-0.3297271728515625,6.53831787109375
1.802000000000028,-7.148724365234376,0.0118133544921875,7.217510986328126
1.812000000000019,-7.421328735351563,0.7080535888671875,5.271896362304688
1.823000000000036,-7.316055297851563,1.6209716796875002,5.491415405273438
1.8319999999999936,-7.272988891601563,1.991671752929688,6.862960815429688
1.8420000000000412,-6.373977661132813,1.3977142333984376,8.020968627929689
1.8530000000000089,-7.011300659179688,0.3279327392578125,8.408416748046875
1.8629999999999995,-6.679330444335938,-0.4104766845703125,7.457666015625
1.872000000000014,-6.007165527343751,-1.41700439453125,6.151467895507813
1.882000000000005,-7.214968872070313,-1.89432373046875,6.692489624023438
1.891999999999996,-7.676437377929688,-1.2209625244140625,7.376019287109376
1.90300000000002,-7.2378479003906255,0.3641204833984375,6.5448974609375
1.913000000000011,-6.758734130859375,1.123016357421875,6.81944580078125
1.9230000000000016,-6.338238525390626,1.1953918457031252,7.055563354492188
1.9329999999999927,-6.654208374023438,1.43076171875,8.17783203125
1.9430000000000405,-7.577893066406251,1.7425445556640626,6.965692138671876
1.9530000000000245,-7.097134399414063,1.133782958984375,5.9578186035156255
1.9630000000000292,-6.894363403320313,-0.311932373046875,5.323187255859375
1.9730000000000203,-7.049282836914063,-1.2837677001953125,7.929452514648438
1.983000000000004,-7.102218627929688,-1.22200927734375,8.189196777343751
1.992999999999995,-6.846063232421876,-0.705511474609375,6.782360839843751
2.002999999999986,-6.463998413085938,-0.2391082763671875,6.142944335937501
2.0130000000000337,-6.721798706054688,0.3428863525390625,6.912457275390626
2.023000000000025,-6.855184936523438,1.0981933593750002,8.57679443359375
2.0330000000000155,-7.082928466796876,1.5361846923828126,7.360916137695313
2.0430000000000064,-6.71536865234375,1.190606689453125,6.039166259765626
2.0529999999999973,-6.659591674804688,0.7550079345703126,5.599081420898438
2.062999999999988,-7.891619873046875,0.2086029052734375,7.3583740234375
2.073000000000036,-7.993154907226563,-0.04246826171875,6.798062133789063
2.083000000000027,-7.211080932617188,-0.070880126953125,5.21402587890625
2.0930000000000177,-6.491213989257813,-0.0611602783203125,5.899948120117188
2.1030000000000086,-6.403884887695313,-0.0865814208984375,8.735452270507814
2.1129999999999995,-6.316555786132813,-0.17764892578125,9.452627563476565
2.1229999999999905,-6.533532714843751,0.104974365234375,7.719952392578126
2.133000000000038,-6.472970581054688,0.4598236083984375,5.81456298828125
2.143000000000029,-7.660736083984376,0.2953338623046875,5.360870361328125
2.15300000000002,-7.446749877929688,0.14176025390625,7.601220703125
2.163000000000011,-7.823132324218751,0.1182830810546875,6.498242187500001
2.173000000000002,-6.569720458984375,0.72794189453125,6.2458251953125
2.1829999999999927,-6.783706665039063,0.996807861328125,5.558706665039063
2.1930000000000405,-6.692340087890625,0.8474212646484376,8.253497314453126
2.2030000000000243,-7.087115478515625,0.5609100341796875,8.02650146484375
2.2130000000000294,-6.631329345703126,0.3748870849609375,7.344616699218751
2.2230000000000203,-7.427459716796876,0.1371246337890625,5.797067260742188
2.233000000000004,-6.992459106445313,-0.5670410156250001,7.068722534179688
2.242999999999995,-6.612637329101563,-1.1432037353515625,6.648077392578125
2.252999999999986,-7.069171142578125,-0.6809875488281251,7.682717895507813
2.2630000000000337,-6.738247680664063,0.480908203125,7.190594482421876
2.273000000000025,-6.846212768554688,0.9843963623046876,6.8610168457031255
2.2830000000000155,-6.703256225585938,0.3672607421875,7.481890869140625
2.2930000000000064,-6.816455078125,0.464459228515625,7.009805297851563
2.3029999999999973,-7.504470825195313,1.0083221435546876,6.803295898437501
2.312999999999988,-7.48458251953125,1.073968505859375,5.73321533203125
2.323000000000036,-6.938925170898438,0.2189208984375,6.017333984375
2.333000000000027,-6.745126342773438,-0.3416900634765625,7.502227783203126
2.3430000000000177,-6.840679931640626,-0.0777587890625,8.210580444335939
2.3530000000000086,-6.736453247070313,0.05921630859375,7.37691650390625
2.3629999999999995,-6.648974609375,-0.2172760009765625,6.5329345703125
2.3729999999999905,-6.600674438476563,-0.44083251953125,6.627590942382813
2.383000000000038,-7.373028564453126,0.040374755859375,7.543798828125
2.393000000000029,-7.296615600585938,0.5310028076171875,7.284951782226563
2.40300000000002,-6.814361572265626,0.5715270996093751,5.868994140625
2.413000000000011,-6.402838134765625,0.5169464111328126,6.632974243164063
2.423000000000002,-6.960308837890626,0.7422973632812501,7.456768798828126
2.4329999999999927,-7.8853393554687505,0.89542236328125,7.751205444335938
2.4430000000000405,-7.012945556640625,0.8420379638671875,5.821292114257813
2.4530000000000243,-7.125845336914063,0.3757843017578125,4.75823974609375
2.4630000000000294,-6.808828735351563,-0.0186920166015625,7.649819946289063
2.4730000000000203,-6.8355957031250005,-0.31163330078125,8.6431884765625
2.483000000000004,-6.547589111328126,-0.4227386474609375,7.76451416015625
2.492999999999995,-6.392669677734376,-0.302960205078125,6.437680053710938
2.502999999999986,-6.849801635742188,-0.057720947265625,6.428707885742188
2.5130000000000337,-7.599127197265625,0.1102081298828125,7.554864501953125
2.523000000000025,-7.041656494140626,0.442626953125,7.216015625000001
2.5330000000000155,-6.871783447265625,0.6892120361328126,5.689849853515625
2.5430000000000064,-7.026702880859376,1.209747314453125,5.82353515625
2.5529999999999973,-7.692138671875001,1.5387268066406252,6.69742431640625
2.562999999999988,-6.9941040039062505,1.0706787109375,7.705746459960938
2.5740000000000194,-6.612637329101563,0.22908935546875,7.1645751953125005
2.583000000000027,-6.64957275390625,-0.5673400878906251,7.589108276367188
2.5930000000000177,-6.425866699218751,-1.02581787109375,7.305886840820313
2.6030000000000086,-6.797015380859375,-1.36795654296875,7.327719116210938
2.6129999999999995,-7.321289062500001,-0.8918334960937501,6.457418823242188
2.6229999999999905,-7.371981811523438,0.3503631591796875,6.313265991210938
2.633000000000038,-7.169210815429688,1.137820434570313,6.847708129882813
2.643000000000029,-6.635067749023438,1.203466796875,7.050030517578126
2.6539999999999964,-6.465344238281251,1.184326171875,7.700213623046875
2.6639999999999877,-7.097283935546876,1.3935272216796877,7.24173583984375
2.674000000000035,-7.083676147460938,0.8563934326171876,6.615179443359375
2.684000000000026,-7.117321777343751,-0.3285308837890625,5.9627532958984375
2.694000000000017,-6.873876953125,-1.1584564208984376,7.176986694335938
2.704000000000008,-7.065582275390626,-1.0338928222656252,7.583575439453125
2.713999999999998,-7.024160766601563,-0.6628936767578125,7.322186279296876
2.723999999999989,-6.706695556640626,-0.1027313232421875,6.271096801757813
2.7340000000000373,-6.596636962890625,0.485992431640625,6.930252075195313
2.744000000000028,-6.808230590820313,1.1769989013671875,7.687054443359376
2.754000000000019,-7.020123291015626,1.5319976806640627,7.717111206054688
2.76400000000001,-6.877166748046876,1.2118408203125002,6.3080322265625
2.773999999999994,-7.191641235351563,0.6959411621093751,5.5806884765625
2.783999999999992,-7.537518310546876,0.3695037841796875,6.46654052734375
2.79400000000004,-8.084521484375001,0.0480010986328125,6.382949829101563
2.8040000000000305,-6.632824707031251,-0.196490478515625,6.923074340820313
2.8140000000000285,-6.552374267578125,-0.471636962890625,6.614730834960938
2.8240000000000194,-5.816506958007813,-0.4101776123046875,8.932391357421876
2.834000000000003,-6.7028076171875,-0.2854644775390625,8.307180786132813
2.843999999999994,-6.686807250976563,0.0453094482421875,7.7232421875
2.854000000000042,-7.1825195312500005,0.31641845703125,5.176342773437501
2.8640000000000327,-7.375869750976563,0.55328369140625,6.019277954101563
2.8740000000000308,-7.546340942382813,0.6488372802734376,6.677984619140625
2.8840000000000146,-7.264465332031251,0.7768402099609376,6.935336303710938
2.894000000000005,-6.722695922851563,1.1808868408203126,6.402838134765625
2.9039999999999964,-6.993057250976563,1.1399139404296876,6.594992065429688
2.9139999999999877,-6.66990966796875,0.5583679199218751,7.72264404296875
2.924000000000035,-7.184762573242188,-0.15491943359375,8.085568237304688
2.934000000000026,-6.785052490234375,-0.8457763671875,7.308279418945313
2.944000000000017,-5.9742675781250005,-1.0875762939453126,5.768356323242188
2.954000000000008,-7.336691284179688,-0.8531036376953126,7.056460571289063
2.963999999999998,-7.481741333007813,0.049346923828125,7.793374633789063
2.973999999999989,-7.195080566406251,0.6640899658203125,6.785052490234375
2.9840000000000373,-6.530691528320313,0.7787841796875,6.707144165039063
2.994000000000028,-6.333453369140625,1.0020416259765623,6.6591430664062505
3.004000000000019,-7.508956909179688,1.09400634765625,7.877413940429688
3.01400000000001,-7.256539916992188,0.9826019287109377,7.050030517578126
3.023999999999994,-7.029244995117188,0.368756103515625,5.307186889648438
3.033999999999992,-6.900344848632813,-0.1721160888671875,6.364407348632813
3.04400000000004,-6.940270996093751,-0.3512603759765625,7.871582031250001
3.0540000000000305,-7.197772216796875,-0.600537109375,8.137307739257814
3.0640000000000285,-6.563888549804688,-0.3748870849609375,6.690994262695313
3.0740000000000194,-6.528897094726563,-0.04725341796875,5.871835327148438
3.084000000000003,-6.848306274414063,0.3536529541015625,7.599575805664063
3.093999999999994,-7.174145507812501,0.6087615966796875,8.124597167968751
3.104000000000042,-6.857577514648438,0.4936187744140625,6.9821411132812505
3.1140000000000327,-6.689947509765625,0.7584472656250001,5.588314819335938
3.1240000000000308,-7.318298339843751,0.9006561279296875,6.0838775634765625
3.1340000000000146,-7.911508178710938,0.8182617187500001,7.152163696289063
3.144000000000005,-7.171603393554688,0.4009063720703125,7.072760009765625
3.1539999999999964,-6.68785400390625,0.145648193359375,5.768206787109375
3.1639999999999877,-6.4243713378906255,0.082843017578125,7.638156127929688
3.174000000000035,-6.561645507812501,-0.2358184814453125,7.910610961914063
3.184000000000026,-6.844567871093751,-0.5199371337890626,8.407519531250001
3.194000000000017,-6.692788696289063,-0.35709228515625,6.552822875976563
3.204000000000008,-7.342523193359375,0.1233673095703125,5.6098480224609375
3.213999999999998,-6.947747802734376,0.3428863525390625,7.262969970703126
3.223999999999989,-7.266857910156251,0.203369140625,6.907821655273438
3.2340000000000373,-6.727780151367188,0.6361267089843751,7.242483520507813
3.244000000000028,-7.314709472656251,1.29498291015625,5.571566772460938
3.254000000000019,-7.055264282226563,1.5767089843750002,6.586468505859376
3.26400000000001,-7.243530273437501,1.0234252929687502,6.512298583984376
3.273999999999994,-6.540112304687501,0.2124908447265625,7.722494506835938
3.283999999999992,-6.96898193359375,-0.18961181640625,7.835543823242188
3.29400000000004,-7.260278320312499,-0.6192291259765625,7.149322509765626
3.3040000000000305,-6.335397338867188,-1.3435821533203125,6.894512939453126
3.3140000000000285,-6.540710449218751,-1.5488952636718751,6.475961303710938
3.3240000000000194,-7.312316894531251,-0.4457672119140625,7.30155029296875
3.334000000000003,-7.341326904296875,1.25430908203125,7.291680908203125
3.343999999999994,-6.995150756835938,1.723553466796875,6.393118286132813
3.354000000000042,-6.4901672363281255,1.2003265380859376,6.868045043945313
3.3640000000000327,-6.795968627929688,1.0279113769531252,7.4361328125
3.3740000000000308,-7.578790283203125,1.10238037109375,7.105957031250001
3.3840000000000146,-7.087713623046875,0.361578369140625,6.503326416015626
3.394000000000005,-6.753051757812501,-0.9242828369140624,5.4802001953125
3.4039999999999964,-6.793276977539063,-1.4979034423828126,8.013790893554688
3.4139999999999877,-6.925765991210938,-0.9565826416015626,8.181719970703126
3.425000000000012,-6.877017211914063,-0.34512939453125,7.226333618164063
3.434000000000026,-6.594094848632813,0.2328277587890625,6.078195190429688
3.444999999999993,-6.886737060546875,0.874188232421875,6.382052612304688
3.455000000000041,-7.231716918945313,1.6351776123046875,7.76451416015625
3.465000000000032,-7.30693359375,1.798321533203125,7.178482055664063
3.47500000000003,-6.680526733398438,1.1071655273437502,6.031689453125001
3.4850000000000207,-6.688003540039063,0.3623260498046875,6.027801513671875
3.4950000000000045,-7.504769897460938,-0.1966400146484375,7.478152465820313
3.5049999999999955,-7.760177612304688,-0.481207275390625,7.042852783203125
3.5149999999999864,-6.679031372070313,-0.6198272705078125,6.270648193359375
3.525000000000034,-6.48807373046875,-0.5976959228515626,6.098681640625
3.535000000000025,-6.411212158203125,-0.315521240234375,8.794219970703125
3.545000000000016,-6.722396850585938,0.184527587890625,8.331256103515626
3.555000000000007,-6.693984985351563,0.71298828125,7.380505371093751
3.5649999999999977,-6.944308471679688,1.018191528320313,5.159146118164063
3.5749999999999886,-7.590454101562501,0.9960601806640624,6.030343627929688
3.5850000000000364,-7.505068969726563,0.7418487548828125,7.21182861328125
3.5950000000000277,-7.369888305664063,0.4012054443359375,6.4901672363281255
3.605000000000018,-6.485980224609375,0.40673828125,6.367547607421876
3.615000000000009,-6.810772705078126,0.3672607421875,6.303396606445313
3.625,-6.810025024414063,0.1134979248046875,8.4230712890625
3.634999999999998,-6.636264038085938,-0.18123779296875,8.133270263671875
3.645000000000039,-7.399795532226563,-0.3536529541015625,7.0616943359375
3.6550000000000296,-6.8610168457031255,-0.24703369140625,6.241638183593751
3.665000000000021,-6.452334594726563,-0.34154052734375,5.4610595703125
3.6750000000000114,-7.49654541015625,-0.057122802734375,7.604809570312501
3.6850000000000014,-6.967935180664063,0.877178955078125,8.171252441406251
3.694999999999993,-6.877914428710938,1.2137847900390626,6.483587646484375
3.705000000000041,-6.311471557617188,0.5790039062500001,7.195828247070313
3.715000000000032,-6.722247314453125,0.01614990234375,6.809127807617188
3.72500000000003,-7.681671142578126,0.145050048828125,7.527349853515625
3.7350000000000207,-7.432095336914063,0.3736907958984375,6.432894897460938
3.745000000000005,-7.079937744140626,-0.018243408203125,4.9115142822265625
3.754999999999996,-6.506167602539063,-0.26318359375,7.4445068359375
3.7649999999999855,-6.846212768554688,0.045758056640625,8.442510986328125
3.775000000000034,-6.864456176757813,0.3599334716796875,8.216860961914064
3.785000000000025,-6.422128295898438,0.4819549560546875,6.350949096679688
3.795000000000016,-6.914700317382813,0.1556671142578125,5.647830200195313
3.805000000000007,-7.303643798828125,0.1825836181640625,7.367645263671876
3.8149999999999977,-7.372131347656251,0.1818359375,7.639202880859376
3.8249999999999886,-6.620413208007813,0.130096435546875,6.599478149414063
3.835000000000037,-6.557757568359375,0.1926025390625,6.145785522460938
3.8450000000000273,-7.153659057617188,0.404345703125,7.052124023437501
3.855000000000018,-7.6565490722656255,0.7476806640625,7.411309814453125
3.865000000000009,-6.940570068359375,0.8269348144531251,6.573757934570313
3.875,-7.141397094726563,0.6198272705078125,5.4467041015625
3.884999999999998,-6.432147216796875,0.336456298828125,7.42955322265625
3.895000000000039,-7.108648681640625,0.0566741943359375,7.747317504882813
3.9050000000000296,-6.644338989257813,-0.23746337890625,8.223291015625001
3.915000000000021,-6.763369750976563,-0.374139404296875,5.882302856445313
3.9250000000000114,-6.933392333984376,-0.203668212890625,6.781314086914063
3.9350000000000014,-7.451385498046876,-0.017645263671875,6.740640258789063
3.944999999999993,-6.964346313476563,0.2229583740234375,7.683016967773438
3.955000000000041,-6.431399536132813,0.5090209960937501,6.551327514648438
3.965000000000032,-7.282858276367188,0.9583770751953126,5.783758544921875
3.97500000000003,-7.2767272949218755,1.6374206542968752,6.987075805664063
3.9850000000000207,-7.233212280273438,1.3718444824218752,6.609497070312501
3.995000000000005,-6.676339721679688,0.3859527587890625,7.245175170898438
4.004999999999996,-6.854287719726563,-0.3303253173828125,7.67239990234375
4.014999999999986,-6.958663940429688,-0.7946350097656251,7.594940185546876
4.025000000000034,-6.307135009765625,-1.26986083984375,6.66751708984375
4.035000000000025,-6.774734497070313,-1.3539001464843752,6.824081420898438
4.045000000000016,-7.528097534179688,-0.197088623046875,7.100125122070313
4.055000000000007,-7.299755859375001,1.095950317382813,6.791183471679688
4.064999999999998,-6.902737426757813,1.3927795410156252,6.913504028320313
4.074999999999989,-6.293377685546876,1.0624542236328125,6.780267333984376
4.085000000000036,-6.9941040039062505,1.2048126220703126,7.331307983398438
4.095000000000027,-7.46304931640625,1.179241943359375,7.398001098632813
4.105000000000018,-6.951934814453126,0.3336151123046875,5.905630493164063
4.115000000000009,-6.775033569335938,-0.95284423828125,6.665124511718751
4.125,-6.657049560546875,-1.378125,7.601370239257813
4.134999999999998,-7.200613403320313,-0.9262268066406252,7.966836547851563
4.145000000000039,-7.049282836914063,-0.321502685546875,6.9148498535156255
4.15500000000003,-6.569720458984375,0.3500640869140625,5.397357177734375
4.1650000000000205,-6.860867309570313,0.9084320068359376,7.277474975585938
4.175000000000011,-7.030740356445313,1.6643371582031252,8.135214233398438
4.185000000000002,-7.085919189453126,1.5478485107421875,7.200164794921876
4.194999999999993,-6.664227294921876,1.089968872070313,5.893069458007813
4.205000000000041,-7.272390747070313,0.4580291748046875,5.4562744140625
4.215000000000032,-7.654754638671876,-0.0300567626953125,7.239193725585938
4.225999999999999,-7.474713134765626,-0.4981048583984375,7.327719116210938
4.235000000000021,-6.427960205078126,-0.7436431884765625,6.25120849609375
4.2450000000000045,-6.466839599609376,-0.588873291015625,7.501181030273438
4.256000000000029,-6.280068969726563,-0.2471832275390625,8.259628295898438
4.26600000000002,-6.848156738281251,0.0668426513671875,8.30762939453125
4.2760000000000105,-6.623703002929688,0.5284606933593751,6.888681030273438
4.285999999999994,-7.511648559570313,0.9769195556640624,4.743435668945313
4.295999999999992,-7.246072387695313,1.16339111328125,7.021469116210938
4.30600000000004,-7.607052612304688,0.7316802978515625,6.105111694335938
4.316000000000024,-6.876119995117188,0.4840484619140625,7.252053833007813
4.326000000000029,-6.761575317382813,0.6928009033203125,6.245376586914063
4.33600000000002,-6.941317749023438,0.5899200439453125,7.08861083984375
4.346000000000004,-6.743481445312501,-0.05263671875,7.9107604980468755
4.3559999999999945,-6.967785644531251,-0.6660339355468751,7.8010009765625
4.3659999999999854,-7.198519897460938,-0.6899597167968751,7.254296875
4.376000000000033,-5.987875366210938,-0.5311523437500001,5.7619262695312505
4.386000000000024,-7.195529174804688,-0.3650177001953125,6.743331909179688
4.396000000000015,-7.365850830078125,0.460870361328125,8.011846923828125
4.406000000000006,-7.258483886718751,1.268365478515625,6.685012817382813
4.415999999999997,-6.546392822265625,1.1569610595703126,7.063339233398438
4.425999999999988,-6.219058227539063,0.5748168945312501,6.281863403320313
4.436000000000036,-7.453030395507813,0.320904541015625,7.840179443359376
4.446000000000026,-7.491760253906251,0.477618408203125,7.287493896484375
4.456000000000017,-7.168164062500001,0.1471435546875,5.110247802734375
4.466000000000008,-6.643292236328126,-0.4810577392578125,6.509906005859375
4.475999999999999,-6.7243408203125,-0.4658050537109375,7.802197265625001
4.48599999999999,-7.156350708007813,-0.10467529296875,8.58935546875
4.496000000000038,-6.738397216796876,0.3805694580078125,6.838137817382813
4.506000000000029,-6.386688232421876,0.426776123046875,5.483639526367188
4.51600000000002,-6.943411254882813,0.5274139404296876,7.191790771484375
4.5260000000000105,-7.654156494140626,0.5390777587890625,8.036520385742188
4.535999999999994,-6.870587158203126,0.407037353515625,7.016235351562501
4.545999999999992,-6.5993286132812505,0.3635223388671875,5.411712646484375
4.55600000000004,-6.8744750976562505,0.27335205078125,6.540261840820313
4.566000000000024,-7.737896728515626,0.3313720703125,7.7746826171875005
4.576000000000029,-7.141098022460938,0.2483795166015625,7.260726928710938
4.58600000000002,-6.722097778320313,0.3218017578125,5.711383056640625
4.596000000000004,-6.515737915039063,0.2749969482421875,7.042703247070313
4.6059999999999945,-6.693685913085938,0.0429168701171875,7.942611694335938
4.6159999999999854,-7.041058349609376,-0.1052734375,8.305984497070312
4.626000000000033,-6.850399780273438,0.070281982421875,6.376370239257813
4.636000000000024,-7.036273193359375,0.34393310546875,5.359075927734375
4.646000000000015,-7.1669677734375,0.29368896484375,6.912606811523438
4.656000000000006,-7.288092041015625,0.1419097900390625,7.780514526367188
4.665999999999997,-6.750061035156251,0.4990020751953125,6.9396728515625
4.675999999999988,-6.889279174804688,0.9244323730468752,5.733663940429688
4.686000000000036,-6.980496215820313,1.212139892578125,6.403137207031251
4.696000000000026,-7.142593383789063,0.741400146484375,7.575949096679688
4.706000000000017,-6.8026977539062505,0.1179840087890625,8.01214599609375
4.716000000000008,-7.214071655273438,-0.2289398193359375,7.150817871093751
4.725999999999999,-6.584225463867188,-0.5873779296875,6.605010986328126
4.73599999999999,-6.480447387695313,-1.0370330810546875,6.191693115234376
4.746000000000038,-7.119415283203126,-0.8964691162109376,7.646231079101563
4.756000000000029,-7.295269775390626,0.43843994140625,7.585818481445313
4.76600000000002,-6.936233520507813,1.1868682861328126,6.593496704101563
4.7760000000000105,-6.704751586914063,0.9760223388671876,6.812866210937501
4.785999999999994,-6.639404296875001,0.5148529052734375,6.987823486328126
4.795999999999992,-7.429403686523438,0.8088409423828126,7.345214843750001
4.80600000000004,-7.297213745117188,0.8390472412109375,6.856829833984375
4.816000000000024,-6.794024658203125,0.053533935546875,5.367001342773438
4.826000000000029,-6.752603149414063,-0.6956420898437501,7.533181762695313
4.83600000000002,-6.822885131835938,-0.83082275390625,8.136709594726563
4.846000000000004,-6.833950805664063,-0.3375030517578125,7.801150512695313
4.8559999999999945,-6.808230590820313,-0.042169189453125,6.349304199218751
4.8659999999999854,-6.952832031250001,0.311334228515625,5.64169921875
4.876000000000033,-7.2139221191406255,0.7301849365234375,7.415945434570313
4.886000000000024,-7.06468505859375,1.2493743896484375,7.457815551757813
4.896000000000015,-7.012048339843751,1.0684356689453125,6.883148193359376
4.906000000000006,-6.471624755859375,0.8067474365234376,6.15311279296875
4.915999999999997,-7.472320556640626,0.4667022705078125,6.35648193359375
4.925999999999988,-7.517031860351563,0.193798828125,7.332354736328125
4.936000000000036,-7.026852416992188,-0.12142333984375,6.710882568359375
4.946000000000026,-6.322238159179688,-0.4664031982421875,6.524859619140625
4.956000000000017,-6.8834472656250005,-0.468646240234375,7.6789794921875005
4.966000000000008,-6.612786865234376,-0.104974365234375,8.092745971679689
4.975999999999999,-6.979748535156251,0.170172119140625,7.383047485351563
4.98599999999999,-6.396557617187501,0.262286376953125,6.5927490234375
4.996000000000038,-7.366748046875,0.4844970703125,5.801104736328125
5.006000000000029,-7.34342041015625,0.91217041015625,7.41759033203125
5.01600000000002,-7.668212890625001,0.9075347900390626,6.226086425781251
5.026999999999987,-6.381304931640625,0.57122802734375,6.767556762695313
5.035999999999994,-6.692489624023438,0.3512603759765625,6.01793212890625
5.0470000000000255,-7.182818603515625,0.4418792724609375,8.051174926757813
5.057000000000016,-7.351196289062501,0.4254302978515625,7.062442016601563
5.067000000000007,-6.378912353515625,-0.0988433837890625,7.139901733398438
5.076999999999998,-7.476657104492188,-0.5558258056640626,6.59573974609375
5.086999999999989,-6.339733886718751,-0.65736083984375,7.570565795898438
5.097000000000037,-6.842623901367188,-0.444720458984375,6.866699218750001
5.107000000000028,-7.0643859863281255,0.136376953125,7.113433837890626
5.117000000000019,-7.062442016601563,0.9154602050781252,6.339434814453125
5.1270000000000095,-7.220352172851563,1.0077239990234377,7.431796264648438
5.1370000000000005,-6.457119750976563,0.6500335693359376,7.120611572265625
5.146999999999999,-6.887036132812501,0.45877685546875,7.025955200195313
5.157000000000039,-7.25609130859375,0.53653564453125,6.994403076171875
5.16700000000003,-7.365103149414063,0.3994110107421875,5.8426757812500005
5.177000000000028,-6.984982299804688,-0.1951446533203125,6.978701782226563
5.187000000000019,-6.727481079101563,-0.326287841796875,6.74527587890625
5.197000000000003,-6.88583984375,-0.184527587890625,8.096484375000001
5.206999999999994,-6.802249145507813,0.15731201171875,7.204052734375001
5.217000000000041,-6.777874755859376,0.17047119140625,6.473269653320313
5.227000000000032,-6.611141967773438,0.2432952880859375,6.822735595703126
5.23700000000003,-7.284353637695313,0.4430755615234375,7.438674926757813
5.247000000000014,-7.072760009765625,0.5432647705078125,7.242184448242188
5.257000000000005,-7.070217895507813,0.4762725830078125,5.861666870117188
5.266999999999996,-6.807781982421876,0.5091705322265625,6.405978393554688
5.276999999999987,-7.828964233398438,0.7029693603515625,6.425567626953126
5.287000000000035,-6.922775268554688,0.630743408203125,7.702157592773438
5.2970000000000255,-6.643441772460938,0.2412017822265625,6.654656982421876
5.307000000000016,-6.362612915039063,-0.14295654296875,7.312167358398438
5.317000000000007,-6.938327026367188,-0.0970489501953125,7.101321411132813
5.326999999999998,-6.964196777343751,-0.1112548828125,8.113082885742188
5.336999999999989,-6.896456909179688,-0.3342132568359375,6.3295654296875
5.347000000000037,-6.946551513671875,-0.235369873046875,6.476409912109376
5.357000000000028,-7.201062011718751,0.3668121337890625,6.600973510742188
5.367000000000019,-7.325924682617188,0.8525054931640625,7.325326538085938
5.3770000000000095,-6.748864746093751,0.8659637451171875,6.551925659179688
5.3870000000000005,-6.699667358398438,0.995611572265625,6.1312805175781255
5.396999999999999,-7.11851806640625,1.2611877441406252,7.113583374023438
5.407000000000039,-7.23216552734375,0.9589752197265624,7.596435546875001
5.41700000000003,-7.0593017578125,-0.0955535888671875,7.123602294921875
5.427000000000028,-7.106405639648438,-0.8628234863281251,6.700714111328126
5.437000000000019,-6.244329833984375,-1.1165863037109376,6.771145629882813
5.447000000000003,-6.682620239257813,-0.9066375732421876,7.3933654785156255
5.456999999999994,-7.162182617187501,-0.4637115478515625,7.96309814453125
5.467000000000041,-6.99888916015625,0.5429656982421875,6.653161621093751
5.477000000000032,-6.930252075195313,1.0866790771484376,6.816754150390626
5.48700000000003,-6.989468383789063,1.1924011230468752,6.3585754394531255
5.497000000000014,-6.965393066406251,1.0154998779296875,7.373477172851563
5.507000000000005,-7.313961791992188,0.9031982421875,6.765911865234376
5.516999999999996,-6.963299560546876,0.6125,6.542953491210938
5.526999999999987,-6.8774658203125005,-0.0955535888671875,6.484634399414063
5.537000000000035,-6.642395019531251,-0.8457763671875,7.854534912109376
5.5470000000000255,-6.734210205078125,-1.0448089599609376,7.9146484375
5.557000000000016,-7.098031616210938,-0.6059204101562501,6.963299560546876
5.567000000000007,-6.893167114257813,-0.027813720703125,6.149673461914063
5.576999999999998,-6.862362670898438,0.567938232421875,6.225936889648438
5.586999999999989,-7.002328491210938,0.8988616943359375,7.918386840820313
5.597000000000037,-6.939373779296876,1.2804779052734376,7.337738037109376
5.607000000000028,-6.884344482421875,1.1924011230468752,6.5275512695312505
5.617000000000019,-6.996646118164063,1.0374816894531251,5.730673217773438
5.6270000000000095,-7.802496337890625,0.549993896484375,6.643292236328126
5.6370000000000005,-7.271493530273438,-0.005084228515625,6.8415771484375005
5.646999999999999,-6.9342895507812505,-0.295782470703125,6.6995178222656255
5.657000000000039,-6.442913818359376,-0.4367950439453125,6.936383056640626
5.66700000000003,-6.538616943359376,-0.361279296875,8.072857666015626
5.677000000000028,-6.413903808593751,-0.3623260498046875,8.342919921875001
5.687000000000019,-6.805538940429688,-0.171368408203125,7.098330688476563
5.697000000000003,-6.797015380859375,0.2642303466796875,6.684564208984376
5.706999999999994,-7.621408081054688,0.7408020019531251,5.414254760742188
5.717000000000041,-7.266110229492188,0.8984130859375,7.318896484375
5.727000000000032,-7.371234130859375,0.7565032958984376,6.330163574218751
5.73700000000003,-6.621160888671875,0.7526153564453125,7.082778930664063
5.747000000000014,-6.845913696289063,0.8200561523437501,6.090606689453125
5.758000000000038,-6.972869873046876,0.64898681640625,7.671203613281251
5.766999999999996,-7.00546875,0.301763916015625,6.864157104492188
5.776999999999987,-6.660638427734376,-0.2859130859375,7.449142456054688
5.787000000000035,-7.160238647460938,-0.466851806640625,7.0045715332031255
5.7970000000000255,-7.475909423828125,-0.481207275390625,7.28001708984375
5.807999999999993,-6.191244506835938,-0.6660339355468751,6.595889282226563
5.817000000000007,-6.7548461914062505,-0.3218017578125,6.590655517578125
5.828000000000024,-7.122406005859376,0.4960113525390625,7.69871826171875
5.838000000000029,-7.17593994140625,1.45289306640625,7.036871337890625
5.84800000000002,-6.876119995117188,0.9972564697265626,7.304690551757813
5.858000000000004,-6.400894165039063,0.40494384765625,5.989370727539063
5.867999999999995,-7.199417114257813,0.29129638671875,7.399047851562501
5.877999999999986,-7.90029296875,0.542816162109375,6.665274047851563
5.888000000000034,-7.0018798828125,0.2356689453125,6.271994018554688
5.898000000000025,-6.602917480468751,-0.47672119140625,6.353341674804688
5.908000000000016,-6.4228759765625005,-0.4206451416015625,7.936779785156251
5.918000000000006,-7.149472045898438,0.008074951171875,8.231964111328125
5.927999999999997,-6.925466918945313,0.4224395751953125,6.979748535156251
5.937999999999988,-6.550131225585938,0.2663238525390625,5.574407958984375
5.948000000000036,-7.013992309570313,0.36187744140625,6.6740966796875005
5.958000000000027,-7.474713134765626,0.490179443359375,8.040856933593751
5.968000000000018,-6.9492431640625005,0.5354888916015625,6.916644287109375
5.978000000000009,-6.630432128906251,0.3111846923828125,6.091802978515625
5.988,-6.701461791992188,0.2887542724609375,6.296517944335938
5.997999999999991,-7.726531982421876,0.392083740234375,7.766308593750001
6.008000000000038,-7.28958740234375,0.3949249267578125,7.144537353515625
6.018000000000029,-6.417044067382813,0.256304931640625,6.265414428710938
6.02800000000002,-6.603366088867188,-0.0228790283203125,6.556710815429688
6.038000000000011,-7.109844970703126,0.085235595703125,7.689147949218751
6.048000000000002,-7.074703979492188,0.23267822265625,7.868142700195313
6.057999999999993,-6.9268127441406255,0.119329833984375,6.464596557617188
6.0680000000000405,-6.284255981445313,0.01973876953125,6.222048950195313
6.078000000000024,-7.448394775390626,0.08314208984375,6.929205322265625
6.088000000000029,-7.365402221679688,0.48330078125,7.828366088867188
6.09800000000002,-7.167864990234375,0.6691741943359375,6.107952880859376
6.108000000000004,-6.152215576171876,0.50184326171875,6.168365478515626
6.117999999999995,-7.1361633300781255,0.5609100341796875,6.501980590820313
6.127999999999986,-7.610791015625001,0.9150115966796876,7.9565185546875
6.138000000000034,-6.905130004882813,0.8708984375000001,6.824081420898438
6.148000000000025,-6.467288208007813,0.0665435791015625,6.73570556640625
6.158000000000016,-7.20584716796875,-0.6820343017578125,7.33145751953125
6.168000000000006,-6.6157775878906255,-0.8466735839843751,7.742382812500001
6.177999999999997,-6.725836181640625,-0.7693634033203126,6.9821411132812505
6.187999999999988,-7.027899169921875,-0.2071075439453125,6.0968872070312505
6.198000000000036,-7.147677612304688,0.57362060546875,6.776379394531251
6.208000000000027,-7.383795166015625,1.10238037109375,7.609146118164063
6.218000000000018,-6.649124145507813,0.91396484375,7.11851806640625
6.228000000000009,-6.491363525390626,0.8511596679687501,6.548336791992188
6.238,-7.151416015625,0.8354583740234376,7.016983032226563
6.25,-7.25010986328125,0.4254302978515625,6.868045043945313
6.258000000000038,-7.0090576171875005,-0.3958221435546875,7.031039428710938
6.268000000000029,-6.540560913085938,-0.91456298828125,6.720751953125
6.27800000000002,-6.827221679687501,-0.7816253662109376,7.590603637695313
6.288000000000011,-6.913653564453125,-0.3847564697265625,7.443759155273438
6.298000000000002,-7.076199340820313,0.055029296875,6.850399780273438
6.307999999999993,-6.7772766113281255,0.6616973876953125,6.3439208984375
6.3180000000000405,-7.350747680664063,1.351806640625,6.1193176269531255
6.328000000000024,-6.99290771484375,1.5930084228515626,7.564584350585938
6.338000000000029,-7.088162231445313,1.2571502685546876,6.47252197265625
6.35000000000003,-6.940121459960938,0.6545196533203126,6.9552246093750005
6.358000000000004,-7.272540283203125,0.35230712890625,5.7519073486328125
6.367999999999995,-7.216165161132813,-0.075067138671875,7.3455139160156255
6.377999999999986,-6.825726318359376,-0.7230072021484375,6.911560058593751
6.388000000000034,-6.205300903320313,-1.118829345703125,8.148373413085938
6.398000000000025,-6.534429931640625,-0.82962646484375,7.620361328125001
6.408000000000016,-6.737649536132813,-0.1377227783203125,7.622903442382813
6.418000000000006,-6.963449096679688,0.3692047119140625,6.696078491210938
6.427999999999997,-7.3365417480468755,0.7961303710937501,6.006118774414063
6.437999999999988,-7.259979248046876,1.3041046142578123,6.586019897460938
6.449999999999989,-7.491311645507813,1.465753173828125,6.166870117187501
6.458000000000027,-6.717163085937501,1.2308319091796875,6.947299194335938
6.468000000000018,-6.922476196289063,0.7393066406250001,6.255844116210938
6.478000000000009,-7.060198974609375,0.2681182861328125,7.582827758789063
6.488,-6.876568603515626,-0.0904693603515625,7.04434814453125
6.497999999999991,-7.169808959960938,-0.7070068359375,7.352093505859376
6.508000000000038,-6.6441894531250005,-1.1690734863281251,7.302447509765625
6.518000000000029,-6.086569213867188,-1.126007080078125,6.682470703125
6.528999999999996,-7.354187011718751,-0.310736083984375,7.749411010742188
6.538000000000011,-6.988870239257813,0.7763916015625001,7.108648681640625
6.550000000000011,-7.452581787109375,1.1719146728515626,6.079241943359375
6.557999999999993,-6.499139404296876,1.152923583984375,6.804791259765626
6.5680000000000405,-6.820941162109375,1.08563232421875,6.635516357421875
6.578000000000024,-7.437179565429688,0.8638702392578126,8.133270263671875
6.588000000000029,-6.875970458984376,0.4966094970703125,6.390576171875001
6.59800000000002,-7.050778198242188,-0.3037078857421875,5.966790771484376
6.608000000000004,-6.83798828125,-0.6196777343750001,6.8909240722656255
6.617999999999995,-7.084722900390625,-0.5722747802734376,7.767654418945313
6.629000000000019,-6.887036132812501,-0.4308135986328125,7.916143798828125
6.638000000000034,-6.688751220703126,0.011065673828125,6.077896118164063
6.650000000000034,-6.667666625976563,0.3853546142578125,6.973617553710938
6.658999999999992,-6.921728515625,0.8910858154296876,7.197024536132813
6.66900000000004,-7.230072021484376,0.8028594970703126,7.6939331054687505
6.679000000000031,-6.761724853515625,0.7681671142578126,6.464447021484376
6.6890000000000285,-7.243380737304688,0.6311920166015625,5.452236938476563
6.699000000000019,-7.298858642578126,0.631939697265625,6.706246948242188
6.709000000000003,-7.541107177734376,0.3031097412109375,7.175042724609376
6.718999999999994,-6.557458496093751,-0.0982452392578125,7.079339599609376
6.729000000000042,-6.679779052734376,-0.084637451171875,7.134219360351563
6.739000000000033,-6.5233642578125,-0.07177734375,7.308578491210938
6.75,-6.802847290039063,-0.0490478515625,7.619015502929688
6.759000000000015,-6.702359008789063,-0.2106964111328125,7.543798828125
6.7690000000000055,-7.217959594726563,-0.002093505859375,5.996099853515625
6.778999999999996,-7.028646850585938,0.4891326904296875,7.102368164062501
6.788999999999987,-7.439273071289063,0.5673400878906251,5.919985961914063
6.799000000000035,-6.658096313476563,0.5241241455078125,7.6550537109375005
6.809000000000026,-7.109246826171876,0.5866302490234375,6.362612915039063
6.819000000000017,-6.8744750976562505,0.92174072265625,6.975860595703126
6.829000000000008,-7.227978515625001,1.0943054199218751,6.033184814453126
6.838999999999999,-6.856680297851563,0.6883148193359375,7.168463134765625
6.85000000000003,-6.891522216796876,0.1469940185546875,7.287344360351563
6.859000000000037,-7.021917724609375,-0.284417724609375,7.697521972656251
6.869000000000028,-7.313961791992188,-0.518292236328125,7.141098022460938
6.879000000000019,-6.210534667968751,-0.9736297607421877,6.458016967773438
6.88900000000001,-6.340332031250001,-1.0371826171875,7.058255004882813
6.898999999999994,-7.316055297851563,-0.06878662109375,7.807131958007813
6.908999999999992,-7.270745849609375,1.08682861328125,7.065133666992188
6.91900000000004,-6.889578247070313,1.425079345703125,6.538766479492188
6.929000000000031,-6.829165649414063,0.9084320068359376,6.256442260742188
6.9390000000000285,-7.019674682617188,0.8287292480468751,7.183566284179688
6.949999999999989,-7.472021484375,0.7647277832031251,7.416244506835938
6.959000000000003,-6.827520751953125,0.1996307373046875,6.396557617187501
6.968999999999994,-6.54788818359375,-0.7135864257812501,6.46414794921875
6.979000000000042,-6.800753784179688,-1.0089202880859376,7.7052978515625
6.989000000000033,-6.968084716796875,-0.7014739990234375,8.24482421875
6.999000000000031,-6.869390869140625,-0.2663238525390625,6.88524169921875
7.009000000000015,-6.799407958984376,0.1733123779296875,5.839535522460938
7.0190000000000055,-6.853689575195313,0.7947845458984376,6.656600952148438
7.028999999999996,-7.49833984375,1.4451171875000002,7.52286376953125
7.038999999999987,-7.075152587890625,1.50074462890625,7.003225708007813
7.050000000000011,-6.812268066406251,1.18731689453125,5.775234985351563
7.059000000000026,-6.916494750976563,0.629547119140625,6.498391723632813
7.069000000000017,-7.538714599609375,0.1758544921875,6.994253540039063
7.079000000000008,-7.175341796875,-0.4175048828125,7.719055175781251
7.088999999999999,-6.492111206054688,-0.7719055175781251,6.173748779296876
7.0989999999999895,-6.38638916015625,-0.8333648681640625,7.452731323242188
7.109000000000037,-6.78355712890625,-0.502142333984375,7.838534545898438
7.119000000000028,-7.086965942382813,0.0928619384765625,7.917041015625
7.129000000000019,-6.688302612304688,0.5929107666015625,6.567776489257813
7.13900000000001,-7.061395263671876,0.9117218017578126,5.688204956054688
7.150000000000034,-6.889727783203125,1.103875732421875,7.199118041992188
7.158999999999992,-7.92960205078125,1.005780029296875,6.629534912109375
7.16900000000004,-6.897802734375,0.8973663330078125,6.986328125000001
7.179000000000031,-6.985430908203125,0.3913360595703125,5.141949462890626
7.1890000000000285,-6.398651123046876,0.0007476806640625,7.452731323242188
7.199000000000019,-7.192987060546876,-0.134283447265625,7.460208129882813
7.209000000000003,-6.934887695312501,-0.021832275390625,7.774533081054688
7.218999999999994,-6.536672973632813,0.0483001708984375,6.601123046875
7.229000000000042,-7.636810302734376,-0.10048828125,6.730172729492188
7.239000000000033,-7.352841186523438,-0.136676025390625,7.270446777343751
7.25,-6.073260498046875,-0.0204864501953125,6.475811767578126
7.2590000000000146,-6.948345947265626,0.07476806640625,7.321438598632813
7.269000000000005,-6.565084838867188,0.5680877685546876,7.286148071289063
7.278999999999996,-7.252352905273438,0.8439819335937501,7.459609985351563
7.288999999999987,-7.013693237304688,0.395672607421875,7.237997436523438
7.299000000000035,-6.667666625976563,-0.0490478515625,5.870639038085938
7.309000000000026,-7.259829711914063,-0.0088226318359375,7.120761108398438
7.319000000000017,-7.476806640625001,0.3392974853515625,6.539813232421875
7.329000000000008,-7.180725097656251,0.4116729736328125,6.832455444335938
7.338999999999999,-6.35648193359375,0.1670318603515625,6.880755615234375
7.35000000000003,-6.421231079101563,0.246435546875,7.457666015625
7.359000000000037,-7.142593383789063,0.31103515625,8.31959228515625
7.369000000000028,-6.901242065429688,0.308642578125,6.6935363769531255
7.379000000000019,-6.940570068359375,-0.146844482421875,6.049783325195313
7.38900000000001,-7.047937011718751,-0.1167877197265625,6.074008178710938
7.400000000000034,-7.330261230468751,0.0562255859375,7.6341186523437505
7.410000000000025,-6.801052856445313,0.1631439208984375,7.472171020507813
7.41900000000004,-6.583627319335938,0.4107757568359375,6.533981323242188
7.430000000000007,-6.697723388671876,0.5268157958984375,6.989468383789063
7.439999999999998,-7.137210083007813,0.9136657714843752,6.9516357421875
7.449999999999989,-7.633670043945313,0.8142242431640626,7.184463500976563
7.460000000000036,-7.137060546875,0.6208740234375001,5.7489166259765625
7.470000000000027,-6.750360107421876,0.3273345947265625,6.231768798828125
7.480000000000018,-7.000982666015625,0.1054229736328125,7.047039794921876
7.490000000000009,-6.81944580078125,-0.181536865234375,8.531335449218751
7.5,-6.6190673828125,-0.4390380859375,7.123303222656251
7.509999999999998,-6.510653686523438,-0.272454833984375,6.901242065429688
7.520000000000039,-7.001132202148438,-0.1105072021484375,6.599478149414063
7.53000000000003,-7.172201538085938,0.2208648681640625,7.304989624023438
7.54000000000002,-7.155902099609375,0.490478515625,6.673947143554688
7.550000000000011,-7.304690551757813,1.1533721923828126,5.290139770507813
7.560000000000002,-7.1421447753906255,1.731927490234375,6.638806152343751
7.569999999999993,-7.099526977539063,1.35958251953125,7.185061645507813
7.580000000000041,-6.95462646484375,0.3760833740234375,8.063137817382813
7.590000000000032,-6.696676635742188,-0.478515625,7.5162841796875
7.60000000000003,-5.808432006835938,-1.083837890625,6.682620239257813
7.610000000000021,-6.997244262695313,-1.368106079101563,7.171304321289063
7.620000000000003,-7.59703369140625,-1.102978515625,7.495050048828125
7.6299999999999955,-7.317401123046875,-0.0004486083984375,6.245675659179688
7.639999999999986,-6.986477661132813,0.7901489257812501,6.389828491210938
7.650000000000034,-6.623553466796875,1.2191680908203126,6.712228393554688
7.660000000000025,-6.79910888671875,1.4540893554687502,7.895657348632813
7.670000000000016,-7.103265380859376,1.582391357421875,7.467684936523438
7.680000000000007,-6.779669189453125,1.165185546875,6.418090820312501
7.689999999999998,-6.902288818359375,-0.040673828125,6.17703857421875
7.699999999999989,-6.98154296875,-1.075015258789063,7.438226318359375
7.710000000000036,-7.180725097656251,-1.44691162109375,7.499984741210938
7.720000000000027,-7.218408203125,-0.9479095458984376,6.80748291015625
7.730000000000018,-6.652862548828126,-0.3775787353515625,5.954678344726563
7.740000000000009,-6.603216552734375,0.40614013671875,7.103863525390626
7.75,-6.782061767578125,1.0274627685546875,8.555859375
7.759999999999998,-6.756491088867188,1.5502410888671876,7.332653808593751
7.770000000000039,-6.9958984375,1.6486358642578127,6.3152099609375005
7.78000000000003,-7.205548095703126,1.3139739990234376,5.25888671875
7.79000000000002,-7.900741577148438,0.5314514160156251,6.50841064453125
7.800000000000011,-7.332803344726563,-0.19080810546875,7.03477783203125
7.810000000000002,-7.269699096679688,-0.4936187744140625,6.000286865234376
7.819999999999993,-6.259881591796876,-0.4486083984375,7.189547729492188
7.830000000000041,-6.51199951171875,-0.5538818359375001,8.058203125
7.840000000000032,-6.055316162109375,-0.5426666259765626,8.835342407226562
7.85000000000003,-6.831259155273438,-0.1789947509765625,7.580883789062501
7.860000000000021,-6.691741943359376,0.5615081787109375,6.511700439453126
7.870000000000003,-7.604809570312501,0.7621856689453126,5.2569427490234375
7.8799999999999955,-7.295269775390626,0.72674560546875,6.983786010742188
7.889999999999986,-7.543798828125,0.7693634033203126,6.24522705078125
7.900000000000034,-7.011001586914063,1.085931396484375,6.527102661132813
7.910000000000025,-6.942813110351563,1.335208129882813,6.098681640625
7.920000000000016,-7.056011962890626,0.6919036865234376,7.262969970703126
7.930000000000007,-6.448147583007813,0.0418701171875,8.199664306640626
7.939999999999998,-7.398449707031251,-0.5289093017578126,8.013641357421875
7.949999999999989,-6.203955078125,-1.0827911376953123,6.868493652343751
7.960000000000036,-6.148626708984375,-1.2472808837890623,5.752206420898438
7.970000000000027,-7.805337524414063,-0.8544494628906251,7.794271850585938
7.980000000000018,-7.22020263671875,0.5227783203125,7.255792236328125
7.990000000000009,-7.264465332031251,1.048248291015625,6.561047363281251
8.0,-6.058306884765625,1.0371826171875,6.512448120117188
8.009999999999998,-6.637908935546876,1.051089477539063,7.1541076660156255
8.020000000000039,-7.751205444335938,1.1974853515625,8.28250732421875
8.03000000000003,-7.035525512695313,1.044061279296875,6.282760620117188
8.04000000000002,-7.179080200195313,-0.0076263427734375,4.889382934570313
8.052999999999997,-6.551327514648438,-0.5991912841796876,7.115377807617188
8.061000000000035,-7.405178833007813,-0.6757537841796876,8.103961181640626
8.069999999999993,-6.910662841796875,-0.485394287109375,8.213870239257814
8.080000000000041,-6.331060791015625,-0.2415008544921875,5.726635742187501
8.090000000000032,-6.438876342773438,-0.0384307861328125,6.873428344726563
8.10000000000003,-7.106405639648438,0.3976165771484375,7.9331909179687505
8.11000000000002,-7.197174072265626,0.672613525390625,7.929153442382813
8.120000000000005,-6.677835083007813,0.828131103515625,6.244030761718751
8.131000000000029,-7.152313232421876,0.9335540771484376,4.935589599609376
8.139999999999986,-7.427609252929688,0.9374420166015626,7.029095458984376
8.150000000000034,-7.923171997070313,0.7373626708984375,7.114630126953125
8.160999999999994,-6.798361206054688,0.4556365966796875,6.690396118164063
8.170000000000016,-6.820642089843751,0.131292724609375,5.7619262695312505
8.180000000000007,-6.102719116210938,-0.1048248291015625,7.8249267578125
8.189999999999998,-7.054965209960938,-0.48031005859375,8.328863525390625
8.199999999999989,-6.397604370117188,-0.5513397216796876,8.362509155273438
8.210000000000036,-6.901840209960938,-0.5015441894531251,5.8491058349609375
8.221000000000004,-6.595889282226563,-0.090618896484375,6.842922973632813
8.230999999999995,-7.961602783203125,0.25421142578125,6.024810791015625
8.240000000000009,-7.147976684570313,0.9462646484375,7.278671264648438
8.251000000000033,-7.329962158203125,1.5230255126953125,5.429507446289063
8.261000000000024,-6.878063964843751,1.881613159179688,6.117373657226563
8.271000000000015,-7.020870971679688,1.6803375244140626,7.697821044921875
8.28000000000003,-6.8942138671875,0.6578094482421876,7.94395751953125
8.29000000000002,-7.113284301757813,-0.5997894287109375,7.8509460449218755
8.300999999999988,-5.724093627929688,-1.5300537109375,6.462203979492188
8.311000000000035,-6.617871093750001,-1.8961181640625,6.591104125976563
8.321000000000026,-7.639053344726563,-1.44451904296875,8.209234619140625
8.331000000000017,-7.344616699218751,-0.2583984375,6.716564941406251
8.341000000000008,-6.901840209960938,0.8270843505859375,6.295620727539063
8.350999999999999,-6.735855102539063,1.431060791015625,6.468634033203125
8.36099999999999,-6.702059936523438,1.7580963134765626,7.572061157226563
8.371000000000038,-7.220352172851563,1.8388458251953128,7.920181274414063
8.381000000000029,-6.864157104492188,1.3003662109375,6.332257080078126
8.39100000000002,-7.017282104492188,0.2289398193359375,5.726336669921875
8.40100000000001,-7.018328857421875,-0.905889892578125,7.135415649414063
8.410999999999994,-7.036572265625001,-1.5641479492187502,7.837039184570313
8.420999999999992,-6.984832763671876,-1.41162109375,7.450338745117188
8.43100000000004,-6.6669189453125,-0.7475311279296876,6.349453735351563
8.441000000000024,-6.69383544921875,0.2017242431640625,6.514541625976563
8.451000000000029,-6.945355224609376,1.030303955078125,7.835543823242188
8.46100000000002,-6.721200561523438,1.60721435546875,7.674343872070313
8.471000000000004,-6.865203857421876,1.7392547607421875,6.802398681640626
8.480999999999995,-7.0658813476562505,1.45648193359375,5.827871704101563
8.490999999999985,-7.766009521484375,0.7947845458984376,5.810375976562501
8.501000000000033,-7.596136474609375,0.048748779296875,6.863858032226563
8.511000000000024,-7.301400756835938,-0.4813568115234375,6.042306518554688
8.521000000000015,-6.7626220703125,-0.6706695556640625,7.025656127929688
8.531000000000006,-6.366650390625001,-0.5504425048828125,7.523461914062499
8.540999999999997,-6.02750244140625,-0.42169189453125,8.924765014648438
8.550999999999988,-6.482839965820313,-0.312530517578125,8.048782348632812
8.561000000000035,-6.510205078125001,0.21832275390625,7.251754760742188
8.571000000000026,-7.686157226562501,0.7197174072265625,5.411114501953126
8.581000000000017,-7.591949462890626,1.0344909667968751,6.064736938476563
8.591000000000008,-7.503872680664063,0.804205322265625,6.273040771484376
8.600999999999999,-6.769949340820313,0.6386688232421875,6.683666992187501
8.61099999999999,-7.027899169921875,0.9036468505859376,6.557907104492188
8.621000000000038,-6.7865478515625,1.179541015625,7.034628295898438
8.631000000000029,-6.800305175781251,0.5299560546875001,7.630380249023438
8.64100000000002,-6.890176391601563,-0.5223297119140625,7.698568725585938
8.65100000000001,-7.443609619140625,-0.863720703125,7.317999267578125
8.660999999999994,-6.075503540039063,-0.9302642822265624,6.453530883789063
8.670999999999992,-6.78355712890625,-0.9338531494140626,6.250161743164063
8.68100000000004,-7.291232299804688,-0.3437835693359375,7.920928955078126
8.691000000000024,-7.213473510742188,0.9829010009765624,7.012945556640625
8.701000000000029,-7.024160766601563,1.5559234619140627,7.099526977539063
8.71100000000002,-6.00357666015625,0.9954620361328126,6.387435913085938
8.721000000000004,-6.829913330078125,0.5942565917968751,7.505816650390625
8.730999999999995,-7.890872192382813,0.753363037109375,7.664923095703125
8.740999999999985,-7.657745361328126,0.84876708984375,5.309878540039063
8.751000000000033,-6.964047241210938,-0.0800018310546875,5.196829223632813
8.761000000000024,-6.354687500000001,-0.7970275878906251,7.213323974609375
8.771000000000015,-6.892568969726563,-0.6622955322265626,9.338830566406251
8.781000000000006,-6.911859130859376,-0.1006378173828125,8.1718505859375
8.790999999999997,-6.156253051757813,0.2337249755859375,5.747122192382813
8.802000000000028,-6.781912231445313,0.1024322509765625,5.78525390625
8.811000000000035,-7.521517944335938,0.3757843017578125,8.016931152343751
8.821000000000026,-7.383795166015625,0.5570220947265625,7.800701904296876
8.831000000000017,-6.615029907226563,0.7464843750000001,5.955426025390626
8.841000000000008,-6.632824707031251,0.7218109130859376,5.414553833007813
8.850999999999999,-7.4202819824218755,0.5912658691406251,7.331756591796876
8.86099999999999,-7.574154663085938,0.43126220703125,7.992706298828126
8.871000000000038,-7.110293579101563,0.398663330078125,6.071316528320313
8.881000000000029,-6.816156005859376,0.280230712890625,5.484536743164063
8.89100000000002,-6.307733154296876,0.001495361328125,7.325326538085938
8.90100000000001,-6.952383422851563,-0.4720855712890625,9.00028076171875
8.910999999999994,-6.766958618164063,-0.35709228515625,7.919583129882813
8.920999999999992,-6.796865844726563,0.0952545166015625,5.849554443359375
8.93100000000004,-6.743182373046875,0.2875579833984375,5.930453491210938
8.942000000000007,-7.4905639648437505,0.1786956787109375,7.000234985351563
8.951999999999998,-7.296914672851563,0.447412109375,7.473666381835938
8.961999999999989,-7.14005126953125,1.2921417236328123,6.037521362304688
8.971000000000004,-7.055712890625,1.651776123046875,5.338888549804688
8.980999999999995,-6.69742431640625,1.08084716796875,7.575949096679688
8.992000000000019,-7.074105834960938,-0.0127105712890625,8.506961059570314
9.001000000000033,-7.316354370117188,-0.5973968505859375,8.029193115234376
9.011000000000024,-5.513845825195313,-0.8747863769531251,5.921032714843751
9.021000000000017,-6.91514892578125,-1.2208129882812502,5.7249908447265625
9.03200000000004,-7.680624389648438,-0.8753845214843751,8.619113159179689
9.04200000000003,-7.515835571289063,0.2755950927734375,7.114331054687501
9.052000000000028,-6.67349853515625,0.989630126953125,6.52396240234375
9.06200000000002,-6.1884033203125,1.1028289794921875,5.5902587890625
9.072000000000005,-7.041506958007813,1.167279052734375,7.994052124023438
9.081999999999994,-7.494750976562501,1.2834686279296876,8.34710693359375
9.09200000000004,-7.089657592773438,0.9066375732421876,5.995651245117188
9.102000000000032,-6.588861083984376,-0.07835693359375,5.268606567382813
9.11200000000003,-6.757687377929688,-0.8707489013671875,7.312765502929688
9.122000000000014,-7.442861938476563,-1.1898590087890626,8.811865234375
9.132000000000003,-6.908270263671875,-0.7248016357421876,7.400543212890626
9.141999999999996,-6.472073364257813,-0.1347320556640625,5.033984375
9.151999999999989,-6.694882202148438,0.632537841796875,6.703854370117188
9.162000000000036,-7.372280883789063,1.015350341796875,8.494549560546876
9.172000000000024,-6.533084106445313,1.2327758789062502,7.998687744140626
9.182000000000016,-6.8385864257812505,1.1088104248046875,6.181823730468751
9.192000000000007,-6.888531494140626,0.9855926513671877,5.4837890625000005
9.201999999999998,-8.093194580078126,0.444122314453125,6.215768432617188
9.211999999999987,-7.493255615234376,-0.088525390625,7.291830444335938
9.222000000000037,-7.265362548828126,-0.322998046875,6.042306518554688
9.232000000000028,-6.275433349609376,-0.1682281494140625,6.80150146484375
9.24200000000002,-6.358276367187501,-0.1359283447265625,8.150317382812501
9.25200000000001,-6.269601440429688,-0.3019134521484375,8.869137573242188
9.262,-6.744528198242188,-0.161798095703125,7.760028076171875
9.271999999999998,-6.8012023925781255,0.4318603515625,6.174496459960938
9.28200000000004,-7.731167602539063,0.6412109375,5.115032958984376
9.29200000000003,-7.391571044921876,0.5443115234375,6.97257080078125
9.302000000000028,-7.286148071289063,0.3769805908203125,6.61607666015625
9.31200000000002,-6.726434326171876,0.7406524658203125,6.901989746093751
9.322000000000005,-6.7473693847656255,1.18372802734375,6.318798828125001
9.331999999999994,-7.069918823242188,0.9135162353515626,7.279269409179688
9.34200000000004,-6.683517456054688,0.21353759765625,7.723391723632813
9.352000000000032,-7.55516357421875,-0.2486785888671875,7.432394409179688
9.36200000000003,-6.965692138671876,-0.463861083984375,7.066479492187501
9.372000000000014,-5.904135131835938,-0.9266754150390626,5.6716064453125
9.382000000000003,-7.176837158203125,-1.0376312255859377,7.641146850585938
9.391999999999996,-7.172799682617188,0.0261688232421875,7.849301147460938
9.401999999999989,-7.287493896484375,1.1515777587890623,6.932046508789063
9.412000000000036,-6.438128662109375,0.9284698486328126,6.735107421875001
9.422000000000024,-6.100775146484375,0.412420654296875,6.160440063476563
9.432000000000016,-7.823880004882813,0.6901092529296875,8.128335571289064
9.442000000000007,-7.576846313476563,1.284365844726563,7.165472412109375
9.451999999999998,-7.350897216796875,0.7123901367187501,4.305593872070313
9.461999999999987,-6.26915283203125,-0.325390625,6.679180908203126
9.472000000000037,-6.837838745117188,-0.557171630859375,8.1527099609375
9.482000000000028,-7.2528015136718755,-0.2097991943359375,9.12589111328125
9.49200000000002,-6.490316772460938,0.02392578125,6.576449584960938
9.50200000000001,-6.311471557617188,-0.246734619140625,5.187857055664063
9.512,-7.204501342773438,-0.2220611572265625,7.529144287109376
9.521999999999998,-7.386486816406251,0.3479705810546875,8.319293212890626
9.53200000000004,-6.812716674804688,0.6002380371093751,7.105508422851563
9.54200000000003,-6.42467041015625,0.6676788330078125,5.516986083984375
9.552000000000028,-6.946102905273438,0.647491455078125,6.396707153320313
9.56200000000002,-7.98343505859375,0.7559051513671875,7.693634033203126
9.572000000000005,-7.366299438476563,0.9293670654296876,6.9327941894531255
9.581999999999994,-7.114331054687501,0.5476013183593751,5.015591430664063
9.59200000000004,-6.391024780273438,0.162994384765625,6.686508178710938
9.602000000000032,-6.834548950195313,-0.1227691650390625,8.062838745117189
9.61200000000003,-6.797164916992188,-0.2959320068359375,9.24417419433594
9.622000000000014,-6.414651489257813,-0.4239349365234375,6.62265625
9.632000000000003,-6.503326416015626,-0.3826629638671875,6.104962158203126
9.641999999999996,-7.427609252929688,-0.0013458251953125,6.487176513671876
9.651999999999989,-7.6849609375,0.392681884765625,7.198818969726563
9.662000000000036,-7.024310302734375,0.9577789306640626,6.596188354492188
9.672000000000024,-6.999636840820313,1.4077331542968752,5.2101379394531255
9.682000000000016,-6.973916625976563,1.5581665039062502,7.1899963378906255
9.692000000000007,-6.965393066406251,1.075164794921875,8.2783203125
9.701999999999998,-7.273287963867188,-0.1598541259765625,7.886535644531251
9.711999999999987,-5.703607177734376,-1.0228271484375,6.709237670898438
9.722000000000037,-6.489868164062501,-1.3405914306640625,5.636166381835938
9.732000000000028,-7.873675537109375,-0.91097412109375,8.181869506835938
9.74200000000002,-7.450039672851563,-0.1777984619140625,7.242932128906251
9.752999999999986,-6.875970458984376,0.2456878662109375,6.253750610351563
9.762,-6.243582153320313,0.7134368896484375,6.453530883789063
9.771999999999998,-6.991711425781251,1.3568908691406252,7.456619262695313
9.78200000000004,-7.319943237304688,1.5879241943359377,8.203402709960939
9.79200000000003,-6.868792724609375,1.146942138671875,6.312069702148438
9.802000000000028,-6.88524169921875,0.238360595703125,5.541210937500001
9.81200000000002,-6.781613159179688,-0.32598876953125,7.181472778320313
9.823000000000036,-7.472769165039063,-0.8267852783203126,8.034127807617189
9.833000000000029,-6.940719604492188,-0.9987518310546876,7.386785888671875
9.843000000000018,-6.536822509765625,-0.63822021484375,5.644839477539063
9.853000000000009,-6.629385375976563,0.1149932861328125,6.84935302734375
9.863,-7.367645263671876,0.904095458984375,7.923171997070313
9.87299999999999,-6.694882202148438,1.0806976318359376,7.876666259765625
9.883000000000038,-6.4396240234375,1.0555755615234377,6.320443725585938
9.893000000000027,-6.819595336914063,0.98873291015625,6.464447021484376
9.90300000000002,-8.016632080078125,0.7705596923828125,6.401641845703126
9.913000000000013,-7.63890380859375,0.2761932373046875,6.845465087890625
9.923000000000002,-7.056161499023438,-0.1655364990234375,5.376422119140625
9.932999999999993,-6.820492553710938,-0.260791015625,6.869241333007813
9.94300000000004,-6.629684448242188,-0.0922637939453125,8.01932373046875
9.953000000000024,-6.462503051757813,-0.0668426513671875,8.652908325195312
9.96300000000003,-6.1118408203125005,-0.216229248046875,7.559649658203125
9.97300000000002,-6.611740112304688,-0.0085235595703125,6.782958984375001
9.983000000000004,-7.543649291992188,0.3925323486328125,6.4408203125000005
9.992999999999997,-7.865600585937501,0.6424072265625,6.195431518554688
10.002999999999986,-6.932644653320313,0.5333953857421876,6.412109375000001
10.013000000000034,-6.971823120117188,0.4487579345703125,5.652615356445313
10.023000000000025,-6.752603149414063,1.060061645507813,7.521218872070313
10.033000000000015,-7.459011840820313,1.35599365234375,7.277474975585938
10.043000000000006,-6.553271484375,0.6608001708984376,7.512097167968751
10.052999999999995,-7.384243774414063,-0.24822998046875,6.5679260253906255
10.062999999999988,-6.503775024414063,-0.744390869140625,7.490115356445313
10.073000000000036,-6.411361694335938,-0.8934783935546876,6.677685546875001
10.083000000000029,-7.125546264648438,-0.8960205078125001,7.580136108398438
10.093000000000018,-7.087564086914063,-0.191705322265625,6.812716674804688
10.103000000000009,-7.179080200195313,0.7642791748046875,6.636114501953125
10.113,-6.899298095703125,0.8511596679687501,7.170855712890625
10.12299999999999,-6.362014770507813,0.7253997802734375,6.885540771484376
10.133000000000038,-7.267306518554688,0.8990112304687501,7.221548461914063
10.143000000000027,-7.333999633789063,1.298870849609375,6.639553833007813
10.15300000000002,-7.279119873046875,0.7726531982421876,6.064288330078125
10.163000000000013,-6.644638061523438,-0.2776885986328125,6.764117431640625
10.173000000000002,-6.612039184570313,-0.7271942138671875,7.740139770507813
10.182999999999993,-7.280764770507813,-0.4557861328125,7.760775756835938
10.19300000000004,-6.85294189453125,-0.17705078125,6.777725219726563
10.203000000000024,-6.456222534179688,-0.14056396484375,5.91026611328125
10.21300000000003,-7.113284301757813,0.0004486083984375,7.478900146484375
10.22300000000002,-7.116574096679688,0.5369842529296875,7.942013549804688
10.233000000000004,-6.633572387695313,0.75665283203125,7.002777099609376
10.242999999999997,-6.318649291992188,0.7850646972656251,6.277227783203125
10.252999999999986,-7.230520629882813,0.5597137451171875,6.997692871093751
10.263000000000034,-7.625445556640625,0.5202362060546876,7.042404174804688
10.273000000000025,-7.743728637695313,0.5513397216796876,5.918789672851563
10.283000000000015,-7.258483886718751,0.5289093017578126,5.105313110351563
10.293000000000006,-6.987823486328126,0.3901397705078125,6.689050292968751
10.302999999999995,-6.12320556640625,-0.0127105712890625,8.705844116210939
10.312999999999988,-6.553720092773438,-0.3144744873046875,8.687600708007814
10.323000000000036,-6.1776367187500005,-0.167779541015625,7.493405151367188
10.333000000000029,-7.035974121093751,-0.026617431640625,5.667568969726563
10.343000000000018,-7.234707641601563,-0.15970458984375,7.115975952148438
10.353000000000009,-7.597332763671876,-0.20755615234375,6.53233642578125
10.363,-6.919485473632813,0.356195068359375,6.880606079101563
10.37299999999999,-7.460357666015626,1.113446044921875,5.235708618164063
10.383000000000038,-7.081881713867188,1.8214996337890623,6.424221801757813
10.393000000000027,-7.019226074218751,1.6813842773437502,7.194781494140625
10.40300000000002,-6.21531982421875,0.8043548583984376,8.318246459960939
10.413000000000013,-6.952532958984375,-0.014056396484375,7.994052124023438
10.423000000000002,-6.896307373046875,-0.8587860107421875,7.1813232421875
10.432999999999993,-6.459960937500001,-1.7036651611328126,5.866900634765625
10.44300000000004,-7.243530273437501,-1.8060974121093751,6.473867797851563
10.453000000000024,-7.723092651367188,-0.708203125,7.488470458984375
10.46300000000003,-6.953430175781251,0.8895904541015626,6.79552001953125
10.47300000000002,-6.543402099609375,1.4301635742187502,7.215866088867188
10.483000000000004,-6.134420776367188,1.3696014404296877,7.192538452148438
10.494000000000028,-6.957916259765626,1.5976440429687502,7.764813232421876
10.502999999999986,-7.719802856445313,1.6164855957031252,6.871932983398438
10.513000000000034,-7.070516967773438,0.5959014892578125,5.556912231445313
10.523000000000025,-7.088760375976563,-0.8593841552734376,5.684466552734375
10.533000000000015,-6.834249877929688,-1.5566711425781252,7.941265869140626
10.54400000000004,-7.103265380859376,-1.2359161376953125,8.236898803710938
10.552999999999995,-6.543402099609375,-0.6880157470703125,7.126293945312501
10.564000000000028,-6.20694580078125,-0.0811981201171875,6.183319091796876
10.57400000000002,-6.988720703125001,0.64599609375,7.423721313476563
10.584000000000003,-7.246221923828125,1.5438110351562502,7.897900390625001
10.593000000000018,-7.077694702148438,1.7313293457031251,6.683966064453125
10.604000000000042,-6.652114868164063,1.3196563720703125,5.774636840820313
10.614000000000033,-7.472021484375,0.7600921630859375,5.8869384765625
10.62400000000003,-7.754345703125001,0.2926422119140625,7.20943603515625
10.634000000000016,-7.797262573242188,-0.10706787109375,6.205749511718751
10.644000000000004,-6.270797729492188,-0.3234466552734375,6.30863037109375
10.653999999999996,-6.635067749023438,-0.6422576904296875,7.155303955078126
10.663999999999987,-6.223843383789063,-0.5405731201171875,9.130825805664063
10.674000000000037,-6.632525634765625,-0.2100982666015625,8.38419189453125
10.684000000000026,-6.3391357421875005,0.1161895751953125,7.024609375000001
10.694000000000017,-7.096536254882813,0.4403839111328125,5.124005126953126
10.704000000000008,-7.7672058105468755,0.7161285400390626,6.8131652832031255
10.714,-7.8135620117187505,0.948956298828125,6.558654785156251
10.72399999999999,-6.995748901367188,0.9212921142578124,6.183319091796876
10.734000000000036,-6.427960205078126,0.9483581542968752,5.937033081054688
10.744000000000028,-6.913803100585938,0.8886932373046875,7.595089721679688
10.75400000000002,-7.180276489257813,0.59635009765625,8.194580078125
10.76400000000001,-6.600524902343751,-0.04844970703125,7.807431030273438
10.773999999999994,-7.631576538085938,-0.8436828613281251,6.111990356445313
10.783999999999992,-5.787197875976563,-1.176251220703125,6.675143432617188
10.79400000000004,-6.977206420898438,-1.06290283203125,6.799856567382813
10.80400000000003,-7.545742797851563,-0.1484893798828125,8.140896606445313
10.814000000000028,-6.798062133789063,0.9742279052734376,6.878662109375001
10.82400000000002,-6.906326293945313,1.1787933349609376,6.399099731445313
10.834000000000003,-6.218609619140626,0.8810668945312501,7.053768920898438
10.843999999999994,-7.335644531250001,0.7976257324218751,7.470077514648438
10.854000000000042,-7.573556518554688,0.9924713134765626,7.258633422851563
10.864000000000033,-7.223641967773438,0.6762023925781251,4.969235229492188
10.87400000000003,-6.860119628906251,-0.2328277587890625,6.105709838867188
10.884000000000016,-6.691143798828126,-0.6522766113281251,7.986724853515626
10.894000000000004,-6.918588256835938,-0.50184326171875,8.661880493164062
10.903999999999996,-6.765164184570313,-0.2178741455078125,7.279418945312501
10.913999999999987,-6.2524047851562505,-0.051739501953125,5.697625732421876
10.924000000000037,-6.993954467773438,0.144451904296875,6.871185302734376
10.934000000000026,-7.676586914062501,0.5408721923828126,8.013641357421875
10.944000000000017,-6.851895141601563,0.6959411621093751,7.079190063476563
10.954000000000008,-6.395510864257813,0.7243530273437501,5.750411987304688
10.964,-6.75125732421875,0.6772491455078126,6.881054687500001
10.97399999999999,-8.006314086914063,0.6044250488281251,7.185958862304688
10.984000000000036,-7.340130615234376,0.569732666015625,7.160687255859376
10.994000000000028,-7.1071533203125,0.405242919921875,4.662237548828125
11.00400000000002,-6.708489990234376,0.1903594970703125,6.912158203125
11.01400000000001,-6.685910034179688,-0.0880767822265625,8.1826171875
11.023999999999994,-6.544598388671876,-0.258697509765625,8.850595092773439
11.033999999999992,-6.356332397460938,-0.2857635498046875,7.261175537109375
11.04400000000004,-6.714321899414063,-0.1012359619140625,5.797216796875
11.05400000000003,-7.4786010742187505,0.097198486328125,6.808679199218751
11.064000000000028,-7.557556152343751,0.2978759765625,7.133770751953126
11.07400000000002,-6.850250244140626,0.517095947265625,6.599029541015626
11.084000000000003,-6.99649658203125,0.76981201171875,5.563790893554688
11.093999999999994,-6.9396728515625,1.5194366455078123,6.536224365234376
11.104000000000042,-7.451834106445313,1.5965972900390626,7.362710571289063
11.114000000000033,-6.538467407226563,0.7185211181640625,7.7552429199218755
11.124000000000024,-6.764117431640625,-0.222808837890625,7.436431884765626
11.134000000000016,-7.218408203125,-0.9045440673828126,7.002926635742188
11.144000000000004,-6.246572875976563,-1.245635986328125,6.519177246093751
11.153999999999996,-6.948944091796876,-1.4742767333984377,7.191342163085938
11.163999999999987,-7.3933654785156255,-0.6503326416015626,7.496395874023438
11.174000000000037,-7.036123657226563,0.8315704345703125,6.453381347656251
11.184000000000026,-7.015487670898438,1.5215301513671875,7.189846801757813
11.194000000000017,-6.346463012695313,1.2728515625,6.783108520507813
11.204000000000008,-6.893316650390625,1.1396148681640623,7.476208496093751
11.214,-7.413702392578125,1.269561767578125,7.16995849609375
11.22399999999999,-7.30992431640625,0.7763916015625001,5.621063232421875
11.234000000000036,-6.889279174804688,-0.4807586669921875,6.56822509765625
11.244000000000028,-6.524411010742188,-1.401153564453125,7.511050415039063
11.25400000000002,-7.023712158203126,-1.2765899658203126,8.289834594726564
11.26400000000001,-6.849502563476563,-0.5206848144531251,7.247119140625
11.274,-6.618020629882813,0.059515380859375,5.6741485595703125
11.283999999999992,-6.777725219726563,0.5809478759765625,7.045993041992188
11.29400000000004,-7.28001708984375,1.2885528564453126,7.795767211914063
11.30400000000003,-7.002777099609376,1.5448577880859375,7.366000366210938
11.31400000000002,-6.737051391601563,1.4291168212890626,5.774786376953125
11.324000000000012,-7.161135864257813,0.8243927001953125,5.9084716796875005
11.334000000000003,-7.505667114257813,0.27694091796875,7.068572998046876
11.343999999999994,-7.763018798828125,-0.3141754150390625,7.047488403320313
11.354000000000042,-6.644638061523438,-0.3695037841796875,6.128887939453126
11.364000000000033,-6.529644775390626,-0.491973876953125,6.941467285156251
11.375,-6.324929809570313,-0.554779052734375,8.226580810546876
11.384000000000016,-6.570916748046876,-0.3228485107421875,8.998785400390625
11.39500000000004,-6.594244384765625,0.1320404052734375,7.028198242187501
11.40500000000003,-7.12509765625,0.7309326171875,5.471975708007813
11.41500000000002,-7.307083129882813,0.9069366455078126,6.409716796875
11.425000000000011,-7.75614013671875,0.7358673095703125,6.56822509765625
11.435000000000002,-7.011001586914063,0.6954925537109375,7.258633422851563
11.444999999999991,-6.954776000976563,0.7098480224609376,5.750860595703125
11.45500000000004,-6.451437377929688,0.778485107421875,6.752005004882813
11.465000000000032,-7.1705566406250005,0.5199371337890626,7.28121337890625
11.475000000000025,-6.95462646484375,0.0859832763671875,8.142092895507814
11.485000000000014,-7.239642333984375,-0.2089019775390625,6.832904052734375
11.495000000000005,-7.268353271484376,-0.3599334716796875,6.738397216796876
11.504999999999995,-6.046643066406251,-0.8545989990234376,6.342126464843751
11.514999999999986,-6.537420654296875,-0.8197570800781251,7.652212524414063
11.525000000000034,-7.487423706054688,0.0082244873046875,8.052072143554689
11.535000000000023,-6.744378662109376,1.380218505859375,6.663330078125001
11.545000000000016,-7.14603271484375,1.19150390625,6.440072631835938
11.555000000000009,-6.486578369140625,0.3865509033203125,6.6071044921875
11.564999999999998,-7.1376586914062505,0.328680419921875,7.7044006347656255
11.574999999999989,-7.884442138671876,0.8070465087890626,7.002777099609376
11.585000000000036,-6.946850585937501,0.7550079345703126,5.346963500976563
11.595000000000027,-6.848904418945313,-0.280828857421875,5.926116943359375
11.605000000000018,-6.303695678710938,-0.6694732666015626,8.576046752929688
11.615000000000007,-7.050180053710938,-0.24344482421875,8.697021484375
11.625,-6.843670654296876,0.033197021484375,7.304989624023438
11.634999999999993,-6.381155395507813,0.0130096435546875,4.925421142578125
11.64500000000004,-7.201510620117188,-0.0626556396484375,6.788790893554688
11.65500000000003,-7.553967285156251,0.4239349365234375,8.253497314453126
11.66500000000002,-7.065582275390626,0.7161285400390626,7.042703247070313
11.675000000000011,-6.321340942382813,0.8036071777343751,5.721701049804688
11.685000000000002,-7.076199340820313,0.8646179199218751,6.054718017578125
11.694999999999991,-7.514340209960938,0.8007659912109376,7.959808349609376
11.70500000000004,-7.497143554687501,0.5935089111328126,7.143939208984375
11.715000000000032,-6.453829956054688,0.217425537109375,6.0185302734375
11.725000000000025,-6.9208312988281255,-0.143255615234375,5.837292480468751
11.735000000000014,-6.6681152343750005,-0.307147216796875,8.299703979492188
11.745000000000005,-7.126892089843751,-0.48629150390625,8.259628295898438
11.754999999999995,-6.163131713867188,-0.4182525634765625,7.437030029296875
11.764999999999986,-6.872381591796875,-0.168377685546875,5.397207641601563
11.775000000000034,-7.189398193359375,0.4789642333984375,7.295269775390626
11.785000000000023,-7.855581665039063,0.8048034667968751,6.745574951171876
11.795000000000016,-6.578244018554688,0.8408416748046875,7.332205200195313
11.805000000000009,-6.617572021484375,0.8344116210937501,5.56932373046875
11.814999999999998,-7.350448608398438,1.0754638671875,6.661386108398438
11.824999999999989,-7.718756103515625,1.3851531982421876,6.649722290039063
11.835000000000036,-6.670208740234376,0.74708251953125,7.224987792968751
11.845000000000027,-6.726882934570313,-0.344830322265625,6.881353759765625
11.855000000000018,-6.987673950195313,-0.8852539062500001,8.087063598632813
11.865000000000007,-6.618319702148438,-1.1331848144531251,7.718307495117188
11.875,-6.113784790039063,-1.1381195068359375,6.626095581054688
11.884999999999993,-7.165023803710938,-0.8649169921875001,6.944607543945313
11.89500000000004,-7.385440063476563,0.5543304443359376,6.917691040039063
11.90500000000003,-7.601071166992188,1.6335327148437502,6.522915649414063
11.91500000000002,-6.746173095703125,1.6266540527343751,6.809426879882813
11.925000000000011,-6.291732788085938,1.050042724609375,6.731219482421875
11.935000000000002,-7.0509277343750005,0.8578887939453126,7.580734252929688
11.944999999999991,-7.250558471679688,0.6942962646484375,7.440768432617188
11.95500000000004,-7.121209716796876,-0.236865234375,5.9492950439453125
11.965000000000032,-6.577496337890626,-1.299319458007813,6.859970092773438
11.975000000000025,-6.772341918945313,-1.5167449951171876,7.49893798828125
11.985000000000014,-7.190594482421876,-0.7805786132812501,8.016183471679689
11.995000000000005,-6.867147827148438,0.1278533935546875,6.725836181640625
12.004999999999995,-6.635665893554688,0.6869689941406251,5.815759277343751
12.014999999999986,-6.699069213867188,1.3175628662109375,7.367645263671876
12.025000000000034,-7.2650634765625,1.6384674072265626,7.834347534179688
12.035000000000023,-6.930999755859376,1.4500518798828126,7.165621948242188
12.045000000000016,-7.173995971679688,0.94267578125,5.2016143798828125
12.055000000000009,-7.275979614257813,0.324493408203125,5.941967773437501
12.064999999999998,-7.90208740234375,-0.209051513671875,6.710134887695313
12.076000000000022,-7.004272460937501,-0.5446105957031251,7.323382568359375
12.085000000000036,-6.554766845703125,-0.491375732421875,6.6681152343750005
12.095000000000027,-5.978005981445313,-0.4032989501953125,8.058203125
12.105000000000018,-6.450390625000001,-0.2791839599609375,8.207290649414062
12.115000000000007,-6.532635498046876,0.053533935546875,8.353536987304688
12.125,-7.298858642578126,0.37802734375,6.108102416992188
12.134999999999993,-7.125845336914063,0.7950836181640626,5.73082275390625
12.14500000000004,-7.629931640625,0.76502685546875,5.890377807617188
12.15500000000003,-7.544696044921875,0.69683837890625,6.971673583984376
12.165999999999997,-6.977355957031251,0.8837585449218751,6.649273681640626
12.175999999999988,-6.698770141601563,0.9630126953125,6.309976196289063
12.185000000000002,-6.568673706054688,0.8314208984375001,7.232015991210938
12.196000000000026,-6.9994873046875,0.1212738037109375,8.013043212890626
12.206000000000016,-7.088909912109376,-0.43245849609375,7.651614379882813
12.216000000000008,-7.106704711914063,-0.6359771728515625,6.759033203125001
12.226,-6.325378417968751,-0.8647674560546875,5.930453491210938
12.23599999999999,-6.885092163085938,-0.7647277832031251,7.285101318359375
12.246000000000038,-7.326223754882813,-0.131890869140625,8.089007568359376
12.256000000000029,-6.962252807617188,1.0884735107421877,6.79013671875
12.26600000000002,-6.733612060546876,1.293487548828125,6.555215454101563
12.27600000000001,-6.603216552734375,0.8377014160156251,6.682171630859376
12.286,-7.0210205078125005,0.6231170654296876,7.767654418945313
12.295999999999992,-7.668362426757813,0.6930999755859375,6.989468383789063
12.30600000000004,-7.095938110351563,0.5208343505859375,5.8191986083984375
12.316000000000033,-6.992758178710938,-0.274249267578125,5.539266967773438
12.326000000000022,-6.620114135742188,-0.6667816162109376,8.015286254882813
12.336000000000013,-7.018627929687501,-0.450701904296875,8.357424926757814
12.346000000000004,-6.797912597656251,-0.002093505859375,7.39725341796875
12.355999999999996,-6.238796997070313,0.258697509765625,5.927014160156251
12.365999999999984,-7.117620849609375,0.2773895263671875,6.610244750976563
12.376000000000031,-7.278073120117188,0.433056640625,8.215365600585939
12.386000000000024,-6.994702148437501,0.6400146484375,6.727032470703126
12.396000000000017,-6.8550354003906255,0.646893310546875,6.135317993164063
12.406000000000006,-7.142742919921876,0.7532135009765626,5.6322784423828125
12.415999999999997,-7.518377685546875,0.5778076171875001,7.512695312500001
12.425999999999988,-7.14244384765625,0.4125701904296875,7.16995849609375
12.436000000000035,-6.503924560546875,0.2097991943359375,6.92412109375
12.446000000000026,-6.880905151367188,0.0082244873046875,6.329714965820313
12.456000000000016,-6.505868530273438,-0.0438140869140625,7.861264038085938
12.466000000000008,-7.135415649414063,-0.26796875,7.582827758789063
12.476,-6.536074829101563,-0.26258544921875,7.613931274414063
12.48599999999999,-6.964944458007813,-0.103778076171875,5.846414184570313
12.496000000000038,-7.191342163085938,0.3126800537109375,6.95103759765625
12.506000000000029,-7.359570312500001,0.6237152099609375,6.7243408203125
12.51600000000002,-6.934588623046875,0.648388671875,7.188052368164063
12.52600000000001,-6.328070068359375,0.8006164550781251,6.656900024414063
12.536,-7.5728088378906255,0.8620758056640626,6.07236328125
12.545999999999992,-6.996047973632813,1.218569946289063,7.079788208007813
12.55600000000004,-7.2273803710937505,0.8940765380859376,6.238049316406251
12.566000000000033,-6.8655029296875005,-0.004486083984375,7.470077514648438
12.576000000000022,-7.248913574218751,-0.4945159912109375,7.520620727539063
12.586000000000013,-6.642095947265625,-0.9520965576171876,7.269998168945313
12.596000000000004,-5.983239746093751,-1.074566650390625,7.231716918945313
12.605999999999996,-6.743780517578125,-1.060211181640625,7.492507934570313
12.615999999999984,-7.498788452148438,0.045159912109375,6.960906982421876
12.626000000000031,-7.356729125976563,1.4292663574218751,6.5712158203125
12.636000000000024,-7.317999267578125,1.5311004638671877,5.960809326171876
12.646000000000017,-6.231619262695313,1.0854827880859377,6.8619140625
12.656000000000006,-7.178182983398438,0.8679077148437501,7.469329833984376
12.665999999999997,-7.119714355468751,0.9854431152343752,7.72862548828125
12.675999999999988,-6.9958984375,0.2962310791015625,5.907125854492188
12.686000000000035,-6.573309326171875,-1.0827911376953123,6.977056884765625
12.696000000000026,-6.638357543945313,-1.6105041503906252,7.725933837890626
12.706000000000016,-7.285549926757813,-1.0932586669921875,7.806683349609376
12.716000000000008,-7.081582641601563,-0.136077880859375,6.810324096679688
12.726,-6.658245849609376,0.487188720703125,5.280120849609375
12.73599999999999,-6.831558227539063,1.0054809570312502,7.485479736328125
12.746000000000038,-6.806436157226563,1.67061767578125,8.196524047851563
12.756000000000029,-7.282559204101563,1.6058685302734377,7.236203002929688
12.76600000000002,-6.623852539062501,1.41580810546875,5.700167846679688
12.77600000000001,-7.715167236328125,0.5084228515625,4.910617065429688
12.786,-7.578341674804688,-0.0605621337890625,7.3942626953125
12.795999999999992,-7.548284912109375,-0.593060302734375,6.8822509765625
12.80600000000004,-6.475213623046876,-0.7149322509765625,6.622506713867188
12.816000000000033,-5.893368530273438,-0.527862548828125,7.931246948242188
12.826000000000022,-6.330163574218751,-0.554779052734375,8.383593750000001
12.836000000000013,-6.737799072265625,-0.0901702880859375,8.727975463867189
12.846000000000004,-6.805538940429688,0.4403839111328125,6.616973876953126
12.855999999999996,-7.383047485351563,0.8287292480468751,4.950244140625
12.865999999999984,-7.118069458007813,0.964208984375,6.511849975585938
12.876000000000031,-8.127288818359375,0.7448394775390625,6.421978759765626
12.886000000000024,-6.959262084960938,0.9854431152343752,7.231866455078125
12.896000000000017,-7.063040161132813,0.9266754150390626,5.177239990234376
12.906000000000006,-6.040362548828125,0.72674560546875,7.510153198242188
12.915999999999997,-7.1215087890625,0.138470458984375,7.875320434570313
12.925999999999988,-6.761575317382813,-0.376531982421875,8.787341308593751
12.937000000000012,-7.477703857421876,-0.5311523437500001,6.208441162109375
12.946000000000026,-6.689648437500001,-0.719268798828125,6.0065673828125
12.956999999999994,-6.460110473632813,-0.887945556640625,6.4662414550781255
12.96700000000004,-7.101022338867188,-0.46475830078125,8.142242431640625
12.977000000000032,-7.300054931640625,0.75784912109375,7.819692993164063
12.987000000000023,-6.606506347656251,1.7696105957031252,6.059353637695313
12.997000000000014,-6.663778686523438,1.1684753417968752,6.623104858398438
13.007000000000003,-6.754995727539063,0.4373931884765625,7.470974731445313
13.016999999999996,-7.530191040039063,0.3363067626953125,7.518527221679688
13.026999999999989,-7.6837646484375,0.5028900146484375,6.278125
13.037000000000036,-6.929205322265625,0.094805908203125,4.5776000976562505
13.047000000000024,-6.737350463867188,-0.660650634765625,7.147827148437501
13.057000000000016,-6.522317504882813,-0.6688751220703125,9.352886962890626
13.067000000000007,-6.75125732421875,-0.104376220703125,8.258432006835939
13.076999999999998,-6.654357910156251,0.3204559326171875,6.541607666015626
13.086999999999987,-6.509756469726563,0.38939208984375,5.170211791992188
13.097000000000037,-7.445703125,0.33077392578125,7.450189208984375
13.107000000000028,-7.408917236328126,0.663641357421875,8.187551879882813
13.11700000000002,-7.161883544921875,0.6228179931640625,6.06937255859375
13.12700000000001,-6.580935668945313,0.7560546875,5.2943267822265625
13.137,-7.359121704101563,0.751568603515625,6.318649291992188
13.146999999999991,-7.38887939453125,0.4930206298828125,8.351892089843751
13.15700000000004,-6.801052856445313,0.206060791015625,7.538265991210938
13.16700000000003,-6.196328735351563,-0.0560760498046875,6.147879028320313
13.17700000000002,-6.938327026367188,-0.131890869140625,6.8490539550781255
13.187000000000012,-6.849203491210938,-0.2788848876953125,8.06119384765625
13.197000000000005,-7.326223754882813,-0.4520477294921875,7.433291625976563
13.206999999999994,-6.252255249023438,-0.11005859375,6.954776000976563
13.21700000000004,-7.467385864257813,0.28411865234375,4.951290893554688
13.227000000000032,-6.992758178710938,0.8762817382812501,7.87218017578125
13.237000000000023,-7.495648193359376,0.9296661376953126,6.688302612304688
13.247000000000014,-6.562542724609376,0.8626739501953126,6.914401245117188
13.257000000000003,-6.821240234375001,0.9948638916015624,5.73919677734375
13.266999999999996,-7.066479492187501,1.0754638671875,7.073208618164063
13.276999999999989,-7.3368408203125,0.533843994140625,7.797711181640626
13.287000000000036,-7.13048095703125,-0.4960113525390625,7.200912475585938
13.297000000000024,-7.119415283203126,-0.975872802734375,6.48807373046875
13.307000000000016,-5.885293579101563,-0.9479095458984376,6.534429931640625
13.317000000000007,-6.791033935546875,-0.8351593017578126,7.998538208007813
13.326999999999998,-7.07066650390625,-0.317913818359375,8.303741455078125
13.336999999999987,-7.045843505859375,0.8152709960937501,6.4363342285156255
13.347000000000037,-7.0377685546875,1.52467041015625,6.043353271484375
13.357000000000028,-7.027301025390625,1.2552062988281252,6.402987670898438
13.36700000000002,-7.028347778320313,0.7451385498046875,7.552920532226563
13.37700000000001,-7.289736938476563,0.6059204101562501,7.271194458007813
13.387,-6.984085083007813,0.5576202392578126,5.929107666015625
13.396999999999991,-6.701312255859375,-0.1846771240234375,6.731668090820313
13.40700000000004,-6.630731201171876,-1.0866790771484376,7.833749389648438
13.41700000000003,-6.734808349609375,-1.2176727294921876,8.319293212890626
13.42700000000002,-7.025506591796876,-0.37384033203125,7.140200805664063
13.437000000000012,-7.1376586914062505,0.3129791259765625,5.278027343750001
13.447000000000005,-6.696527099609376,0.780279541015625,6.35050048828125
13.456999999999994,-7.204949951171876,1.0298553466796876,8.033380126953126
13.46700000000004,-6.837838745117188,1.3193572998046876,7.739541625976563
13.477000000000032,-7.019375610351563,1.355694580078125,6.176589965820313
13.487000000000023,-7.021170043945313,0.9583770751953126,5.553323364257813
13.497000000000014,-7.510751342773438,0.2459869384765625,6.388034057617188
13.507000000000003,-7.240689086914063,-0.4191497802734375,7.781710815429688
13.516999999999996,-7.084423828125001,-0.5178436279296875,6.843521118164063
13.526999999999989,-6.277526855468751,-0.393878173828125,6.842773437500001
13.537000000000036,-6.677685546875001,-0.39417724609375,7.29556884765625
13.547000000000024,-6.220104980468751,-0.2409027099609375,8.585617065429688
13.557000000000016,-7.264016723632813,0.0490478515625,7.454226684570313
13.567000000000007,-6.703555297851563,0.774298095703125,6.657797241210938
13.576999999999998,-7.527499389648438,0.9760223388671876,4.691397094726563
13.586999999999987,-7.2052490234375,0.8578887939453126,7.205548095703126
13.597000000000037,-7.255493164062501,0.66094970703125,6.823931884765625
13.607000000000028,-7.155603027343751,0.680389404296875,6.799557495117188
13.61700000000002,-6.549383544921875,1.012359619140625,6.150271606445313
13.62700000000001,-6.961505126953125,0.5718261718750001,7.162780761718751
13.637,-7.210034179687501,-0.3049041748046875,8.184112548828125
13.646999999999991,-7.224688720703125,-0.662445068359375,7.645632934570313
13.658000000000015,-6.445156860351563,-0.760540771484375,6.145187377929688
13.66700000000003,-6.074008178710938,-0.6488372802734376,6.59573974609375
13.67700000000002,-7.321737670898438,-0.6500335693359376,7.89132080078125
13.687000000000012,-7.325924682617188,0.5689849853515625,7.466339111328126
13.697000000000005,-7.107452392578126,1.5602600097656252,6.472372436523438
13.708000000000029,-6.62265625,1.1823822021484376,6.097634887695313
13.71700000000004,-6.429754638671875,0.4726837158203125,7.475460815429688
13.727000000000032,-7.661334228515625,0.337054443359375,7.328018188476563
13.738,-7.367196655273438,0.8507110595703126,7.041806030273438
13.747000000000014,-7.191790771484375,0.363372802734375,4.6104980468750005
13.758000000000038,-6.232516479492188,-0.6890625,7.244577026367188
13.768000000000027,-6.844866943359375,-0.9631622314453124,8.960952758789062
13.77800000000002,-7.073507690429688,-0.3333160400390625,8.183364868164062
13.788000000000013,-6.479550170898438,0.4158599853515625,6.213375854492188
13.798000000000002,-6.925765991210938,0.3123809814453125,5.030245971679688
13.807999999999993,-7.145733642578126,0.3138763427734375,7.827468872070313
13.81800000000004,-7.21422119140625,0.6510803222656251,7.966387939453125
13.828000000000031,-6.682321166992188,0.8070465087890626,7.124349975585938
13.838000000000022,-6.396557617187501,0.7868591308593751,5.6716064453125
13.848000000000011,-7.069769287109375,0.2026214599609375,6.979000854492188
13.858000000000004,-7.5877624511718755,0.040374755859375,7.5114990234375005
13.867999999999997,-7.755990600585938,0.2522674560546875,6.3056396484375
13.877999999999986,-7.3455139160156255,0.5251708984375001,5.161538696289063
13.888000000000034,-6.243582153320313,0.34393310546875,6.603067016601563
13.898000000000025,-6.352743530273438,-0.2178741455078125,8.941363525390626
13.908000000000015,-6.582879638671876,-0.12501220703125,9.313259887695311
13.918000000000006,-6.732415771484376,0.3170166015625,6.703704833984376
13.927999999999995,-7.010702514648438,0.3766815185546875,5.2564941406250005
13.937999999999988,-7.077096557617188,-0.0327484130859375,6.170458984375
13.948000000000036,-7.849749755859375,-0.175555419921875,7.513442993164063
13.958000000000029,-6.858624267578126,0.5495452880859375,7.320242309570313
13.968000000000018,-7.4068237304687505,1.16817626953125,4.657601928710938
13.978000000000009,-6.369192504882813,1.4122192382812502,6.667218017578126
13.988,-6.787594604492188,0.95523681640625,7.993304443359375
13.99799999999999,-7.039562988281251,0.1739105224609375,9.201705932617188
14.008000000000038,-7.16636962890625,-0.22490234375,7.147827148437501
14.018000000000027,-6.165374755859376,-0.916058349609375,5.308383178710938
14.02800000000002,-6.857876586914063,-1.302459716796875,6.303695678710938
14.038000000000013,-7.771243286132813,-1.0606597900390626,8.12698974609375
14.048000000000002,-7.3009521484375,0.2965301513671875,7.464544677734375
14.060000000000002,-6.505718994140626,1.3884429931640625,5.720504760742188
14.06800000000004,-6.366351318359375,1.251467895507813,6.899746704101563
14.078000000000031,-6.646881103515626,1.0204345703125002,8.298806762695314
14.088000000000022,-7.752401733398438,1.0204345703125002,7.734008789062501
14.098000000000011,-6.904382324218751,0.9096282958984376,6.169412231445313
14.108000000000004,-7.104611206054688,-0.1754058837890625,4.127645874023438
14.117999999999997,-6.96898193359375,-1.1032775878906251,7.904479980468751
14.127999999999986,-7.004272460937501,-1.1870178222656251,8.781060791015626
14.138000000000034,-6.7937255859375005,-0.6135467529296875,7.77647705078125
14.148000000000025,-6.287545776367188,0.0514404296875,5.985333251953126
14.158999999999992,-6.816006469726563,0.5700317382812501,5.863610839843751
14.168000000000006,-7.286746215820313,1.060211181640625,8.405426025390625
14.177999999999995,-7.1376586914062505,1.4410797119140626,7.3933654785156255
14.187999999999988,-6.910812377929688,1.2341217041015626,6.199169921875001
14.198000000000036,-6.596786499023438,0.90738525390625,5.49993896484375
14.208000000000029,-7.624996948242188,0.105572509765625,7.139004516601563
14.218000000000018,-7.320541381835938,-0.3476715087890625,7.711129760742188
14.228000000000009,-7.187005615234376,-0.5043853759765625,6.176739501953126
14.238,-6.60411376953125,-0.2510711669921875,5.993856811523438
14.24799999999999,-6.780416870117188,0.0432159423828125,7.382000732421876
14.259000000000016,-6.565383911132813,-0.0186920166015625,8.937625122070314
14.268000000000027,-6.52994384765625,0.1766021728515625,7.907022094726563
14.27800000000002,-6.463998413085938,0.65137939453125,6.468484497070313
14.288000000000013,-7.610940551757813,0.8587860107421875,5.304644775390625
14.298000000000002,-7.449291992187501,0.7795318603515625,6.943112182617188
14.307999999999993,-7.5892578125,0.3473724365234375,6.355435180664063
14.31800000000004,-6.722247314453125,0.341839599609375,6.774136352539063
14.328000000000031,-6.844119262695313,0.590667724609375,6.161636352539063
14.338000000000022,-6.665722656250001,0.6189300537109376,7.89012451171875
14.348000000000011,-6.728228759765625,0.0800018310546875,7.965191650390626
14.359000000000036,-7.116424560546876,-0.3641204833984375,7.725784301757813
14.367999999999997,-6.988870239257813,-0.40972900390625,6.315808105468751
14.377999999999986,-6.512896728515625,-0.3315216064453125,5.5782958984375
14.388000000000034,-7.2871948242187505,-0.2050140380859375,7.383346557617188
14.398000000000025,-7.183117675781251,0.2920440673828125,7.900891113281251
14.408000000000015,-6.801651000976563,0.7629333496093751,7.11552734375
14.418000000000006,-6.464447021484376,0.88465576171875,6.702508544921876
14.427999999999995,-6.955822753906251,0.456982421875,6.792828369140626
14.437999999999988,-7.155453491210938,0.335858154296875,7.491311645507813
14.448000000000036,-7.4780029296875,0.3049041748046875,6.561047363281251
14.460000000000036,-7.07425537109375,0.25062255859375,5.810675048828125
14.468000000000018,-6.636264038085938,-0.0411224365234375,6.671853637695313
14.479000000000042,-6.782809448242188,-0.2181732177734375,8.123251342773438
14.488,-6.848306274414063,-0.1185821533203125,8.246020507812501
14.49799999999999,-6.707592773437501,0.1413116455078125,6.5783935546875005
14.508000000000038,-6.738247680664063,0.2959320068359375,6.0449981689453125
14.518000000000027,-7.234408569335938,0.395074462890625,6.643890380859376
14.528999999999996,-7.443161010742188,0.3467742919921875,7.807131958007813
14.538999999999987,-6.660189819335938,0.3913360595703125,6.744528198242188
14.548000000000002,-6.850250244140626,0.5550781250000001,6.06817626953125
14.560000000000002,-6.8311096191406255,0.63223876953125,7.084722900390625
14.569000000000017,-7.371533203125001,0.3748870849609375,7.281512451171875
14.579000000000008,-6.839932250976563,0.1495361328125,7.299755859375001
14.589,-7.237399291992188,0.2356689453125,5.745477294921876
14.59899999999999,-6.85294189453125,0.2763427734375,7.036273193359375
14.609000000000036,-7.011749267578126,0.0294586181640625,7.051376342773438
14.619000000000028,-6.411810302734375,-0.2223602294921875,8.02052001953125
14.62900000000002,-7.129284667968751,-0.015252685546875,6.808529663085938
14.63900000000001,-6.721499633789063,0.5438629150390626,6.890774536132813
14.649,-7.336093139648438,0.4631134033203125,6.139505004882813
14.660000000000023,-6.779370117187501,0.2136871337890625,7.404879760742188
14.66900000000004,-7.115078735351563,0.3521575927734375,6.631478881835938
14.67900000000003,-7.185211181640626,0.808392333984375,6.348556518554688
14.68900000000002,-7.300503540039063,1.1536712646484375,6.015390014648438
14.699000000000012,-6.497943115234375,0.7497741699218751,7.311270141601563
14.709000000000003,-6.902737426757813,0.07835693359375,8.099923706054689
14.718999999999994,-7.604809570312501,-0.2522674560546875,7.733560180664063
14.729000000000042,-6.599029541015626,-0.4462158203125,6.350799560546876
14.739000000000033,-6.02451171875,-0.7418487548828125,5.7481689453125
14.749000000000024,-7.217510986328126,-0.8744873046875,7.911358642578126
14.759999999999993,-7.328167724609376,0.03409423828125,8.091400146484375
14.769000000000004,-7.115228271484376,1.056024169921875,6.705947875976563
14.778999999999996,-6.691891479492188,1.039126586914063,5.7305236816406255
14.788999999999987,-6.549383544921875,0.5280120849609375,6.664077758789063
14.799000000000037,-7.436431884765626,0.5480499267578125,7.916741943359375
14.809000000000026,-7.276428222656251,0.892132568359375,7.623501586914063
14.819000000000017,-6.804342651367188,0.45399169921875,5.3880859375000005
14.829000000000008,-6.456820678710938,-0.5879760742187501,6.808828735351563
14.839,-6.99290771484375,-0.9031982421875,8.036520385742188
14.84899999999999,-7.271194458007813,-0.4486083984375,8.079885864257813
14.860000000000014,-6.830212402343751,0.1215728759765625,6.344070434570313
14.869000000000028,-6.623553466796875,0.191705322265625,5.2983642578125005
14.87900000000002,-6.888232421875,0.5701812744140625,7.61796875
14.88900000000001,-7.285101318359375,0.9709381103515624,8.280862426757814
14.899,-6.691741943359376,1.0663421630859375,7.114181518554688
14.908999999999992,-6.622357177734376,0.8321685791015626,5.703457641601563
14.91900000000004,-7.074703979492188,0.2645294189453125,6.458615112304688
14.92900000000003,-7.687054443359376,-0.0151031494140625,7.278073120117188
14.93900000000002,-7.364654541015626,-0.096600341796875,6.915896606445313
14.949000000000012,-7.261474609375001,0.02691650390625,5.253503417968751
14.960000000000036,-6.221450805664063,0.2385101318359375,7.164874267578125
14.968999999999994,-6.957766723632813,0.0677398681640625,8.004669189453125
14.979000000000042,-6.296218872070313,0.1256103515625,9.098825073242187
14.989000000000033,-6.730322265625,0.2836700439453125,6.575701904296875
14.999000000000024,-6.653012084960938,0.424383544921875,6.285751342773438
15.009000000000016,-7.605108642578125,0.2394073486328125,5.818899536132813
15.019000000000004,-7.662380981445313,0.1825836181640625,7.229473876953126
15.028999999999996,-7.046292114257813,0.3864013671875,6.599926757812501
15.038999999999987,-6.868194580078126,0.5731719970703125,5.6476806640625
15.049000000000037,-6.372631835937501,0.9751251220703124,7.147677612304688
15.060000000000002,-7.022216796875001,0.8439819335937501,8.278768920898438
15.069000000000017,-7.106405639648438,0.2429962158203125,8.103961181640626
15.079000000000008,-7.384991455078126,-0.1568634033203125,6.373229980468751
15.089,-6.369790649414063,-0.61907958984375,5.6381103515625
15.09899999999999,-6.889727783203125,-0.772802734375,6.623104858398438
15.109000000000036,-7.208090209960938,-0.6316406250000001,8.483184814453125
15.119000000000028,-7.1017700195312505,0.372344970703125,7.219604492187501
15.12900000000002,-6.504821777343751,1.0877258300781252,6.639254760742188
15.13900000000001,-6.597982788085938,0.708203125,6.671704101562501
15.149,-6.853839111328125,0.406439208984375,7.721148681640625
15.160000000000023,-7.7642150878906255,0.6856231689453125,6.919036865234376
15.16900000000004,-7.374224853515625,1.1156890869140623,5.91864013671875
15.17900000000003,-6.9746643066406255,0.4487579345703125,5.151669311523438
15.18900000000002,-6.481344604492188,-0.5404235839843751,7.8001037597656255
15.199000000000012,-6.740939331054688,-0.6192291259765625,9.07071228027344
15.209000000000003,-6.828118896484376,-0.106170654296875,7.66881103515625
15.218999999999994,-6.680227661132813,0.0808990478515625,5.831610107421875
15.229000000000042,-6.796566772460938,-0.0131591796875,5.785552978515625
15.239000000000033,-7.4205810546875,0.1081146240234375,7.960406494140625
15.25,-7.150518798828125,0.64539794921875,7.741336059570313
15.259999999999993,-6.475811767578126,0.75784912109375,6.517532348632813
15.269000000000004,-6.424072265625001,0.739605712890625,6.102868652343751
15.278999999999996,-7.249063110351563,0.3506622314453125,7.4322448730468755
15.288999999999987,-7.559799194335938,0.3635223388671875,7.227828979492188
15.299000000000037,-7.60301513671875,0.4667022705078125,6.067727661132813
15.309000000000026,-7.1301818847656255,0.4089813232421875,4.916149902343751
15.319999999999991,-6.647628784179688,0.17525634765625,7.30513916015625
15.329000000000008,-6.420333862304688,-0.2145843505859375,8.935980224609375
15.340000000000032,-6.693984985351563,-0.1224700927734375,8.357424926757814
15.34899999999999,-6.389529418945313,0.221014404296875,6.773687744140625
15.360000000000014,-7.2169128417968755,0.226995849609375,5.209689331054688
15.370000000000005,-7.1256958007812505,0.0847869873046875,7.35179443359375
15.379999999999995,-7.700363159179688,-0.0249725341796875,7.159640502929688
15.389999999999986,-6.600973510742188,0.4445709228515625,7.031936645507813
15.400000000000034,-7.225735473632813,0.8062988281250001,5.020825195312501
15.410000000000023,-6.707144165039063,1.080548095703125,7.027899169921875
15.420000000000016,-7.3009521484375,0.9654052734375,7.476507568359375
15.430000000000009,-6.546841430664063,0.6597534179687501,8.0043701171875
15.439999999999998,-6.921578979492188,0.2476318359375,6.768453979492188
15.449999999999989,-7.319046020507813,-0.389990234375,6.737799072265625
15.460000000000036,-6.751107788085938,-0.9772186279296876,6.866400146484375
15.470000000000027,-6.633572387695313,-1.1880645751953125,7.033731079101563
15.480000000000018,-7.031188964843751,-0.5247222900390626,7.08861083984375
15.490000000000007,-6.969879150390626,0.6679779052734376,7.232464599609376
15.5,-6.954776000976563,1.184625244140625,6.923672485351563
15.509999999999993,-6.653460693359375,1.012210083007813,7.087115478515625
15.52000000000004,-7.038516235351563,0.7980743408203126,7.017282104492188
15.53000000000003,-7.281811523437501,1.0495941162109377,6.670806884765626
15.54000000000002,-7.336093139648438,0.6093597412109375,6.313116455078125
15.550000000000011,-6.913952636718751,-0.356793212890625,6.388931274414063
15.560000000000002,-6.578842163085938,-0.9775177001953126,7.658493041992188
15.569999999999991,-6.731219482421875,-0.6989318847656251,7.885937500000001
15.58000000000004,-6.903335571289063,-0.3324188232421875,7.550228881835938
15.590000000000032,-6.706546020507813,-0.033197021484375,6.283358764648438
15.600000000000025,-6.893914794921876,0.2836700439453125,6.6217590332031255
15.610000000000014,-7.1600891113281255,1.0534820556640625,7.074404907226563
15.620000000000005,-7.542901611328125,1.4602203369140625,7.036422729492188
15.629999999999995,-6.561495971679688,1.2706085205078126,6.201113891601563
15.639999999999986,-6.8355957031250005,0.7242034912109375,6.3391357421875005
15.650000000000034,-7.097732543945313,0.2050140380859375,7.725933837890626
15.660000000000023,-7.551126098632813,-0.0803009033203125,6.679779052734376
15.670000000000016,-6.915447998046876,-0.2839691162109375,6.568075561523438
15.680000000000009,-6.904531860351563,-0.456982421875,5.640652465820313
15.689999999999998,-6.346762084960938,-0.4439727783203125,8.401986694335939
15.699999999999989,-7.121060180664063,-0.226995849609375,8.128485107421875
15.710000000000036,-6.247619628906251,0.3961212158203125,7.536022949218751
15.720000000000027,-7.063638305664063,0.646893310546875,5.714971923828125
15.730000000000018,-6.7219482421875005,0.787457275390625,6.851446533203125
15.740000000000007,-8.013940429687501,0.6766510009765625,6.254946899414063
15.75,-7.180126953125001,0.9764709472656252,6.906475830078126
15.759999999999993,-7.009207153320313,0.9802093505859376,5.481097412109375
15.77000000000004,-6.859072875976563,0.4882354736328125,7.22379150390625
15.78000000000003,-6.434390258789063,0.067291259765625,8.156448364257812
15.79000000000002,-7.299905395507813,-0.3626251220703125,8.052371215820314
15.800000000000011,-6.830361938476563,-0.5864807128906251,7.12210693359375
15.810000000000002,-5.8132171630859375,-0.7648773193359375,5.285952758789063
15.819999999999991,-7.741485595703126,-0.5042358398437501,7.549331665039063
15.83000000000004,-7.218856811523438,0.1972381591796875,8.096783447265626
15.840000000000032,-7.238894653320313,0.7529144287109375,6.374575805664063
15.850000000000025,-6.302947998046876,0.9023010253906252,6.445904541015626
15.860000000000014,-6.746621704101563,0.7786346435546876,6.209637451171876
15.870000000000005,-7.399795532226563,0.8557952880859375,8.532382202148439
15.879999999999995,-7.195828247070313,0.7692138671875001,7.092349243164063
15.889999999999986,-6.920532226562501,0.1748077392578125,5.585025024414063
15.900000000000034,-6.397454833984376,-0.448309326171875,6.685311889648438
15.910000000000023,-7.348654174804688,-0.5775085449218751,7.424319458007813
15.920000000000016,-7.291830444335938,-0.3455780029296875,8.444155883789064
15.930000000000009,-6.4557739257812505,0.0049346923828125,6.0609985351562505
15.939999999999998,-6.68546142578125,0.143255615234375,6.271096801757813
15.949999999999989,-6.923672485351563,0.4514495849609375,7.434188842773438
15.960000000000036,-6.967935180664063,0.6525756835937501,8.04444580078125
15.970000000000027,-6.552822875976563,0.6896606445312501,7.292428588867188
15.980000000000018,-6.954925537109376,0.5479003906250001,5.934042358398438
15.990000000000007,-7.121957397460938,0.3560455322265625,6.482241821289063
16.0,-8.020220947265626,0.3524566650390625,6.024212646484376
16.00999999999999,-7.431198120117188,0.5628540039062501,7.065283203125
16.02000000000004,-7.251754760742188,0.4281219482421875,5.580239868164063
16.03000000000003,-5.82353515625,0.2056121826171875,7.610641479492188
16.04000000000002,-6.745574951171876,0.0485992431640625,8.01513671875
16.05000000000001,-6.57420654296875,0.15970458984375,8.636010742187501
16.060000000000002,-6.981991577148438,0.004486083984375,6.634619140625
16.069999999999993,-6.536822509765625,-0.30146484375,6.417941284179688
16.08000000000004,-7.588360595703126,-0.433953857421875,5.8187500000000005
16.090000000000032,-7.44749755859375,0.10048828125,7.488171386718751
16.100000000000023,-7.153210449218751,0.745587158203125,6.486428833007813
16.110000000000014,-6.819595336914063,0.9694427490234376,5.5904083251953125
16.121000000000038,-6.854287719726563,1.475772094726563,6.576000976562501
16.13100000000003,-6.761276245117188,1.607363891601563,8.215365600585939
16.14100000000002,-7.162182617187501,0.8761322021484376,7.9077697753906255
16.15100000000001,-6.937429809570313,-0.06759033203125,7.278073120117188
16.161,-7.181771850585938,-1.246533203125,5.263372802734375
16.170999999999992,-6.141897583007813,-1.5173431396484376,7.076797485351563
16.18100000000004,-7.177285766601563,-1.5143524169921876,8.013641357421875
16.19100000000003,-7.003973388671875,-0.5262176513671876,7.727728271484375
16.201000000000022,-6.681723022460938,0.7074554443359375,6.742733764648438
16.211000000000013,-7.078143310546875,1.4153594970703125,6.524111938476563
16.221000000000004,-6.892568969726563,1.445864868164063,7.018478393554688
16.230999999999995,-7.375421142578125,1.3601806640625,6.73271484375
16.240999999999985,-6.939224243164063,1.344329833984375,6.804641723632813
16.251000000000033,-7.245922851562501,0.6809875488281251,5.671905517578125
16.261000000000024,-6.650619506835938,-0.491375732421875,7.654754638671876
16.271000000000015,-6.546243286132813,-1.35718994140625,7.943807983398438
16.281000000000006,-6.995001220703125,-1.3492645263671876,7.678231811523438
16.290999999999997,-6.812567138671875,-0.7259979248046875,6.801950073242188
16.300999999999988,-6.787893676757813,-0.2537628173828125,5.727532958984376
16.311000000000035,-6.888980102539063,0.5404235839843751,7.593893432617188
16.321000000000026,-7.222445678710938,1.2954315185546876,7.648623657226563
16.331000000000017,-6.528149414062501,1.7144317626953127,7.083825683593751
16.341000000000008,-6.639404296875001,1.6051208496093752,6.236553955078126
16.351,-7.352542114257813,0.8109344482421875,6.752005004882813
16.36099999999999,-7.478152465820313,0.2531646728515625,6.6157775878906255
16.371000000000038,-7.921975708007813,-0.1834808349609375,5.7125793457031255
16.38100000000003,-7.675540161132813,-0.12501220703125,5.492462158203125
16.39100000000002,-6.546542358398438,-0.2213134765625,6.762173461914063
