time,ax,ay,az,timestamp
0.0,-6.942364501953126,0.208453369140625,6.243731689453125,1712519167386.0
0.009999999999990905,-7.250259399414063,-0.103778076171875,7.124948120117188,1712519167396.0
0.01999999999998181,-6.579290771484375,0.1519287109375,6.551626586914063,1712519167406.0
0.029999999999972715,-7.094143676757813,0.332568359375,6.691143798828126,1712519167416.0
0.03999999999996362,-6.843222045898438,0.5438629150390626,6.890325927734375,1712519167426.0
0.049999999999954525,-6.360220336914063,0.3497650146484375,7.257138061523438,1712519167436.0
0.060000000000002274,-5.921481323242188,-0.3626251220703125,8.235702514648438,1712519167446.0
0.06999999999999318,-5.9036865234375,-0.586181640625,7.669857788085938,1712519167456.0
0.07999999999998408,-7.116873168945313,-0.5908172607421875,7.574453735351563,1712519167466.0
0.08999999999997499,-6.890475463867188,0.051141357421875,6.138009643554688,1712519167476.0
0.0999999999999659,-7.285250854492188,0.092413330078125,5.919537353515626,1712519167486.0
0.1099999999999568,-7.09818115234375,0.146844482421875,6.4970458984375,1712519167496.0
0.1199999999999406,-6.374127197265626,0.7497741699218751,7.270446777343751,1712519167506.0
0.12999999999999545,-6.930401611328126,0.7527648925781251,8.503671264648439,1712519167516.0
0.1409999999999627,-5.840133666992188,0.5969482421875001,7.160836791992188,1712519167527.0
0.15099999999995362,-6.143692016601563,-0.266473388671875,6.7952209472656255,1712519167537.0
0.16100000000000136,-7.07724609375,-0.8508605957031251,6.965542602539063,1712519167547.0
0.17099999999999227,-7.428057861328125,-1.0669403076171875,7.128237915039063,1712519167557.0
0.18099999999998317,-7.27822265625,-1.0189392089843752,6.446502685546876,1712519167567.0
0.19099999999997408,-6.3525939941406255,-0.587078857421875,6.276629638671875,1712519167577.0
0.20099999999996498,-6.426913452148438,-0.2513702392578125,7.190744018554688,1712519167587.0
0.2109999999999559,-6.570019531250001,0.4175048828125,8.075549316406251,1712519167597.0
0.2209999999999468,-6.823333740234376,0.9491058349609376,7.7791687011718755,1712519167607.0
0.23099999999999454,-6.467587280273438,1.1740081787109375,6.4602600097656255,1712519167617.0
0.24099999999998545,-6.483886718750001,0.7867095947265625,6.365304565429688,1712519167627.0
0.25099999999997635,-7.134518432617188,-0.0327484130859375,6.796267700195313,1712519167637.0
0.26099999999996726,-7.078591918945313,-0.35709228515625,7.234857177734375,1712519167647.0
0.27199999999999136,-7.417141723632813,-0.4254302978515625,6.175393676757813,1712519167658.0
0.28099999999994907,-6.730023193359376,-0.1341339111328125,6.2972656250000005,1712519167667.0
0.2909999999999968,-6.227731323242188,-0.091815185546875,6.888681030273438,1712519167677.0
0.3019999999999641,-6.283209228515625,-0.37264404296875,8.567373657226563,1712519167688.0
0.311999999999955,-6.301452636718751,-0.1912567138671875,7.893414306640626,1712519167698.0
0.3219999999999459,-7.069769287109375,0.0770111083984375,6.721798706054688,1712519167708.0
0.33199999999999363,-7.024310302734375,0.3255401611328125,5.678036499023438,1712519167718.0
0.34199999999998454,-7.327420043945313,0.063104248046875,5.559155273437501,1712519167728.0
0.35199999999997544,-7.211529541015626,-0.2050140380859375,7.268502807617188,1712519167738.0
0.36199999999996635,-6.849951171875,0.0668426513671875,6.637161254882813,1712519167748.0
0.37199999999995725,-6.9731689453125005,0.216827392578125,7.507611083984376,1712519167758.0
0.38199999999994105,-5.841329956054688,0.4798614501953125,6.826025390625,1712519167768.0
0.3919999999999959,-6.0807373046875,0.0925628662109375,7.961752319335938,1712519167778.0
0.4019999999999868,-5.958416748046876,-0.139068603515625,8.492904663085938,1712519167788.0
0.4119999999999706,-7.08861083984375,-0.0491973876953125,6.624450683593751,1712519167798.0
0.4230000000000018,-7.477703857421876,0.2340240478515625,6.806286621093751,1712519167809.0
0.4329999999999927,-6.898999023437501,0.596649169921875,4.643246459960938,1712519167819.0
0.44299999999998363,-8.098577880859375,-0.1897613525390625,7.17235107421875,1712519167829.0
0.4549999999999841,-5.667269897460938,-0.5543304443359376,7.607052612304688,1712519167841.0
0.46299999999996544,-5.818600463867188,-0.557470703125,7.267007446289063,1712519167849.0
0.47299999999995634,-6.877316284179688,0.04007568359375,9.087161254882814,1712519167859.0
0.48299999999994725,-6.536224365234376,1.05213623046875,6.12200927734375,1712519167869.0
0.492999999999995,-6.827221679687501,0.8085418701171876,7.672998046875,1712519167879.0
0.5029999999999859,-6.04783935546875,0.3874481201171875,6.204104614257813,1712519167889.0
0.5129999999999768,-7.1585937500000005,-0.20396728515625,7.456021118164063,1712519167899.0
0.5229999999999748,-7.5025268554687505,-0.009271240234375,6.927410888671876,1712519167909.0
0.5329999999999657,-7.651614379882813,0.3204559326171875,5.196231079101563,1712519167919.0
0.5429999999999495,-6.674246215820313,-0.0617584228515625,6.3211914062500005,1712519167929.0
0.55499999999995,-5.673251342773438,-0.6036773681640626,7.0975830078125,1712519167941.0
0.5629999999999882,-6.344219970703126,-1.0588653564453123,9.405075073242188,1712519167949.0
0.5739999999999554,-6.545645141601563,-0.48389892578125,8.323330688476563,1712519167960.0
0.5839999999999463,-6.436035156250001,0.4125701904296875,5.754598999023438,1712519167970.0
0.5939999999999941,-7.247418212890626,0.4897308349609375,6.024362182617188,1712519167980.0
0.603999999999985,-6.594543457031251,0.3802703857421875,6.4731201171875,1712519167990.0
0.6139999999999759,-7.4681335449218755,0.093609619140625,7.624249267578126,1712519168000.0
0.6239999999999668,-7.412057495117188,0.3449798583984375,6.795819091796876,1712519168010.0
0.6339999999999577,-6.9911132812500005,0.8374023437500001,4.885494995117188,1712519168020.0
0.6439999999999486,-6.666171264648438,0.5640502929687501,6.653460693359375,1712519168030.0
0.6549999999999727,-6.252255249023438,0.0207855224609375,7.658343505859375,1712519168041.0
0.6639999999999873,-6.528448486328125,-0.4798614501953125,8.88543701171875,1712519168050.0
0.6739999999999711,-6.253302001953125,-0.290997314453125,7.613034057617188,1712519168060.0
0.6839999999999762,-6.480297851562501,-0.1045257568359375,6.287396240234376,1712519168070.0
0.6949999999999932,-6.469979858398438,-0.49466552734375,7.313812255859376,1712519168081.0
0.7039999999999509,-6.381454467773438,-0.6720153808593751,7.389926147460938,1712519168090.0
0.714999999999975,-6.771743774414063,-0.3443817138671875,7.732662963867188,1712519168101.0
0.7249999999999659,-7.176986694335938,0.771307373046875,5.843722534179688,1712519168111.0
0.7349999999999568,-6.75723876953125,1.64669189453125,6.269302368164063,1712519168121.0
0.7449999999999406,-7.4564697265625,1.23636474609375,6.513494873046875,1712519168131.0
0.7549999999999955,-7.124798583984376,0.1837799072265625,7.828814697265625,1712519168141.0
0.7649999999999864,-6.273638916015625,-0.4723846435546875,7.088012695312501,1712519168151.0
0.7749999999999773,-6.2841064453125,-0.6869689941406251,6.457269287109376,1712519168161.0
0.7849999999999753,-6.470278930664063,-0.8306732177734376,7.310372924804688,1712519168171.0
0.7949999999999662,-7.167715454101563,-1.1088104248046875,7.229324340820313,1712519168181.0
0.80499999999995,-7.056460571289063,-1.1752044677734377,7.8488525390625,1712519168191.0
0.8149999999999906,-6.198721313476563,-0.8184112548828125,5.748019409179688,1712519168201.0
0.8249999999999886,-6.905130004882813,-0.3031097412109375,7.08861083984375,1712519168211.0
0.8349999999999795,-7.013543701171876,0.5942565917968751,6.740640258789063,1712519168221.0
0.8449999999999775,-6.811968994140625,1.2401031494140626,7.728475952148438,1712519168231.0
0.8559999999999945,-6.606207275390625,1.490576171875,6.603366088867188,1712519168242.0
0.8649999999999523,-6.407623291015626,1.12152099609375,6.925167846679688,1712519168251.0
0.8759999999999764,-6.509606933593751,0.7811767578125001,6.934738159179688,1712519168262.0
0.8849999999999909,-7.4412170410156255,0.24105224609375,7.280914306640626,1712519168271.0
0.8959999999999582,-7.160986328125,-0.155218505859375,6.555215454101563,1712519168282.0
0.9059999999999491,-6.457418823242188,-0.5606109619140626,5.790487670898438,1712519168292.0
0.9159999999999968,-6.645385742187501,-1.04017333984375,7.541854858398438,1712519168302.0
0.9259999999999877,-6.234011840820313,-0.9398345947265626,7.884442138671876,1712519168312.0
0.9359999999999786,-6.774136352539063,-0.6443511962890626,8.374172973632813,1712519168322.0
0.9459999999999766,-5.767010498046876,0.1251617431640625,6.787594604492188,1712519168332.0
0.9559999999999675,-6.658395385742188,0.6685760498046875,6.649124145507813,1712519168342.0
0.9659999999999513,-7.024459838867188,0.9326568603515626,7.085919189453126,1712519168352.0
0.9759999999999991,-7.37572021484375,0.9860412597656252,6.587515258789063,1712519168362.0
0.98599999999999,-7.37691650390625,0.5417694091796875,6.561495971679688,1712519168372.0
0.9959999999999809,-6.423773193359375,0.083441162109375,5.86241455078125,1712519168382.0
1.006999999999941,-6.605459594726563,-0.8940765380859376,7.585818481445313,1712519168393.0
1.016999999999996,-6.189300537109376,-1.1982330322265626,8.320938110351562,1712519168403.0
1.0269999999999868,-6.361865234375,-0.9930694580078124,7.81954345703125,1712519168413.0
1.0369999999999706,-6.132476806640626,-0.42049560546875,7.069619750976563,1712519168423.0
1.0469999999999757,-6.499288940429688,0.3656158447265625,6.048138427734376,1712519168433.0
1.0569999999999666,-8.090353393554688,0.753662109375,6.638058471679688,1712519168443.0
1.0669999999999504,-7.030291748046875,1.7048614501953123,6.161785888671876,1712519168453.0
1.076999999999991,-7.527798461914063,1.7990692138671875,6.713275146484375,1712519168463.0
1.086999999999989,-7.066180419921875,0.8362060546875001,7.314410400390625,1712519168473.0
1.09699999999998,-5.122659301757813,-0.5105163574218751,6.605609130859375,1712519168483.0
1.106999999999971,-6.434390258789063,-1.6803375244140626,7.992706298828126,1712519168493.0
1.1169999999999618,-7.064535522460938,-1.4246307373046876,8.035174560546876,1712519168503.0
1.1269999999999527,-7.338485717773438,-0.7467834472656251,6.576898193359376,1712519168513.0
1.1370000000000005,-6.597534179687501,-0.4984039306640625,6.149673461914063,1712519168523.0
1.1469999999999914,-6.4064270019531255,-0.3013153076171875,6.211730957031251,1712519168533.0
1.1579999999999657,-6.818997192382813,0.447711181640625,8.518325805664062,1712519168544.0
1.1679999999999495,-6.568673706054688,1.6081115722656252,7.46903076171875,1712519168554.0
1.1779999999999973,-7.155902099609375,1.7226562500000002,6.618170166015625,1712519168564.0
1.1879999999999882,-6.24283447265625,0.9290679931640624,6.021969604492188,1712519168574.0
1.197999999999979,-6.152365112304688,-0.4942169189453125,7.054516601562501,1712519168584.0
1.207999999999977,-7.5497802734375,-1.454837036132813,8.437875366210939,1712519168594.0
1.217999999999961,-6.610842895507813,-1.1266052246093752,6.957168579101563,1712519168604.0
1.2279999999999518,-7.167715454101563,-0.7864105224609376,5.294775390625,1712519168614.0
1.2379999999999995,-6.388034057617188,-0.15791015625,6.3810058593750005,1712519168624.0
1.2479999999999905,-6.723144531250001,0.3491668701171875,7.623202514648438,1712519168634.0
1.2579999999999814,-6.625497436523438,0.7023712158203126,8.892465209960939,1712519168644.0
1.2679999999999723,-6.345565795898438,1.1533721923828126,6.960009765625,1712519168654.0
1.2779999999999632,-5.959613037109375,0.9393859863281252,6.617572021484375,1712519168664.0
1.287999999999954,-6.534130859375001,0.1317413330078125,7.055862426757813,1712519168674.0
1.2980000000000018,-7.431945800781251,-0.539825439453125,7.337289428710938,1712519168684.0
1.3089999999999762,-7.616024780273438,-0.450103759765625,6.6382080078125005,1712519168695.0
1.318999999999967,-7.26566162109375,0.2089019775390625,4.847811889648438,1712519168705.0
1.3289999999999509,-7.177136230468751,0.32120361328125,6.33494873046875,1712519168715.0
1.3389999999999986,-5.936734008789063,0.389093017578125,7.471722412109376,1712519168725.0
1.3489999999999895,-6.5275512695312505,0.11663818359375,8.695526123046875,1712519168735.0
1.3589999999999804,-6.122457885742188,0.4789642333984375,8.044595336914064,1712519168745.0
1.3719999999999573,-5.940023803710938,0.8110839843750001,6.325827026367188,1712519168758.0
1.3789999999999623,-6.693386840820313,0.148638916015625,6.635665893554688,1712519168765.0
1.3889999999999532,-7.45706787109375,-0.4260284423828125,6.794622802734375,1712519168775.0
1.399000000000001,-7.605407714843751,-0.6201263427734376,6.696826171875,1712519168785.0
1.4089999999999918,-7.718606567382813,-0.635528564453125,6.877166748046876,1712519168795.0
1.4189999999999827,-5.956921386718751,-0.6192291259765625,6.236553955078126,1712519168805.0
1.4289999999999736,-6.11124267578125,-1.027313232421875,7.027600097656251,1712519168815.0
1.4389999999999645,-6.150570678710938,-0.6615478515625001,8.778070068359376,1712519168825.0
1.4499999999999886,-6.714022827148438,0.3074462890625,7.693783569335938,1712519168836.0
1.4599999999999795,-7.204650878906251,1.0172943115234376,7.134219360351563,1712519168846.0
1.47199999999998,-6.382949829101563,0.6503326416015626,5.504574584960938,1712519168858.0
1.4799999999999613,-7.163827514648438,-0.378924560546875,6.4252685546875,1712519168866.0
1.4899999999999523,-6.9911132812500005,-0.200079345703125,7.329812622070313,1712519168876.0
1.5,-7.940966796875,0.4200469970703125,6.704602050781251,1712519168886.0
1.509999999999991,-6.294424438476563,0.9891815185546876,6.369641113281251,1712519168896.0
1.5199999999999818,-6.1477294921875005,0.449505615234375,6.353939819335938,1712519168906.0
1.5299999999999727,-6.094046020507813,-0.180340576171875,8.873025512695314,1712519168916.0
1.5399999999999636,-6.585571289062501,-0.12142333984375,8.278768920898438,1712519168926.0
1.5499999999999545,-6.665722656250001,0.007476806640625,7.121807861328126,1712519168936.0
1.5600000000000023,-6.495700073242188,-0.0402252197265625,5.602520751953126,1712519168946.0
1.5719999999999459,-7.182369995117188,-0.5404235839843751,6.1620849609375,1712519168958.0
1.5809999999999675,-6.952383422851563,-0.532049560546875,8.000482177734376,1712519168967.0
1.5909999999999513,-6.943560791015625,-0.0707305908203125,7.108798217773438,1712519168977.0
1.600999999999999,-6.527999877929688,0.4828521728515625,6.843222045898438,1712519168987.0
1.61099999999999,-6.261975097656251,0.887945556640625,6.2242919921875,1712519168997.0
1.620999999999981,-6.677835083007813,0.6044250488281251,7.84346923828125,1712519169007.0
1.6309999999999718,-6.8490539550781255,0.3315216064453125,7.571014404296876,1712519169017.0
1.6409999999999627,-6.90677490234375,0.0423187255859375,6.619515991210938,1712519169027.0
1.6509999999999536,-7.0419555664062505,-0.274249267578125,6.01553955078125,1712519169037.0
1.6610000000000014,-6.628936767578126,-0.6328369140625001,6.527850341796875,1712519169047.0
1.6709999999999923,-6.806735229492188,-1.0638000488281252,7.927359008789063,1712519169057.0
1.6809999999999832,-6.144439697265626,-0.8314208984375001,7.713223266601563,1712519169067.0
1.690999999999974,-6.256442260742188,0.0503936767578125,7.2447265625,1712519169077.0
1.700999999999965,-6.522915649414063,0.921142578125,6.419436645507813,1712519169087.0
1.710999999999956,-7.423123168945313,1.2581970214843752,6.691741943359376,1712519169097.0
1.7209999999999468,-6.94864501953125,1.3941253662109376,6.916943359375001,1712519169107.0
1.7309999999999945,-7.391421508789063,0.892431640625,6.961355590820313,1712519169117.0
1.7409999999999854,-7.206146240234376,-0.1734619140625,7.26566162109375,1712519169127.0
1.7519999999999527,-5.369244384765626,-1.2229064941406251,5.87677001953125,1712519169138.0
1.7620000000000005,-6.2362548828125,-1.7874053955078126,8.210879516601564,1712519169148.0
1.7719999999999914,-6.920083618164063,-1.3953216552734375,8.018875122070312,1712519169158.0
1.7819999999999823,-6.761126708984375,-0.2334259033203125,7.608398437500001,1712519169168.0
1.7919999999999732,-6.633123779296875,0.24404296875,6.544149780273438,1712519169178.0
1.801999999999964,-6.470278930664063,0.5075256347656251,5.914602661132813,1712519169188.0
1.811999999999955,-6.937579345703125,0.9407318115234377,7.464245605468751,1712519169198.0
1.8219999999999459,-7.738345336914063,1.6115509033203126,6.469381713867188,1712519169208.0
1.8319999999999936,-6.954177856445313,1.5032867431640626,7.300054931640625,1712519169218.0
1.8419999999999845,-6.107205200195313,0.4577301025390625,5.090060424804688,1712519169228.0
1.8519999999999754,-5.9328460693359375,-0.744390869140625,8.539859008789064,1712519169238.0
1.8619999999999663,-7.141098022460938,-1.260888671875,8.248861694335938,1712519169248.0
1.8719999999999573,-6.282162475585938,-1.1121002197265626,8.009902954101562,1712519169258.0
1.881999999999941,-6.663031005859375,-1.0247711181640626,5.169763183593751,1712519169268.0
1.8929999999999723,-7.0497314453125,-0.586181640625,6.124850463867188,1712519169279.0
1.9029999999999632,-7.239941406250001,0.3098388671875,7.65146484375,1712519169289.0
1.912999999999954,-6.846511840820313,1.0678375244140623,7.23515625,1712519169299.0
1.9230000000000018,-6.357229614257813,1.3838073730468752,7.221249389648438,1712519169309.0
1.9329999999999927,-5.7338134765625,1.1475402832031252,6.241339111328125,1712519169319.0
1.9429999999999836,-7.0927978515625005,0.39896240234375,8.187402343750001,1712519169329.0
1.9529999999999745,-7.268801879882813,-0.19140625,7.174295043945313,1712519169339.0
1.9629999999999654,-6.913952636718751,-0.7167266845703125,6.171356201171876,1712519169349.0
1.9729999999999563,-6.625347900390626,-1.0146026611328125,5.666671752929688,1712519169359.0
1.9829999999999472,-6.618319702148438,-0.9045440673828126,7.301251220703126,1712519169369.0
1.992999999999995,-6.890176391601563,-0.4892822265625,8.40811767578125,1712519169379.0
2.002999999999986,-6.237152099609376,0.31163330078125,7.501779174804688,1712519169389.0
2.012999999999977,-5.561248779296875,0.939984130859375,6.4707275390625005,1712519169399.0
2.022999999999975,-7.209884643554688,1.0467529296875,6.498092651367188,1712519169409.0
2.0329999999999657,-7.083526611328126,1.0412200927734376,7.741635131835938,1712519169419.0
2.0439999999999827,-8.231515502929689,0.7068572998046876,6.227581787109376,1712519169430.0
2.0539999999999736,-7.114031982421875,-0.08673095703125,6.47611083984375,1712519169440.0
2.0639999999999645,-5.397656250000001,-0.8363555908203125,5.7125793457031255,1712519169450.0
2.0739999999999554,-6.415548706054688,-1.5460540771484377,8.632272338867189,1712519169460.0
2.0839999999999463,-6.228030395507813,-1.0495941162109377,8.94046630859375,1712519169470.0
2.093999999999994,-7.016085815429688,-0.1155914306640625,7.431945800781251,1712519169480.0
2.103999999999985,-6.562841796875,0.5108154296875,6.32298583984375,1712519169490.0
2.113999999999976,-6.622207641601563,0.4625152587890625,5.205950927734375,1712519169500.0
2.123999999999967,-7.495797729492188,0.2917449951171875,7.75853271484375,1712519169510.0
2.1339999999999577,-7.268502807617188,1.0101165771484375,6.58377685546875,1712519169520.0
2.1439999999999486,-6.784603881835938,1.233074951171875,6.984384155273438,1712519169530.0
2.1539999999999964,-6.088812255859375,0.5363861083984376,6.096737670898438,1712519169540.0
2.1639999999999873,-6.012698364257813,-0.672314453125,8.22269287109375,1712519169550.0
2.1749999999999545,-7.045245361328125,-1.0693328857421875,8.736499023437501,1712519169561.0
2.1850000000000023,-6.31102294921875,-0.6507812500000001,6.838735961914063,1712519169571.0
2.194999999999993,-7.012048339843751,-0.5299560546875001,5.295672607421875,1712519169581.0
2.204999999999984,-6.8343994140625,-0.478216552734375,6.496298217773438,1712519169591.0
2.214999999999975,-7.126892089843751,-0.096600341796875,7.597482299804688,1712519169601.0
2.224999999999966,-6.746023559570313,0.5685363769531251,7.990612792968751,1712519169611.0
2.234999999999957,-6.058157348632813,1.1037261962890623,6.411660766601563,1712519169621.0
2.2449999999999406,-6.317752075195313,0.7496246337890625,6.948495483398438,1712519169631.0
2.2549999999999955,-6.633273315429688,0.315521240234375,7.672100830078126,1712519169641.0
2.2649999999999864,-7.423422241210938,-0.0527862548828125,7.162481689453125,1712519169651.0
2.2749999999999773,-7.277325439453126,-0.09091796875,6.244628906250001,1712519169661.0
2.2849999999999753,-6.605160522460938,-0.1160400390625,5.172903442382813,1712519169671.0
2.294999999999966,-6.7841552734375,-0.5013946533203125,7.381851196289063,1712519169681.0
2.30499999999995,-6.305490112304688,-0.5479003906250001,8.534774780273438,1712519169691.0
2.3149999999999906,-6.347360229492188,-0.33197021484375,8.118466186523438,1712519169701.0
2.325999999999965,-6.164028930664063,0.118133544921875,6.638955688476563,1712519169712.0
2.335999999999956,-6.572561645507813,0.3342132568359375,6.384893798828125,1712519169722.0
2.345999999999947,-6.976608276367188,0.3401947021484375,6.982888793945313,1712519169732.0
2.3559999999999945,-7.9197326660156255,0.4810577392578125,6.451885986328126,1712519169742.0
2.3659999999999854,-6.638656616210938,1.21124267578125,6.250610351562501,1712519169752.0
2.3759999999999764,-6.761575317382813,1.275393676757813,6.726882934570313,1712519169762.0
2.3859999999999673,-7.664773559570313,-0.0765625,8.005715942382814,1712519169772.0
2.395999999999958,-5.37552490234375,-1.3809661865234375,7.446899414062501,1712519169782.0
2.405999999999949,-5.6681671142578125,-1.3130767822265623,7.241287231445313,1712519169792.0
2.415999999999997,-6.984683227539063,-0.8429351806640626,7.686306762695313,1712519169802.0
2.4259999999999877,-7.179827880859375,-0.3422882080078125,6.874026489257813,1712519169812.0
2.4359999999999786,-7.265213012695313,-0.3010162353515625,6.944308471679688,1712519169822.0
2.446999999999946,-6.614132690429688,0.1457977294921875,5.625250244140625,1712519169833.0
2.4559999999999675,-6.384146118164063,0.8753845214843751,7.319345092773438,1712519169842.0
2.4659999999999513,-6.817352294921876,1.29378662109375,7.487423706054688,1712519169852.0
2.4769999999999754,-6.791781616210938,1.055126953125,8.019473266601564,1712519169863.0
2.4869999999999663,-6.348406982421875,0.20755615234375,6.282312011718751,1712519169873.0
2.4969999999999573,-6.2613769531250005,-0.3488677978515625,6.7219482421875005,1712519169883.0
2.506999999999941,-7.481591796875,-0.8231964111328126,7.497293090820313,1712519169893.0
2.516999999999996,-6.774884033203126,-0.9709381103515624,7.096984863281251,1712519169903.0
2.526999999999987,-6.299209594726563,-0.8837585449218751,6.405081176757813,1712519169913.0
2.5369999999999706,-7.065731811523438,-0.3074462890625,6.671853637695313,1712519169923.0
2.5469999999999757,-6.842175292968751,0.6880157470703125,7.41759033203125,1712519169933.0
2.5569999999999666,-6.542205810546876,1.0872772216796875,6.9193359375000005,1712519169943.0
2.5669999999999504,-6.736602783203126,0.9598724365234376,7.504470825195313,1712519169953.0
2.576999999999991,-6.033932495117188,0.867010498046875,6.471325683593751,1712519169963.0
2.586999999999989,-7.257437133789063,0.24105224609375,7.7163635253906255,1712519169973.0
2.59699999999998,-6.889727783203125,-0.1670318603515625,6.426913452148438,1712519169983.0
2.606999999999971,-7.246670532226563,-0.6615478515625001,6.481045532226563,1712519169993.0
2.617999999999995,-6.489868164062501,-0.8982635498046876,6.50003662109375,1712519170004.0
2.627999999999986,-6.534130859375001,-0.6869689941406251,7.25728759765625,1712519170014.0
2.637999999999977,-6.638357543945313,-0.372943115234375,8.255740356445314,1712519170024.0
2.647999999999975,-6.133224487304688,0.3548492431640625,7.026852416992188,1712519170034.0
2.6579999999999657,-6.343322753906251,0.5265167236328125,7.332803344726563,1712519170044.0
2.6679999999999495,-6.617422485351563,0.8486175537109376,5.863311767578125,1712519170054.0
2.6779999999999973,-7.751205444335938,0.8252899169921876,7.518078613281251,1712519170064.0
2.687999999999988,-7.192239379882813,0.9366943359375,5.778225708007813,1712519170074.0
2.697999999999979,-7.791879272460938,0.192303466796875,7.414300537109375,1712519170084.0
2.707999999999977,-5.892770385742188,-0.757550048828125,6.132177734375,1712519170094.0
2.717999999999961,-5.646633911132813,-1.0974456787109377,7.39725341796875,1712519170104.0
2.727999999999952,-6.481045532226563,-0.9842468261718752,9.106900024414063,1712519170114.0
2.7379999999999995,-6.699667358398438,-0.1051239013671875,7.327120971679688,1712519170124.0
2.7479999999999905,-6.983486938476563,-0.1018341064453125,7.415496826171876,1712519170134.0
2.7589999999999577,-6.234310913085938,-0.1160400390625,5.034881591796875,1712519170145.0
2.770999999999958,-7.467984008789063,-0.0198883056640625,7.162930297851563,1712519170157.0
2.7789999999999964,-7.179229736328126,0.8836090087890626,6.853839111328125,1712519170165.0
2.7889999999999873,-7.248913574218751,1.394873046875,7.022964477539063,1712519170175.0
2.798999999999971,-5.9323974609375005,0.8839080810546875,6.132925415039063,1712519170185.0
2.808999999999976,-5.978903198242188,-0.0336456298828125,7.9565185546875,1712519170195.0
2.818999999999967,-6.652862548828126,-0.439935302734375,8.449090576171876,1712519170205.0
2.828999999999951,-7.149472045898438,-0.440234375,7.154855346679688,1712519170215.0
2.8389999999999986,-6.6621337890625005,-0.6282012939453125,5.357879638671875,1712519170225.0
2.8489999999999895,-6.86131591796875,-0.8199066162109375,5.977557373046875,1712519170235.0
2.8589999999999804,-7.235903930664063,-0.65018310546875,7.738345336914063,1712519170245.0
2.870999999999981,-6.493008422851563,0.07357177734375,7.962799072265626,1712519170257.0
2.8789999999999623,-6.183917236328125,0.6147430419921875,7.243231201171875,1712519170265.0
2.888999999999953,-5.915798950195313,0.80570068359375,6.711032104492188,1712519170275.0
2.899000000000001,-6.775332641601563,0.6757537841796876,7.421478271484376,1712519170285.0
2.9099999999999753,-7.425814819335938,0.417803955078125,7.563986206054688,1712519170296.0
2.919999999999966,-7.257736206054688,0.322100830078125,5.846713256835938,1712519170306.0
2.92999999999995,-7.359420776367188,0.067291259765625,5.058657836914063,1712519170316.0
2.9399999999999906,-6.5320373535156255,-0.0949554443359375,6.660189819335938,1712519170326.0
2.9499999999999886,-6.662582397460938,-0.4335052490234375,8.437725830078126,1712519170336.0
2.9599999999999795,-6.1417480468750005,-0.5944061279296875,8.549429321289063,1712519170346.0
2.97199999999998,-5.861367797851563,-0.137872314453125,6.899597167968751,1712519170358.0
2.9799999999999613,-6.469082641601563,0.026019287109375,7.012945556640625,1712519170366.0
2.9899999999999523,-6.695928955078125,0.0847869873046875,6.6591430664062505,1712519170376.0
3.0,-8.026651000976564,-0.0587677001953125,6.440371704101563,1712519170386.0
3.009999999999991,-6.959860229492188,0.7023712158203126,6.0595031738281255,1712519170396.0
3.019999999999982,-6.68187255859375,1.48818359375,6.10167236328125,1712519170406.0
3.0299999999999727,-7.624847412109376,0.6048736572265625,8.158840942382813,1712519170416.0
3.0399999999999636,-5.687756347656251,-0.6057708740234375,8.256039428710938,1712519170426.0
3.0509999999999877,-5.2714477539062505,-1.1735595703125,7.021319580078125,1712519170437.0
3.0609999999999786,-6.545196533203126,-0.7259979248046875,7.505667114257813,1712519170447.0
3.0709999999999766,-7.518676757812501,-0.4062896728515625,7.021917724609375,1712519170457.0
3.0809999999999675,-7.555911254882813,-0.4717864990234375,6.746322631835938,1712519170467.0
3.0909999999999513,-6.659741210937501,-0.366363525390625,5.65545654296875,1712519170477.0
3.100999999999999,-6.646133422851563,0.2723052978515625,6.643441772460938,1712519170487.0
3.11099999999999,-6.273638916015625,1.1743072509765626,7.980145263671876,1712519170497.0
3.120999999999981,-6.741836547851563,1.18970947265625,8.157644653320313,1712519170507.0
3.130999999999972,-6.253900146484376,0.5911163330078125,7.108648681640625,1712519170517.0
3.1409999999999627,-6.294125366210938,-0.1206756591796875,6.529345703125,1712519170527.0
3.1509999999999536,-7.165771484375001,-0.6226684570312501,6.975711059570313,1712519170537.0
3.1610000000000014,-7.2650634765625,-0.9064880371093752,7.035525512695313,1712519170547.0
3.1719999999999757,-6.475213623046876,-0.9471618652343752,6.401043701171876,1712519170558.0
3.180999999999983,-6.890026855468751,-0.5004974365234376,6.704901123046875,1712519170567.0
3.1919999999999504,-6.794174194335938,0.38699951171875,7.025057983398438,1712519170578.0
3.201999999999991,-6.579141235351563,1.0754638671875,7.4325439453125,1712519170588.0
3.211999999999989,-6.629385375976563,1.1221191406250002,7.122256469726563,1712519170598.0
3.22199999999998,-6.308331298828126,0.953741455078125,7.0114501953125,1712519170608.0
3.231999999999971,-6.715219116210938,0.4038970947265625,7.235305786132813,1712519170618.0
3.241999999999962,-7.019973754882813,-0.1710693359375,6.794921875000001,1712519170628.0
3.2519999999999527,-7.356729125976563,-0.7230072021484375,6.582131958007813,1712519170638.0
3.2620000000000005,-6.570318603515625,-0.9054412841796876,6.154309082031251,1712519170648.0
3.2719999999999914,-6.687106323242188,-0.7989715576171875,7.328018188476563,1712519170658.0
3.2819999999999823,-6.2841064453125,-0.4924224853515625,7.847058105468751,1712519170668.0
3.291999999999973,-6.301452636718751,0.1404144287109375,7.764364624023438,1712519170678.0
3.301999999999964,-6.611740112304688,0.5902191162109376,7.237249755859375,1712519170688.0
3.311999999999955,-6.545794677734375,0.9697418212890626,6.277377319335938,1712519170698.0
3.321999999999946,-6.722845458984375,0.69923095703125,6.618618774414063,1712519170708.0
3.3319999999999936,-7.814907836914063,0.509320068359375,6.27513427734375,1712519170718.0
3.342999999999961,-6.823782348632813,0.72315673828125,6.676788330078126,1712519170729.0
3.352999999999952,-7.615127563476563,0.197686767578125,6.936831665039063,1712519170739.0
3.3629999999999995,-6.141598510742188,-0.6280517578125,7.355084228515626,1712519170749.0
3.3729999999999905,-5.448797607421875,-1.30096435546875,7.497442626953125,1712519170759.0
3.3829999999999814,-6.271694946289063,-1.161746215820313,8.462548828125001,1712519170769.0
3.3929999999999723,-6.713275146484375,-0.2902496337890625,7.259979248046876,1712519170779.0
3.402999999999963,-7.577444458007813,0.1329376220703125,6.718658447265626,1712519170789.0
3.412999999999954,-6.459811401367188,0.2444915771484375,5.973968505859375,1712519170799.0
3.423000000000002,-7.095489501953126,0.1244140625,6.239544677734376,1712519170809.0
3.4329999999999927,-6.658395385742188,0.7835693359375001,7.918386840820313,1712519170819.0
3.4429999999999836,-7.329962158203125,1.2462341308593752,6.656002807617188,1712519170829.0
3.4529999999999745,-6.045297241210938,0.9299652099609376,7.289886474609376,1712519170839.0
3.4629999999999654,-6.398800659179688,-0.0207855224609375,6.466839599609376,1712519170849.0
3.4739999999999895,-6.578244018554688,-0.6228179931640625,8.014389038085938,1712519170860.0
3.4829999999999472,-7.238894653320313,-0.5703308105468751,7.433441162109376,1712519170869.0
3.4939999999999714,-6.5843750000000005,-0.6338836669921876,6.14114990234375,1712519170880.0
3.5039999999999623,-6.638806152343751,-0.6458465576171876,6.21890869140625,1712519170890.0
3.513999999999953,-6.744677734375,-0.56943359375,7.144985961914063,1712519170900.0
3.524000000000001,-6.79552001953125,0.045458984375,8.448043823242188,1712519170910.0
3.533999999999992,-6.160589599609375,0.6784454345703126,7.144387817382813,1712519170920.0
3.5439999999999827,-6.447698974609375,0.6930999755859375,6.656600952148438,1712519170930.0
3.5539999999999736,-6.510504150390625,0.63642578125,6.79013671875,1712519170940.0
3.5639999999999645,-7.426712036132813,0.43843994140625,7.330709838867188,1712519170950.0
3.5739999999999554,-7.524359130859375,0.332867431640625,6.487176513671876,1712519170960.0
3.5839999999999463,-6.814511108398438,0.2489776611328125,5.253503417968751,1712519170970.0
3.593999999999994,-6.65794677734375,-0.1244140625,6.712826538085938,1712519170980.0
3.603999999999985,-6.460110473632813,-0.3686065673828125,7.963397216796875,1712519170990.0
3.613999999999976,-6.493756103515626,-0.5103668212890625,8.685357666015626,1712519171000.0
3.623999999999967,-5.794076538085938,-0.3026611328125,7.2408386230468755,1712519171010.0
3.634999999999991,-6.1357666015625005,-0.0593658447265625,6.146832275390626,1712519171021.0
3.644999999999982,-7.863955688476563,-0.125311279296875,6.446951293945313,1712519171031.0
3.6549999999999727,-7.181024169921876,0.5378814697265626,6.890625000000001,1712519171041.0
3.6649999999999636,-6.977655029296876,0.9996490478515626,6.595440673828126,1712519171051.0
3.6749999999999545,-7.3846923828125,0.6177337646484375,6.956271362304688,1712519171061.0
3.686999999999955,-5.643643188476563,-0.246734619140625,7.406674194335938,1712519171073.0
3.694999999999993,-5.8217407226562505,-0.6628936767578125,7.58865966796875,1712519171081.0
3.704999999999984,-6.7363037109375,-0.4906280517578125,8.193832397460938,1712519171091.0
3.714999999999975,-7.159640502929688,-0.3040069580078125,6.745425415039063,1712519171101.0
3.724999999999966,-6.855184936523438,-0.3916351318359375,6.536822509765625,1712519171111.0
3.734999999999957,-6.899597167968751,-0.630743408203125,5.896658325195313,1712519171121.0
3.7449999999999406,-7.008758544921876,-0.0826934814453125,7.361813354492188,1712519171131.0
3.7549999999999955,-6.341378784179688,0.8118316650390626,7.255642700195313,1712519171141.0
3.7649999999999864,-6.796566772460938,1.0786041259765626,7.57310791015625,1712519171151.0
3.7759999999999536,-6.049932861328125,0.582891845703125,7.1600891113281255,1712519171162.0
3.7869999999999706,-6.403137207031251,-0.0791046142578125,7.272091674804688,1712519171173.0
3.7959999999999923,-7.062741088867188,-0.306549072265625,7.445703125,1712519171182.0
3.805999999999983,-7.119415283203126,-0.430364990234375,6.295471191406251,1712519171192.0
3.815999999999974,-6.705947875976563,-0.5550781250000001,5.972174072265625,1712519171202.0
3.825999999999965,-6.995748901367188,-0.4687957763671875,6.950289916992188,1712519171212.0
3.835999999999956,-7.087414550781251,0.0835906982421875,7.301251220703126,1712519171222.0
3.845999999999947,-6.268704223632813,0.7792327880859375,7.267156982421875,1712519171232.0
3.8559999999999945,-6.670059204101563,0.9009552001953126,6.714172363281251,1712519171242.0
3.8659999999999854,-6.2302734375,0.7603912353515625,7.377215576171875,1712519171252.0
3.8759999999999764,-6.670059204101563,0.21353759765625,7.586715698242188,1712519171262.0
3.887999999999977,-6.96060791015625,-0.2483795166015625,7.1660705566406255,1712519171274.0
3.895999999999958,-7.12808837890625,-0.461767578125,6.0210723876953125,1712519171282.0
3.905999999999949,-6.798809814453126,-0.5967987060546875,6.148925781250001,1712519171292.0
3.915999999999997,-6.79910888671875,-0.671417236328125,7.408020019531251,1712519171302.0
3.926999999999964,-6.328518676757813,-0.390887451171875,7.773934936523438,1712519171313.0
3.936999999999955,-6.474166870117188,0.15970458984375,7.657147216796876,1712519171323.0
3.946999999999946,-6.390875244140625,0.783270263671875,6.662283325195313,1712519171333.0
3.9569999999999936,-6.525457763671875,0.8792724609375001,6.825576782226563,1712519171343.0
3.9669999999999845,-7.088162231445313,0.526068115234375,6.422128295898438,1712519171353.0
3.9769999999999754,-7.196575927734376,0.4945159912109375,7.063638305664063,1712519171363.0
3.9879999999999995,-7.239642333984375,0.5656951904296875,6.115579223632813,1712519171374.0
3.9969999999999573,-7.284353637695313,-0.0605621337890625,7.526901245117188,1712519171383.0
4.006999999999941,-5.893218994140625,-0.94088134765625,6.810922241210938,1712519171393.0
4.016999999999996,-5.8534423828125,-1.3405914306640625,7.676586914062501,1712519171403.0
4.026999999999987,-6.340481567382813,-0.7644287109375001,8.474511718750001,1712519171413.0
4.036999999999971,-7.041806030273438,0.0471038818359375,6.965243530273438,1712519171423.0
4.046999999999976,-7.097134399414063,0.241949462890625,7.019226074218751,1712519171433.0
4.056999999999967,-6.404183959960938,0.1371246337890625,5.325280761718751,1712519171443.0
4.067999999999984,-7.279718017578125,0.2426971435546875,7.508358764648438,1712519171454.0
4.0779999999999745,-6.860717773437501,1.0060791015625,6.816305541992188,1712519171464.0
4.087999999999965,-7.057507324218751,1.0738189697265623,7.345962524414063,1712519171474.0
4.097999999999956,-6.1190185546875,0.48270263671875,6.206048583984376,1712519171484.0
4.107999999999947,-6.227581787109376,-0.3413909912109375,7.649371337890625,1712519171494.0
4.117999999999995,-6.963748168945313,-0.509619140625,8.064633178710938,1712519171504.0
4.127999999999986,-6.902288818359375,-0.4673004150390625,6.969131469726563,1712519171514.0
4.137999999999977,-6.666320800781251,-0.6395660400390626,5.770001220703126,1712519171524.0
4.147999999999975,-6.505120849609376,-0.5758636474609375,6.516934204101563,1712519171534.0
4.157999999999966,-7.246820068359375,-0.3218017578125,7.92960205078125,1712519171544.0
4.1679999999999495,-6.288143920898438,0.3481201171875,7.804290771484376,1712519171554.0
4.177999999999997,-6.470278930664063,0.6267059326171875,6.678134155273438,1712519171564.0
4.187999999999988,-6.221450805664063,0.6279022216796876,6.765014648437501,1712519171574.0
4.197999999999979,-6.930999755859376,0.5673400878906251,7.198968505859376,1712519171584.0
4.207999999999977,-7.521966552734375,0.3349609375,7.228427124023438,1712519171594.0
4.217999999999961,-7.140200805664063,0.3031097412109375,5.852694702148438,1712519171604.0
4.228999999999985,-6.813912963867188,0.0408233642578125,5.59085693359375,1712519171615.0
4.238999999999976,-6.566879272460938,-0.23746337890625,7.433740234375,1712519171625.0
4.248999999999967,-6.429306030273438,-0.4762725830078125,8.417837524414063,1712519171635.0
4.258999999999958,-6.37442626953125,-0.490179443359375,8.045791625976562,1712519171645.0
4.268999999999949,-5.8740783691406255,-0.0578704833984375,6.487026977539063,1712519171655.0
4.278999999999996,-6.712228393554688,0.0889739990234375,6.608151245117188,1712519171665.0
4.288999999999987,-7.8958068847656255,0.1710693359375,6.287994384765626,1712519171675.0
4.298999999999971,-6.970925903320313,0.6287994384765625,7.007412719726563,1712519171685.0
4.308999999999976,-6.693685913085938,1.0531829833984376,6.448895263671876,1712519171695.0
4.318999999999967,-7.266259765625,0.52457275390625,7.598828125000001,1712519171705.0
4.328999999999951,-5.803945922851563,-0.55567626953125,7.523611450195313,1712519171715.0
4.338999999999999,-5.6023712158203125,-0.8658142089843751,7.411160278320313,1712519171725.0
4.3489999999999895,-7.0419555664062505,-0.665435791015625,7.874423217773438,1712519171735.0
4.3589999999999804,-7.176089477539063,-0.30804443359375,6.719107055664063,1712519171745.0
4.369999999999941,-7.052124023437501,-0.4242340087890625,6.624749755859376,1712519171756.0
4.3799999999999955,-6.79910888671875,-0.477618408203125,5.756542968750001,1712519171766.0
4.389999999999986,-6.631777954101563,0.2872589111328125,7.516433715820313,1712519171776.0
4.399999999999977,-6.612338256835938,1.048248291015625,7.336990356445313,1712519171786.0
4.409999999999975,-6.608450317382813,1.1327362060546875,7.978649902343751,1712519171796.0
4.419999999999966,-6.2195068359375005,0.4122711181640625,6.664227294921876,1712519171806.0
4.42999999999995,-6.430502319335938,-0.210546875,7.159042358398438,1712519171816.0
4.439999999999991,-7.129733276367188,-0.453094482421875,7.190744018554688,1712519171826.0
4.449999999999989,-7.332055664062499,-0.64599609375,6.484783935546876,1712519171836.0
4.4599999999999795,-6.392669677734376,-0.69324951171875,6.198272705078126,1712519171846.0
4.4699999999999775,-6.826473999023438,-0.471337890625,6.866400146484375,1712519171856.0
4.479999999999961,-6.955822753906251,0.2355194091796875,7.888031005859376,1712519171866.0
4.489999999999952,-6.219955444335938,0.8913848876953125,7.007412719726563,1712519171876.0
4.500999999999976,-6.877615356445313,0.9531433105468752,7.0329833984375005,1712519171887.0
4.510999999999967,-6.047091674804688,0.8468231201171875,6.797164916992188,1712519171897.0
4.520999999999958,-7.0975830078125,0.1822845458984375,7.474862670898438,1712519171907.0
4.530999999999949,-7.026852416992188,-0.1909576416015625,7.066778564453125,1712519171917.0
4.540999999999997,-7.120013427734375,-0.3303253173828125,5.7664123535156255,1712519171927.0
4.550999999999988,-6.797613525390625,-0.6316406250000001,6.733163452148438,1712519171937.0
4.560999999999979,-6.241937255859376,-0.633734130859375,7.171005249023438,1712519171947.0
4.570999999999977,-6.565084838867188,-0.6196777343750001,8.467782592773439,1712519171957.0
4.5809999999999675,-6.413604736328126,0.1344329833984375,7.26805419921875,1712519171967.0
4.590999999999951,-6.497644042968751,0.7865600585937501,6.581832885742188,1712519171977.0
4.600999999999999,-6.718209838867188,0.6313415527343751,6.649273681640626,1712519171987.0
4.61099999999999,-6.658694458007813,0.5016937255859375,6.325079345703125,1712519171997.0
4.620999999999981,-8.01932373046875,0.4335052490234375,7.149322509765626,1712519172007.0
4.630999999999972,-6.5081115722656255,1.0068267822265626,6.103915405273438,1712519172017.0
4.640999999999963,-7.5743041992187505,0.28890380859375,7.435086059570313,1712519172027.0
4.651999999999987,-5.984136962890625,-0.9700408935546876,7.159939575195313,1712519172038.0
4.661999999999971,-5.521322631835938,-1.3701995849609376,7.549331665039063,1712519172048.0
4.671999999999976,-6.666320800781251,-0.9812561035156252,8.42725830078125,1712519172058.0
4.681999999999967,-6.797314453125001,0.0674407958984375,6.706246948242188,1712519172068.0
4.69199999999995,-7.413253784179688,-0.07596435546875,7.031787109375,1712519172078.0
4.701999999999991,-6.272442626953126,-0.0943572998046875,5.799459838867188,1712519172088.0
4.711999999999989,-7.209286499023438,0.2253509521484375,6.999786376953126,1712519172098.0
4.72199999999998,-6.860568237304688,1.1092590332031251,7.3485046386718755,1712519172108.0
4.731999999999971,-6.942813110351563,1.39068603515625,6.895709228515625,1712519172118.0
4.741999999999962,-6.238497924804688,0.5804992675781251,6.640899658203126,1712519172128.0
4.751999999999953,-6.333004760742188,-0.1471435546875,7.593145751953125,1712519172138.0
4.7620000000000005,-6.788790893554688,-0.4318603515625,7.679727172851563,1712519172148.0
4.771999999999991,-7.197921752929688,-0.5027404785156251,7.033282470703125,1712519172158.0
4.781999999999982,-6.401193237304688,-0.7659240722656251,5.701663208007813,1712519172168.0
4.7929999999999495,-6.820642089843751,-0.8507110595703126,6.792678833007813,1712519172179.0
4.802999999999997,-6.92412109375,-0.447113037109375,7.93857421875,1712519172189.0
4.812999999999988,-6.381304931640625,0.258697509765625,7.6239501953125,1712519172199.0
4.822999999999979,-6.408520507812501,0.602630615234375,7.033282470703125,1712519172209.0
4.832999999999977,-6.129934692382813,0.72315673828125,6.648226928710938,1712519172219.0
4.842999999999961,-7.136611938476563,0.6256591796875001,7.460357666015626,1712519172229.0
4.852999999999952,-7.135864257812501,0.5372833251953125,7.08262939453125,1712519172239.0
4.8629999999999995,-7.357177734375001,0.35589599609375,5.625848388671876,1712519172249.0
4.8729999999999905,-7.244427490234376,0.0897216796875,5.576950073242188,1712519172259.0
4.882999999999981,-6.485232543945313,-0.008074951171875,6.882400512695313,1712519172269.0
4.892999999999972,-6.6286376953125,-0.4831512451171875,8.721545410156251,1712519172279.0
4.902999999999963,-5.756094360351563,-0.59156494140625,7.967285156250001,1712519172289.0
4.912999999999954,-6.034979248046875,-0.4056915283203125,7.267755126953125,1712519172299.0
4.923000000000002,-6.624600219726563,-0.047552490234375,6.5963378906250005,1712519172309.0
4.932999999999993,-7.5399108886718755,0.2307342529296875,6.2195068359375005,1712519172319.0
4.943999999999967,-7.5159851074218755,0.26976318359375,6.775033569335938,1712519172330.0
4.953999999999951,-6.496896362304688,1.02701416015625,5.76312255859375,1712519172340.0
4.963999999999999,-7.510751342773438,0.7991210937500001,8.065829467773439,1712519172350.0
4.9739999999999895,-6.198870849609375,-0.0004486083984375,7.533331298828125,1712519172360.0
4.986999999999966,-5.124603271484375,-0.677398681640625,7.223941040039063,1712519172373.0
4.993999999999971,-6.7832580566406255,-0.8076446533203125,7.685708618164063,1712519172380.0
5.003999999999962,-7.1346679687500005,-0.267669677734375,7.427011108398438,1712519172390.0
5.013999999999953,-7.458264160156251,-0.4677490234375,6.6788818359375,1712519172400.0
5.024000000000001,-6.564038085937501,-0.6494354248046875,5.486630249023438,1712519172410.0
5.033999999999992,-6.844418334960938,-0.189910888671875,6.68187255859375,1712519172420.0
5.043999999999983,-6.5514770507812505,0.7950836181640626,8.021716308593751,1712519172430.0
5.053999999999974,-6.590655517578125,1.2581970214843752,7.918087768554688,1712519172440.0
5.0639999999999645,-6.225039672851563,0.609808349609375,7.156649780273438,1712519172450.0
5.073999999999955,-6.179281616210938,0.0444122314453125,6.59813232421875,1712519172460.0
5.086999999999989,-6.987075805664063,-0.317913818359375,7.336392211914063,1712519172473.0
5.0949999999999775,-7.819094848632813,-0.463262939453125,6.929803466796876,1712519172481.0
5.104999999999961,-6.3415283203125,-0.6600524902343751,6.0131469726562505,1712519172491.0
5.114999999999952,-6.8266235351562505,-0.6485382080078126,6.143841552734376,1712519172501.0
5.125,-6.821987915039063,0.065496826171875,7.770346069335938,1712519172511.0
5.134999999999991,-6.6815734863281255,0.8154205322265625,7.602267456054688,1712519172521.0
5.144999999999982,-6.510055541992188,0.8984130859375,7.2447265625,1712519172531.0
5.154999999999973,-5.976361083984376,0.8040557861328126,6.343023681640625,1712519172541.0
5.164999999999964,-6.960757446289063,0.270062255859375,7.649819946289063,1712519172551.0
5.1749999999999545,-7.016085815429688,-0.0680389404296875,7.201660156250001,1712519172561.0
5.185999999999979,-7.422824096679688,-0.408233642578125,6.21591796875,1712519172572.0
5.194999999999993,-6.573309326171875,-0.61728515625,6.049783325195313,1712519172581.0
5.204999999999984,-6.499737548828126,-0.6125,6.914999389648438,1712519172591.0
5.214999999999975,-6.625946044921876,-0.5643493652343751,8.60550537109375,1712519172601.0
5.224999999999966,-6.285452270507813,0.1012359619140625,7.45048828125,1712519172611.0
5.23599999999999,-6.575701904296875,0.5834899902343751,6.904083251953126,1712519172622.0
5.245999999999981,-6.406576538085938,0.7838684082031251,6.378164672851563,1712519172632.0
5.255999999999972,-6.812417602539063,0.5151519775390625,6.6217590332031255,1712519172642.0
5.265999999999963,-8.099624633789062,0.32359619140625,6.845315551757813,1712519172652.0
5.275999999999954,-6.375921630859375,0.8821136474609376,6.120065307617188,1712519172662.0
5.286999999999971,-7.532882690429688,0.3043060302734375,7.26207275390625,1712519172673.0
5.295999999999992,-6.188104248046876,-0.723455810546875,7.410861206054688,1712519172682.0
5.305999999999983,-5.533285522460938,-1.2837677001953125,7.648025512695313,1712519172692.0
5.315999999999974,-6.559701538085938,-1.075015258789063,8.244076538085938,1712519172702.0
5.325999999999965,-6.561196899414063,-0.0019439697265625,6.766510009765626,1712519172712.0
5.335999999999956,-7.68077392578125,-0.039776611328125,6.942214965820313,1712519172722.0
5.345999999999947,-6.302499389648438,0.008673095703125,6.261825561523438,1712519172732.0
5.3559999999999945,-7.102816772460938,0.0746185302734375,6.41629638671875,1712519172742.0
5.3659999999999854,-6.781015014648438,0.94088134765625,7.687203979492188,1712519172752.0
5.376999999999953,-6.953878784179688,1.3989105224609375,6.581234741210938,1712519172763.0
5.3870000000000005,-6.315060424804688,0.6102569580078125,7.531536865234376,1712519172773.0
5.396999999999991,-6.309527587890625,-0.15611572265625,6.8610168457031255,1712519172783.0
5.406999999999982,-6.529794311523438,-0.5206848144531251,7.627239990234376,1712519172793.0
5.416999999999973,-7.486526489257813,-0.4245330810546875,7.178631591796876,1712519172803.0
5.426999999999964,-6.453381347656251,-0.5851348876953125,5.873779296875,1712519172813.0
5.436999999999955,-6.901690673828125,-0.774298095703125,6.564935302734376,1712519172823.0
5.446999999999946,-6.563888549804688,-0.3862518310546875,7.428805541992188,1712519172833.0
5.456999999999994,-6.731668090820313,0.2008270263671875,8.169458007812501,1712519172843.0
5.4669999999999845,-6.1242523193359375,0.6465942382812501,7.272689819335938,1712519172853.0
5.476999999999975,-6.396557617187501,0.5929107666015625,6.483737182617188,1712519172863.0
5.486999999999966,-6.864306640625,0.4311126708984375,7.217959594726563,1712519172873.0
5.4979999999999905,-7.177435302734375,0.46416015625,6.936981201171876,1712519172884.0
5.507999999999981,-7.880703735351563,0.269464111328125,6.107205200195313,1712519172894.0
5.517999999999972,-6.600524902343751,0.2954833984375,5.358926391601563,1712519172904.0
5.527999999999963,-6.68187255859375,-0.0602630615234375,6.9911132812500005,1712519172914.0
5.537999999999954,-6.195880126953125,-0.47672119140625,8.818743896484376,1712519172924.0
5.548000000000002,-6.249713134765625,-0.430364990234375,7.929153442382813,1712519172934.0
5.557999999999993,-6.2509094238281255,-0.2914459228515625,7.374374389648438,1712519172944.0
5.567999999999984,-6.440670776367188,0.116937255859375,5.7713470458984375,1712519172954.0
5.5779999999999745,-7.454226684570313,-0.002691650390625,6.635665893554688,1712519172964.0
5.587999999999965,-7.6933349609375,0.1849761962890625,6.507662963867188,1712519172974.0
5.597999999999956,-6.359622192382813,1.1126983642578123,6.537121582031251,1712519172984.0
5.607999999999947,-7.254595947265625,1.060061645507813,7.467086791992188,1712519172994.0
5.617999999999995,-6.512298583984376,0.026019287109375,7.876516723632813,1712519173004.0
5.627999999999986,-5.285504150390626,-0.99052734375,6.917541503906251,1712519173014.0
5.637999999999977,-6.4276611328125,-0.8396453857421876,7.875619506835938,1712519173024.0
5.647999999999975,-7.3933654785156255,-0.487786865234375,7.307681274414063,1712519173034.0
5.657999999999966,-7.135415649414063,-0.39656982421875,6.421380615234376,1712519173044.0
5.668999999999983,-6.889877319335938,-0.6434539794921875,6.203805541992188,1712519173055.0
5.678999999999974,-6.789837646484376,-0.1730133056640625,6.461007690429688,1712519173065.0
5.6889999999999645,-6.254946899414063,0.8548980712890626,8.175588989257813,1712519173075.0
5.698999999999955,-6.842324829101563,1.2113922119140623,7.220352172851563,1712519173085.0
5.708999999999946,-6.327023315429688,0.787457275390625,7.676437377929688,1712519173095.0
5.718999999999994,-6.332107543945313,0.12381591796875,6.217712402343751,1712519173105.0
5.728999999999985,-6.88883056640625,-0.2833709716796875,7.505517578125,1712519173115.0
5.738999999999976,-7.514340209960938,-0.5685363769531251,6.859820556640625,1712519173125.0
5.748999999999967,-6.255096435546876,-0.7988220214843751,6.357678222656251,1712519173135.0
5.758999999999958,-6.771444702148438,-0.7657745361328125,6.567776489257813,1712519173145.0
5.768999999999949,-6.94864501953125,-0.1215728759765625,7.305288696289063,1712519173155.0
5.778999999999996,-6.749014282226563,0.7008758544921876,7.629333496093751,1712519173165.0
5.788999999999987,-6.4647460937500005,0.9485076904296876,6.405679321289063,1712519173175.0
5.7999999999999545,-6.598580932617188,0.93489990234375,7.133770751953126,1712519173186.0
5.810000000000002,-6.541458129882813,0.6237152099609375,7.139453125,1712519173196.0
5.819999999999993,-7.135714721679688,0.1410125732421875,7.520022583007813,1712519173206.0
5.829999999999984,-6.970776367187501,-0.27694091796875,6.324630737304688,1712519173216.0
5.839999999999975,-6.660189819335938,-0.6059204101562501,6.008062744140625,1712519173226.0
5.849999999999966,-6.874923706054688,-0.8091400146484375,7.303793334960938,1712519173236.0
5.859999999999957,-6.3884826660156255,-0.6238647460937501,7.738943481445313,1712519173246.0
5.869999999999941,-6.556561279296876,-0.2603424072265625,7.789486694335938,1712519173256.0
5.8799999999999955,-6.181524658203125,0.2890533447265625,6.854138183593751,1712519173266.0
5.889999999999986,-6.575552368164063,0.6856231689453125,6.763668823242188,1712519173276.0
5.902999999999963,-6.853240966796876,0.6293975830078126,6.874325561523438,1712519173289.0
5.909999999999975,-7.662530517578125,0.7793823242187501,6.193637084960938,1712519173296.0
5.919999999999966,-6.636114501953125,0.9168060302734377,6.601123046875,1712519173306.0
5.92999999999995,-7.511199951171876,0.5431152343750001,6.775332641601563,1712519173316.0
5.939999999999991,-6.655853271484376,-0.5034881591796876,7.945452880859375,1712519173326.0
5.949999999999989,-5.490667724609375,-1.15860595703125,6.893914794921876,1712519173336.0
5.9599999999999795,-6.142495727539063,-1.2164764404296875,8.040109252929689,1712519173346.0
5.970999999999947,-6.699218750000001,-0.5710784912109376,7.457366943359376,1712519173357.0
5.9809999999999945,-7.488769531250001,-0.1395172119140625,7.203155517578126,1712519173367.0
5.9909999999999854,-6.67947998046875,-0.071478271484375,6.344219970703126,1712519173377.0
6.002999999999986,-6.674545288085938,0.155517578125,5.673849487304688,1712519173389.0
6.010999999999967,-6.870736694335938,0.7943359375000001,7.852142333984376,1712519173397.0
6.020999999999958,-7.21182861328125,1.3688537597656252,6.8044921875,1712519173407.0
6.030999999999949,-6.20335693359375,0.9948638916015624,7.846609497070313,1712519173417.0
6.040999999999997,-6.395211791992188,0.1266571044921875,5.928659057617188,1712519173427.0
6.050999999999988,-6.380706787109376,-0.42886962890625,7.913452148437501,1712519173437.0
6.060999999999979,-7.545144653320313,-0.49287109375,7.107901000976563,1712519173447.0
6.071999999999946,-6.750808715820313,-0.671417236328125,6.723892211914063,1712519173458.0
6.0809999999999675,-6.599777221679688,-0.7735504150390625,5.753552246093751,1712519173467.0
6.090999999999951,-6.614132690429688,-0.5896209716796875,7.271194458007813,1712519173477.0
6.102999999999952,-6.683517456054688,0.0127105712890625,8.530139160156251,1712519173489.0
6.111999999999966,-6.262423706054688,0.5401245117187501,7.286447143554688,1712519173498.0
6.121999999999957,-6.4363342285156255,0.6000885009765625,7.028198242187501,1712519173508.0
6.131999999999941,-6.339434814453125,0.6148925781250001,6.226535034179688,1712519173518.0
6.141999999999996,-7.612734985351563,0.45458984375,7.566677856445313,1712519173528.0
6.151999999999987,-7.344467163085938,0.42528076171875,6.139953613281251,1712519173538.0
6.161999999999971,-7.314111328125,0.29368896484375,5.5006866455078125,1712519173548.0
6.171999999999976,-6.4557739257812505,0.0322998046875,6.548037719726563,1712519173558.0
6.181999999999967,-6.303546142578125,-0.28172607421875,7.902386474609376,1712519173568.0
6.19199999999995,-6.531887817382813,-0.6065185546875,8.905175781250001,1712519173578.0
6.201999999999991,-5.865853881835938,-0.2906982421875,7.146481323242188,1712519173588.0
6.211999999999989,-6.5081115722656255,-0.1870697021484375,6.619216918945313,1712519173598.0
6.22199999999998,-6.7697998046875005,-0.0560760498046875,6.23924560546875,1712519173608.0
6.231999999999971,-8.174093627929688,0.0785064697265625,6.476559448242188,1712519173618.0
6.241999999999962,-6.832455444335938,0.804205322265625,6.549682617187501,1712519173628.0
6.252999999999986,-6.584973144531251,1.3992095947265626,6.877166748046876,1712519173639.0
6.262999999999977,-7.330111694335938,0.357391357421875,7.952331542968751,1712519173649.0
6.272999999999975,-5.262625122070313,-0.6201263427734376,7.351046752929688,1712519173659.0
6.282999999999966,-5.978604125976563,-0.908880615234375,7.687203979492188,1712519173669.0
6.2929999999999495,-7.045245361328125,-0.6361267089843751,7.503125000000001,1712519173679.0
6.302999999999997,-7.271942138671876,-0.3452789306640625,6.501980590820313,1712519173689.0
6.312999999999988,-7.232763671875,-0.670819091796875,6.442764282226563,1712519173699.0
6.322999999999979,-6.581533813476563,-0.316119384765625,6.106457519531251,1712519173709.0
6.332999999999977,-6.624151611328125,0.3838592529296875,7.549630737304688,1712519173719.0
6.342999999999961,-6.407623291015626,1.2133361816406252,7.474563598632813,1712519173729.0
6.352999999999952,-6.49046630859375,1.089968872070313,8.021566772460938,1712519173739.0
6.3629999999999995,-6.442913818359376,0.3898406982421875,6.614431762695313,1712519173749.0
6.3729999999999905,-6.44261474609375,-0.143853759765625,7.093545532226563,1712519173759.0
6.382999999999981,-7.569818115234375,-0.5698822021484375,6.653460693359375,1712519173769.0
6.393999999999949,-6.773538208007813,-0.72315673828125,6.900045776367188,1712519173780.0
6.403999999999996,-6.4826904296875005,-0.82783203125,6.088513183593751,1712519173790.0
6.413999999999987,-7.0942932128906255,-0.432159423828125,7.49833984375,1712519173800.0
6.423999999999971,-6.478952026367188,0.442327880859375,7.3224853515625,1712519173810.0
6.433999999999976,-6.665573120117188,0.9425262451171876,6.808529663085938,1712519173820.0
6.443999999999967,-6.517233276367188,0.9906768798828126,7.29556884765625,1712519173830.0
6.453999999999951,-6.37681884765625,0.781475830078125,6.556112670898438,1712519173840.0
6.463999999999999,-7.08262939453125,0.160302734375,8.080783081054689,1712519173850.0
6.4739999999999895,-6.763668823242188,-0.10108642578125,5.9892211914062505,1712519173860.0
6.4839999999999804,-7.465890502929688,-0.5169464111328126,6.606506347656251,1712519173870.0
6.493999999999971,-6.433941650390626,-0.6192291259765625,6.277377319335938,1712519173880.0
6.503999999999962,-6.618170166015625,-0.7280914306640626,7.730718994140625,1712519173890.0
6.513999999999953,-6.301751708984376,-0.5673400878906251,8.151812744140626,1712519173900.0
6.524999999999977,-6.240591430664063,0.2594451904296875,7.054217529296875,1712519173911.0
6.533999999999992,-6.994851684570313,0.6074157714843751,7.1062561035156255,1712519173920.0
6.544999999999966,-6.405679321289063,0.8097381591796876,6.227880859375,1712519173931.0
6.555999999999983,-6.799407958984376,0.360980224609375,6.898550415039063,1712519173942.0
6.564999999999991,-7.81834716796875,0.4390380859375,6.337789916992188,1712519173951.0
6.574999999999989,-6.567477416992188,0.8910858154296876,6.648376464843751,1712519173961.0
6.5849999999999795,-7.611538696289063,0.2857635498046875,7.075601196289063,1712519173971.0
6.5949999999999775,-6.072811889648438,-0.6750061035156251,7.472769165039063,1712519173981.0
6.604999999999961,-5.549734497070313,-1.287356567382813,7.417889404296876,1712519173991.0
6.614999999999952,-6.445904541015626,-0.9411804199218752,8.358023071289063,1712519174001.0
6.625,-6.749014282226563,-0.1160400390625,6.916345214843751,1712519174011.0
6.634999999999991,-7.6000244140625,-0.0318511962890625,6.780865478515626,1712519174021.0
6.644999999999982,-6.376669311523438,0.061309814453125,6.180178833007813,1712519174031.0
6.654999999999973,-7.1286865234375005,0.0874786376953125,6.433343505859376,1712519174041.0
6.664999999999964,-6.590206909179688,0.8175140380859376,7.917938232421876,1712519174051.0
6.6749999999999545,-7.060647583007813,1.13228759765625,6.455923461914063,1712519174061.0
6.685000000000002,-6.250161743164063,0.699530029296875,7.478451538085938,1712519174071.0
6.695999999999977,-6.47611083984375,0.0034393310546875,6.64957275390625,1712519174082.0
6.7059999999999675,-6.632675170898438,-0.4502532958984375,7.773934936523438,1712519174092.0
6.715999999999951,-7.279269409179688,-0.4242340087890625,7.07066650390625,1712519174102.0
6.725999999999999,-6.502279663085938,-0.5550781250000001,6.0639892578125005,1712519174112.0
6.73599999999999,-6.7865478515625,-0.58319091796875,6.605310058593751,1712519174122.0
6.745999999999981,-6.717611694335938,-0.438739013671875,7.326373291015625,1712519174132.0
6.755999999999972,-6.663180541992188,0.0309539794921875,8.175738525390626,1712519174142.0
6.765999999999963,-6.0388671875,0.42886962890625,7.1705566406250005,1712519174152.0
6.775999999999954,-6.551626586914063,0.4556365966796875,6.730770874023438,1712519174162.0
6.786000000000001,-6.725088500976563,0.4496551513671875,7.071563720703126,1712519174172.0
6.795999999999992,-7.171154785156251,0.456982421875,6.977355957031251,1712519174182.0
6.805999999999983,-7.553219604492188,0.3617279052734375,6.474465942382813,1712519174192.0
6.815999999999974,-6.858773803710938,0.3751861572265625,5.220156860351563,1712519174202.0
6.826999999999991,-6.961056518554688,0.1296478271484375,6.944009399414063,1712519174213.0
6.836999999999989,-6.321490478515625,-0.1320404052734375,7.892367553710938,1712519174223.0
6.84699999999998,-6.201263427734376,-0.3976165771484375,8.446099853515626,1712519174233.0
6.856999999999971,-5.9937072753906255,-0.5299560546875001,7.4636474609375005,1712519174243.0
6.866999999999962,-6.376071166992188,-0.259295654296875,6.497943115234375,1712519174253.0
6.876999999999953,-7.230670166015625,-0.158209228515625,6.757089233398438,1712519174263.0
6.8870000000000005,-7.859469604492188,0.0734222412109375,5.8749755859375,1712519174273.0
6.896999999999991,-6.618917846679688,0.739605712890625,6.507513427734375,1712519174283.0
6.906999999999982,-6.7339111328125005,1.1592041015625,7.094891357421876,1712519174293.0
6.916999999999973,-7.186108398437501,0.4963104248046875,8.364303588867188,1712519174303.0
6.926999999999964,-5.506069946289063,-0.4463653564453125,7.314111328125,1712519174313.0
6.936999999999955,-5.781216430664063,-0.6637908935546876,6.978701782226563,1712519174323.0
6.946999999999946,-7.322784423828126,-0.6406127929687501,7.410263061523438,1712519174333.0
6.956999999999994,-7.482788085937501,-0.4071868896484375,6.717910766601563,1712519174343.0
6.9669999999999845,-6.987075805664063,-0.628948974609375,6.756790161132813,1712519174353.0
6.976999999999975,-6.5006347656250005,-0.455487060546875,5.728280639648438,1712519174363.0
6.9879999999999995,-6.369342041015625,0.3768310546875,7.834048461914063,1712519174374.0
6.9979999999999905,-6.70938720703125,1.0442108154296876,7.697222900390625,1712519174384.0
7.007999999999981,-6.509457397460938,1.0204345703125002,8.124746704101563,1712519174394.0
7.017999999999972,-6.308181762695313,0.381915283203125,6.157000732421875,1712519174404.0
7.027999999999963,-6.620413208007813,-0.135479736328125,6.711630249023438,1712519174414.0
7.037999999999954,-7.416244506835938,-0.42647705078125,7.245175170898438,1712519174424.0
7.048000000000002,-7.134518432617188,-0.6377716064453125,6.743481445312501,1712519174434.0
7.057999999999993,-6.420483398437501,-0.6431549072265625,6.200665283203126,1712519174444.0
7.067999999999984,-6.722546386718751,-0.2630340576171875,6.695181274414063,1712519174454.0
7.0779999999999745,-6.837838745117188,0.4498046875,8.113381958007814,1712519174464.0
7.087999999999965,-6.371136474609376,0.8208038330078126,7.171005249023438,1712519174474.0
7.097999999999956,-6.68546142578125,0.7786346435546876,7.098928833007813,1712519174484.0
7.107999999999947,-6.152066040039063,0.6249114990234376,6.443960571289063,1712519174494.0
7.118999999999971,-7.264315795898438,0.13697509765625,7.440768432617188,1712519174505.0
7.128999999999962,-7.107302856445313,-0.2615386962890625,6.996945190429688,1712519174515.0
7.138999999999953,-6.943411254882813,-0.4744781494140625,5.9850341796875,1712519174525.0
7.149000000000001,-6.551327514648438,-0.6515289306640626,6.8849426269531255,1712519174535.0
7.158999999999992,-6.290835571289063,-0.4978057861328125,7.323980712890625,1712519174545.0
7.168999999999983,-6.698471069335938,-0.3696533203125,8.401388549804688,1712519174555.0
7.178999999999974,-6.4049316406250005,0.299969482421875,6.941766357421876,1712519174565.0
7.1889999999999645,-6.648077392578125,0.7101470947265626,6.62564697265625,1712519174575.0
7.198999999999955,-6.764566040039063,0.557171630859375,6.629385375976563,1712519174585.0
7.208999999999946,-6.6830688476562505,0.45458984375,6.491213989257813,1712519174595.0
7.218999999999994,-7.9945007324218755,0.3988128662109375,6.844268798828126,1712519174605.0
7.228999999999985,-6.4318481445312505,0.8839080810546875,6.108551025390625,1712519174615.0
7.238999999999976,-7.332653808593751,0.2189208984375,7.689447021484375,1712519174625.0
7.248999999999967,-6.1166259765625,-0.9076843261718752,7.462750244140626,1712519174635.0
7.258999999999958,-5.511453247070313,-1.1988311767578126,7.621109008789063,1712519174645.0
7.269999999999982,-6.691891479492188,-0.9257781982421877,7.897451782226563,1712519174656.0
7.279999999999973,-6.678134155273438,0.1006378173828125,6.609048461914063,1712519174666.0
7.289999999999964,-7.78544921875,-0.0360382080078125,7.066778564453125,1712519174676.0
7.301999999999964,-6.250012207031251,0.02392578125,6.106906127929688,1712519174688.0
7.310000000000002,-6.927261352539063,0.1954437255859375,6.699218750000001,1712519174696.0
7.319999999999993,-6.783407592773438,0.8631225585937501,7.480844116210938,1712519174706.0
7.329999999999984,-6.7961181640625,1.2293365478515623,6.983337402343751,1712519174716.0
7.339999999999975,-6.4635498046875,0.413616943359375,7.286746215820313,1712519174726.0
7.349999999999966,-6.373379516601563,-0.2361175537109375,6.961505126953125,1712519174736.0
7.359999999999957,-6.6157775878906255,-0.5031890869140625,7.290783691406251,1712519174746.0
7.369999999999941,-7.506115722656251,-0.3757843017578125,7.010702514648438,1712519174756.0
7.3799999999999955,-6.521270751953126,-0.428570556640625,6.1312805175781255,1712519174766.0
7.389999999999986,-6.786099243164063,-0.5313018798828125,6.4791015625,1712519174776.0
7.401999999999987,-6.538168334960938,-0.262884521484375,7.796813964843751,1712519174788.0
7.411000000000001,-6.573458862304688,0.2633331298828125,7.807281494140626,1712519174797.0
7.420999999999992,-6.244778442382813,0.4933197021484375,7.520620727539063,1712519174807.0
7.430999999999983,-6.341677856445313,0.4101776123046875,6.401641845703126,1712519174817.0
7.440999999999974,-7.034329223632813,0.232379150390625,7.179080200195313,1712519174827.0
7.450999999999965,-7.070965576171876,0.3049041748046875,6.842324829101563,1712519174837.0
7.460999999999956,-7.686157226562501,0.2667724609375,5.992361450195313,1712519174847.0
7.470999999999947,-6.964196777343751,0.311932373046875,5.794076538085938,1712519174857.0
7.4809999999999945,-6.4079223632812505,0.2310333251953125,6.794473266601563,1712519174867.0
7.4909999999999854,-6.3570800781250005,-0.2746978759765625,8.817697143554689,1712519174877.0
7.501999999999953,-6.014193725585938,-0.3381011962890625,7.897900390625001,1712519174888.0
7.510999999999967,-6.394912719726563,-0.307147216796875,7.447348022460938,1712519174897.0
7.520999999999958,-6.610842895507813,-0.04725341796875,5.839834594726563,1712519174907.0
7.530999999999949,-7.238894653320313,-0.0530853271484375,6.473867797851563,1712519174917.0
7.540999999999997,-7.799206542968751,-0.0883758544921875,6.574655151367188,1712519174927.0
7.551999999999964,-6.3346496582031255,0.861029052734375,6.428408813476563,1712519174938.0
7.560999999999979,-7.130331420898438,0.9428253173828126,7.806234741210938,1712519174947.0
7.571999999999946,-6.597384643554688,0.2047149658203125,7.744625854492188,1712519174958.0
7.581999999999994,-5.261578369140626,-0.7031188964843751,7.033282470703125,1712519174968.0
7.5919999999999845,-6.538467407226563,-0.7221099853515626,7.455871582031251,1712519174978.0
7.601999999999975,-7.153359985351563,-0.2322296142578125,7.523461914062499,1712519174988.0
7.611999999999966,-7.414599609375,-0.209051513671875,6.383847045898438,1712519174998.0
7.621999999999957,-6.69383544921875,-0.535040283203125,6.365155029296876,1712519175008.0
7.631999999999941,-6.7339111328125005,-0.337353515625,6.181823730468751,1712519175018.0
7.641999999999996,-6.504223632812501,0.528759765625,8.205645751953126,1712519175028.0
7.651999999999987,-6.629684448242188,1.0965484619140626,7.21422119140625,1712519175038.0
7.661999999999971,-6.3558837890625,0.702520751953125,7.706942749023438,1712519175048.0
7.671999999999976,-6.372781372070313,0.0657958984375,6.5209716796875,1712519175058.0
7.681999999999967,-6.736453247070313,-0.3337646484375,7.2387451171875,1712519175068.0
7.69199999999995,-7.527349853515625,-0.41690673828125,7.007263183593751,1712519175078.0
7.7029999999999745,-6.42227783203125,-0.5848358154296875,6.319097900390625,1712519175089.0
7.712999999999965,-6.800006103515625,-0.6151916503906251,6.465792846679688,1712519175099.0
7.722999999999956,-6.815557861328125,-0.0832916259765625,7.307382202148438,1712519175109.0
7.732999999999947,-6.781314086914063,0.6766510009765625,7.614828491210938,1712519175119.0
7.742999999999995,-6.510205078125001,0.8943756103515625,6.837838745117188,1712519175129.0
7.752999999999986,-6.473568725585938,0.8448791503906251,6.637310791015626,1712519175139.0
7.762999999999977,-6.715817260742188,0.477618408203125,7.242184448242188,1712519175149.0
7.772999999999975,-6.890774536132813,0.0551788330078125,7.44151611328125,1712519175159.0
7.782999999999966,-7.054815673828125,-0.342437744140625,6.586019897460938,1712519175169.0
7.7929999999999495,-6.737051391601563,-0.6042755126953125,6.143392944335938,1712519175179.0
7.802999999999997,-6.750808715820313,-0.6044250488281251,6.910513305664063,1712519175189.0
7.812999999999988,-6.5604492187500005,-0.5763122558593751,7.99599609375,1712519175199.0
7.822999999999979,-6.226684570312501,-0.232379150390625,7.641595458984375,1712519175209.0
7.832999999999977,-6.529794311523438,0.2552581787109375,7.081433105468751,1712519175219.0
7.842999999999961,-6.754098510742188,0.8019622802734375,6.573608398437501,1712519175229.0
7.853999999999985,-7.151266479492188,0.6990814208984375,6.862811279296875,1712519175240.0
7.863999999999976,-6.345266723632813,0.3961212158203125,6.580337524414063,1712519175250.0
7.873999999999967,-7.362112426757813,0.299371337890625,6.197225952148438,1712519175260.0
7.883999999999958,-6.84097900390625,0.511114501953125,7.083975219726563,1712519175270.0
7.893999999999949,-7.092498779296876,0.5227783203125,6.75125732421875,1712519175280.0
7.903999999999996,-7.138854980468751,-0.5746673583984375,8.333499145507814,1712519175290.0
7.913999999999987,-5.424572753906251,-1.125857543945313,6.474615478515625,1712519175300.0
7.923999999999971,-6.132177734375,-1.056622314453125,7.648175048828126,1712519175310.0
7.933999999999976,-6.697125244140626,-0.3796722412109375,7.700363159179688,1712519175320.0
7.943999999999967,-7.382598876953126,0.2654266357421875,6.907223510742188,1712519175330.0
7.953999999999951,-7.075451660156251,0.2148834228515625,6.9061767578125,1712519175340.0
7.963999999999999,-6.029446411132813,0.332568359375,5.58427734375,1712519175350.0
7.9739999999999895,-7.169061279296876,0.3108856201171875,7.906274414062499,1712519175360.0
7.9839999999999804,-6.851446533203125,0.8354583740234376,6.828268432617188,1712519175370.0
7.993999999999971,-6.640151977539063,0.7318298339843751,7.680026245117188,1712519175380.0
8.004999999999995,-6.628488159179688,0.10706787109375,5.7738891601562505,1712519175391.0
8.014999999999986,-6.23984375,-0.33017578125,7.663128662109376,1712519175401.0
8.024999999999977,-7.310073852539063,-0.47432861328125,7.492208862304688,1712519175411.0
8.034999999999975,-6.638058471679688,-0.3348114013671875,7.239044189453126,1712519175421.0
8.044999999999966,-6.489270019531251,-0.3751861572265625,5.822189331054688,1712519175431.0
8.05499999999995,-6.713424682617188,-0.303857421875,7.037619018554688,1712519175441.0
8.06499999999999,-6.877166748046876,-0.0285614013671875,7.953378295898438,1712519175451.0
8.074999999999989,-6.475213623046876,0.2752960205078125,7.238595581054688,1712519175461.0
8.08499999999998,-6.505868530273438,0.33197021484375,7.110443115234376,1712519175471.0
8.094999999999978,-6.309677124023438,0.3349609375,6.309527587890625,1712519175481.0
8.104999999999961,-7.195230102539063,0.2349212646484375,7.754196166992188,1712519175491.0
8.117999999999995,-7.124649047851563,0.3207550048828125,6.450839233398438,1712519175504.0
8.125,-7.361065673828126,0.3186614990234375,6.235806274414063,1712519175511.0
8.135999999999967,-6.570169067382813,0.2537628173828125,5.958865356445313,1712519175522.0
8.145999999999958,-6.555364990234375,0.0811981201171875,7.35,1712519175532.0
8.155999999999949,-6.537121582031251,-0.317913818359375,8.740835571289063,1712519175542.0
8.165999999999997,-6.05980224609375,-0.3061004638671875,7.283157348632813,1712519175552.0
8.175999999999988,-6.431399536132813,-0.317913818359375,6.989468383789063,1712519175562.0
8.185999999999979,-6.580935668945313,-0.0973480224609375,6.1048126220703125,1712519175572.0
8.195999999999977,-7.933489990234375,-0.05921630859375,6.716864013671875,1712519175582.0
8.205999999999968,-6.899447631835938,0.38221435546875,6.641647338867188,1712519175592.0
8.217999999999961,-6.408071899414063,1.0618560791015623,6.537869262695313,1712519175604.0
8.225999999999999,-7.374673461914063,0.5275634765625,8.078240966796876,1712519175612.0
8.23599999999999,-5.8202453613281255,-0.171368408203125,7.592098999023438,1712519175622.0
8.245999999999981,-5.7858520507812505,-0.6572113037109375,7.050628662109376,1712519175632.0
8.255999999999972,-7.033731079101563,-0.5275634765625,7.192239379882813,1712519175642.0
8.265999999999963,-7.103863525390626,-0.2356689453125,6.969430541992188,1712519175652.0
8.275999999999954,-7.328018188476563,-0.475225830078125,6.962402343750001,1712519175662.0
8.286000000000001,-6.4037353515625,-0.4687957763671875,6.088064575195313,1712519175672.0
8.296999999999976,-6.663778686523438,-0.0079254150390625,7.043151855468751,1712519175683.0
8.306999999999967,-6.498541259765625,0.8703002929687501,7.680325317382813,1712519175693.0
8.317999999999984,-6.7040039062500005,0.990826416015625,7.816104125976563,1712519175704.0
8.326999999999991,-6.47252197265625,0.413616943359375,6.873876953125,1712519175713.0
8.336999999999989,-6.252255249023438,-0.0788055419921875,6.69981689453125,1712519175723.0
8.34699999999998,-7.211529541015626,-0.3793731689453125,7.106704711914063,1712519175733.0
8.356999999999971,-7.230520629882813,-0.3844573974609375,6.887933349609376,1712519175743.0
8.366999999999962,-6.630731201171876,-0.5585174560546875,6.1776367187500005,1712519175753.0
8.376999999999953,-6.813015747070313,-0.353802490234375,6.616525268554688,1712519175763.0
8.387,-6.6083007812500005,0.3066986083984375,7.516732788085938,1712519175773.0
8.396999999999991,-6.670956420898438,0.725250244140625,7.619314575195313,1712519175783.0
8.406999999999982,-6.410614013671876,0.6794921875000001,7.266409301757813,1712519175793.0
8.41799999999995,-6.169412231445313,0.4786651611328125,6.527700805664063,1712519175804.0
8.426999999999964,-7.0377685546875,0.102880859375,7.58028564453125,1712519175813.0
8.437999999999988,-7.1454345703125,-0.09031982421875,6.509906005859375,1712519175824.0
8.447999999999979,-7.362860107421875,-0.33316650390625,6.46055908203125,1712519175834.0
8.457999999999977,-6.44560546875,-0.4164581298828125,6.18302001953125,1712519175844.0
8.467999999999961,-6.505120849609376,-0.4149627685546875,7.529293823242188,1712519175854.0
8.477999999999952,-6.358276367187501,-0.3446807861328125,8.379257202148438,1712519175864.0
8.488,-6.447998046875001,0.1939483642578125,7.143191528320313,1712519175874.0
8.49799999999999,-6.739593505859376,0.5579193115234375,6.887933349609376,1712519175884.0
8.507999999999981,-6.590805053710938,0.6551177978515625,6.050381469726563,1712519175894.0
8.517999999999972,-6.854437255859375,0.232977294921875,7.102517700195313,1712519175904.0
8.527999999999963,-7.655651855468751,0.1999298095703125,6.60411376953125,1712519175914.0
8.537999999999954,-6.683517456054688,0.66334228515625,6.624151611328125,1712519175924.0
8.548000000000002,-7.471722412109376,0.2851654052734375,7.044049072265626,1712519175934.0
8.557999999999993,-5.743832397460938,-0.5419189453125001,7.287792968750001,1712519175944.0
8.567999999999984,-5.944061279296875,-1.1490356445312502,7.6834655761718755,1712519175954.0
8.577999999999975,-6.548336791992188,-0.7155303955078125,8.239141845703125,1712519175964.0
8.588999999999999,-6.882998657226563,0.2068084716796875,6.674993896484375,1712519175975.0
8.59899999999999,-7.421627807617188,0.0279632568359375,6.731219482421875,1712519175985.0
8.60899999999998,-6.1167755126953125,-0.1830322265625,5.988772583007813,1712519175995.0
8.618999999999971,-7.3105224609375,-0.1568634033203125,7.074703979492188,1712519176005.0
8.628999999999962,-6.725238037109375,0.9009552001953126,7.628735351562501,1712519176015.0
8.638999999999953,-6.897952270507813,1.173260498046875,6.566879272460938,1712519176025.0
8.649000000000001,-6.08671875,0.4007568359375,7.062142944335938,1712519176035.0
8.658999999999992,-6.366650390625001,-0.2657257080078125,7.177734375000001,1712519176045.0
8.669999999999966,-7.045993041992188,-0.3122314453125,8.039361572265626,1712519176056.0
8.678999999999974,-7.066180419921875,-0.0503936767578125,6.56822509765625,1712519176065.0
8.688999999999965,-6.701013183593751,-0.342138671875,5.402740478515625,1712519176075.0
8.698999999999955,-6.708041381835938,-0.5341430664062501,6.960009765625,1712519176085.0
8.708999999999946,-6.777426147460938,-0.32060546875,7.849749755859375,1712519176095.0
8.719999999999978,-6.596936035156251,0.11663818359375,8.332601928710938,1712519176106.0
8.729999999999961,-6.000735473632813,0.4670013427734375,6.338986206054688,1712519176116.0
8.739999999999952,-6.525906372070313,0.237762451171875,6.921878051757813,1712519176126.0
8.75,-6.775482177734376,0.225799560546875,7.309326171875001,1712519176136.0
8.759999999999991,-7.394412231445313,0.221612548828125,7.201809692382813,1712519176146.0
8.769999999999982,-7.278820800781251,0.2739501953125,6.018978881835938,1712519176156.0
8.779999999999973,-6.771743774414063,0.4191497802734375,5.2576904296875,1712519176166.0
8.789999999999964,-6.803594970703125,0.1327880859375,7.490863037109375,1712519176176.0
8.799999999999955,-6.256442260742188,-0.12979736328125,8.293124389648439,1712519176186.0
8.810000000000002,-6.328070068359375,-0.3479705810546875,8.088708496093751,1712519176196.0
8.819999999999993,-6.133523559570313,-0.0937591552734375,6.469680786132813,1712519176206.0
8.829999999999984,-6.608749389648438,0.229388427734375,6.283508300781251,1712519176216.0
8.839999999999975,-7.93199462890625,-0.104376220703125,6.630880737304688,1712519176226.0
8.849999999999966,-6.572113037109376,0.1451995849609375,7.169659423828126,1712519176236.0
8.859999999999957,-6.776080322265625,0.5007965087890626,7.052871704101563,1712519176246.0
8.870999999999981,-7.4744140625,0.2908477783203125,7.314709472656251,1712519176257.0
8.880999999999972,-5.516238403320313,-0.42767333984375,6.758584594726563,1712519176267.0
8.890999999999963,-6.108251953125,-0.6557159423828125,7.338635253906251,1712519176277.0
8.900999999999954,-7.041656494140626,-0.271856689453125,8.152261352539064,1712519176287.0
8.911000000000001,-7.050628662109376,0.2412017822265625,6.722845458984375,1712519176297.0
8.920999999999992,-6.715069580078126,-0.0100189208984375,6.732565307617188,1712519176307.0
8.930999999999983,-6.726434326171876,-0.379522705078125,5.729626464843751,1712519176317.0
8.940999999999974,-6.938327026367188,0.0079254150390625,7.75255126953125,1712519176327.0
8.950999999999965,-6.652114868164063,0.7562042236328126,7.229473876953126,1712519176337.0
8.960999999999956,-6.678433227539063,0.6639404296875,7.535873413085938,1712519176347.0
8.970999999999947,-6.1477294921875005,0.02093505859375,6.458316040039063,1712519176357.0
8.980999999999995,-6.413455200195313,-0.38759765625,7.457366943359376,1712519176367.0
8.990999999999985,-7.405926513671876,-0.282025146484375,7.641445922851563,1712519176377.0
9.000999999999976,-6.662432861328125,-0.180340576171875,6.5978332519531255,1712519176387.0
9.010999999999967,-6.560748291015625,-0.454290771484375,5.873480224609375,1712519176397.0
9.021999999999991,-6.748117065429688,-0.2340240478515625,7.052273559570313,1712519176408.0
9.031999999999982,-7.2258850097656255,0.469842529296875,7.754345703125001,1712519176418.0
9.041999999999973,-6.64000244140625,0.8649169921875001,6.907672119140625,1712519176428.0
9.051999999999964,-6.470578002929688,0.8003173828125001,6.192739868164063,1712519176438.0
9.061999999999955,-6.43663330078125,0.4514495849609375,7.053170776367188,1712519176448.0
9.071999999999946,-6.909765625,0.087030029296875,7.901937866210938,1712519176458.0
9.081999999999994,-7.103564453125,-0.2208648681640625,7.229922485351563,1712519176468.0
9.091999999999985,-6.605609130859375,-0.485394287109375,6.099728393554688,1712519176478.0
9.101999999999975,-6.420184326171875,-0.6410614013671876,6.311770629882813,1712519176488.0
9.111999999999966,-6.8200439453125,-0.7364654541015625,8.125494384765625,1712519176498.0
9.121999999999957,-6.655105590820313,-0.252117919921875,7.539312744140625,1712519176508.0
9.131999999999941,-6.590206909179688,0.3084930419921875,7.134518432617188,1712519176518.0
9.141999999999996,-6.487924194335938,0.8067474365234376,6.07176513671875,1712519176528.0
9.151999999999987,-6.689797973632813,0.6839782714843751,7.112985229492188,1712519176538.0
9.16199999999997,-6.704452514648438,0.3949249267578125,7.188351440429688,1712519176548.0
9.173000000000002,-7.609146118164063,0.5384796142578125,6.35947265625,1712519176559.0
9.182999999999993,-6.511700439453126,0.8034576416015625,6.0759521484375005,1712519176569.0
9.192999999999984,-7.271194458007813,0.3363067626953125,7.21123046875,1712519176579.0
9.202999999999975,-6.945803833007813,-0.9108245849609377,8.281909179687501,1712519176589.0
9.212999999999965,-5.3844970703125,-1.3458251953125,7.035076904296876,1712519176599.0
9.222999999999956,-6.2509094238281255,-0.9796112060546877,7.352691650390626,1712519176609.0
9.232999999999947,-6.6232543945312505,-0.18482666015625,7.226034545898438,1712519176619.0
9.242999999999995,-7.711129760742188,0.1502838134765625,7.512844848632813,1712519176629.0
9.252999999999986,-6.696676635742188,0.0444122314453125,6.653759765625001,1712519176639.0
9.262999999999977,-6.325827026367188,0.3470733642578125,5.528500366210938,1712519176649.0
9.272999999999975,-6.945355224609376,0.7663726806640626,7.790533447265625,1712519176659.0
9.282999999999966,-7.168911743164063,1.1759521484375002,6.797763061523438,1712519176669.0
9.29299999999995,-6.409567260742188,0.5818450927734375,8.048931884765626,1712519176679.0
9.302999999999997,-6.514242553710938,-0.1751068115234375,5.792431640625001,1712519176689.0
9.312999999999988,-6.1525146484375,-0.4115234375,7.604959106445313,1712519176699.0
9.323999999999955,-7.540658569335938,-0.3982147216796875,7.213473510742188,1712519176710.0
9.333999999999946,-6.753948974609376,-0.4990020751953125,7.100723266601563,1712519176720.0
9.343999999999994,-6.395211791992188,-0.6072662353515625,5.8800598144531255,1712519176730.0
9.353999999999985,-6.703555297851563,-0.354998779296875,7.208987426757813,1712519176740.0
9.363999999999976,-6.677835083007813,0.189312744140625,8.168112182617188,1712519176750.0
9.373999999999967,-6.41868896484375,0.4412811279296875,7.228726196289063,1712519176760.0
9.383999999999958,-6.537719726562501,0.4062896728515625,7.057955932617188,1712519176770.0
9.393999999999949,-6.419436645507813,0.4840484619140625,6.16507568359375,1712519176780.0
9.403999999999996,-7.312316894531251,0.3698028564453125,7.716513061523438,1712519176790.0
9.413999999999987,-7.264614868164063,0.3360076904296875,6.096139526367188,1712519176800.0
9.423999999999971,-7.270297241210938,0.2237060546875,6.043951416015625,1712519176810.0
9.433999999999976,-6.555215454101563,0.182135009765625,6.2697509765625,1712519176820.0
9.444999999999993,-6.331210327148438,-0.05921630859375,7.756588745117188,1712519176831.0
9.45399999999995,-6.435736083984375,-0.52935791015625,8.780014038085938,1712519176840.0
9.464999999999975,-5.956024169921875,-0.37503662109375,7.115228271484376,1712519176851.0
9.474999999999966,-6.655853271484376,-0.180340576171875,6.712976074218751,1712519176861.0
9.484999999999957,-6.981393432617188,0.09031982421875,5.967388916015626,1712519176871.0
9.49499999999994,-7.749859619140626,0.0500946044921875,6.927560424804688,1712519176881.0
9.504999999999995,-6.640451049804688,0.5677886962890626,6.416146850585938,1712519176891.0
9.516999999999996,-7.007562255859376,0.9461151123046876,7.524359130859375,1712519176903.0
9.524999999999977,-6.825576782226563,0.2237060546875,7.562042236328126,1712519176911.0
9.534999999999975,-5.094247436523438,-0.40673828125,6.802847290039063,1712519176921.0
9.544999999999966,-6.66392822265625,-0.7270446777343751,8.038314819335938,1712519176931.0
9.55499999999995,-7.183865356445313,-0.2630340576171875,7.283306884765626,1712519176941.0
9.56499999999999,-7.130032348632813,-0.0877777099609375,6.732565307617188,1712519176951.0
9.574999999999989,-6.879559326171876,-0.6545196533203126,5.865853881835938,1712519176961.0
9.58499999999998,-6.55626220703125,-0.4508514404296875,6.6097961425781255,1712519176971.0
9.595999999999947,-6.786099243164063,0.2749969482421875,7.913452148437501,1712519176982.0
9.605999999999995,-6.626992797851563,1.063201904296875,7.508209228515626,1712519176992.0
9.617999999999995,-6.270349121093751,0.7248016357421876,7.308877563476563,1712519177004.0
9.625999999999976,-6.324032592773438,0.079852294921875,6.505569458007813,1712519177012.0
9.635999999999967,-6.661386108398438,-0.183929443359375,7.721896362304688,1712519177022.0
9.645999999999958,-7.682119750976563,-0.3050537109375,6.901989746093751,1712519177032.0
9.655999999999949,-6.481643676757813,-0.3342132568359375,6.212628173828126,1712519177042.0
9.665999999999997,-6.926513671875001,-0.49287109375,5.605960083007813,1712519177052.0
9.675999999999988,-7.027899169921875,0.016748046875,7.511947631835938,1712519177062.0
9.685999999999979,-6.618469238281251,0.6628936767578125,7.913302612304688,1712519177072.0
9.695999999999977,-6.456222534179688,0.6643890380859375,7.22618408203125,1712519177082.0
9.705999999999968,-5.8117218017578125,0.5085723876953125,6.830511474609375,1712519177092.0
9.717999999999961,-6.707144165039063,0.17166748046875,7.191491699218751,1712519177104.0
9.725999999999999,-7.256390380859376,-0.126806640625,7.973266601562501,1712519177112.0
9.73599999999999,-7.082928466796876,-0.263482666015625,5.713775634765625,1712519177122.0
9.746999999999957,-7.134817504882813,-0.5151519775390625,5.958416748046876,1712519177133.0
9.756999999999941,-6.501831054687501,-0.29608154296875,6.644937133789063,1712519177143.0
9.766999999999996,-6.68187255859375,-0.150433349609375,8.33035888671875,1712519177153.0
9.776999999999987,-6.214871215820313,0.047552490234375,7.942013549804688,1712519177163.0
9.78699999999997,-6.190347290039063,0.5132080078125001,6.684713745117188,1712519177173.0
9.796999999999976,-6.824081420898438,0.6421081542968751,6.861166381835938,1712519177183.0
9.806999999999967,-6.589907836914063,0.4969085693359375,6.484335327148438,1712519177193.0
9.81699999999995,-7.8374877929687505,-0.0,6.80748291015625,1712519177203.0
9.826999999999991,-6.505419921875,0.145050048828125,6.453530883789063,1712519177213.0
9.836999999999989,-7.577593994140625,0.2779876708984375,6.688601684570313,1712519177223.0
9.84699999999998,-6.412258911132813,-0.277838134765625,7.743130493164063,1712519177233.0
9.856999999999971,-5.445358276367188,-0.7340728759765626,7.247866821289063,1712519177243.0
9.866999999999962,-6.571066284179688,-0.968695068359375,8.01214599609375,1712519177253.0
9.876999999999953,-6.467288208007813,0.210845947265625,7.298858642578126,1712519177263.0
9.887,-7.686306762695313,0.4424774169921875,6.972271728515626,1712519177273.0
9.897999999999975,-6.596786499023438,0.0131591796875,6.171206665039063,1712519177284.0
9.907999999999966,-6.417791748046875,-0.2524169921875,5.994454956054688,1712519177294.0
9.91799999999995,-7.432394409179688,0.191705322265625,8.094241333007814,1712519177304.0
9.927999999999997,-6.823782348632813,1.0937072753906252,6.865802001953125,1712519177314.0
9.937999999999988,-6.241638183593751,0.5363861083984376,6.993356323242188,1712519177324.0
9.947999999999979,-6.307135009765625,-0.30924072265625,6.638806152343751,1712519177334.0
9.957999999999977,-6.430203247070313,-0.317913818359375,7.914797973632813,1712519177344.0
9.967999999999961,-7.699465942382813,-0.0586181640625,7.686157226562501,1712519177354.0
9.977999999999952,-6.285751342773438,0.04127197265625,5.814114379882813,1712519177364.0
9.988,-6.926065063476563,-0.3931304931640625,5.710336303710938,1712519177374.0
9.99799999999999,-6.658395385742188,-0.3111846923828125,7.578042602539063,1712519177384.0
10.007999999999981,-6.988720703125001,0.1457977294921875,8.1479248046875,1712519177394.0
10.017999999999972,-6.339584350585938,0.349615478515625,7.506414794921875,1712519177404.0
10.027999999999963,-5.80858154296875,0.2420989990234375,6.0719146728515625,1712519177414.0
10.038999999999987,-6.734060668945313,-0.11903076171875,7.448992919921875,1712519177425.0
10.048999999999971,-7.186108398437501,0.068487548828125,7.8727783203125,1712519177435.0
10.058999999999976,-7.396057128906251,0.197686767578125,6.228927612304688,1712519177445.0
10.068999999999967,-7.098928833007813,0.2489776611328125,5.376721191406251,1712519177455.0
10.07899999999995,-6.233114624023438,0.3159698486328125,6.171505737304688,1712519177465.0
10.088999999999999,-6.967337036132813,-0.0656463623046875,8.675189208984376,1712519177475.0
10.09899999999999,-6.282461547851563,-0.0011962890625,8.247216796875001,1712519177485.0
10.10899999999998,-6.295770263671876,0.0665435791015625,6.758734130859375,1712519177495.0
10.118999999999971,-6.384893798828125,0.0665435791015625,6.296517944335938,1712519177505.0
10.128999999999962,-6.735107421875001,-0.1024322509765625,6.789389038085938,1712519177515.0
10.138999999999953,-8.11981201171875,-0.3828125,6.875970458984376,1712519177525.0
10.149000000000001,-6.54190673828125,0.385205078125,6.517083740234376,1712519177535.0
10.158999999999992,-6.315509033203125,1.1026794433593752,6.105709838867188,1712519177545.0
10.168999999999983,-7.521966552734375,0.336456298828125,8.526998901367188,1712519177555.0
10.178999999999974,-5.9029388427734375,-0.6733612060546875,8.149270629882814,1712519177565.0
10.188999999999965,-5.55377197265625,-0.8898895263671875,6.645535278320313,1712519177575.0
10.199999999999989,-6.83499755859375,-0.24703369140625,6.913204956054688,1712519177586.0
10.20999999999998,-7.50850830078125,-0.0121124267578125,7.035675048828126,1712519177596.0
10.219999999999978,-7.351943969726563,-0.3028106689453125,7.213772583007813,1712519177606.0
10.229999999999961,-6.433792114257813,-0.4725341796875,5.892919921875,1712519177616.0
10.239999999999952,-6.471026611328125,0.192303466796875,6.829464721679688,1712519177626.0
10.25,-6.311920166015626,1.0068267822265626,7.884890747070313,1712519177636.0
10.259999999999991,-7.107452392578126,0.7689147949218751,8.003024291992189,1712519177646.0
10.269999999999982,-6.298162841796875,0.14833984375,6.840380859375,1712519177656.0
10.279999999999973,-6.293228149414063,-0.2364166259765625,6.307434082031251,1712519177666.0
10.289999999999964,-7.25010986328125,-0.3063995361328125,7.101919555664063,1712519177676.0
10.299999999999955,-7.267904663085938,-0.4266265869140625,7.110891723632813,1712519177686.0
10.310000000000002,-6.426614379882813,-0.6772491455078126,6.455923461914063,1712519177696.0
10.319999999999993,-6.443511962890626,-0.3063995361328125,6.828866577148438,1712519177706.0
10.329999999999984,-7.087713623046875,0.4646087646484375,7.231268310546875,1712519177716.0
10.340999999999951,-6.5353271484375,0.916058349609375,7.605258178710938,1712519177727.0
10.350999999999999,-6.756491088867188,0.7379608154296875,6.520223999023438,1712519177737.0
10.36099999999999,-6.361267089843751,0.4912261962890625,7.049581909179688,1712519177747.0
10.370999999999981,-6.699368286132813,0.262286376953125,7.021319580078125,1712519177757.0
10.380999999999972,-7.2871948242187505,-0.1828826904296875,7.330410766601563,1712519177767.0
10.390999999999963,-6.925765991210938,-0.38819580078125,6.21591796875,1712519177777.0
10.400999999999954,-6.591702270507813,-0.581097412109375,6.420782470703125,1712519177787.0
10.411000000000001,-6.442913818359376,-0.563153076171875,7.670306396484375,1712519177797.0
10.420999999999992,-6.283209228515625,-0.371746826171875,7.893563842773438,1712519177807.0
10.433999999999976,-6.786398315429688,-0.0689361572265625,7.546490478515626,1712519177820.0
10.440999999999974,-6.378164672851563,0.6347808837890625,6.2329650878906255,1712519177827.0
10.451999999999991,-6.755743408203125,0.76083984375,6.561047363281251,1712519177838.0
10.460999999999956,-7.435086059570313,0.5677886962890626,6.400595092773438,1712519177847.0
10.470999999999947,-6.803445434570313,0.6047241210937501,7.20823974609375,1712519177857.0
10.481999999999971,-7.578042602539063,0.648388671875,6.48807373046875,1712519177868.0
10.491999999999962,-6.547140502929688,0.1399658203125,7.450787353515626,1712519177878.0
10.501999999999953,-5.566781616210938,-0.89063720703125,6.792529296875,1712519177888.0
10.512,-6.37681884765625,-1.43255615234375,8.2555908203125,1712519177898.0
10.521999999999991,-6.572561645507813,-0.6545196533203126,7.8871337890625,1712519177908.0
10.533999999999992,-7.351345825195313,0.0107666015625,6.739743041992188,1712519177920.0
10.541999999999973,-6.615179443359375,-0.0632537841796875,6.332257080078126,1712519177928.0
10.551999999999964,-6.598580932617188,-0.29727783203125,5.703158569335938,1712519177938.0
10.561999999999955,-7.103265380859376,0.4400848388671875,8.499783325195313,1712519177948.0
10.571999999999946,-7.043002319335938,1.414013671875,6.642694091796876,1712519177958.0
10.581999999999994,-6.396557617187501,1.2028686523437502,7.176388549804688,1712519177968.0
10.591999999999985,-6.231170654296876,0.2794830322265625,5.881854248046875,1712519177978.0
10.601999999999975,-6.629086303710938,-0.349615478515625,8.153756713867189,1712519177988.0
10.611999999999966,-7.42476806640625,-0.224005126953125,7.7537475585937505,1712519177998.0
10.621999999999957,-6.694134521484376,-0.3635223388671875,6.079541015625001,1712519178008.0
10.633999999999958,-6.6130859375,-0.7535125732421876,5.549285888671875,1712519178020.0
10.642999999999972,-6.507214355468751,-0.6913055419921875,7.22977294921875,1712519178029.0
10.652999999999963,-7.199118041992188,-0.25780029296875,8.85792236328125,1712519178039.0
10.662999999999954,-5.906527709960938,0.3769805908203125,7.592098999023438,1712519178049.0
10.673000000000002,-6.330462646484375,0.418402099609375,6.1851135253906255,1712519178059.0
10.682999999999993,-6.279171752929688,0.4152618408203125,6.946850585937501,1712519178069.0
10.692999999999984,-7.589108276367188,0.4792633056640625,7.486526489257813,1712519178079.0
10.702999999999975,-7.541854858398438,0.42049560546875,7.0138427734375,1712519178089.0
10.712999999999965,-6.827819824218751,0.5150024414062501,4.605862426757813,1712519178099.0
10.722999999999956,-6.815408325195313,0.1351806640625,6.404483032226563,1712519178109.0
10.73399999999998,-6.483737182617188,-0.0333465576171875,7.88414306640625,1712519178120.0
10.742999999999995,-6.564337158203125,-0.412420654296875,8.926708984375,1712519178129.0
10.753999999999962,-5.873330688476563,-0.4044952392578125,7.193585205078126,1712519178140.0
10.762999999999977,-5.952435302734376,-0.078955078125,5.929107666015625,1712519178149.0
10.774000000000001,-7.79501953125,-0.2059112548828125,6.857128906250001,1712519178160.0
10.783999999999992,-7.044796752929688,0.1834808349609375,6.952532958984375,1712519178170.0
10.793999999999983,-6.987673950195313,0.447711181640625,7.079040527343751,1712519178180.0
10.803999999999974,-7.267156982421875,0.4708892822265625,6.603067016601563,1712519178190.0
10.813999999999965,-5.744281005859375,-0.01016845703125,7.259979248046876,1712519178200.0
10.823999999999955,-6.127093505859375,-0.394476318359375,7.284652709960938,1712519178210.0
10.833999999999946,-6.87926025390625,-0.2585479736328125,8.286993408203125,1712519178220.0
10.843999999999994,-6.910513305664063,0.064898681640625,6.621310424804688,1712519178230.0
10.853999999999985,-6.7234436035156255,0.018243408203125,6.749014282226563,1712519178240.0
10.863999999999976,-6.885690307617188,-0.6072662353515625,6.0868682861328125,1712519178250.0
10.873999999999967,-6.894363403320313,-0.37503662109375,7.313363647460938,1712519178260.0
10.883999999999958,-6.5918518066406255,0.441131591796875,7.329962158203125,1712519178270.0
10.893999999999949,-6.7123779296875,0.7916442871093751,7.198818969726563,1712519178280.0
10.904999999999973,-6.197674560546876,0.2935394287109375,7.196575927734376,1712519178291.0
10.913999999999987,-6.336593627929688,-0.276043701171875,7.151266479492188,1712519178300.0
10.924999999999955,-6.973767089843751,-0.2059112548828125,7.790982055664063,1712519178311.0
10.935000000000002,-7.071713256835938,-0.0151031494140625,6.395062255859376,1712519178321.0
10.944999999999993,-6.844717407226563,-0.1662841796875,5.899948120117188,1712519178331.0
10.954999999999984,-6.828717041015626,-0.1960418701171875,6.441418457031251,1712519178341.0
10.964999999999975,-7.181472778320313,0.2148834228515625,7.526901245117188,1712519178351.0
10.974999999999966,-6.503775024414063,0.75784912109375,7.458563232421875,1712519178361.0
10.984999999999957,-6.469232177734376,0.6984832763671875,6.59573974609375,1712519178371.0
10.99499999999994,-6.02391357421875,0.315521240234375,7.29317626953125,1712519178381.0
11.004999999999995,-6.711929321289063,-0.21114501953125,7.643688964843751,1712519178391.0
11.014999999999986,-7.2647644042968755,-0.3772796630859375,7.4744140625,1712519178401.0
11.024999999999977,-6.842773437500001,-0.3569427490234375,5.929257202148438,1712519178411.0
11.034999999999975,-6.7363037109375,-0.490179443359375,6.019876098632813,1712519178421.0
11.045999999999992,-6.611441040039063,-0.5145538330078125,7.579986572265626,1712519178432.0
11.055999999999983,-6.567626953125001,-0.1184326171875,7.902835083007813,1712519178442.0
11.065999999999974,-6.814361572265626,0.4499542236328125,7.5757995605468755,1712519178452.0
11.075999999999965,-6.243133544921876,1.033145141601563,5.843273925781251,1712519178462.0
11.085999999999956,-6.507962036132813,0.7568023681640625,6.758285522460938,1712519178472.0
11.095999999999947,-7.388580322265626,0.2806793212890625,6.946551513671875,1712519178482.0
11.105999999999995,-6.903335571289063,0.3231475830078125,7.406973266601563,1712519178492.0
11.115999999999985,-7.507012939453125,0.363372802734375,6.126644897460938,1712519178502.0
11.125999999999976,-6.731668090820313,-0.276641845703125,7.091003417968751,1712519178512.0
11.135999999999967,-5.684915161132813,-1.190606689453125,6.9277099609375,1712519178522.0
11.145999999999958,-6.394165039062501,-1.3178619384765626,8.29447021484375,1712519178532.0
11.155999999999949,-6.393417358398438,-0.23447265625,8.011398315429688,1712519178542.0
11.165999999999997,-7.098480224609376,0.490777587890625,6.616824340820313,1712519178552.0
11.175999999999988,-6.792828369140626,0.3004180908203125,6.691891479492188,1712519178562.0
11.185999999999979,-6.501531982421875,-0.1027313232421875,5.916995239257813,1712519178572.0
11.195999999999977,-7.333401489257813,0.299072265625,7.980145263671876,1712519178582.0
11.205999999999968,-7.090106201171875,1.1357269287109375,6.160589599609375,1712519178592.0
11.216999999999985,-6.600674438476563,0.92293701171875,7.081881713867188,1712519178603.0
11.226999999999975,-6.292630004882813,-0.021832275390625,6.390875244140625,1712519178613.0
11.236999999999966,-6.264517211914063,-0.5884246826171875,8.339480590820314,1712519178623.0
11.246999999999957,-7.145135498046876,-0.3692047119140625,7.995248413085938,1712519178633.0
11.256999999999941,-6.461306762695313,-0.1996307373046875,6.159542846679688,1712519178643.0
11.266999999999996,-6.8439697265625,-0.4885345458984375,5.714523315429688,1712519178653.0
11.276999999999987,-6.721499633789063,-0.4738800048828125,7.027600097656251,1712519178663.0
11.28699999999997,-7.288241577148438,-0.096002197265625,8.278768920898438,1712519178673.0
11.296999999999976,-6.061746215820313,0.4903289794921875,7.328167724609376,1712519178683.0
11.306999999999967,-6.418090820312501,0.5618072509765626,6.261825561523438,1712519178693.0
11.31699999999995,-6.393417358398438,0.3647186279296875,7.260726928710938,1712519178703.0
11.326999999999991,-7.142593383789063,0.3593353271484375,7.488470458984375,1712519178713.0
11.336999999999989,-7.415048217773438,0.24583740234375,7.014141845703126,1712519178723.0
11.34699999999998,-6.799407958984376,0.28890380859375,5.111593627929688,1712519178733.0
11.357999999999947,-6.878363037109375,-0.004486083984375,6.426165771484375,1712519178744.0
11.367999999999995,-6.626544189453125,-0.2196685791015625,7.861712646484375,1712519178754.0
11.377999999999986,-6.397903442382813,-0.337652587890625,8.441015625,1712519178764.0
11.387999999999977,-6.184963989257813,-0.3069976806640625,7.3224853515625,1712519178774.0
11.397999999999975,-6.002529907226563,0.0586181640625,6.1552062988281255,1712519178784.0
11.407999999999966,-7.344915771484375,0.126806640625,6.8056884765625005,1712519178794.0
11.41799999999995,-7.603912353515626,0.2519683837890625,6.762472534179688,1712519178804.0
11.427999999999997,-6.545944213867188,0.6084625244140626,6.651068115234375,1712519178814.0
11.437999999999988,-6.983337402343751,0.6720153808593751,6.897503662109376,1712519178824.0
11.447999999999979,-6.9507385253906255,0.0450103759765625,7.905975341796876,1712519178834.0
11.457999999999977,-5.589212036132813,-0.7076049804687501,6.887185668945313,1712519178844.0
11.467999999999961,-6.32298583984375,-0.7322784423828126,7.538265991210938,1712519178854.0
11.477999999999952,-7.068124389648438,-0.33675537109375,7.306185913085938,1712519178864.0
11.488,-7.132723999023438,0.1024322509765625,6.919485473632813,1712519178874.0
11.498999999999967,-6.8296142578125005,-0.2811279296875,6.750958251953126,1712519178885.0
11.508999999999958,-6.664675903320313,-0.2854644775390625,5.956173706054688,1712519178895.0
11.518999999999949,-6.573757934570313,0.4553375244140625,7.687652587890626,1712519178905.0
11.528999999999996,-6.912008666992188,1.0089202880859376,7.150219726562501,1712519178915.0
11.538999999999987,-6.510055541992188,0.6533233642578126,7.876217651367188,1712519178925.0
11.548999999999971,-6.184365844726563,-0.1763031005859375,6.370986938476563,1712519178935.0
11.558999999999976,-6.568374633789063,-0.5088714599609375,7.392468261718751,1712519178945.0
11.568999999999967,-7.325326538085938,-0.338848876953125,7.096835327148438,1712519178955.0
11.57899999999995,-6.941168212890625,-0.341839599609375,6.558056640625001,1712519178965.0
11.588999999999999,-6.590505981445313,-0.428271484375,6.087615966796875,1712519178975.0
11.59899999999999,-6.797164916992188,0.004486083984375,6.83499755859375,1712519178985.0
11.60899999999998,-6.892568969726563,0.7394561767578125,8.072708129882812,1712519178995.0
11.618999999999971,-6.518728637695313,0.968994140625,6.8774658203125005,1712519179005.0
11.628999999999962,-6.356033325195313,0.602032470703125,7.051974487304688,1712519179015.0
11.639999999999986,-6.333303833007813,0.1694244384765625,6.751107788085938,1712519179026.0
11.649999999999977,-7.155902099609375,-0.1876678466796875,7.825225830078126,1712519179036.0
11.659999999999975,-7.287344360351563,-0.4278228759765625,6.586618041992188,1712519179046.0
11.669999999999966,-6.665274047851563,-0.5130584716796875,5.870040893554688,1712519179056.0
11.67999999999995,-6.653610229492188,-0.6036773681640626,6.926663208007813,1712519179066.0
11.68999999999999,-6.304293823242188,-0.3581390380859375,7.858721923828125,1712519179076.0
11.699999999999989,-6.724789428710938,0.032598876953125,8.118316650390625,1712519179086.0
11.70999999999998,-6.365902709960938,0.612799072265625,6.62803955078125,1712519179096.0
11.719999999999978,-6.2254882812500005,0.9347503662109377,6.1656738281250005,1712519179106.0
11.729999999999961,-7.580584716796875,0.643902587890625,6.532785034179688,1712519179116.0
11.739999999999952,-6.8714843750000005,0.4873382568359375,7.629931640625,1712519179126.0
11.75,-7.627389526367188,0.297576904296875,6.250759887695313,1712519179136.0
11.759999999999991,-6.717163085937501,-0.1745086669921875,7.225286865234375,1712519179146.0
11.769999999999982,-5.4707794189453125,-0.715679931640625,6.3271728515625005,1712519179156.0
11.780999999999949,-6.651068115234375,-1.2477294921875002,8.490811157226563,1712519179167.0
11.789999999999964,-6.349453735351563,-0.5244232177734376,8.203701782226563,1712519179176.0
11.800999999999988,-7.172650146484376,0.1610504150390625,6.823184204101563,1712519179187.0
11.810999999999979,-6.5783935546875005,0.214434814453125,6.531439208984375,1712519179197.0
11.820999999999977,-6.438876342773438,-0.0562255859375,5.627194213867188,1712519179207.0
11.832999999999977,-7.654006958007813,0.0801513671875,8.232113647460938,1712519179219.0
11.840999999999951,-6.829464721679688,1.1360260009765626,6.4527832031250005,1712519179227.0
11.850999999999999,-6.707891845703125,1.0217803955078126,7.036422729492188,1712519179237.0
11.86099999999999,-6.106756591796875,0.1951446533203125,6.189898681640625,1712519179247.0
11.870999999999981,-6.350650024414063,-0.4272247314453125,8.113232421875,1712519179257.0
11.880999999999972,-7.3368408203125,-0.3757843017578125,8.3465087890625,1712519179267.0
11.890999999999963,-6.4527832031250005,-0.0825439453125,6.20694580078125,1712519179277.0
11.900999999999954,-6.961953735351563,-0.4634124755859375,5.285653686523438,1712519179287.0
11.911000000000001,-6.539215087890626,-0.533245849609375,7.080386352539063,1712519179297.0
11.921999999999976,-7.194183349609376,-0.2883056640625,8.2962646484375,1712519179308.0
11.932999999999993,-6.308779907226563,0.282025146484375,8.067324829101564,1712519179319.0
11.94199999999995,-6.021221923828126,0.5561248779296876,5.8262268066406255,1712519179328.0
11.951999999999991,-6.5843750000000005,0.2684173583984375,7.167715454101563,1712519179338.0
11.961999999999989,-6.946850585937501,0.362774658203125,7.52525634765625,1712519179348.0
11.97199999999998,-7.642642211914063,0.263482666015625,7.0533203125,1712519179358.0
11.981999999999971,-7.003225708007813,0.363671875,5.467489624023438,1712519179368.0
11.991999999999962,-6.447698974609375,0.2893524169921875,5.5679779052734375,1712519179378.0
12.001999999999953,-6.945504760742188,-0.1658355712890625,8.159588623046876,1712519179388.0
12.012,-6.273788452148438,-0.25899658203125,8.348004150390626,1712519179398.0
12.021999999999991,-6.359622192382813,-0.3793731689453125,7.795468139648438,1712519179408.0
12.033999999999992,-5.9491455078125,-0.0897216796875,6.002529907226563,1712519179420.0
12.041999999999973,-6.848156738281251,0.033197021484375,6.634918212890626,1712519179428.0
12.051999999999964,-8.04444580078125,-0.12620849609375,6.886886596679688,1712519179438.0
12.061999999999955,-6.570767211914063,0.453692626953125,6.7028076171875,1712519179448.0
12.071999999999946,-6.643890380859376,0.9390869140625,6.436782836914063,1712519179458.0
12.082999999999977,-7.3224853515625,0.5292083740234376,7.748513793945313,1712519179469.0
12.092999999999961,-5.953930664062501,-0.4188507080078125,7.764962768554688,1712519179479.0
12.102999999999952,-5.7967681884765625,-0.7920928955078126,6.983337402343751,1712519179489.0
12.113,-6.799407958984376,-0.4756744384765625,7.375570678710938,1712519179499.0
12.12299999999999,-7.252951049804688,-0.1293487548828125,6.788491821289063,1712519179509.0
12.132999999999981,-7.119714355468751,-0.216827392578125,7.33983154296875,1712519179519.0
12.142999999999972,-6.697274780273438,-0.5046844482421875,5.830862426757813,1712519179529.0
12.152999999999963,-6.548336791992188,0.11424560546875,6.983636474609376,1712519179539.0
12.162999999999954,-6.532485961914063,0.9024505615234376,7.444058227539063,1712519179549.0
12.173000000000002,-6.851895141601563,0.9375915527343752,7.950836181640626,1712519179559.0
12.182999999999993,-6.252105712890626,0.2764923095703125,6.952084350585938,1712519179569.0
12.192999999999984,-6.415249633789063,-0.3040069580078125,6.571514892578126,1712519179579.0
12.202999999999975,-7.064834594726563,-0.3138763427734375,7.350299072265625,1712519179589.0
12.212999999999965,-7.260128784179688,-0.3828125,6.728976440429688,1712519179599.0
12.222999999999956,-6.594244384765625,-0.57840576171875,6.500485229492188,1712519179609.0
12.23399999999998,-6.455923461914063,-0.410626220703125,6.627441406250001,1712519179620.0
12.243999999999971,-7.086517333984376,0.306549072265625,7.56533203125,1712519179630.0
12.253999999999962,-6.518429565429688,0.9284698486328126,7.361065673828126,1712519179640.0
12.263999999999953,-6.737500000000001,0.8146728515625,6.628787231445313,1712519179650.0
12.274000000000001,-6.285153198242188,0.5007965087890626,6.9342895507812505,1712519179660.0
12.283999999999992,-6.768453979492188,0.172265625,7.240240478515625,1712519179670.0
12.293999999999983,-7.314111328125,-0.191107177734375,7.426712036132813,1712519179680.0
12.303999999999974,-6.8224365234375,-0.34273681640625,5.983987426757813,1712519179690.0
12.313999999999965,-6.626544189453125,-0.653173828125,6.667367553710938,1712519179700.0
12.323999999999955,-6.411511230468751,-0.657659912109375,7.427758789062499,1712519179710.0
12.333999999999946,-6.542654418945313,-0.352008056640625,8.074652099609375,1712519179720.0
12.343999999999994,-6.7841552734375,0.1472930908203125,7.294970703125,1712519179730.0
12.353999999999985,-6.353640747070313,0.7699615478515626,6.158645629882813,1712519179740.0
12.363999999999976,-6.531887817382813,0.6599029541015625,6.800305175781251,1712519179750.0
12.373999999999967,-7.403982543945313,0.463861083984375,6.663031005859375,1712519179760.0
12.384999999999991,-6.905728149414063,0.590069580078125,7.449441528320313,1712519179771.0
12.394999999999982,-7.566079711914063,0.5812469482421876,5.973370361328126,1712519179781.0
12.404999999999973,-6.4707275390625005,-0.07596435546875,7.228427124023438,1712519179791.0
12.414999999999964,-5.903088378906251,-0.9383392333984376,6.940121459960938,1712519179801.0
12.424999999999955,-6.398651123046876,-1.1959899902343751,8.506512451171876,1712519179811.0
12.435000000000002,-6.459811401367188,-0.462664794921875,7.61617431640625,1712519179821.0
12.444999999999993,-7.108648681640625,0.102880859375,6.558056640625001,1712519179831.0
12.454999999999984,-6.725836181640625,0.0348419189453125,6.695181274414063,1712519179841.0
12.464999999999975,-6.663479614257813,-0.161199951171875,6.151766967773438,1712519179851.0
12.474999999999966,-7.117321777343751,0.2839691162109375,8.039361572265626,1712519179861.0
12.484999999999957,-7.054217529296875,1.1321380615234375,6.042156982421876,1712519179871.0
12.49499999999994,-6.398501586914063,1.0733703613281251,7.406375122070313,1712519179881.0
12.504999999999995,-6.4079223632812505,0.160302734375,6.453680419921875,1712519179891.0
12.515999999999963,-6.421829223632813,-0.4155609130859375,8.146728515625,1712519179902.0
12.525999999999954,-7.130630493164063,-0.299072265625,7.562939453125001,1712519179912.0
12.536000000000001,-6.662731933593751,-0.140264892578125,5.969183349609375,1712519179922.0
12.545999999999992,-6.99649658203125,-0.45040283203125,6.020623779296876,1712519179932.0
12.555999999999983,-6.555813598632813,-0.5446105957031251,6.965692138671876,1712519179942.0
12.565999999999974,-6.969430541992188,-0.2787353515625,8.457763671875,1712519179952.0
12.575999999999965,-6.0001373291015625,0.317315673828125,7.531387329101563,1712519179962.0
12.585999999999956,-6.372930908203125,0.45040283203125,6.510205078125001,1712519179972.0
12.595999999999947,-6.536373901367188,0.2675201416015625,7.089657592773438,1712519179982.0
12.605999999999995,-7.044647216796876,0.2923431396484375,7.363159179687501,1712519179992.0
12.615999999999985,-7.479199218750001,0.216827392578125,6.837838745117188,1712519180002.0
12.625999999999976,-6.926065063476563,0.4634124755859375,5.28819580078125,1712519180012.0
12.635999999999967,-7.027899169921875,0.2438934326171875,6.319696044921876,1712519180022.0
12.645999999999958,-6.423324584960938,0.037384033203125,7.619912719726563,1712519180032.0
12.655999999999949,-6.405230712890625,-0.2549591064453125,8.566925048828125,1712519180042.0
12.666999999999973,-6.075653076171875,-0.3369049072265625,7.437777709960938,1712519180053.0
12.676999999999964,-6.231768798828125,0.057421875,6.123056030273438,1712519180063.0
12.686999999999955,-7.405776977539063,-0.0468048095703125,6.637460327148438,1712519180073.0
12.696999999999946,-7.243231201171875,0.089422607421875,6.824380493164063,1712519180083.0
12.706999999999994,-6.687405395507813,0.32060546875,7.114331054687501,1712519180093.0
12.716999999999985,-7.43673095703125,0.3404937744140625,6.952383422851563,1712519180103.0
12.726999999999975,-6.178085327148438,-0.057720947265625,7.4636474609375005,1712519180113.0
12.736999999999966,-5.680877685546875,-0.5181427001953125,6.413903808593751,1712519180123.0
12.748999999999967,-6.647778320312501,-0.2992218017578125,8.410659790039062,1712519180135.0
12.756999999999941,-7.3111206054687505,0.0423187255859375,7.345364379882813,1712519180143.0
12.766999999999996,-6.73271484375,0.1543212890625,6.746621704101563,1712519180153.0
12.776999999999987,-6.615029907226563,-0.378924560546875,5.79422607421875,1712519180163.0
12.78699999999997,-7.007113647460938,-0.3225494384765625,6.8200439453125,1712519180173.0
12.798000000000002,-6.672451782226563,0.3853546142578125,7.811019897460938,1712519180184.0
12.807999999999993,-7.001730346679688,0.66214599609375,7.210482788085938,1712519180194.0
12.817999999999984,-5.963052368164063,0.303857421875,7.139303588867188,1712519180204.0
12.827999999999975,-6.295321655273438,-0.3168670654296875,6.7482666015625,1712519180214.0
12.837999999999965,-6.806436157226563,-0.308941650390625,8.169308471679688,1712519180224.0
12.849999999999966,-7.369290161132813,-0.170172119140625,6.629534912109375,1712519180236.0
12.857999999999947,-6.599627685546875,-0.12381591796875,6.0704193115234375,1712519180244.0
12.867999999999995,-6.760827636718751,-0.088824462890625,6.100177001953125,1712519180254.0
12.877999999999986,-7.173995971679688,0.206658935546875,7.455123901367188,1712519180264.0
12.887999999999977,-6.600674438476563,0.6720153808593751,7.901788330078125,1712519180274.0
12.897999999999975,-6.477456665039063,0.6316406250000001,6.524261474609376,1712519180284.0
12.907999999999966,-6.29307861328125,0.4720855712890625,6.970626831054688,1712519180294.0
12.91799999999995,-6.711331176757813,0.066094970703125,7.07425537109375,1712519180304.0
12.927999999999997,-7.229324340820313,-0.3461761474609375,7.857077026367188,1712519180314.0
12.937999999999988,-6.765164184570313,-0.4406829833984375,6.252255249023438,1712519180324.0
12.948999999999955,-6.569720458984375,-0.483001708984375,6.243881225585938,1712519180335.0
12.958999999999946,-6.710134887695313,-0.3985137939453125,7.204650878906251,1712519180345.0
12.968999999999994,-6.596487426757813,-0.1535736083984375,7.920779418945313,1712519180355.0
12.978999999999985,-6.769500732421876,0.224005126953125,7.491012573242188,1712519180365.0
12.988999999999976,-6.307733154296876,0.7512695312500001,6.129037475585938,1712519180375.0
12.998999999999967,-6.647030639648438,0.712689208984375,6.889727783203125,1712519180385.0
13.008999999999958,-6.808828735351563,0.40972900390625,6.810324096679688,1712519180395.0
13.018999999999949,-7.427908325195313,0.3063995361328125,7.278671264648438,1712519180405.0
13.028999999999996,-6.861614990234376,0.3976165771484375,6.193936157226563,1712519180415.0
13.038999999999987,-7.239044189453126,-0.0322998046875,7.149920654296875,1712519180425.0
13.049999999999955,-5.977856445312501,-0.8508605957031251,7.063339233398438,1712519180436.0
13.058999999999976,-6.128140258789063,-1.1010345458984376,7.614529418945313,1712519180445.0
13.068999999999967,-6.418539428710938,-0.59754638671875,8.168112182617188,1712519180455.0
13.07899999999995,-6.849203491210938,0.316717529296875,6.644787597656251,1712519180465.0
13.088999999999999,-7.13646240234375,0.2310333251953125,7.417141723632813,1712519180475.0
13.099999999999966,-6.276181030273438,-0.026617431640625,5.704653930664063,1712519180486.0
13.109999999999957,-7.233212280273438,0.0034393310546875,7.429104614257813,1712519180496.0
13.11999999999994,-6.904083251953126,0.8450286865234375,6.584524536132813,1712519180506.0
13.129999999999995,-7.004721069335938,1.0285095214843751,7.142593383789063,1712519180516.0
13.139999999999986,-6.155654907226563,0.259893798828125,6.681423950195313,1712519180526.0
13.149999999999977,-6.331210327148438,-0.3925323486328125,7.481292724609376,1712519180536.0
13.159999999999975,-6.765911865234376,-0.2978759765625,8.070315551757814,1712519180546.0
13.169999999999966,-7.062142944335938,-0.0417205810546875,6.575103759765626,1712519180556.0
13.17999999999995,-6.7267333984375,-0.35230712890625,5.907125854492188,1712519180566.0
13.18999999999999,-6.571514892578126,-0.512908935546875,6.512298583984376,1712519180576.0
13.199999999999989,-7.039114379882813,-0.3611297607421875,8.174542236328126,1712519180586.0
13.20999999999998,-6.413455200195313,0.2274444580078125,7.746868896484376,1712519180596.0
13.219999999999978,-6.338836669921876,0.3973175048828125,6.617272949218751,1712519180606.0
13.229999999999961,-6.317453002929688,0.2627349853515625,6.815707397460938,1712519180616.0
13.239999999999952,-6.791482543945313,0.294287109375,7.347906494140625,1712519180626.0
13.250999999999976,-7.477703857421876,0.3241943359375,7.300354003906251,1712519180637.0
13.260999999999967,-7.114779663085938,0.450701904296875,5.744879150390625,1712519180647.0
13.270999999999958,-6.977505493164063,0.3557464599609375,5.483340454101563,1712519180657.0
13.280999999999949,-6.572860717773438,0.0979461669921875,7.3703369140625,1712519180667.0
13.290999999999997,-6.370388793945313,-0.2477813720703125,8.503970336914064,1712519180677.0
13.300999999999988,-6.312966918945313,-0.5061798095703125,8.100222778320314,1712519180687.0
13.310999999999979,-6.12320556640625,-0.145947265625,6.2003662109375,1712519180697.0
13.320999999999977,-6.614431762695313,0.0186920166015625,6.683218383789063,1712519180707.0
13.330999999999968,-7.78365478515625,-0.04725341796875,6.361416625976563,1712519180717.0
13.340999999999951,-6.849502563476563,0.1936492919921875,7.15440673828125,1712519180727.0
13.351999999999975,-6.657348632812501,0.8230468750000001,6.508859252929688,1712519180738.0
13.36099999999999,-7.529592895507813,0.6694732666015626,7.676138305664063,1712519180747.0
13.371999999999957,-5.982940673828125,-0.2642303466796875,7.172500610351563,1712519180758.0
13.380999999999972,-5.5365753173828125,-0.7245025634765625,6.979299926757813,1712519180767.0
13.391999999999996,-7.056161499023438,-0.5879760742187501,7.978649902343751,1712519180778.0
13.401999999999987,-6.966738891601563,0.0228790283203125,6.989617919921876,1712519180788.0
13.41199999999997,-7.078143310546875,-0.1263580322265625,7.001281738281251,1712519180798.0
13.421999999999976,-6.646133422851563,-0.5345916748046875,5.5989318847656255,1712519180808.0
13.431999999999967,-6.710134887695313,-0.12501220703125,7.344915771484375,1712519180818.0
13.44199999999995,-6.810025024414063,0.7016235351562501,7.437927246093751,1712519180828.0
13.451999999999991,-6.710882568359375,1.0086212158203125,7.613482666015625,1712519180838.0
13.461999999999989,-6.199468994140625,0.35111083984375,6.544598388671876,1712519180848.0
13.47199999999998,-6.302947998046876,-0.20994873046875,7.228427124023438,1712519180858.0
