time,ax,ay,az
0.0,-0.3739898681640625,9.438571166992189,3.6761962890625
0.0099999999999909,-0.0097198486328125,9.38189697265625,3.701019287109376
0.0199999999999818,0.6317901611328125,9.22159423828125,3.6201202392578127
0.0300000000002,0.777288818359375,9.032281494140626,3.050985717773438
0.0410000000001673,1.2281402587890626,9.12589111328125,2.9010009765625
0.0510000000001582,1.60482177734375,9.155050659179688,2.817709350585938
0.0610000000001491,1.5708770751953127,9.009851074218751,2.75625
0.07100000000014,1.546502685546875,8.730368041992188,2.6639862060546875
0.0810000000001309,1.6755523681640627,7.3727294921875,2.5572174072265628
0.0910000000001218,1.5746154785156252,7.550527954101563,2.1008331298828127
0.1010000000001127,0.6911560058593751,8.993551635742188,1.7290863037109376
0.1110000000001036,-0.0488983154296875,9.594387817382811,2.8921783447265628
0.1210000000000945,0.9794616699218752,10.223486328125,5.152566528320313
0.1310000000000855,-1.5791015625000002,11.21461181640625,3.3840026855468754
0.1410000000000764,0.3025115966796875,12.269290161132814,8.139999389648438
0.1510000000000673,0.7463348388671875,8.963494873046876,5.38629150390625
0.1610000000000582,-0.6898101806640625,6.913204956054688,2.3608764648437504
0.1710000000000491,1.1304931640625,8.135812377929689,2.9723297119140626
0.1820000000000163,0.74708251953125,9.658538818359377,1.7670684814453126
0.1920000000000072,-0.8303741455078125,9.393112182617188,1.38709716796875
0.2019999999999981,0.5887237548828126,10.02789306640625,2.8706451416015626
0.211999999999989,2.198629760742188,10.459454345703126,4.402044677734375
0.22199999999998,2.22509765625,10.041949462890626,4.821792602539063
0.2320000000001982,0.942974853515625,9.247015380859375,1.7410491943359376
0.2420000000001891,0.4293182373046875,9.216510009765626,2.19578857421875
0.2520000000001801,0.9782653808593752,8.699563598632814,3.3120758056640627
0.262000000000171,0.523077392578125,7.871282958984375,3.2115875244140626
0.2720000000001619,-0.1601531982421875,8.353237915039063,2.8938232421875
0.2820000000001528,0.0180938720703125,10.138998413085938,2.2490234375
0.2920000000001437,0.1854248046875,10.0739501953125,2.50323486328125
0.3020000000001346,0.6033782958984375,8.945101928710939,3.039620971679688
0.3120000000001255,0.653173828125,9.14847106933594,3.232073974609375
0.3220000000001164,0.7599426269531251,9.113479614257812,4.395465087890625
0.3330000000000837,1.338198852539063,8.303292846679689,3.9565765380859377
0.3430000000000746,1.164736938476563,8.349649047851564,3.550735473632813
0.3530000000000655,1.2362152099609376,9.256884765625,3.5697265625
0.3630000000000564,1.4225372314453126,9.321035766601565,2.943319702148438
0.3730000000000473,0.88046875,8.907717895507814,3.380413818359376
0.3830000000000382,0.662445068359375,7.8001037597656255,2.887692260742188
0.3930000000000291,-0.1607513427734375,5.707196044921876,1.380218505859375
0.40300000000002,-0.0581695556640625,8.09588623046875,2.4428222656250003
0.4130000000000109,0.8803192138671876,13.409054565429688,1.5391754150390626
0.4230000000000018,-0.175555419921875,14.602651977539065,2.944815063476563
0.4329999999999927,1.524072265625,10.2055419921875,5.726635742187501
0.4429999999999836,1.33565673828125,7.383795166015625,6.811520385742188
0.4530000000002019,1.6087097167968751,8.235104370117188,6.4635498046875
0.4630000000001928,0.072674560546875,7.321438598632813,2.03668212890625
0.47400000000016,-0.8034576416015625,7.191790771484375,-0.5235260009765625
0.484000000000151,-0.0192901611328125,9.668408203125,0.8338134765625
0.4940000000001419,2.959768676757813,11.632266235351564,6.516934204101563
0.5040000000001328,0.4714874267578125,10.798303222656251,4.290042114257813
0.5140000000001237,0.6234161376953126,9.814056396484377,3.6887573242187504
0.5240000000001146,1.4376403808593752,9.639996337890626,2.9943115234375
0.5340000000001055,1.631289672851563,8.756985473632813,3.121267700195313
0.5440000000000964,0.23267822265625,7.527349853515625,1.4611175537109375
0.5540000000000873,-0.29189453125,8.075399780273438,2.2980712890625004
0.5640000000000782,1.5858306884765627,9.189892578125,4.498046875
0.5740000000000691,1.1548675537109376,9.534124755859375,3.0852294921875
0.58400000000006,-0.14654541015625,10.379901123046876,2.399008178710938
0.5940000000000509,-0.0710296630859375,10.88323974609375,2.265621948242188
0.6050000000000182,1.0292572021484376,10.073052978515626,3.435443115234375
0.6150000000000091,0.62625732421875,7.7986083984375005,3.8696960449218754
0.625,-0.02093505859375,6.937579345703125,2.88963623046875
0.6349999999999909,0.99351806640625,8.293722534179688,3.8622192382812495
0.6449999999999818,0.9106750488281252,9.150714111328126,2.8257843017578126
0.6550000000002001,0.05203857421875,9.256436157226563,1.9824005126953128
0.665000000000191,0.68726806640625,9.7892333984375,3.191400146484375
0.6750000000001819,1.6410095214843752,10.511941528320314,4.987030029296875
0.6850000000001728,1.19210205078125,9.9160400390625,4.80728759765625
0.6950000000001637,0.3922332763671875,8.771490478515625,3.179437255859375
0.7050000000001546,0.932806396484375,8.316302490234376,2.3713439941406254
0.7150000000001455,0.9770690917968752,8.232861328125,2.7575958251953128
0.7250000000001364,0.5064788818359376,6.079840087890625,1.89432373046875
0.7350000000001273,0.7004272460937501,4.012203979492188,1.6291961669921875
0.7450000000001182,1.415509033203125,9.122003173828126,1.7548065185546875
0.7560000000000855,0.7675689697265625,16.139434814453125,1.428070068359375
0.7660000000000764,-0.31761474609375,15.860400390625,2.9455627441406254
0.7760000000000673,1.6066162109375002,10.361508178710938,5.532537841796875
0.7860000000000582,1.9919708251953123,7.1242004394531255,8.563485717773439
0.7960000000000491,0.881964111328125,6.899447631835938,7.719802856445313
0.80600000000004,-0.0946563720703125,5.6871582031250005,2.802606201171875
0.8160000000000309,-0.7917938232421876,6.154907226562501,-0.3488677978515625
0.8260000000000218,-1.3633209228515626,10.746115112304688,-0.2343231201171875
0.8360000000000127,-0.0853851318359375,13.801736450195314,2.3040527343750004
0.8460000000000036,1.505828857421875,12.11646423339844,7.02939453125
0.8559999999999945,0.4550384521484375,9.71207275390625,4.962057495117188
0.8659999999999854,2.45,8.606103515625001,4.755099487304688
0.8760000000002037,1.1871673583984377,7.919284057617188,1.3929290771484375
0.8860000000001946,-0.5984436035156251,7.667465209960938,0.413616943359375
0.8970000000001619,-0.5535827636718751,8.260824584960938,2.141806030273438
0.9070000000001528,1.417901611328125,8.457015991210938,4.050634765625
0.9170000000001436,1.9810546875,8.858969116210938,3.458172607421876
0.9270000000001346,0.378924560546875,11.049972534179688,3.028555297851563
0.9370000000001256,0.6537719726562501,12.110781860351564,3.1655303955078127
0.9470000000001164,1.2646270751953126,10.095034790039064,3.20665283203125
0.9570000000001072,0.8551971435546876,7.0344787597656255,2.858831787109376
0.9670000000000982,0.3744384765625,6.932196044921875,3.2239990234375004
0.9770000000000892,0.9183013916015624,8.186206054687501,3.197830200195313
0.98700000000008,0.7167266845703125,8.633020019531251,2.4954589843750004
0.9970000000000708,0.2597442626953125,8.947195434570313,2.003485107421876
1.0070000000000618,0.7991210937500001,10.132717895507811,3.1701660156250004
1.0170000000000528,1.256402587890625,10.87366943359375,5.191296386718751
1.0270000000000437,0.7895507812500001,10.443902587890626,5.013497924804688
1.0370000000000346,0.5342926025390625,9.07789001464844,3.833059692382813
1.0480000000000018,0.8205047607421876,7.9325927734375,2.8052978515625
1.0579999999999927,0.2696136474609375,6.680825805664063,2.385250854492188
1.0679999999999836,-0.633734130859375,4.782614135742188,1.631289672851563
1.078000000000202,-1.3008148193359377,6.012997436523438,1.5044830322265623
1.0880000000001928,-0.08134765625,12.869677734375,2.0363830566406254
1.0980000000001835,1.1659332275390626,17.661413574218752,2.2873046875000003
1.1080000000001746,0.6497344970703125,13.61661071777344,4.281668090820313
1.1180000000001655,2.2040130615234377,7.672549438476563,7.300354003906251
1.1280000000001564,4.123907470703125,6.199468994140625,9.330606079101564
1.1380000000001471,2.764923095703125,4.584478759765625,3.834555053710938
1.1480000000001382,0.6898101806640625,6.269601440429688,-0.7128387451171876
1.1580000000001291,-0.558966064453125,10.592092895507813,-0.3853546142578125
1.16800000000012,-0.5887237548828126,13.15738525390625,-0.7720550537109375
1.1800000000000637,1.598391723632813,11.51831970214844,4.514346313476563
1.1890000000000782,0.8746368408203126,9.655099487304687,8.771340942382814
1.1990000000000691,1.3658630371093752,10.017724609375,3.798516845703125
1.20900000000006,1.15262451171875,9.094937133789063,3.242242431640625
1.219000000000051,-0.189910888671875,6.880606079101563,0.532049560546875
1.2290000000000418,-0.9127685546875,6.889279174804688,-0.2271453857421875
1.2390000000000327,0.48509521484375,8.737695312500001,5.521023559570313
1.2490000000000236,1.64908447265625,9.514984130859377,3.351553344726563
1.2590000000000146,0.3775787353515625,10.103857421875,2.6864166259765625
1.2690000000000057,0.8806182861328126,11.217453002929688,3.1985778808593754
1.2800000000002,1.215728759765625,10.744171142578123,3.8634155273437503
1.2889999999999873,0.4880859375,8.273834228515625,3.6512237548828126
1.2989999999999782,-0.186920166015625,7.270596313476563,2.3667083740234376
1.3090000000001965,0.6485382080078126,8.149569702148439,3.7995635986328127
1.3190000000001874,0.61907958984375,8.361611938476564,2.7118377685546875
1.3290000000001785,0.2415008544921875,8.727078247070313,2.2753417968750003
1.3400000000001455,0.6051727294921876,10.006658935546875,3.4378356933593754
1.3500000000001364,1.2148315429687502,10.637103271484376,4.746426391601563
1.360000000000127,1.1520263671875002,9.982882690429689,4.78575439453125
1.3700000000001182,0.6047241210937501,9.463543701171876,3.382955932617188
1.3800000000001091,0.765625,8.944503784179688,2.61748046875
1.3900000000001,1.07247314453125,8.049829101562501,2.777334594726563
1.400000000000091,0.992620849609375,6.015240478515626,2.535833740234376
1.410000000000082,0.8898895263671875,3.9459594726562495,2.098590087890625
1.4200000000000728,1.3654144287109375,7.4800964355468755,2.284613037109376
1.4300000000000637,0.9224884033203126,14.2968505859375,0.5495452880859375
1.4400000000000546,-0.4221405029296875,16.789617919921877,-0.0222808837890625
1.4500000000000457,0.892431640625,12.250897216796876,5.666073608398438
1.4600000000000364,2.3650634765625003,7.995248413085938,8.650515747070314
1.4700000000000273,1.728936767578125,6.5448974609375,8.378808593750001
1.4809999999999943,-0.38699951171875,5.8834991455078125,3.915155029296875
1.4909999999999854,-0.825140380859375,6.319696044921876,-0.1006378173828125
1.5010000000002035,-1.158306884765625,8.877960205078125,-0.053533935546875
1.5110000000001946,-0.5313018798828125,12.796255493164065,2.356539916992188
1.5210000000001855,1.0132568359375,13.464532470703126,6.175692749023438
1.5310000000001764,0.545208740234375,11.042495727539062,6.170309448242188
1.5410000000001671,1.6538696289062502,8.418585205078125,4.7734924316406255
1.5510000000001585,1.532595825195313,7.884890747070313,1.8659118652343751
1.5610000000001492,0.2839691162109375,8.393313598632814,-0.15491943359375
1.57100000000014,-0.94267578125,8.09229736328125,1.460818481445313
1.581000000000131,0.5621063232421876,7.254446411132813,3.687860107421875
1.591000000000122,2.150927734375,7.986575317382813,3.703561401367188
1.6010000000001128,1.05452880859375,10.5668212890625,3.254953002929688
1.6110000000001037,0.8904876708984376,12.080126953125,3.2897949218750004
1.6210000000000946,0.9960601806640624,11.212966918945312,2.165283203125
1.6320000000000618,1.379620361328125,8.745919799804689,3.6153350830078126
1.6420000000000528,1.088623046875,6.794622802734375,3.628195190429688
1.6520000000000437,0.5873779296875,7.2626708984375,3.187063598632813
1.6620000000000346,0.383709716796875,8.472567749023439,2.8286254882812503
1.6720000000000257,0.4006072998046875,8.958261108398439,2.0015411376953125
1.6820000000000164,0.4918243408203125,9.326568603515623,2.5163940429687504
1.6920000000000073,0.243145751953125,10.316946411132813,3.517987060546876
1.7019999999999982,1.1420074462890626,11.014532470703124,5.9814453125
1.711999999999989,0.95703125,9.965835571289062,5.42218017578125
1.72199999999998,0.3218017578125,8.315554809570314,2.789447021484375
1.7320000000001985,0.707305908203125,8.034426879882814,2.2829681396484376
1.7420000000001892,0.8848052978515626,8.929400634765626,2.7972229003906253
1.75200000000018,-0.05562744140625,7.174444580078125,2.2239013671875
1.762000000000171,-0.940283203125,4.1588989257812505,1.842584228515625
1.772000000000162,-0.1718170166015625,6.977804565429688,2.9869842529296875
1.7830000000001291,1.68497314453125,14.73155212402344,2.3913818359375
1.79300000000012,-0.154022216796875,17.036352539062502,1.6903564453125002
1.803000000000111,-0.2595947265625,11.566769409179688,3.511557006835938
1.8130000000001016,3.174801635742188,7.306634521484375,9.1504150390625
1.8230000000000928,4.438980102539063,6.2841064453125,9.367840576171876
1.833000000000084,2.055224609375,4.470233154296875,2.5608062744140625
1.8430000000000744,0.1102081298828125,7.445254516601563,-0.6974365234375001
1.8530000000000653,-1.320404052734375,12.256729125976564,-0.4634124755859375
1.8630000000000564,-0.44681396484375,12.587951660156252,-0.6950439453125
1.8730000000000475,1.8509582519531247,10.074548339843751,-0.169573974609375
1.8830000000000384,1.2398040771484375,9.444253540039064,13.52225341796875
1.893000000000029,2.4884307861328128,10.371826171875,2.784811401367188
1.9039999999999964,1.55338134765625,8.352490234375,5.265466308593751
1.913000000000011,-0.027813720703125,6.76561279296875,-0.84876708984375
1.9230000000000016,-1.1880645751953125,7.888479614257813,-0.4469635009765625
1.9340000000001965,-0.542218017578125,9.237145996093751,2.12640380859375
1.944000000000188,1.81357421875,9.056805419921876,8.269198608398439
1.9540000000001785,-0.189013671875,9.861309814453126,-1.595849609375
1.9640000000001687,0.6608001708984376,11.4664306640625,6.149075317382813
1.97400000000016,0.93370361328125,10.39261169433594,2.601031494140625
1.984000000000151,0.075067138671875,7.996893310546875,3.3047485351562504
1.9940000000001417,0.05203857421875,7.5518737792968755,3.3807128906250004
2.004000000000133,1.0821929931640626,8.293872070312501,4.1683197021484375
2.014000000000124,0.7894012451171876,8.353686523437501,3.0230224609375003
2.0240000000001146,0.3913360595703125,9.04873046875,2.3040527343750004
2.034000000000105,0.8212524414062501,10.299151611328126,3.426171875
2.0440000000000964,1.6685241699218751,10.22049560546875,4.749267578125
2.054000000000088,1.2547576904296875,9.644631958007814,4.3174072265625005
2.0650000000000546,0.4149627685546875,9.26226806640625,2.596246337890625
2.075000000000045,0.8474212646484376,8.982934570312501,2.3486145019531253
2.0850000000000364,0.98095703125,8.302096557617189,3.0518829345703127
2.09699999999998,0.4009063720703125,6.934887695312501,2.476318359375
2.105000000000018,0.6951934814453126,4.551730346679688,2.711688232421875
2.115000000000009,1.1266052246093752,6.523214721679688,3.1191741943359377
2.125,0.4891326904296875,13.308416748046875,1.6583557128906252
2.134999999999991,-0.488983154296875,17.071343994140626,1.5113616943359376
2.144999999999982,0.6162384033203125,12.519165039062502,2.75445556640625
2.1550000000002,1.7467315673828123,8.07734375,7.047189331054688
2.165000000000191,2.65277099609375,6.667218017578126,9.206042480468753
2.175000000000182,0.6488372802734376,5.937930297851563,4.382904052734375
2.185000000000173,-0.690557861328125,6.276181030273438,-0.46475830078125
2.19600000000014,-0.80091552734375,9.016580200195314,-0.24224853515625
2.206000000000131,-0.1694244384765625,12.3708251953125,-0.4311126708984375
2.216000000000122,1.814620971679688,12.53516540527344,9.38907470703125
2.2260000000001128,0.25899658203125,10.617813110351562,5.907574462890626
2.236000000000104,1.7338714599609375,9.233258056640626,5.198324584960938
2.2460000000000946,1.3453765869140626,8.385986328125,2.5984893798828126
2.256000000000085,-0.4024017333984375,8.422024536132813,-0.332269287109375
2.2660000000000764,-1.008770751953125,8.358621215820314,-0.03887939453125
2.276000000000068,-0.4505523681640625,7.649520874023438,4.746127319335938
2.286000000000058,1.7894989013671876,7.702606201171876,4.45438232421875
2.296000000000049,1.720562744140625,10.067669677734376,3.015545654296876
2.30600000000004,0.4358978271484375,12.225326538085938,2.991171264648438
2.317000000000008,1.1919525146484375,11.367138671875,2.556021118164063
2.326000000000022,1.3096374511718751,8.680572509765625,2.745184326171876
2.3360000000000127,1.40384521484375,7.096536254882813,4.073065185546875
2.346000000000004,0.8098876953125,7.1454345703125,3.4029937744140626
2.3559999999999945,0.7110443115234375,8.242880249023438,2.928366088867188
2.365999999999985,0.5447601318359375,9.170751953125,1.953390502929688
2.37700000000018,0.1969390869140625,9.584069824218751,1.7441894531250002
2.387000000000171,0.591864013671875,10.041201782226564,3.7233001708984377
2.397000000000162,0.805401611328125,10.60809326171875,5.444161987304688
2.407000000000153,0.7385589599609376,10.015182495117188,5.7409912109375005
2.417000000000144,0.4882354736328125,8.504568481445313,3.826031494140625
2.4270000000001346,0.4753753662109375,7.8987976074218755,1.958175659179688
2.437000000000125,0.50184326171875,8.784799194335939,2.50921630859375
2.4470000000001164,-0.271856689453125,6.786398315429688,1.983148193359375
2.457000000000108,-0.6999786376953125,5.051031494140625,2.548544311523438
2.4670000000000982,0.3864013671875,8.981887817382812,2.775689697265625
2.477000000000089,1.146343994140625,14.774169921875002,1.6390655517578123
2.48700000000008,0.1359283447265625,15.446484375,2.6013305664062503
2.498000000000048,1.2656738281250002,10.347152709960938,4.162188720703125
2.507000000000062,3.207998657226563,7.054516601562501,8.519223022460938
2.518000000000029,3.622662353515625,6.224142456054688,7.56712646484375
2.52800000000002,1.0983428955078125,5.5160888671875,1.417901611328125
2.538000000000011,-0.400457763671875,8.268002319335938,-0.6661834716796875
2.548000000000002,-0.97138671875,11.764157104492188,-0.4344024658203125
2.5579999999999927,0.9921722412109376,11.713314819335938,1.155316162109375
2.567999999999984,1.9070343017578129,9.769345092773438,8.710778808593751
2.578000000000202,0.113946533203125,9.817794799804688,4.138113403320313
2.588000000000193,1.7694610595703126,10.311563110351564,4.893569946289063
2.598000000000184,0.6253601074218751,8.578289794921876,2.176348876953125
2.608000000000174,-0.5031890869140625,7.1974731445312505,-0.51260986328125
2.618000000000165,-0.5395263671875,8.171102905273438,2.2952301025390627
2.6280000000001564,1.3199554443359376,9.15400390625,5.069873046875
2.638000000000148,1.0048828125,8.947195434570313,3.094351196289063
2.6490000000001146,0.4553375244140625,10.226028442382812,2.699725341796875
2.658000000000129,0.9580780029296876,11.477346801757813,2.7495208740234376
2.6690000000000964,0.9674987792968752,10.092642211914065,3.0441070556640626
2.679000000000088,0.2196685791015625,7.815206909179688,2.8467193603515626
2.689000000000078,0.4954132080078125,7.590902709960938,3.756198120117188
2.699000000000069,1.36556396484375,8.131326293945314,4.267462158203125
2.70900000000006,0.4198974609375,8.255889892578125,2.2976226806640625
2.719000000000051,-0.1036285400390625,9.433935546875,2.0277099609375
2.729000000000042,0.436944580078125,10.553512573242188,3.584381103515625
2.7390000000000327,1.212738037109375,10.074099731445314,5.42935791015625
2.749000000000024,0.8255889892578125,9.258828735351564,4.818951416015626
2.7590000000000146,0.46954345703125,9.114227294921877,3.283514404296876
2.769000000000005,1.1061187744140626,9.160882568359376,2.744735717773437
2.7789999999999964,0.7167266845703125,8.28370361328125,1.9844940185546875
2.788999999999988,0.4517486572265625,5.538519287109375,1.7700592041015626
2.800000000000182,1.3663116455078126,4.562197875976563,2.9630584716796875
2.810000000000173,1.8881927490234376,9.0738525390625,3.1158843994140626
2.820000000000164,0.4771697998046875,15.399230957031252,0.3138763427734375
2.8300000000001546,-0.363671875,15.105691528320314,0.8990112304687501
2.840000000000145,1.8563415527343752,10.371078491210938,5.260083007812501
2.8500000000001364,1.913912963867188,7.75255126953125,8.7771728515625
2.860000000000128,0.7950836181640626,7.076199340820313,7.284204101562499
2.8700000000001182,-0.52457275390625,6.552224731445313,1.9584747314453128
2.880000000000109,-0.9453674316406252,6.752005004882813,-0.19559326171875
2.8900000000001,-0.7696624755859376,10.03028564453125,1.254010009765625
2.900000000000091,1.00787353515625,12.142782592773438,4.476962280273438
2.910000000000082,0.216229248046875,11.66800537109375,5.235110473632813
2.9200000000000728,0.9752746582031252,10.371826171875,5.7936279296875
2.930000000000064,1.8843048095703123,8.984429931640626,4.24503173828125
2.9400000000000546,0.9411804199218752,8.165121459960938,0.7614379882812501
2.950000000000045,-0.29129638671875,8.782556152343751,0.460870361328125
2.9610000000000127,-0.1233673095703125,8.455371093750001,2.3368011474609376
2.971000000000004,1.5502410888671876,7.311868286132813,3.390133666992188
2.9809999999999945,1.6972351074218752,8.172299194335938,3.7038604736328127
2.990999999999985,0.6679779052734376,11.078683471679687,3.431106567382813
3.001000000000204,0.4678985595703125,12.087005615234377,2.935992431640625
3.011000000000194,0.7496246337890625,10.1935791015625,2.2902954101562503
3.021000000000185,1.1804382324218752,8.11383056640625,3.737655639648438
3.0310000000001764,0.552984619140625,7.092648315429688,3.911715698242188
3.041000000000168,0.40673828125,7.814459228515625,3.1677734375
3.0510000000001583,0.6820343017578125,8.805285644531251,2.8772247314453128
3.061000000000149,0.3050537109375,8.899343872070313,1.7914428710937502
3.07100000000014,0.814373779296875,9.364251708984376,2.6737060546875
3.081000000000131,1.0684356689453125,10.483230590820312,4.357333374023438
3.0920000000000982,0.8957214355468751,10.727871704101563,5.338589477539063
3.102000000000089,1.038677978515625,9.41165466308594,4.700817871093751
3.11200000000008,0.8762817382812501,8.050128173828126,2.850457763671875
3.122000000000071,0.774298095703125,8.351892089843751,2.1669281005859378
3.132000000000062,0.31641845703125,9.035421752929688,2.387045288085938
3.1420000000000528,-0.3384002685546875,6.504522705078125,2.236013793945313
3.152000000000044,-0.5929107666015625,4.8023529052734375,3.051434326171876
3.1620000000000346,-0.133087158203125,8.369985961914063,2.7103424072265625
3.172000000000025,0.6353790283203126,15.32132263183594,1.878173828125
3.1820000000000164,-0.0562255859375,16.57159423828125,1.030154418945313
3.192000000000008,0.883160400390625,11.024850463867187,5.133724975585938
3.201999999999998,3.553875732421876,5.969482421875,8.957812500000001
3.211999999999989,4.023568725585938,4.978356933593751,8.349798583984375
3.223000000000184,1.7995178222656252,5.747570800781251,2.1561614990234377
3.2320000000001983,-0.14534912109375,8.902932739257814,-0.4702911376953125
3.243000000000165,-1.4056396484375,11.522357177734376,-0.2600433349609375
3.2530000000001564,-0.8822631835937501,11.902029418945313,-0.8740386962890626
3.263000000000148,2.32259521484375,10.610934448242189,3.964053344726562
3.2730000000001382,2.062850952148437,9.3753173828125,11.269491577148438
3.283000000000129,0.8049530029296875,9.756185913085938,2.1908538818359378
3.29300000000012,1.038677978515625,8.897698974609376,3.869097900390625
3.303000000000111,0.11304931640625,7.542752075195313,-1.03778076171875
3.313000000000102,-1.0113128662109376,7.645184326171876,-0.202471923828125
3.3230000000000928,-0.115740966796875,8.755639648437501,5.218362426757813
3.333000000000084,1.7793304443359377,9.449337768554688,4.862316894531251
3.3430000000000746,0.916357421875,9.880899047851564,2.65755615234375
3.353000000000065,0.7825225830078125,11.383438110351562,2.087973022460938
3.3630000000000564,1.2453369140625,10.757778930664063,3.475967407226563
3.373000000000048,0.283819580078125,8.111587524414062,3.4599670410156254
3.383000000000038,0.3019134521484375,6.770248413085938,3.2758880615234376
3.394000000000005,1.121820068359375,7.8509460449218755,4.064691162109376
3.4039999999999964,0.4487579345703125,8.891567993164063,2.894869995117188
3.413999999999988,-0.280230712890625,9.423468017578124,1.7705078125000002
3.423999999999978,0.333465576171875,10.107147216796877,3.0354339599609377
3.4340000000001965,1.39906005859375,10.3156005859375,5.545248413085938
3.444000000000188,0.9414794921875,9.575845336914064,5.014096069335938
3.4540000000001783,0.5734710693359375,9.284249877929687,3.56553955078125
3.464000000000169,0.7630828857421875,8.898297119140626,2.2378082275390625
3.47400000000016,0.9722839355468752,7.913751220703125,2.39915771484375
3.484000000000151,0.9954620361328126,4.958767700195313,2.36326904296875
3.4960000000000946,1.2021209716796877,5.106658935546875,2.4280181884765626
3.504000000000133,1.1535217285156252,10.1911865234375,2.423980712890625
3.514000000000124,0.2127899169921875,15.764099121093752,0.1912567138671875
3.525000000000091,0.2397064208984375,14.385525512695311,2.210443115234375
3.535000000000082,1.7344696044921877,10.267300415039063,5.40782470703125
3.5450000000000728,1.6662811279296876,7.450189208984375,8.345910644531251
3.555000000000064,1.2269439697265625,6.513943481445313,7.552471923828126
3.5650000000000546,-0.0704315185546875,5.9024902343750005,1.3573394775390626
3.575000000000045,-0.9733306884765626,7.048684692382813,-0.393280029296875
3.5850000000000364,-1.5660919189453126,10.8946044921875,-0.097796630859375
3.596000000000004,0.5348907470703126,12.747357177734376,5.96170654296875
3.605000000000018,0.95643310546875,11.4807861328125,6.69443359375
3.615000000000009,1.1838775634765626,9.64493103027344,5.672354125976563
3.625,1.7337219238281252,8.908615112304688,3.935791015625
3.634999999999991,1.0220794677734375,9.07789001464844,0.7056610107421876
3.644999999999982,-0.389691162109375,8.612234497070313,-0.14056396484375
3.6550000000002,-0.8513092041015625,7.512695312500001,0.12261962890625
3.665000000000191,1.460818481445313,7.188800048828125,6.214572143554688
3.675000000000182,2.649032592773437,8.648272705078126,3.63133544921875
3.686000000000149,0.3578399658203125,11.52310485839844,2.6947906494140628
3.69600000000014,0.655865478515625,12.185998535156251,2.860626220703125
3.706000000000131,1.1007354736328123,10.056155395507814,2.877972412109376
3.716000000000122,1.092510986328125,7.968780517578126,3.70430908203125
3.7260000000001128,0.48150634765625,7.13048095703125,3.9824462890625
3.736000000000104,0.4430755615234375,7.783505249023438,3.452340698242188
3.746000000000095,0.5568725585937501,8.613580322265626,2.630789184570313
3.7560000000000855,0.14833984375,8.893960571289064,1.3797698974609376
3.766000000000077,0.5191894531250001,9.799102783203123,2.1975830078125003
3.7760000000000673,0.9200958251953124,10.688095092773438,4.493112182617188
3.786000000000058,1.126007080078125,10.380349731445314,5.959912109375001
3.7970000000000255,1.1225677490234376,8.905923461914064,4.637265014648438
3.80600000000004,1.0313507080078126,8.160485839843751,3.233270263671875
3.8170000000000073,0.724652099609375,8.720498657226564,2.3089874267578128
3.828000000000202,0.252716064453125,8.962448120117188,1.851705932617188
3.836999999999989,-0.17047119140625,6.09927978515625,2.3305206298828125
3.84699999999998,0.079254150390625,4.70560302734375,2.9407775878906253
3.8570000000001983,0.3979156494140625,9.88074951171875,3.3534973144531253
3.867000000000189,0.5866302490234375,15.711911010742188,1.3335632324218751
3.87700000000018,-0.4095794677734375,15.019409179687502,1.463360595703125
3.887000000000171,0.789251708984375,9.604855346679688,4.935888671875
3.897000000000162,3.830218505859375,6.981991577148438,9.578387451171876
3.907000000000153,3.2803741455078126,5.950042724609375,6.905429077148438
3.917000000000144,0.2160797119140625,5.665625,0.7375122070312501
3.927000000000135,-0.6820343017578125,8.853585815429689,-0.3840087890625
3.9370000000001255,-0.9974060058593752,11.558395385742188,-0.379522705078125
3.947000000000117,1.5626525878906252,11.429794311523438,2.337997436523437
3.9570000000001073,1.75435791015625,10.033126831054688,7.404132080078125
3.9680000000000746,0.5161987304687501,10.363751220703126,5.771945190429688
3.9780000000000655,2.0392242431640626,9.72388610839844,4.018484497070313
3.988000000000056,0.4705902099609375,8.38299560546875,1.19927978515625
3.9980000000000473,-0.36187744140625,7.780813598632813,-0.3721954345703125
4.008000000000038,-0.2956329345703125,8.009902954101562,1.5897186279296875
4.018000000000029,1.6830291748046875,8.479296875000001,5.8561340332031255
4.02800000000002,0.8860015869140626,8.714068603515626,2.9721801757812503
4.038000000000011,-0.059814453125,10.754937744140626,2.557516479492188
4.048000000000002,1.2701599121093752,11.996087646484376,3.076406860351563
4.057999999999993,0.43724365234375,9.9997802734375,2.9229827880859376
4.067999999999984,0.2032196044921875,7.721298217773438,3.450396728515625
4.078000000000202,0.6572113037109375,7.345962524414063,4.014447021484376
4.088000000000193,1.0448089599609376,8.110391235351564,4.165029907226563
4.098000000000184,0.064898681640625,8.565579223632813,1.96011962890625
4.109000000000151,-0.004486083984375,9.350045776367187,1.7800781250000002
4.119000000000142,1.07486572265625,10.289581298828123,3.62056884765625
4.129000000000133,1.1509796142578126,10.0260986328125,5.177239990234376
4.139000000000124,1.1680267333984375,9.541452026367187,5.2614288330078125
4.149000000000115,0.9724334716796876,9.247912597656253,3.4955566406250003
4.1590000000001055,0.80390625,8.770593261718751,2.134329223632813
4.169000000000096,0.9021514892578124,7.684661865234376,1.9142120361328123
4.179000000000087,0.969891357421875,4.750164794921876,2.3010620117187504
4.189000000000078,1.550390625,5.094845581054688,3.2504669189453126
4.199000000000069,1.2549072265625,11.6363037109375,2.3520538330078127
4.20900000000006,-0.303857421875,16.927041625976564,0.031402587890625
4.219000000000051,-0.04486083984375,13.898486328125,1.6259063720703126
4.229000000000042,1.5339416503906251,9.278717041015623,6.436184692382813
4.239000000000033,1.6674774169921875,6.93309326171875,9.1599853515625
4.25,0.6643890380859375,6.0568115234375,6.180776977539063
4.259999999999991,-0.6084625244140626,5.851199340820313,0.6823333740234375
4.269999999999982,-1.130792236328125,7.913751220703125,-0.1990325927734375
4.2800000000002,-1.423883056640625,11.124142456054688,-0.4508514404296875
4.290000000000191,0.9093292236328124,12.381143188476564,5.665774536132813
4.300000000000182,2.194891357421876,11.104254150390624,8.858370971679689
4.310000000000173,1.442724609375,9.712969970703126,5.5495849609375005
4.320000000000164,2.1521240234375,9.117816162109376,3.031695556640625
4.330000000000155,0.7789337158203126,9.303839111328124,-0.1244140625
4.3400000000001455,-0.4550384521484375,8.780014038085938,-0.0701324462890625
4.350000000000136,-1.1744567871093752,7.022964477539063,-0.4735809326171875
4.360000000000127,0.7236053466796876,6.600823974609376,5.514892578125
4.370000000000118,2.301809692382813,9.071160888671876,5.4793029785156255
4.3810000000000855,0.38580322265625,11.93582458496094,1.7742462158203127
4.3900000000001,0.4062896728515625,12.514978027343751,3.0625
4.401000000000067,1.224700927734375,10.08890380859375,3.02362060546875
4.412000000000035,0.4801605224609375,7.594491577148438,3.5961944580078127
4.421000000000049,1.118829345703125,6.912307739257813,4.586422729492188
4.43100000000004,0.8146728515625,7.709634399414063,3.7022155761718754
4.441000000000031,0.474029541015625,8.636010742187501,1.5613067626953123
4.451000000000022,0.4472625732421875,8.955120849609376,0.94088134765625
4.461000000000013,1.1165863037109376,9.93338623046875,2.220611572265625
4.471000000000004,1.1810363769531251,10.809967041015623,5.380609130859376
4.4809999999999945,1.0567718505859376,10.121353149414062,5.9433135986328125
4.4909999999999854,1.1967376708984376,8.820239257812501,4.649826049804688
4.501000000000204,0.758148193359375,8.378509521484375,3.2612335205078127
4.512000000000171,0.2504730224609375,8.913400268554689,1.8116302490234373
4.5210000000001855,-0.32000732421875,8.195477294921876,2.0248687744140628
4.531000000000176,-0.5779571533203125,5.202212524414063,2.243939208984376
4.542000000000144,-0.840093994140625,5.361767578125001,3.931005859375
4.552000000000135,0.5728729248046875,11.849392700195311,3.031396484375
4.5620000000001255,-0.036785888671875,16.672830200195314,0.1275543212890625
4.572000000000116,0.303558349609375,14.32197265625,2.6046203613281254
4.582000000000107,2.499945068359376,8.47271728515625,6.602169799804688
4.592000000000098,3.957473754882813,5.959164428710938,8.896203613281251
4.602000000000089,3.5618011474609377,5.366552734375,6.033334350585938
4.61200000000008,0.7553070068359375,6.281265258789063,-0.02392578125
4.622000000000071,-0.4414306640625,9.56238708496094,-0.3883453369140625
4.632000000000062,-0.9275726318359376,11.8348876953125,-0.6925018310546875
4.642000000000053,1.045556640625,11.448785400390626,-0.295184326171875
4.652000000000044,1.2258972167968751,10.001873779296876,12.725823974609376
4.662000000000035,1.00009765625,10.07813720703125,3.167623901367188
4.6720000000000255,1.5699798583984377,9.730465698242188,5.3115234375
4.682000000000016,0.07596435546875,8.201010131835938,-0.335858154296875
4.692999999999984,-0.8252899169921876,7.330261230468751,0.0506927490234375
4.701999999999998,-0.73272705078125,8.317349243164063,2.9484039306640626
4.713000000000193,1.4780151367187502,8.821734619140626,5.084078979492188
4.723000000000184,0.8480194091796875,8.877810668945314,2.847467041015625
4.733000000000175,0.890936279296875,10.937371826171876,2.5317962646484378
4.7430000000001655,1.3734893798828125,12.024649047851565,2.8929260253906253
4.753000000000156,0.9903778076171876,9.55775146484375,3.56553955078125
4.763000000000147,0.2776885986328125,7.055712890625,2.961862182617188
4.773000000000138,0.91336669921875,7.411758422851563,4.135571289062501
4.783000000000129,1.078155517578125,8.407818603515626,3.8880889892578128
4.79300000000012,-0.1435546875,8.396752929687501,1.9376892089843751
4.803000000000111,-0.1454986572265625,9.553115844726562,2.033990478515625
4.813000000000102,0.7333251953125001,10.725778198242187,4.37901611328125
4.823000000000093,0.7309326171875,10.115072631835938,5.313766479492188
4.83400000000006,0.6630432128906251,9.582125854492189,4.6094512939453125
4.844000000000051,0.514404296875,9.204098510742188,2.974722290039063
4.854000000000042,0.9051422119140624,8.739190673828126,2.3849517822265627
4.864000000000033,0.8813659667968751,7.956817626953126,2.296127319335937
4.874000000000024,0.8955718994140626,6.641946411132813,2.485589599609375
4.884000000000015,1.182830810546875,4.590161132812501,2.772848510742188
4.8940000000000055,1.4934173583984376,7.721746826171875,3.2076995849609378
4.903999999999996,0.5944061279296875,15.57987060546875,1.6245605468750002
4.913999999999987,0.188116455078125,15.968814086914064,0.7421478271484375
4.923999999999978,0.72794189453125,10.470819091796876,2.925375366210938
4.9340000000001965,2.409176635742188,7.251156616210938,8.9542236328125
4.944000000000187,2.1310394287109378,6.717163085937501,8.601617431640626
4.954000000000178,-0.2380615234375,6.130682373046875,2.6074615478515626
4.964000000000169,-0.7500732421875,6.598281860351563,-0.4294677734375
4.97400000000016,-1.6134948730468752,10.819985961914064,-0.4131683349609375
4.985000000000127,-1.0759124755859375,12.202447509765626,-0.512908935546875
4.995000000000118,2.342034912109375,10.84376220703125,11.683407592773438
5.005000000000109,0.72076416015625,10.041949462890626,5.457022094726563
5.0150000000001,2.36326904296875,9.62220153808594,5.283111572265625
5.025000000000091,1.1482879638671877,9.19034118652344,1.3402923583984376
5.035000000000082,-0.5909667968750001,8.585467529296876,-0.329876708984375
5.045000000000073,-0.8402435302734376,8.081082153320313,-0.398663330078125
5.055000000000064,-0.2811279296875,7.438824462890626,1.2070556640625
5.065000000000055,2.941973876953125,7.61318359375,9.632818603515624
5.0750000000000455,0.9630126953125,10.284796142578124,-1.3663116455078126
5.085000000000036,0.6694732666015626,12.878948974609376,5.425021362304688
5.095000000000027,1.3067962646484377,11.058645629882813,1.8892395019531247
5.105000000000018,0.4457672119140625,7.933340454101563,3.165679931640625
5.115000000000009,1.3528533935546876,7.414749145507813,4.685714721679688
5.126000000000204,0.868505859375,7.6694091796875,3.930108642578125
5.136000000000195,0.173162841796875,8.278619384765626,2.4504486083984376
5.1460000000001855,0.045758056640625,8.812164306640625,1.088623046875
5.156000000000176,0.5985931396484375,9.785345458984375,1.8783233642578123
5.166000000000167,0.9589752197265624,10.263113403320313,4.431204223632813
5.176000000000158,0.80869140625,10.122399902343751,5.636764526367188
5.186000000000149,1.1761016845703125,9.654052734375,5.515042114257813
5.19600000000014,0.7328765869140625,8.55047607421875,3.9082763671875
5.206000000000131,0.6911560058593751,8.508456420898439,2.0019897460937504
5.216000000000122,0.160003662109375,8.751153564453126,1.8898376464843751
5.226000000000113,-0.4667022705078125,6.004473876953125,1.8348083496093752
5.236000000000104,-0.6228179931640625,4.518682861328125,3.5094635009765627
5.246000000000095,1.3678070068359376,10.767947387695314,3.658251953125
5.2560000000000855,0.366363525390625,16.200296020507814,0.3548492431640625
5.266000000000076,-0.2549591064453125,14.28189697265625,1.6179809570312502
5.276000000000067,1.535137939453125,9.36634521484375,6.02032470703125
5.287000000000035,3.872088623046875,7.173098754882813,9.575247192382813
5.2970000000000255,2.521627807617188,5.256344604492188,5.528948974609375
5.307000000000016,-0.2325286865234375,5.7589355468750005,-0.0788055419921875
5.317000000000007,-0.1772003173828125,9.258828735351564,-0.435748291015625
5.326999999999998,0.185723876953125,12.028836059570311,-0.584686279296875
5.336999999999989,2.574114990234375,10.577737426757814,6.654507446289063
5.34699999999998,0.1514801025390625,9.744970703125,4.248321533203125
5.357000000000198,1.2701599121093752,10.929446411132814,6.812567138671875
5.367000000000189,1.8807159423828128,10.217056274414062,4.06798095703125
5.37700000000018,-0.096002197265625,7.8614135742187505,0.310137939453125
5.387000000000171,-0.55447998046875,7.425814819335938,-0.44561767578125
5.397000000000162,-0.6745574951171875,8.474511718750001,0.41929931640625
5.407000000000153,2.016644287109376,8.442959594726563,8.205197143554688
5.41800000000012,0.30146484375,8.624047851562501,0.4442718505859375
5.428000000000111,0.4445709228515625,10.96219482421875,4.251760864257813
5.438000000000102,1.6698699951171876,12.065621948242187,3.035882568359375
5.448000000000093,0.2235565185546875,9.493600463867187,2.8389434814453125
5.458000000000084,0.1547698974609375,7.822683715820313,3.223699951171876
5.468000000000075,1.009219360351563,7.811618041992188,4.629190063476563
5.4780000000000655,0.7778869628906251,7.798907470703125,3.714477539062501
5.488000000000056,0.1326385498046875,8.24063720703125,1.657159423828125
5.498000000000047,-0.15611572265625,9.681866455078126,2.2751922607421875
5.508000000000038,1.0099670410156252,10.4854736328125,3.692645263671875
5.518000000000029,1.1841766357421877,9.749456787109375,5.277130126953125
5.52800000000002,0.8800201416015626,9.488067626953123,4.844671630859375
5.538000000000011,0.9842468261718752,9.602761840820314,3.6092041015625
5.548000000000002,0.7929901123046875,8.934783935546875,2.2292846679687504
5.557999999999993,0.7261474609375,8.213571166992189,1.93140869140625
5.569000000000187,0.8694030761718751,6.930551147460938,2.4040924072265626
5.579000000000178,0.90738525390625,4.0614013671875,2.449700927734375
5.589000000000169,1.4566314697265623,6.465792846679688,3.4166015625000004
5.59900000000016,0.78177490234375,15.043634033203126,2.3224456787109378
5.609000000000151,-0.7076049804687501,17.12472839355469,0.0889739990234375
5.619000000000142,0.5905181884765626,11.351885986328126,2.516842651367188
5.629000000000133,2.0795989990234376,7.905975341796876,8.849847412109376
5.639000000000124,2.2402008056640628,7.015936279296875,9.642388916015626
5.649000000000115,0.0669921875,5.701364135742188,2.9280670166015628
5.6590000000001055,-0.817364501953125,5.657550048828125,-0.3672607421875
5.669000000000096,-1.213037109375,10.1194091796875,-0.310137939453125
5.679000000000087,-0.7913452148437501,12.549520874023438,-0.813177490234375
5.689000000000078,2.2406494140625,11.270986938476565,9.783999633789064
5.699000000000069,1.3396942138671877,10.036865234375,6.390426635742188
5.711000000000013,2.5147491455078126,10.01697692871094,5.92222900390625
5.720000000000027,1.1892608642578126,8.803790283203126,1.6498321533203126
5.730000000000018,-0.41630859375,8.40692138671875,-0.3013153076171875
5.740000000000009,-0.9511993408203124,8.586065673828125,-0.3087921142578125
5.75,-0.7557556152343751,7.337588500976563,0.77698974609375
5.759999999999991,2.027410888671876,7.174295043945313,8.682516479492188
5.769999999999982,1.15023193359375,10.157989501953123,0.27095947265625
5.7800000000002,0.3808685302734375,13.086953735351564,5.004824829101563
5.790000000000191,1.155764770507813,11.45850524902344,1.900454711914063
5.800000000000182,0.7309326171875,8.206094360351564,2.5602081298828128
5.811000000000149,1.1331848144531251,7.17833251953125,4.383801269531251
5.820000000000164,1.1684753417968752,7.536172485351563,4.448699951171875
5.832000000000107,0.7315307617187501,7.92900390625,3.0055267333984377
5.841000000000122,0.3629241943359375,8.556906127929688,0.9082824707031252
5.850000000000136,0.5203857421875,9.64208984375,1.7053100585937502
5.861000000000104,1.1005859375,10.473959350585938,4.1690673828125
5.871000000000095,0.8816650390625,10.713366699218753,5.273092651367188
5.8810000000000855,0.7228576660156251,9.714315795898438,5.529098510742188
5.891000000000076,0.97437744140625,8.5654296875,3.852499389648438
5.901000000000067,0.7098480224609376,8.342620849609375,2.4372894287109377
5.911000000000058,-0.045159912109375,8.78076171875,1.9604187011718752
5.921000000000049,0.1128997802734375,8.879156494140625,2.23287353515625
5.93100000000004,-0.1146942138671875,6.373080444335938,2.7707550048828127
5.941000000000031,0.0554779052734375,4.729229736328126,3.4477050781250003
5.951000000000022,0.2911468505859375,8.824874877929688,3.4028442382812503
5.961000000000013,0.1870697021484375,15.934719848632811,1.0515380859375
5.971000000000004,0.5263671875,16.60030517578125,1.047650146484375
5.9809999999999945,1.38948974609375,9.94519958496094,4.233816528320313
5.9909999999999854,3.7663665771484376,5.640203857421875,9.334942626953126
6.001000000000204,4.131683349609375,5.9204345703125005,8.744873046875
6.012000000000171,1.02880859375,5.743533325195313,2.53074951171875
6.022000000000162,-0.4445709228515625,8.300302124023439,-0.5135070800781251
6.032000000000153,-1.7204132080078127,11.577984619140626,-0.5241241455078125
6.042000000000144,-1.25191650390625,12.305776977539065,-0.91815185546875
6.052000000000135,1.4419769287109376,10.809219360351562,-0.225201416015625
6.0620000000001255,1.5671386718750002,9.186004638671877,17.213851928710938
6.072000000000116,1.7500213623046876,9.576742553710938,0.2657257080078125
6.082000000000107,1.64908447265625,8.779415893554688,5.2389984130859375
6.092000000000098,-0.087628173828125,7.882348632812499,0.322698974609375
6.102000000000089,-0.9640594482421876,7.784701538085938,-0.8803192138671876
6.11200000000008,-1.0189392089843752,8.264263916015626,-0.6805389404296875
6.122000000000071,3.185867309570313,8.78614501953125,10.923464965820314
6.132000000000062,1.797723388671875,10.179373168945313,2.18023681640625
6.143000000000029,0.19200439453125,11.965582275390624,-1.447509765625
6.15300000000002,1.2088500976562502,10.855874633789064,6.772491455078126
6.163000000000011,0.5263671875,7.824627685546876,2.0398223876953128
6.173000000000002,-0.153125,6.792977905273438,4.199722290039063
6.182999999999993,0.8990112304687501,8.1790283203125,4.1992736816406255
6.192999999999984,0.213836669921875,8.840426635742189,2.8688507080078125
6.203000000000202,-0.6015838623046875,9.03003845214844,1.5828399658203127
6.213000000000193,0.495562744140625,10.106997680664064,3.2024658203125003
6.223000000000184,1.2716552734375002,10.48233337402344,5.372982788085938
6.233000000000175,1.0430145263671875,9.71670837402344,5.346365356445313
6.2430000000001655,0.7481292724609375,9.076992797851563,3.571969604492188
6.253000000000156,1.2371124267578126,8.850894165039064,2.2832672119140627
6.263000000000147,1.0379302978515623,8.148373413085938,2.0133544921875
6.273000000000138,1.044061279296875,5.802749633789063,2.160797119140625
6.283000000000129,1.5476989746093752,4.2904907226562505,2.632882690429688
6.294000000000096,1.5897186279296875,8.720050048828126,2.5975921630859378
6.304000000000087,0.24464111328125,15.905261230468753,0.6730621337890625
6.314000000000078,-0.098394775390625,15.535458374023438,0.5997894287109375
6.324000000000069,0.9404327392578126,10.564279174804687,5.033685302734376
6.33400000000006,1.7702087402343751,7.866049194335938,9.344812011718751
6.344000000000051,0.992620849609375,6.692639160156251,8.051922607421876
6.354000000000042,-0.2178741455078125,5.804095458984375,2.8020080566406254
6.364000000000033,-0.7517181396484376,6.347061157226563,-0.2537628173828125
6.374000000000024,-1.565493774414063,10.342068481445311,-0.224603271484375
6.384000000000015,-0.7935882568359376,12.466677856445314,0.0584686279296875
6.3940000000000055,2.1646850585937503,11.671444702148438,9.961349487304688
6.403999999999996,1.0786041259765626,10.187896728515623,6.044100952148438
6.413999999999987,2.462860107421875,9.055758666992189,4.920785522460938
6.423999999999978,1.4047424316406252,8.74786376953125,0.6482391357421875
6.4340000000001965,-0.1945465087890625,9.006112670898439,0.1197784423828125
6.444000000000187,-0.715679931640625,8.020819091796875,-0.2133880615234375
6.455000000000155,0.5211334228515625,6.985430908203125,3.9193420410156254
6.4650000000001455,2.32857666015625,8.008258056640626,5.462554931640625
6.475000000000136,0.077459716796875,10.7055908203125,2.66353759765625
6.485000000000127,0.1640411376953125,12.504510498046876,2.999993896484375
6.495000000000118,1.233673095703125,10.959802246093751,2.770455932617188
6.505000000000109,0.7325775146484376,8.317349243164063,3.326431274414063
6.5150000000001,0.6353790283203126,6.931747436523438,4.053326416015626
6.527000000000044,1.044061279296875,7.539761352539063,3.6802337646484378
6.535000000000082,0.962713623046875,8.714068603515626,3.1492309570312504
6.545000000000073,0.1543212890625,8.61866455078125,0.9431243896484376
6.555000000000064,0.8647674560546875,9.362008666992187,1.7775360107421876
6.565000000000055,1.3624237060546875,10.696768188476565,4.252209472656251
6.5750000000000455,0.7905975341796876,10.66910400390625,5.459713745117188
6.586000000000013,1.1400634765625002,9.322979736328126,5.207296752929688
6.596000000000004,0.8658142089843751,8.174392700195312,3.436788940429688
6.6059999999999945,0.555975341796875,8.607000732421875,2.560357666015625
6.6159999999999854,0.1888641357421875,8.883193969726562,2.0649444580078127
6.62700000000018,-0.1012359619140625,8.75623779296875,2.027560424804688
6.636000000000195,-0.0423187255859375,6.9447570800781255,2.7792785644531253
6.6460000000001855,-0.32838134765625,5.068676757812501,3.658551025390625
6.656000000000176,0.8360565185546875,9.334344482421876,4.324734497070313
6.666000000000167,0.0548797607421875,15.467568969726564,1.2098968505859375
6.676000000000158,-0.2887542724609375,15.14128112792969,0.562255859375
6.686000000000149,1.524072265625,9.453375244140624,5.134024047851563
6.69600000000014,3.306393432617188,6.183468627929688,8.586813354492188
6.706000000000131,3.873883056640625,6.562542724609376,8.010052490234376
6.716000000000122,1.0427154541015626,6.041708374023438,1.5971954345703123
6.727000000000089,-0.5621063232421876,8.6623291015625,-0.5127593994140626
6.73700000000008,-1.260440063476563,11.952871704101565,-0.6587066650390625
6.747000000000071,0.4305145263671875,11.549423217773438,-0.7313812255859375
6.757000000000062,2.0751129150390626,9.608145141601565,5.4348907470703125
6.767000000000053,0.94088134765625,9.798504638671876,9.651361083984376
6.777000000000044,2.117880249023438,9.667810058593751,4.188955688476563
6.787000000000035,0.258697509765625,8.492456054687501,1.6689727783203123
6.7970000000000255,-0.04486083984375,8.054913330078126,-0.6030792236328125
6.807000000000016,-0.93968505859375,8.619561767578126,-0.1407135009765625
6.817000000000007,1.0413696289062502,8.703601074218751,8.382546997070314
6.826999999999998,0.9800598144531252,8.319741821289064,1.6105041503906252
6.836999999999989,0.4080841064453125,10.1959716796875,3.7340667724609378
6.848000000000184,1.6535705566406251,12.070855712890626,2.5627502441406254
6.857000000000198,0.3046051025390625,10.201504516601563,2.1569091796875
6.867000000000189,0.429168701171875,7.735504150390626,3.3795166015625004
6.878000000000156,0.8034576416015625,7.392169189453125,4.146038818359376
6.888000000000147,1.0415191650390625,8.082427978515625,4.232022094726563
6.898000000000138,0.3632232666015625,8.468081665039064,2.350558471679688
6.908000000000129,-0.0186920166015625,9.432440185546875,1.8424346923828123
6.91800000000012,0.8540008544921875,10.467678833007811,3.5949981689453128
6.928000000000111,0.9752746582031252,9.772634887695313,5.164080810546875
6.938000000000102,0.731231689453125,9.392364501953123,4.934243774414063
6.948000000000093,0.69085693359375,9.4758056640625,3.8676025390625
6.958000000000084,0.7944854736328125,8.935830688476564,2.439682006835937
6.968000000000075,0.8239440917968751,7.740887451171876,1.7574981689453126
6.9780000000000655,0.7155303955078125,5.764169311523438,2.211639404296875
6.988000000000056,1.3504608154296875,4.883102416992188,3.403143310546876
6.998000000000047,0.938787841796875,10.212420654296876,3.136221313476563
7.008000000000038,-0.1993316650390625,16.60135192871094,0.625958251953125
7.0190000000000055,0.5621063232421876,14.325860595703126,2.029653930664063
7.028999999999996,0.6151916503906251,9.517526245117187,3.740646362304688
7.038999999999987,2.236911010742188,7.6215576171875,9.499432373046876
7.048999999999978,2.261434936523438,6.5036254882812505,7.643838500976563
7.0590000000001965,-0.422589111328125,4.742837524414063,0.7557556152343751
7.069000000000187,-0.8806182861328126,7.041058349609376,-0.4415802001953125
7.079000000000178,-1.283319091796875,11.73380126953125,-0.6051727294921876
7.089000000000169,0.093609619140625,12.70862731933594,-0.6041259765625
7.09900000000016,2.373886108398437,10.080380249023438,13.832540893554688
7.109000000000151,1.747927856445313,9.687698364257812,5.223147583007813
7.119000000000142,2.403045654296875,10.053164672851564,5.424572753906251
7.129000000000133,0.2752960205078125,9.4088134765625,0.056524658203125
7.139000000000124,-0.7897003173828125,8.756088256835938,0.0228790283203125
7.149000000000115,-1.19329833984375,7.462451171875,-0.5431152343750001
7.1590000000001055,-0.29727783203125,6.714471435546876,0.855047607421875
7.170000000000073,2.4863372802734376,8.0211181640625,10.745068359375
7.180000000000064,0.5166473388671875,11.649462890625,-1.4587249755859375
7.190000000000055,0.9108245849609377,13.209124755859376,3.837545776367188
7.2000000000000455,1.320404052734375,10.305282592773438,3.456976318359376
7.210000000000036,0.761138916015625,7.568771362304688,2.6103027343750003
7.220000000000027,1.3338623046875,7.787542724609375,5.0879669189453125
7.230000000000018,0.9090301513671876,7.655203247070313,4.032241821289063
7.240000000000009,0.175555419921875,7.657147216796876,1.71846923828125
7.25,0.4305145263671875,8.863754272460938,1.0795013427734377
7.259999999999991,0.55567626953125,10.3371337890625,1.6284484863281252
7.269999999999982,0.8065979003906251,10.48248291015625,4.733715820312501
7.2800000000002,1.0516876220703126,9.977947998046876,5.992959594726563
7.290000000000191,1.1261566162109375,9.317745971679688,5.527304077148438
7.300000000000182,0.7596435546875,8.47510986328125,3.8556396484375
7.310000000000173,0.3883453369140625,8.832949829101564,1.7574981689453126
7.32100000000014,-0.02930908203125,8.932391357421876,1.8849029541015627
7.331000000000131,-0.423785400390625,5.86839599609375,2.004830932617188
7.341000000000122,-0.20635986328125,4.282864379882813,3.881808471679688
7.351000000000113,1.0567718505859376,10.804284667968751,3.6283447265625
7.361000000000104,-0.0665435791015625,16.281195068359377,0.45040283203125
7.371000000000095,-0.2914459228515625,14.12159423828125,0.8978149414062501
7.381000000000085,1.899407958984375,9.078338623046877,6.026605224609376
7.391000000000076,3.8716400146484378,7.206594848632813,9.378158569335938
7.401000000000067,2.9023468017578127,5.756692504882813,6.026904296875
7.411000000000058,-0.2202667236328125,5.8307128906250005,-0.0438140869140625
7.421000000000049,-0.29488525390625,9.07803955078125,-0.4415802001953125
7.43100000000004,0.1966400146484375,11.601312255859376,-0.539825439453125
7.441000000000031,2.600732421875,10.658786010742189,5.113687133789063
7.451999999999998,0.157012939453125,9.9495361328125,5.3661041259765625
7.461999999999989,0.8468231201171875,10.960101318359376,6.780117797851563
7.47199999999998,1.9674468994140624,10.097726440429687,4.343276977539063
7.482000000000198,-0.0970489501953125,7.788739013671876,0.41092529296875
7.492000000000189,-0.7256988525390625,7.854385375976563,-0.3982147216796875
7.50200000000018,-0.8326171875,8.739788818359376,0.21353759765625
7.512000000000171,1.8807159423828128,8.136410522460938,8.043847656250001
7.522000000000162,0.7554565429687501,8.156597900390626,0.9752746582031252
7.532000000000153,0.7316802978515625,10.893707275390623,4.0805419921875
7.542000000000144,1.3313201904296876,12.309515380859375,2.7000244140625003
7.552000000000135,0.6634918212890626,9.919927978515624,2.9291137695312504
7.562000000000125,0.3361572265625,7.718905639648438,2.938983154296875
7.572000000000116,1.0113128662109376,7.659988403320313,4.559655761718751
7.582000000000107,1.0503417968750002,7.829861450195313,4.106411743164063
7.592000000000098,0.0372344970703125,8.270693969726564,1.74837646484375
7.602000000000089,-0.4466644287109375,9.49554443359375,2.1168334960937503
7.613000000000056,0.8390472412109375,10.28016052246094,3.689505004882813
7.623000000000047,1.1601013183593751,10.011593627929688,5.403637695312501
7.633000000000038,0.2702117919921875,9.657940673828126,4.704107666015625
7.643000000000029,0.90858154296875,9.672744750976562,3.5975402832031254
7.65300000000002,1.059613037109375,8.755340576171875,2.775241088867188
7.663000000000011,0.8154205322265625,7.632473754882813,1.6598510742187502
7.673000000000002,0.9574798583984376,5.037722778320313,2.051934814453125
7.682999999999993,1.7198150634765623,4.238153076171876,3.1430999755859377
7.692999999999984,2.15989990234375,11.951525878906253,2.8658599853515625
7.703000000000202,0.277239990234375,16.773617553710938,0.7253997802734375
7.713000000000193,-0.6282012939453125,13.060635375976563,-0.4311126708984375
7.723000000000184,1.88953857421875,9.293521118164064,6.948046875
7.733000000000175,1.8219482421875,8.04803466796875,10.68525390625
7.744000000000142,0.4366455078125,6.912606811523438,5.920733642578125
7.754000000000133,-0.5154510498046876,5.273541259765626,1.1065673828125
7.764000000000124,-1.0623046875000002,7.640399169921875,-0.435150146484375
7.774000000000115,-1.9077819824218751,11.5142822265625,-0.6304443359375
7.7840000000001055,0.4933197021484375,11.411251831054688,6.074606323242188
7.794000000000096,0.8339630126953126,10.223336791992187,6.631927490234376
7.804000000000087,1.927072143554688,10.634561157226564,6.697573852539063
7.814000000000078,2.2591918945312504,9.80164489746094,3.456378173828125
7.824000000000069,0.6485382080078126,9.076992797851563,-0.198583984375
7.83400000000006,-0.4445709228515625,8.823080444335938,-0.1870697021484375
7.844000000000051,-0.4795623779296875,7.633969116210938,-0.541021728515625
7.854000000000042,2.2412475585937504,6.416744995117188,7.711428833007813
7.864000000000033,1.8262847900390624,8.12698974609375,3.1099029541015626
7.874000000000024,-0.0287109375,12.089248657226562,1.3244415283203126
7.8840000000000146,0.6969879150390625,12.704141235351564,4.547692871093751
7.894000000000005,0.7065582275390625,9.696221923828126,1.520632934570313
7.9050000000002,0.6404632568359375,8.226730346679688,3.925323486328125
7.915000000000191,0.8783752441406251,7.576547241210938,4.8844482421875
7.926000000000158,0.44801025390625,7.318746948242188,3.7756378173828127
7.935000000000173,0.6939971923828125,8.1168212890625,2.106515502929688
7.945000000000164,0.1389190673828125,9.02958984375,1.0184906005859375
7.955000000000155,1.0431640625,10.067221069335938,2.1799377441406254
7.9650000000001455,1.235467529296875,10.355825805664065,4.4872802734375
7.975000000000136,1.131689453125,10.099072265625,5.9208831787109375
7.985000000000127,1.6704681396484375,9.324624633789064,5.3990020751953125
7.995000000000118,0.8399444580078126,8.4828857421875,3.244036865234375
8.00500000000011,0.4391876220703125,8.767901611328126,1.729534912109375
8.0150000000001,0.1529754638671875,8.932540893554688,1.7552551269531251
8.026000000000067,-0.111553955078125,6.808529663085938,2.9004028320312503
8.036000000000058,0.0937591552734375,4.302304077148438,2.99072265625
8.04600000000005,-0.284716796875,7.649670410156251,3.7319732666015626
8.05600000000004,0.0082244873046875,15.589141845703129,1.1204742431640626
8.066000000000031,0.2452392578125,16.649951171875003,0.8797210693359375
8.076000000000022,0.3677093505859375,10.66910400390625,2.7904937744140628
8.086000000000013,3.850405883789063,6.795370483398438,10.369284057617188
8.096000000000004,4.413409423828125,6.251058959960938,9.522610473632811
8.105999999999995,0.8868988037109375,5.275784301757813,2.6870147705078127
8.115999999999985,-0.3228485107421875,7.701708984375,-0.570928955078125
8.12700000000018,-1.1444000244140626,11.38553161621094,-0.3907379150390625
8.136000000000195,-0.8614776611328125,11.854925537109375,-0.76383056640625
8.146000000000186,1.0338928222656252,9.7700927734375,-0.7101470947265626
8.156000000000176,1.6489349365234376,9.679922485351565,14.019610595703126
8.166000000000167,2.2162750244140628,10.594934082031251,4.869644165039063
8.176000000000158,1.5216796875,9.182116699218753,3.6033721923828126
8.18600000000015,-0.22490234375,7.920928955078126,-0.13817138671875
8.197000000000116,-0.8695526123046876,8.220001220703125,-0.6389678955078125
8.207000000000107,-1.1013336181640625,8.346807861328125,-0.33974609375
8.217000000000098,2.6744537353515625,7.933789062500001,12.088800048828126
8.22700000000009,0.8360565185546875,9.265109252929689,0.1359283447265625
8.23700000000008,0.3324188232421875,12.425256347656251,-0.99710693359375
8.247000000000071,1.4605194091796876,11.33887634277344,6.876419067382813
8.257000000000062,0.4115234375,8.118167114257814,1.5423156738281252
8.267000000000053,-0.0626556396484375,7.1496215820312505,4.766165161132813
8.277000000000044,1.6096069335937502,8.141046142578126,4.571170043945313
8.287000000000035,0.8593841552734376,8.387780761718751,3.1643341064453128
8.297000000000025,-0.4098785400390625,8.7173583984375,1.3271331787109375
8.307000000000016,0.131890869140625,9.996041870117187,2.579049682617188
8.317000000000007,1.725946044921875,10.355377197265623,5.528500366210938
8.328000000000202,0.715679931640625,9.565078735351562,4.77618408203125
8.338000000000193,0.535040283203125,9.36993408203125,3.9824462890625
8.348000000000184,1.167279052734375,8.972915649414062,2.656060791015625
8.358000000000175,1.1354278564453126,7.138107299804688,1.923483276367188
8.368000000000166,1.00428466796875,4.059756469726563,1.900006103515625
8.378000000000156,1.524072265625,6.373529052734376,3.2376068115234378
8.388000000000147,0.9227874755859377,13.96293640136719,2.1968353271484378
8.398000000000138,-0.4631134033203125,15.535009765625,0.0330474853515625
8.40800000000013,0.1311431884765625,11.783746337890626,0.6120513916015625
8.41800000000012,2.5983398437500003,9.674240112304688,10.16651306152344
8.428000000000111,1.294384765625,7.619464111328125,7.7073913574218755
8.438000000000102,-0.1069183349609375,5.548239135742188,3.562548828125
8.44900000000007,-0.5514892578125,5.828021240234375,0.7550079345703126
8.458000000000084,-0.8540008544921875,9.033926391601565,0.036187744140625
8.468000000000075,-0.0130096435546875,11.007504272460938,2.134030151367188
8.478000000000065,0.6836791992187501,11.273529052734377,5.525360107421875
8.489000000000033,1.1584564208984376,11.28982849121094,7.61796875
8.499000000000024,2.123712158203125,10.248458862304688,5.899499511718751
8.509000000000015,1.12271728515625,8.650814819335938,1.3370025634765623
8.519000000000005,-0.09151611328125,9.400738525390626,-0.1748077392578125
8.528999999999996,-0.88944091796875,9.1408447265625,0.012860107421875
8.538999999999987,0.8710479736328126,6.741537475585938,3.6859161376953127
8.548999999999978,1.6890106201171875,6.163580322265625,3.757543945312501
8.559000000000196,0.8770294189453126,9.725381469726564,4.084729003906251
8.569000000000187,0.5384796142578125,12.615167236328126,3.3328613281250004
8.579000000000178,0.4876373291015625,11.48123474121094,1.6475891113281251
8.590000000000146,0.768316650390625,9.5356201171875,2.828924560546876
8.59900000000016,1.262384033203125,8.355331420898438,4.754650878906251
8.609000000000151,0.75306396484375,7.185809326171875,3.9746704101562496
8.619000000000142,0.4580291748046875,7.2871948242187505,2.94586181640625
8.63000000000011,0.74468994140625,8.673843383789062,2.3822601318359378
8.6400000000001,0.6422576904296875,9.3226806640625,1.6060180664062502
8.650000000000091,0.503338623046875,9.683062744140626,1.909127807617188
8.660000000000082,1.1710174560546875,10.664617919921875,4.806390380859376
8.670000000000073,1.1952423095703126,10.389321899414064,6.0808868408203125
8.680000000000064,1.1385681152343752,8.739489746093751,4.64219970703125
8.690000000000055,0.813177490234375,8.129830932617189,2.7975219726562504
8.700000000000045,0.338250732421875,8.935083007812501,2.31661376953125
8.710000000000036,0.2268463134765625,8.737246704101564,2.0875244140625
8.720000000000027,-0.2053131103515625,6.118719482421875,2.412017822265625
8.730000000000018,-0.0545806884765625,4.918991088867188,3.2328216552734377
8.740000000000009,0.509619140625,10.402780151367187,3.570025634765625
8.75,0.0130096435546875,15.781744384765624,0.8391967773437501
8.759999999999991,-0.2624359130859375,13.968170166015629,1.2312805175781252
8.769999999999982,1.3658630371093752,9.446646118164065,5.3690948486328125
8.781000000000176,3.9132110595703127,7.326373291015625,10.002471923828123
8.791000000000167,2.99251708984375,6.108102416992188,6.90079345703125
8.801000000000158,-0.0213836669921875,5.907275390625,0.612799072265625
8.81100000000015,-0.3147735595703125,8.940765380859375,-0.4589263916015625
8.82100000000014,-0.268267822265625,11.938067626953126,-0.5105163574218751
8.831000000000131,1.541119384765625,11.160031127929688,0.107666015625
8.842000000000098,0.5030395507812501,9.464141845703123,9.4853759765625
8.851000000000113,1.208551025390625,10.088604736328126,5.104266357421875
8.861000000000104,1.9678955078125,9.888525390625,4.958767700195313
8.871000000000095,0.3521575927734375,8.575448608398439,1.0708282470703123
8.881000000000085,-0.5166473388671875,7.883395385742188,-0.2009765625
8.891000000000076,-0.8704498291015625,8.508905029296876,-0.108563232421875
8.901000000000067,1.7619842529296876,8.599972534179688,8.44879150390625
8.911000000000058,0.9194976806640626,8.160485839843751,1.50911865234375
8.922000000000025,0.1182830810546875,10.26700134277344,3.168820190429688
8.932000000000016,1.5216796875,12.02076110839844,2.999993896484375
8.942000000000007,0.714483642578125,10.10086669921875,2.9863861083984378
8.951999999999998,0.1481903076171875,7.863955688476563,2.637667846679688
8.961999999999989,0.5480499267578125,7.5701171875,4.081887817382813
8.97199999999998,1.54261474609375,8.23585205078125,4.559356689453125
8.982000000000198,0.340643310546875,8.472866821289063,2.16827392578125
8.99200000000019,-0.380419921875,9.301296997070311,2.093954467773438
9.00200000000018,1.0507904052734376,10.239785766601564,3.40404052734375
9.012000000000173,1.20765380859375,9.883142089843751,5.238400268554688
9.022000000000162,0.8429351806640626,9.456216430664064,5.2206054687500005
9.032000000000153,0.5609100341796875,9.344812011718751,3.008966064453125
9.04300000000012,0.8043548583984376,9.079833984375,2.6600982666015627
9.052000000000136,0.828131103515625,8.527447509765626,1.863818359375
9.063000000000102,0.369354248046875,7.361514282226563,2.058514404296876
9.073000000000093,1.3926300048828126,4.608255004882813,2.9989471435546875
9.083000000000084,1.6469909667968752,5.902639770507813,3.814816284179688
9.093000000000076,0.7938873291015626,13.941851806640626,2.8704956054687503
9.103000000000064,-0.298175048828125,16.925695800781252,0.328082275390625
9.113000000000056,0.362774658203125,12.015826416015626,-0.0973480224609375
9.123000000000047,1.930361938476563,8.004071044921876,9.102114868164064
9.133000000000038,2.082440185546876,7.087863159179688,9.501675415039063
9.143000000000027,0.47791748046875,6.0209228515625,4.862765502929688
9.15300000000002,-0.554180908203125,5.661138916015625,-0.0968994140625
9.163000000000013,-1.1089599609375,9.511245727539062,-0.26318359375
9.173000000000002,-1.556072998046875,12.34510498046875,-0.8746368408203126
9.182999999999993,1.06290283203125,11.657687377929689,4.701266479492188
9.194000000000187,1.5936065673828126,9.893161010742189,9.709530639648438
9.203000000000202,2.362371826171876,9.844113159179688,6.257489013671876
9.21400000000017,2.1712646484375,9.3705322265625,2.3638671875000004
9.22400000000016,-0.363671875,8.914596557617188,-0.0297576904296875
9.234000000000153,-0.856243896484375,8.462548828125001,-0.21951904296875
9.244000000000142,-1.1206237792968752,7.139901733398438,-0.6850250244140625
9.254000000000133,2.154367065429688,7.127340698242188,8.443408203125001
9.264000000000124,2.095599365234375,9.194827270507814,4.0470458984375
9.274000000000116,-0.266473388671875,12.62369079589844,-1.39188232421875
9.284000000000106,1.3253387451171876,12.108538818359376,7.349102783203126
9.294000000000096,0.6255096435546875,8.878558349609376,0.126806640625
9.304000000000087,0.78775634765625,7.342822265625,5.345468139648438
9.314000000000078,1.4090789794921876,7.677783203125,4.0925048828125
9.32400000000007,0.439337158203125,8.028594970703125,3.547296142578125
9.33400000000006,0.2899505615234375,8.271890258789064,1.335357666015625
9.345000000000027,0.26019287109375,9.294418334960938,1.1304931640625
9.355000000000018,1.093408203125,10.503567504882811,3.616531372070313
9.365000000000007,0.9227874755859377,10.53018493652344,5.10576171875
9.375,0.8967681884765626,9.596331787109376,5.5944458007812505
9.384999999999993,1.1554656982421876,8.656198120117189,4.532888793945313
9.394999999999982,0.829327392578125,8.553317260742189,2.6509765625000004
9.4050000000002,0.0794036865234375,9.051272583007814,2.0707763671875004
9.415000000000193,-0.3321197509765625,8.013641357421875,1.5478485107421875
9.425000000000182,-0.6335845947265626,4.338790893554688,2.6888092041015628
9.435000000000173,0.0004486083984375,6.450988769531251,4.740594482421876
9.445000000000164,0.971685791015625,14.099313354492187,2.5987884521484377
9.455000000000156,-0.1454986572265625,16.681503295898438,-0.02811279296875
9.465000000000146,-0.177349853515625,11.559292602539063,2.0151489257812503
9.475000000000136,3.2652709960937503,7.531536865234376,9.334942626953126
9.486000000000104,4.347015380859375,6.743331909179688,8.624047851562501
9.496000000000096,1.3254882812500002,4.915252685546875,2.188461303710937
9.506000000000084,-0.1239654541015625,6.977655029296876,-0.6625946044921875
9.516000000000076,-0.0276641845703125,10.87112731933594,-0.4290191650390625
9.526000000000067,1.5587646484375002,11.689538574218751,-0.35350341796875
9.536000000000058,1.8890899658203129,9.798504638671876,9.135610961914065
9.54600000000005,-0.31641845703125,10.415789794921876,3.8191528320312496
9.55600000000004,1.6695709228515627,11.069561767578126,6.979449462890625
9.566000000000033,0.8450286865234375,9.017327880859376,2.5460021972656253
9.576000000000022,-0.6619964599609376,7.245474243164063,-0.2663238525390625
9.586000000000013,-1.1309417724609376,8.143887329101563,-0.354400634765625
9.596000000000004,-0.148638916015625,8.74427490234375,3.714477539062501
9.605999999999996,1.6818328857421876,8.073605346679688,5.8175537109375
9.615999999999984,0.4514495849609375,9.2652587890625,1.1001373291015626
9.626000000000204,1.0669403076171875,12.084014892578123,4.255050659179688
9.636000000000196,1.8692016601562504,11.557049560546876,2.672808837890625
9.647000000000162,0.0602630615234375,8.438323974609375,2.4205413818359376
9.657000000000153,0.8454772949218751,7.5728088378906255,3.771600341796875
9.667000000000144,1.3791717529296876,7.87218017578125,4.424774169921875
9.677000000000136,0.5190399169921875,7.830609130859376,2.9455627441406254
9.687000000000126,-0.0345428466796875,8.690142822265626,1.1998779296875002
9.697000000000116,0.142059326171875,10.14273681640625,2.7043609619140625
9.707000000000107,0.8925811767578126,10.292572021484377,4.68167724609375
9.717000000000098,0.5528350830078126,9.663623046875,5.336795043945313
9.72700000000009,0.5483489990234376,9.709381103515623,5.071218872070313
9.73700000000008,0.671417236328125,9.331652832031253,3.4082275390625
9.747000000000073,0.6663330078125,8.457614135742189,2.040719604492188
9.757000000000062,0.7334747314453125,8.075848388671876,2.058514404296876
9.767000000000053,0.63702392578125,6.560299682617188,2.06060791015625
9.777000000000044,1.0706787109375,4.393670654296876,2.849261474609375
9.788000000000013,1.880416870117188,8.884390258789063,4.098635864257813
9.798000000000002,0.15970458984375,16.209716796875,1.1121002197265626
9.807999999999993,-0.22310791015625,15.475643920898438,0.289801025390625
9.817999999999984,1.5955505371093752,9.88538513183594,4.1324310302734375
9.828000000000202,2.3290252685546875,7.1137329101562505,8.770443725585938
9.838000000000193,2.5374786376953127,6.7506591796875,8.198916625976564
9.848000000000184,-0.1987335205078125,5.280718994140625,1.2721038818359376
9.858000000000176,-0.9704895019531252,6.953729248046876,-0.4834503173828125
9.868000000000166,-1.9922698974609376,11.66082763671875,-0.6062194824218751
9.878000000000156,-0.56763916015625,12.089547729492187,-0.023028564453125
9.888000000000147,2.2153778076171875,9.864898681640623,12.546380615234376
9.898000000000138,1.3235443115234375,10.23829040527344,6.11004638671875
9.90800000000013,2.361773681640625,10.46453857421875,5.403189086914063
9.91800000000012,0.413018798828125,9.027645874023438,1.017144775390625
9.928000000000113,-0.6657348632812501,7.99779052734375,-0.4056915283203125
9.939000000000078,-1.0893707275390625,8.093643188476562,-0.545806884765625
9.94900000000007,-0.39537353515625,7.502825927734375,-0.37503662109375
9.95900000000006,3.2211578369140628,7.6095947265625,11.42216796875
9.969000000000053,0.94925537109375,10.774377441406251,-0.14654541015625
9.979000000000042,1.22440185546875,13.137347412109376,2.1331329345703125
9.989000000000033,0.925927734375,10.59254150390625,4.821493530273438
9.999000000000024,0.392681884765625,8.129681396484376,-0.3973175048828125
10.009000000000016,1.3175628662109375,7.7283264160156255,6.625946044921876
10.019000000000004,0.8922821044921876,7.403384399414063,3.792684936523438
10.028999999999996,0.27574462890625,7.5019287109375,2.326034545898437
10.038999999999987,0.16927490234375,8.946148681640626,1.7018707275390623
10.048999999999978,0.289801025390625,10.41788330078125,2.089617919921875
10.060000000000173,1.0346405029296877,10.242028808593751,4.7245941162109375
10.070000000000164,1.0276123046875,9.869085693359375,5.622109985351563
10.080000000000156,0.815869140625,9.638052368164065,5.079144287109376
10.090000000000146,0.936993408203125,8.919830322265625,4.024914550781251
10.100000000000136,0.5775085449218751,8.484381103515625,1.633831787109375
10.110000000000127,0.0659454345703125,8.376266479492188,1.6758514404296876
10.120000000000118,-0.0841888427734375,5.756692504882813,1.999148559570313
10.13000000000011,-0.3865509033203125,4.255947875976563,3.306393432617188
10.1400000000001,1.7153289794921875,11.3755126953125,3.987979125976562
10.150000000000093,0.6421081542968751,16.74744873046875,0.212939453125
10.160000000000082,-0.6630432128906251,13.702294921875,-0.1831817626953125
10.170000000000073,2.591909790039063,8.801995849609376,8.316452026367188
10.180000000000064,3.9414733886718754,7.477703857421876,9.6755859375
10.190000000000056,1.4754730224609376,5.8924713134765625,5.4730224609375
10.200000000000044,-0.4059906005859375,5.444461059570313,-0.01495361328125
10.210000000000036,-0.404644775390625,9.111984252929688,-0.44681396484375
10.221000000000004,-0.09271240234375,11.82471923828125,-0.49287109375
10.230999999999996,1.0996887207031252,10.617364501953126,5.672354125976563
10.24200000000019,0.0456085205078125,9.961199951171876,5.762673950195313
10.251000000000204,1.669720458984375,11.204891967773438,6.625497436523438
10.261000000000196,1.377227783203125,9.898095703125,4.0377746582031255
10.271000000000186,0.04366455078125,7.919134521484375,-0.0399261474609375
10.281000000000176,-0.6317901611328125,7.889526367187501,-0.273052978515625
10.291000000000167,0.622967529296875,8.562887573242188,1.9121185302734376
10.301000000000158,2.1854705810546875,7.686904907226563,5.556314086914063
10.31100000000015,0.6436035156250001,8.39136962890625,2.494561767578125
10.32100000000014,0.8632720947265625,11.465533447265626,3.037677001953125
10.331000000000133,1.0464538574218751,11.957357788085938,2.4775146484375004
10.342000000000098,0.8107849121093751,9.423916625976563,2.953338623046875
10.351000000000113,0.2549591064453125,8.077493286132814,3.357833862304688
10.36200000000008,0.517095947265625,7.879058837890626,4.513150024414063
10.372000000000073,0.8783752441406251,7.710980224609376,4.092355346679688
10.382000000000062,-0.0488983154296875,8.258880615234375,1.947259521484375
10.392000000000053,-0.451898193359375,9.60321044921875,2.5181884765625
10.402000000000044,0.7925415039062501,10.172344970703126,3.545651245117188
10.412000000000036,1.032098388671875,10.023406982421877,4.873382568359375
10.422000000000024,0.753363037109375,9.779812622070311,5.068676757812501
10.432000000000016,1.1775970458984375,9.334793090820312,3.575857543945313
10.442000000000007,1.0981933593750002,8.566476440429689,2.144647216796875
10.451999999999998,0.94566650390625,7.770944213867188,1.8473693847656247
10.461999999999987,0.7597930908203125,4.696929931640625,1.9529418945312504
10.47199999999998,1.5647460937500002,5.188604736328125,3.5149963378906253
10.482000000000198,1.070977783203125,12.435873413085938,2.300164794921875
10.49200000000019,-0.3529052734375,16.885919189453126,0.5043853759765625
10.50200000000018,0.103778076171875,12.58421325683594,2.2502197265625004
10.512000000000173,1.6444488525390626,8.737396240234375,6.436184692382813
10.522000000000162,2.5654418945312503,7.656250000000001,9.711624145507812
10.53300000000013,0.8647674560546875,6.097634887695313,4.860372924804688
10.54300000000012,-0.8058502197265626,5.232717895507813,-0.18602294921875
10.553000000000113,-1.3026092529296875,9.159835815429688,-0.247930908203125
10.563000000000102,-0.7804290771484376,12.05679931640625,-0.3704010009765625
10.573000000000093,2.146292114257813,11.132666015625,9.526797485351564
10.583000000000084,0.4604217529296875,9.933535766601564,5.125799560546875
10.593000000000076,1.9838958740234376,10.507156372070312,5.916098022460938
10.603000000000064,1.819406127929688,9.599472045898438,3.3164123535156254
10.613000000000056,-0.270062255859375,8.419482421875001,-0.289501953125
10.623000000000047,-0.8059997558593751,8.314807128906251,-0.251519775390625
10.633000000000038,-0.6320892333984376,7.914498901367188,0.070281982421875
10.643000000000027,2.266668701171876,7.1693603515625,9.18450927734375
10.653999999999996,1.1630920410156251,9.091348266601564,0.433056640625
10.663999999999987,0.2740997314453125,12.242672729492188,4.715472412109375
10.673999999999978,1.4439208984375,12.06995849609375,2.393026733398438
10.684000000000196,0.4998992919921875,8.959307861328126,2.147189331054688
10.694000000000187,0.6305938720703126,7.7791687011718755,3.416302490234376
10.704000000000178,1.3546478271484377,7.898947143554688,4.6930419921875
10.71400000000017,0.3351104736328125,7.377215576171875,3.1773437500000004
10.72400000000016,0.54132080078125,8.373574829101564,2.0093170166015626
10.734000000000153,0.5704803466796875,9.705343627929688,1.856491088867188
10.744000000000142,0.5689849853515625,10.146624755859376,2.5567687988281254
10.754000000000133,1.2502716064453123,10.246963500976562,4.856634521484375
10.764000000000124,0.9290679931640624,9.8490478515625,5.882302856445313
10.774000000000116,1.1550170898437502,8.992205810546876,4.757940673828125
10.784000000000106,0.7179229736328125,8.175140380859375,2.7855590820312504
10.794000000000096,0.130096435546875,8.81485595703125,1.8150695800781247
10.805000000000064,-0.249725341796875,7.673596191406251,1.7583953857421877
10.815000000000056,-0.9194976806640626,4.14813232421875,2.315866088867188
10.825000000000044,0.307745361328125,8.230917358398438,4.412960815429688
10.835000000000036,1.248477172851563,14.595623779296876,1.9290161132812504
10.845000000000027,-0.6392669677734375,15.318182373046875,0.1185821533203125
10.855000000000018,1.0483978271484375,11.058346557617188,4.614385986328125
10.865000000000007,3.2658691406250004,8.058203125,8.614776611328125
10.875,3.3176086425781253,6.213973999023438,6.994851684570313
10.884999999999993,0.6302947998046875,4.8621673583984375,1.37991943359375
10.894999999999982,0.0500946044921875,7.744775390625,-0.6258087158203125
10.9050000000002,1.113446044921875,11.484524536132811,-0.062506103515625
10.915000000000193,1.7470306396484376,10.93946533203125,5.842227172851563
10.925000000000182,-0.405242919921875,10.261318969726563,3.394918823242188
10.935000000000173,0.9425262451171876,10.909259033203126,6.674993896484375
10.94600000000014,1.1475402832031252,10.361209106445314,4.6602935791015625
10.956000000000133,0.2014251708984375,8.361611938476564,1.1330352783203126
10.966000000000122,-0.6003875732421875,7.552471923828126,-0.218023681640625
10.976000000000113,0.1066192626953125,8.362060546875,2.5205810546875003
10.986000000000104,1.1894104003906252,8.2986572265625,4.28570556640625
10.996000000000096,0.4493560791015625,8.434286499023438,2.9280670166015628
11.006000000000084,1.1393157958984377,10.599420166015626,3.589764404296876
11.016000000000076,1.3329650878906252,11.51966552734375,2.6624908447265625
11.026000000000067,0.8468231201171875,9.954620361328123,2.3399414062500004
11.036000000000058,0.9006561279296875,8.605953979492188,3.6455413818359377
11.04600000000005,0.516796875,7.807730102539063,4.041363525390626
11.05600000000004,0.7741485595703126,7.563687133789063,3.40224609375
11.066000000000033,0.323297119140625,8.134616088867189,2.6716125488281253
11.076000000000022,-0.064898681640625,9.6026123046875,2.6067138671875
11.086000000000013,0.1997802734375,10.336984252929687,3.234915161132813
11.09699999999998,0.6742584228515626,9.77173767089844,4.613040161132813
11.107000000000198,0.7834197998046876,9.848898315429688,4.953533935546876
11.11700000000019,0.6311920166015625,9.646426391601564,4.08353271484375
11.12700000000018,0.7117919921875,8.855679321289063,2.57860107421875
11.137000000000173,0.8857025146484375,8.133419799804688,1.9948120117187504
11.147000000000162,0.8417388916015626,6.764416503906251,2.386895751953125
11.15800000000013,1.1435028076171876,4.486532592773438,2.724996948242188
11.167000000000144,1.49117431640625,7.406524658203126,3.2041107177734376
11.177000000000136,0.4472625732421875,14.763851928710938,1.4032470703125002
11.187000000000126,-0.0861328125,16.302130126953127,0.984844970703125
11.197000000000116,0.98753662109375,11.210125732421876,3.1085571289062504
11.207000000000107,1.98404541015625,7.7283264160156255,8.110391235351564
11.217000000000098,2.187713623046875,6.594244384765625,8.348452758789064
11.22700000000009,0.2029205322265625,5.778823852539063,2.989675903320313
11.23700000000008,-0.563751220703125,6.150421142578126,-0.4619171142578125
11.247000000000073,-1.1062683105468751,10.472463989257813,-0.2112945556640625
11.259000000000016,-0.3189605712890625,12.341067504882814,0.0485992431640625
11.268000000000027,2.0816925048828128,11.105300903320312,10.5763916015625
11.27800000000002,0.7870086669921875,10.1887939453125,6.33494873046875
11.288000000000013,2.272799682617188,9.774130249023438,5.0435546875
11.298000000000002,0.864019775390625,8.974859619140625,1.317413330078125
11.307999999999993,-0.6660339355468751,8.733209228515626,-0.330474853515625
11.317999999999984,-0.8046539306640625,8.26875,-0.209051513671875
11.328000000000202,-0.0713287353515625,6.94505615234375,1.6205230712890626
11.338000000000193,2.1874145507812504,7.542453002929688,7.520770263671875
11.348000000000184,1.1071655273437502,10.547979736328124,2.182330322265625
11.358000000000176,0.1359283447265625,12.67273864746094,2.9804046630859378
11.368000000000166,1.4771179199218751,11.138796997070314,2.7555023193359376
11.379000000000133,0.9064880371093752,8.487371826171875,2.726492309570313
11.389000000000124,1.0693328857421875,7.594790649414063,4.687359619140626
11.398000000000138,0.8092895507812501,7.3724304199218755,3.737655639648438
11.409000000000106,0.277239990234375,7.811767578125001,2.4926177978515627
11.419000000000096,0.5040863037109375,8.879605102539063,1.9221374511718752
11.429000000000087,0.4103271484375,9.759176635742188,1.2558044433593751
11.439000000000078,0.70880126953125,10.258627319335938,3.786105346679688
11.44900000000007,0.8779266357421875,10.403228759765623,5.407675170898438
11.45900000000006,1.2541595458984376,9.822280883789062,6.162982177734375
11.469000000000053,0.8513092041015625,8.501278686523438,4.1144866943359375
11.479000000000042,0.4498046875,8.206991577148438,1.8170135498046875
11.489000000000033,0.41690673828125,9.228024291992188,2.2239013671875
11.499000000000024,0.150732421875,8.716909790039063,1.9708862304687504
11.509000000000016,-0.4098785400390625,5.8849945068359375,1.900454711914063
11.519000000000004,-1.2288879394531251,4.228582763671875,3.355441284179688
11.528999999999996,1.4985015869140623,11.60819091796875,5.089611816406251
11.538999999999987,0.594854736328125,16.8736572265625,1.0789031982421875
11.550000000000182,-1.04495849609375,14.021255493164064,-0.0453094482421875
11.560000000000173,2.270407104492188,8.376565551757814,7.511798095703125
11.570000000000164,4.0853271484375,6.5185791015625005,9.51767578125
11.580000000000156,3.1791381835937504,5.504275512695313,5.830563354492188
11.590000000000146,0.200677490234375,5.729327392578125,-0.2775390625
11.600000000000136,-0.152227783203125,9.498385620117189,-0.35230712890625
11.610000000000127,-0.0949554443359375,12.590045166015626,-0.6757537841796876
11.620000000000118,1.8853515625,11.116217041015624,-0.3150726318359375
11.63000000000011,0.5405731201171875,9.579434204101563,12.324768066406252
11.6400000000001,1.3664611816406251,10.662823486328126,3.891827392578125
11.650000000000093,1.2018218994140626,9.635809326171875,5.187857055664063
11.660000000000082,0.2775390625,7.694082641601563,-0.5471527099609376
11.670000000000073,-0.444720458984375,7.441964721679688,-0.0180938720703125
11.68100000000004,-0.6515289306640626,8.657843017578125,3.0846313476562504
11.691000000000033,1.3298248291015626,8.64857177734375,5.0375732421875
11.701000000000022,0.67530517578125,8.805734252929689,2.8198028564453126
11.711000000000013,0.7600921630859375,11.103207397460938,3.059808349609375
11.721000000000004,1.6007843017578127,11.888571166992188,2.8485137939453127
11.730999999999996,0.555975341796875,9.381298828125,2.5877227783203125
11.740999999999984,0.5034881591796876,7.692288208007813,3.458023071289063
11.751000000000204,0.7970275878906251,7.359570312500001,4.196432495117188
11.761000000000196,0.8388977050781251,7.903732299804688,3.477163696289063
11.771000000000186,0.03050537109375,8.798257446289064,1.9236328125
11.781000000000176,-0.5010955810546875,9.846057128906253,2.135675048828125
11.791000000000167,0.9992004394531252,10.38079833984375,4.098187255859376
11.801000000000158,0.8806182861328126,9.684109497070311,5.272045898437501
11.81100000000015,0.6258087158203125,9.6217529296875,5.1477813720703125
11.82100000000014,0.9914245605468752,9.478497314453126,3.9698852539062495
11.832000000000107,0.605322265625,8.528793334960938,1.9939147949218752
11.842000000000098,0.7218109130859376,8.155252075195314,1.7320770263671876
11.85200000000009,0.8758331298828126,7.089208984375,2.2025177001953127
11.86200000000008,0.9921722412109376,4.267611694335938,2.379119873046875
11.872000000000073,1.48878173828125,7.134967041015625,3.2311767578125004
11.882000000000062,0.8830108642578126,15.673928833007814,2.3682037353515626
11.892000000000053,-0.248529052734375,16.736383056640626,0.3602325439453125
11.902000000000044,1.0334442138671875,10.91553955078125,4.1274963378906255
11.912000000000036,1.4931182861328125,6.839334106445313,7.7073913574218755
11.922000000000024,2.68447265625,6.724490356445313,9.533078002929688
11.932000000000016,0.483001708984375,5.572314453125,2.9385345458984378
11.942000000000007,-0.8486175537109376,5.8474609375,-0.348419189453125
11.951999999999998,-1.8777252197265624,10.781704711914063,-0.515301513671875
11.961999999999987,-1.98524169921875,12.525445556640626,-0.97557373046875
11.97199999999998,1.99720458984375,11.33184814453125,4.611096191406251
11.983000000000176,2.805596923828125,9.678277587890626,12.8876220703125
11.993000000000166,1.977316284179688,9.900936889648438,4.071719360351563
12.003000000000156,1.7018707275390623,9.696820068359376,2.6511260986328127
12.013000000000147,0.19918212890625,8.408566284179688,-0.7614379882812501
12.023000000000138,-1.0400238037109375,7.8488525390625,-0.2746978759765625
12.03300000000013,-1.28182373046875,6.690097045898438,-0.9296661376953126
12.04300000000012,1.232476806640625,7.767355346679688,9.32447509765625
12.053000000000113,1.52347412109375,10.388125610351564,4.601226806640625
12.063000000000102,0.5864807128906251,13.050466918945313,-2.11922607421875
12.073000000000093,1.9619140625,11.870477294921876,5.170361328125001
12.083000000000084,0.35948486328125,7.884442138671876,4.124057006835938
12.093000000000076,0.5701812744140625,7.189846801757813,2.23287353515625
12.103000000000064,1.5574188232421875,7.895059204101563,5.821441650390625
12.113000000000056,0.5794525146484375,7.855581665039063,2.511459350585937
12.124000000000024,-0.437542724609375,8.330657958984375,0.273651123046875
12.134000000000016,0.7475311279296876,9.876712036132814,1.869500732421875
12.144000000000004,1.0196868896484377,10.657589721679688,3.8574340820312494
12.153999999999996,1.1207733154296875,9.981536865234377,5.865704345703126
12.163999999999987,1.086978149414063,9.32806396484375,5.587716674804688
12.173999999999978,1.182232666015625,9.017926025390626,4.2205078125
12.184000000000196,0.43126220703125,8.619113159179689,2.548095703125
12.194000000000187,0.143255615234375,8.911605834960938,1.5856811523437502
12.204000000000178,0.1643402099609375,8.41888427734375,1.9459136962890624
12.21400000000017,-0.2510711669921875,5.528649902343751,2.177694702148438
12.22400000000016,-0.5665924072265626,4.629638671875,3.728683471679688
12.234000000000153,1.475921630859375,11.9234130859375,4.025363159179688
12.244000000000142,0.5725738525390626,17.05594177246094,0.277838134765625
12.254000000000133,-0.6575103759765626,13.790670776367188,0.94566650390625
12.2650000000001,2.3634185791015625,8.12698974609375,7.598529052734375
12.275000000000093,3.673803710937501,6.640151977539063,9.669155883789063
12.285000000000082,2.459869384765625,5.557211303710938,5.900247192382813
12.295000000000073,-0.1757049560546875,5.85703125,-0.3285308837890625
12.305000000000064,-0.4903289794921875,9.478497314453126,-0.4086822509765625
12.315000000000056,-0.625958251953125,12.49344482421875,-0.68427734375
12.325000000000044,1.3395446777343751,11.206536865234376,0.2423980712890625
12.335000000000036,0.7259979248046875,9.744522094726562,11.922814941406251
12.345000000000027,2.0390747070312503,10.660879516601565,4.619470214843751
12.355000000000018,1.4581268310546875,9.637902832031251,4.080841064453125
12.365000000000007,0.1112548828125,7.66881103515625,-0.363970947265625
12.375,-0.5897705078125001,7.680923461914063,-0.0435150146484375
12.384999999999993,-0.1278533935546875,8.540606689453126,1.7207122802734376
12.394999999999982,2.2491729736328128,8.116372680664064,6.335546875
12.4050000000002,0.4173553466796875,8.655300903320313,2.0923095703125
12.416000000000167,1.0463043212890626,11.595779418945312,3.277084350585938
12.426000000000158,1.263580322265625,11.979489135742188,2.962908935546875
12.43600000000015,0.058319091796875,9.05291748046875,2.720510864257813
12.44600000000014,0.4062896728515625,7.854833984375,3.794927978515626
12.456000000000133,0.4720855712890625,7.737896728515626,4.541262817382813
12.466000000000122,0.4421783447265625,7.815805053710938,3.4469573974609378
12.476000000000113,0.0698333740234375,8.431445312500001,1.57850341796875
12.486000000000104,-0.2738006591796875,9.86639404296875,2.2991180419921875
12.496000000000096,0.9858917236328124,10.434033203125,3.875677490234376
12.506000000000084,1.1548675537109376,9.680221557617188,5.166921997070313
12.516000000000076,1.1584564208984376,9.61023864746094,5.2594848632812505
12.526000000000067,1.2152801513671876,9.53143310546875,3.594100952148438
12.536000000000058,0.734222412109375,8.61746826171875,1.8968658447265627
12.54600000000005,1.02462158203125,8.339181518554689,1.9728302001953129
12.557999999999993,0.93729248046875,7.7172607421875,2.5134033203125004
12.567000000000007,1.2402526855468752,4.516888427734376,2.445364379882813
12.576999999999998,1.426873779296875,5.096640014648438,2.6020782470703128
12.586999999999987,1.178643798828125,13.680014038085938,3.0500885009765626
12.59699999999998,-0.280230712890625,17.933868408203125,0.4107757568359375
12.607000000000198,-0.3928314208984375,12.250149536132811,1.2501220703125
12.61700000000019,2.0784027099609377,8.0833251953125,8.279815673828125
12.62700000000018,1.9886810302734377,6.954776000976563,10.1792236328125
12.637000000000173,0.410626220703125,6.4216796875,5.4064788818359375
12.647000000000162,-0.6485382080078126,5.495602416992188,0.0850860595703125
12.65800000000013,-1.4303131103515625,8.964242553710939,-0.3494659423828125
12.667000000000144,-2.0795989990234376,11.968572998046875,-0.7286895751953125
12.677000000000136,-0.06519775390625,12.139044189453124,-0.3132781982421875
12.687000000000126,3.0279571533203127,10.228720092773438,14.726617431640626
12.698000000000093,2.5404693603515627,9.774429321289062,4.595095825195313
12.708000000000084,2.238555908203125,8.880352783203126,4.225143432617188
12.718000000000076,0.6122009277343751,8.626889038085938,-0.8399444580078126
12.728000000000064,-0.56763916015625,8.8824462890625,-0.125311279296875
12.738000000000056,-1.3223480224609376,7.61617431640625,-0.5755645751953126
12.748000000000047,1.3328155517578126,6.649273681640626,7.739990234375001
12.758000000000038,1.705908203125,9.01104736328125,3.916201782226562
12.768000000000027,0.4000091552734375,12.770385742187502,0.5381805419921876
12.77800000000002,0.4801605224609375,12.482827758789064,5.03338623046875
12.788000000000013,0.8061492919921875,9.046038818359376,1.57730712890625
12.798000000000002,0.7224090576171875,7.414898681640626,3.790890502929688
12.807999999999993,1.10238037109375,7.375570678710938,4.811773681640625
12.817999999999984,0.6702209472656251,7.755392456054688,3.4765655517578127
12.828000000000202,0.5824432373046875,8.382098388671876,1.523623657226563
12.838000000000193,0.4903289794921875,9.3059326171875,1.2746459960937502
12.848000000000184,1.1352783203125,10.09473571777344,2.9362915039062503
12.859000000000153,1.284814453125,10.641290283203126,5.305691528320313
12.869000000000142,0.9634613037109376,10.037313842773438,5.689999389648438
12.879000000000133,1.2738983154296877,8.812463378906251,4.565786743164063
12.889000000000124,0.9072357177734376,8.171102905273438,2.653219604492188
12.899000000000116,0.0800018310546875,8.828463745117189,1.7643768310546877
12.909000000000106,-0.36427001953125,7.768850708007813,1.9565307617187504
12.919000000000096,-0.5160491943359375,3.5565673828125,2.068682861328125
12.929000000000087,-0.1088623046875,7.153060913085938,4.645040893554688
12.939000000000078,1.5771575927734376,15.43033447265625,2.8603271484375004
12.94900000000007,-0.8619262695312501,16.788272094726565,-0.4421783447265625
12.95900000000006,-0.148638916015625,11.295660400390624,1.5985412597656252
12.969000000000053,3.677392578125,6.934140014648438,11.128030395507814
12.979000000000042,4.084429931640625,6.434539794921876,7.705596923828126
12.990000000000007,0.636724853515625,4.9324493408203125,1.7440399169921876
13.0,-0.0862823486328125,7.148574829101563,-0.576910400390625
13.009999999999993,-0.6398651123046876,11.372372436523438,-0.494964599609375
13.019999999999982,0.420196533203125,11.429644775390626,-0.6781463623046875
13.0300000000002,2.259490966796875,9.778167724609377,11.423812866210938
13.040000000000193,0.3958221435546875,10.754489135742189,4.278228759765625
13.050000000000182,1.2776367187500002,11.099468994140626,5.702560424804688
13.060000000000173,0.8613281250000001,8.9901123046875,1.3684051513671875
13.070000000000164,-0.300567626953125,7.171304321289063,-0.079852294921875
13.080000000000156,-0.6184814453125,7.877862548828125,-0.3683074951171875
13.090000000000146,0.5775085449218751,8.045343017578126,4.7679595947265625
13.100000000000136,1.813424682617188,8.118316650390625,5.071218872070313
13.111000000000104,0.2914459228515625,10.334442138671877,2.001242065429688
13.120000000000118,1.07666015625,12.1507080078125,3.399554443359375
13.13000000000011,1.3474700927734375,11.016476440429688,2.342034912109375
13.141000000000076,0.3696533203125,8.686105346679689,3.588717651367188
13.150000000000093,0.398663330078125,7.40921630859375,4.098934936523438
13.161000000000058,0.9470123291015624,7.171154785156251,3.8952667236328127
13.17100000000005,0.6462951660156251,8.018576049804688,3.142352294921875
13.18100000000004,-0.151031494140625,9.235800170898438,0.8988616943359375
13.191000000000033,-0.154022216796875,10.212570190429688,2.253958129882813
13.201000000000022,1.206607055664063,10.126138305664064,4.542459106445313
13.211000000000013,1.095501708984375,9.876412963867187,5.958865356445313
13.221000000000004,0.8864501953125,9.557901000976564,5.1836700439453125
13.230999999999996,0.8581878662109376,8.8298095703125,2.875579833984375
13.240999999999984,0.890936279296875,8.486773681640626,1.9477081298828127
13.251000000000204,0.8118316650390626,7.084573364257813,1.945016479492188
13.261000000000196,1.0824920654296877,4.113739013671875,2.269061279296875
13.271000000000186,1.8449768066406247,6.496298217773438,3.3005615234375
13.282000000000153,0.5682373046875,14.511883544921876,1.5888214111328127
13.292000000000144,-0.7559051513671875,16.68569030761719,0.1299468994140625
13.302000000000136,1.0762115478515626,11.759521484375,2.841485595703125
13.312000000000126,1.6964874267578127,7.865600585937501,8.051773071289062
13.322000000000116,2.1006835937500004,7.334896850585938,9.25733337402344
13.332000000000107,0.39178466796875,5.799310302734376,3.9517913818359376
13.342000000000098,-0.6313415527343751,5.453732299804688,-0.352606201171875
13.35200000000009,-1.42896728515625,9.477151489257814,-0.2008270263671875
13.36200000000008,-1.5050811767578125,12.007003784179688,-0.814373779296875
13.372000000000073,1.777685546875,11.704193115234377,10.035220336914064
13.382000000000062,1.5399230957031251,10.162176513671875,7.194931030273438
13.392000000000053,2.1162353515625,9.916339111328126,5.651568603515625
13.402000000000044,1.7201141357421876,9.559994506835938,2.16588134765625
13.412000000000036,-0.2938385009765625,9.221295166015626,-0.343634033203125
13.422000000000024,-0.8326171875,8.386584472656251,-0.216229248046875
13.432999999999993,-0.9876861572265626,6.5036254882812505,-0.7541107177734375
13.442000000000007,1.8922302246093752,6.936383056640626,7.38887939453125
13.453000000000202,2.7568481445312503,9.853683471679688,5.683270263671876
13.463000000000193,-0.1431060791015625,12.818087768554689,-1.7990692138671875
13.47400000000016,0.6847259521484376,12.017471313476562,6.040960693359375
13.483000000000176,1.2468322753906251,8.916839599609375,1.9958587646484376
13.493000000000166,0.4550384521484375,7.418637084960938,4.513449096679688
13.503000000000156,0.96959228515625,7.511199951171876,4.402792358398438
13.513000000000147,0.5881256103515625,7.626043701171875,3.0162933349609378
13.523000000000138,0.4098785400390625,8.531185913085938,1.5447082519531252
13.53300000000013,0.085833740234375,9.459356689453124,0.793438720703125
13.54300000000012,0.8359069824218751,10.384237670898438,2.7889984130859378
13.553000000000113,1.356143188476563,10.4184814453125,5.767758178710938
13.563000000000102,1.1789428710937502,9.6361083984375,6.200814819335938
13.57400000000007,1.31890869140625,8.749359130859375,4.5870208740234375
13.58400000000006,0.707305908203125,8.451483154296875,2.527609252929688
13.594000000000053,0.3940277099609375,9.1982666015625,1.9335021972656248
13.604000000000042,0.17884521484375,8.797659301757813,1.724002075195313
13.614000000000033,-0.2752960205078125,6.09329833984375,1.9984008789062504
13.624000000000024,-0.3228485107421875,4.173104858398438,3.534735107421876
13.634000000000016,0.8394958496093751,10.239785766601564,4.743136596679688
13.644000000000004,0.16329345703125,16.495031738281252,1.0486968994140626
13.653999999999996,-0.4951141357421875,15.005950927734377,-0.0369354248046875
13.663999999999987,1.403994750976563,9.294418334960938,5.605810546875
13.673999999999978,3.649728393554688,6.730322265625,10.416986083984376
13.684000000000196,3.392974853515625,5.806338500976563,7.239642333984375
13.695000000000164,0.09869384765625,5.128790283203125,0.6147430419921875
13.704000000000178,-0.2809783935546875,8.419183349609376,-0.4583282470703125
13.71400000000017,-0.6874176025390626,12.267794799804689,-0.5860321044921876
13.72400000000016,0.9845458984375,11.61282653808594,-0.7230072021484375
13.735000000000127,1.5149505615234375,9.506610107421876,6.607254028320313
13.745000000000118,1.0729217529296875,10.370330810546877,9.637005615234376
13.75500000000011,2.863616943359375,10.39395751953125,5.340533447265625
13.7650000000001,0.250323486328125,8.410211181640626,0.9742279052734376
13.775000000000093,-0.390289306640625,7.807730102539063,-0.64898681640625
13.785000000000082,-1.44033203125,8.123699951171876,-0.524273681640625
13.795000000000073,-0.169873046875,8.0928955078125,1.9257263183593751
13.805000000000064,2.3161651611328127,8.154504394531251,10.218551635742188
13.815000000000056,0.153424072265625,10.9496337890625,-2.0093170166015626
13.825000000000044,1.8931274414062504,12.686944580078126,3.771600341796875
13.835000000000036,0.8723937988281251,10.1337646484375,4.1693664550781255
13.845000000000027,-0.0127105712890625,7.634567260742188,0.5266662597656251
13.855000000000018,0.793438720703125,7.614379882812501,5.996099853515625
13.865000000000007,1.2227569580078126,7.93797607421875,3.980352783203125
13.876000000000204,0.2444915771484375,7.914498901367188,2.149432373046875
13.886000000000196,-0.250323486328125,9.141891479492188,1.3815643310546877
13.896000000000186,0.7464843750000001,10.677328491210938,3.475518798828125
13.906000000000176,0.95284423828125,10.144232177734375,5.40244140625
13.916000000000167,0.6814361572265626,9.458758544921876,5.347262573242188
13.926000000000158,0.9697418212890626,9.411505126953124,4.619918823242188
13.93600000000015,0.8227478027343751,8.94046630859375,2.5074218750000004
13.94600000000014,0.6323883056640626,8.223440551757813,1.3953216552734375
13.956000000000133,0.7790832519531251,6.268704223632813,1.7186187744140626
13.966000000000122,1.323095703125,4.060952758789063,2.4954589843750004
13.976000000000113,2.001242065429688,8.365649414062501,3.5603057861328127
13.986000000000104,0.3476715087890625,15.959243774414064,1.2646270751953126
13.997000000000073,-0.945965576171875,16.161865234375,0.0731231689453125
14.006000000000084,1.7871063232421875,10.583718872070314,5.573809814453125
14.016000000000076,1.405938720703125,6.812866210937501,8.084371948242188
14.027000000000044,2.1276000976562504,6.929953002929688,9.11258239746094
14.037000000000036,0.1598541259765625,5.63212890625,3.247775268554688
14.047000000000024,-0.8324676513671876,6.2195068359375005,-0.4182525634765625
14.057000000000016,-2.0852813720703125,10.475305175781251,-0.5767608642578126
14.067000000000007,-2.17425537109375,12.070257568359375,-0.9655548095703126
14.076999999999998,1.5728210449218751,11.44549560546875,2.6270507812500004
14.086999999999987,3.421835327148438,9.924114990234376,15.284237670898438
14.09699999999998,3.145941162109376,9.92007751464844,3.0604064941406253
14.107000000000198,1.7287872314453123,9.333148193359376,2.891131591796875
14.11700000000019,0.25361328125,8.820388793945312,-0.8179626464843751
14.12700000000018,-1.1592041015625,8.3465087890625,-0.39537353515625
14.137000000000173,-1.296478271484375,6.45517578125,-0.92652587890625
14.148000000000138,0.5878265380859375,6.971524047851563,5.8067871093750005
14.157000000000153,1.964306640625,10.56741943359375,8.398547363281251
14.16800000000012,0.7328765869140625,13.682556152343752,-2.5403198242187504
14.178000000000113,0.581097412109375,11.759222412109375,5.135369873046876
14.188000000000102,0.08134765625,7.842422485351563,3.3117767333984376
14.198000000000093,0.99232177734375,7.342373657226563,4.264321899414063
14.208000000000084,1.5387268066406252,8.093344116210938,4.926766967773438
14.218000000000076,0.3146240234375,7.4427124023437505,2.1920501708984377
14.228000000000064,-0.1706207275390625,8.112185668945314,0.3273345947265625
14.238000000000056,1.5729705810546877,10.147821044921876,2.1540679931640625
14.248000000000047,0.9781158447265624,10.631570434570314,3.009564208984376
14.258000000000038,1.0675384521484377,9.854730224609376,5.170361328125001
14.268000000000027,1.7536102294921876,9.576144409179689,5.98443603515625
14.27800000000002,1.4382385253906251,8.945101928710939,4.8023529052734375
14.288000000000013,0.435150146484375,8.35906982421875,2.6239105224609376
14.298000000000002,-0.101983642578125,8.818145751953125,1.368255615234375
14.307999999999993,0.0160003662109375,8.909960937500001,2.1468902587890626
14.319000000000187,-0.2528656005859375,6.018231201171876,2.481402587890625
14.329000000000178,-0.642706298828125,4.025961303710938,3.5650909423828128
14.33900000000017,0.7970275878906251,11.063580322265626,4.51419677734375
14.34900000000016,0.296978759765625,17.0889892578125,0.6974365234375001
14.359000000000153,-0.725250244140625,14.291766357421876,0.2548095703125
14.369000000000142,2.1696197509765627,8.537466430664063,6.3630615234375005
14.379000000000133,3.7273376464843753,6.881353759765625,9.76112060546875
14.389000000000124,3.1567077636718754,6.125149536132813,6.8490539550781255
14.399000000000116,0.13817138671875,5.5663330078125,0.35589599609375
14.409000000000106,-0.2962310791015625,8.781060791015626,-0.434552001953125
14.419000000000096,-0.772503662109375,12.14652099609375,-0.588873291015625
14.429000000000087,0.796728515625,11.315847778320313,-0.701025390625
14.439000000000078,1.4853424072265626,9.69876403808594,8.24482421875
14.450000000000044,1.4226867675781252,10.445697021484376,8.003771972656251
14.460000000000036,2.1827789306640626,9.895703125,5.2834106445312505
14.470000000000027,0.2373138427734375,8.022613525390625,0.36307373046875
14.480000000000018,-0.2992218017578125,7.892666625976563,-0.5013946533203125
14.490000000000007,-1.3923309326171875,8.725433349609375,-0.228192138671875
14.5,0.90379638671875,7.974761962890626,7.899246215820313
14.509999999999993,1.018341064453125,8.092745971679689,1.9560821533203123
14.519999999999982,0.5921630859375,10.961746215820312,3.5123046875000004
14.5300000000002,0.9171051025390624,12.533221435546876,2.433251953125
14.540000000000193,1.1369232177734376,9.928900146484375,3.1791381835937504
14.550000000000182,0.3339141845703125,7.541107177734376,3.161941528320313
14.560000000000173,1.0307525634765626,7.509106445312501,4.373333740234376
14.570000000000164,1.2861602783203123,7.963995361328125,4.1164306640625
14.580000000000156,0.2332763671875,8.361911010742189,1.836602783203125
14.591000000000122,-0.14176025390625,9.41285095214844,2.088571166992188
14.601000000000113,1.033145141601563,10.089202880859377,3.711935424804688
14.611000000000104,1.2735992431640626,9.99783630371094,5.127444458007813
14.621000000000096,0.417803955078125,9.923516845703126,4.919290161132813
14.631000000000084,0.5979949951171876,9.700857543945313,3.488229370117188
14.641000000000076,0.8513092041015625,8.590402221679689,2.4679443359375
14.651000000000067,0.6398651123046876,7.434637451171875,1.935894775390625
14.661000000000058,0.96002197265625,4.6607421875,2.4208404541015627
14.67100000000005,1.469342041015625,4.406979370117188,3.0666870117187504
14.68100000000004,1.3331146240234375,12.192578125,2.057467651367188
14.691000000000033,0.1614990234375,17.467913818359378,0.59814453125
14.701000000000022,-0.1081146240234375,13.796951293945314,0.068487548828125
14.711000000000013,2.4625610351562504,9.349896240234376,7.839730834960938
14.721000000000004,2.2147796630859378,7.120910644531251,10.16187744140625
14.730999999999996,0.605023193359375,6.050680541992188,6.56224365234375
14.740999999999984,-0.2893524169921875,5.059854125976563,0.590069580078125
14.75200000000018,-0.9601715087890624,7.907470703125001,-0.267071533203125
14.762000000000173,-2.1021789550781254,11.722586059570313,-0.6051727294921876
14.772000000000162,-1.143801879882813,12.023751831054687,-0.268267822265625
14.782000000000153,1.762881469726563,10.71695556640625,13.6628173828125
14.792000000000144,2.1361236572265625,10.134063720703123,6.976757812500001
14.802000000000136,2.2396026611328126,9.2174072265625,3.164633178710938
14.812000000000126,0.319708251953125,9.27527770996094,0.024224853515625
14.822000000000116,-0.4646087646484375,9.1480224609375,-0.2089019775390625
14.832000000000107,-0.6228179931640625,7.212127685546876,-0.533245849609375
14.842000000000098,1.063052368164063,5.931500244140626,3.6482330322265626
14.85200000000009,3.074761962890625,8.332302856445313,7.757635498046875
14.86200000000008,0.4306640625,12.467874145507814,-1.3704986572265625
14.874000000000024,0.219818115234375,12.94205322265625,5.310476684570313
14.882000000000062,1.22200927734375,9.852935791015623,1.0669403076171875
14.892000000000053,1.0371826171875,7.894161987304688,4.820745849609375
14.90300000000002,0.801214599609375,7.40323486328125,4.673901367187501
14.913000000000013,0.46954345703125,7.372131347656251,3.758291625976563
14.923000000000002,0.4115234375,8.273983764648438,2.011859130859375
14.932999999999993,0.05263671875,9.046188354492188,0.99710693359375
14.942999999999984,0.451898193359375,9.916937255859375,1.6558135986328126
14.953000000000202,1.0563232421875002,10.522857666015623,4.561898803710938
14.963000000000193,1.230084228515625,10.345208740234376,6.519476318359375
14.97400000000016,1.4204437255859377,9.185256958007812,5.334402465820313
14.983000000000176,0.8791229248046876,8.144335937500001,2.984591674804688
14.993000000000166,0.5938079833984375,8.942111206054689,2.212985229492188
15.003000000000156,0.3434844970703125,9.136358642578124,1.8451263427734377
15.013000000000147,-0.1936492919921875,5.272943115234376,1.9415771484375
15.023000000000138,-0.7729522705078126,3.1487823486328126,3.2509155273437504
15.03300000000013,1.149334716796875,11.109487915039065,4.350155639648438
15.044000000000096,0.576611328125,17.724368286132815,0.6353790283203126
15.054000000000087,-1.2209625244140625,15.336126708984375,-0.0897216796875
15.064000000000078,1.203765869140625,9.088955688476563,6.654806518554688
15.07400000000007,4.2528076171875,6.770846557617188,11.100216674804688
15.08400000000006,3.60142822265625,4.67210693359375,6.636114501953125
15.094000000000053,0.4834503173828125,4.939328002929688,0.000299072265625
15.104000000000042,-0.3925323486328125,9.403729248046876,-0.3413909912109375
15.114000000000033,-1.3987609863281252,12.24521484375,-0.6570617675781251
15.124000000000024,-0.06280517578125,11.294015502929687,-0.8320190429687501
15.134000000000016,1.921240234375,9.869085693359375,4.8931213378906255
15.144000000000004,1.891033935546875,10.661328125,12.958352661132814
15.153999999999996,2.85015869140625,10.02430419921875,3.558810424804688
15.163999999999987,0.4643096923828125,7.949490356445313,1.6879638671875
15.175000000000182,-0.42049560546875,7.828515625,-0.7914947509765625
15.185000000000173,-1.3555450439453125,8.292227172851563,-0.5912658691406251
15.195000000000164,-0.9076843261718752,7.642791748046876,-0.5733215332031251
15.205000000000156,2.345623779296876,8.278918457031251,12.601708984375
15.215000000000146,0.8152709960937501,11.303436279296877,0.2151824951171875
15.225000000000136,1.0430145263671875,12.888519287109377,-0.8813659667968751
15.235000000000127,1.0860809326171876,9.787588500976565,7.564584350585938
15.245000000000118,0.2938385009765625,7.678231811523438,1.04495849609375
15.25500000000011,0.4557861328125,7.290933227539063,5.805889892578126
15.2650000000001,1.3180114746093752,7.78245849609375,3.6787384033203128
15.275000000000093,0.3337646484375,8.338583374023438,2.3052490234375003
15.285000000000082,-0.4693939208984375,9.3119140625,1.6064666748046876
15.295000000000073,0.9757232666015626,10.249356079101563,3.4506958007812503
15.305000000000064,1.2631317138671876,10.222439575195311,5.44132080078125
15.315000000000056,0.656463623046875,9.985574340820314,5.0700225830078125
15.326000000000022,0.8411407470703126,9.392364501953123,3.795974731445313
15.336000000000013,0.9628631591796876,8.702853393554689,2.04864501953125
15.346000000000004,0.7644287109375001,8.353836059570312,2.1246093750000004
15.355999999999996,0.6806884765625001,6.812118530273438,2.204461669921875
15.365999999999984,1.2646270751953126,3.9585205078125,2.4923187255859376
15.376000000000204,1.9142120361328123,6.317303466796876,3.196185302734375
15.386000000000196,0.6241638183593751,14.941650390625002,1.4167053222656252
15.396000000000186,-0.8139251708984375,17.626422119140628,0.2492767333984375
15.406000000000176,0.462664794921875,11.434878540039064,3.422433471679688
15.416000000000167,1.648785400390625,7.7058959960937505,8.529241943359375
15.426000000000158,2.4971038818359377,7.036422729492188,10.492053222656253
15.43600000000015,0.07716064453125,5.831759643554688,3.6077087402343753
15.44600000000014,-0.8119812011718751,5.5006866455078125,-0.3668121337890625
15.456000000000133,-1.3455261230468751,9.723587036132812,-0.1906585693359375
15.466000000000122,-1.1541198730468751,12.329104614257814,-0.8125793457031251
15.47700000000009,1.6275512695312502,12.00162048339844,2.97457275390625
15.48700000000008,2.225546264648438,10.164419555664065,11.3731201171875
15.497000000000073,2.38958740234375,9.785494995117189,5.304196166992188
15.507000000000062,2.0709259033203127,8.707788085937501,2.183526611328125
15.517000000000053,0.370550537109375,8.47391357421875,-0.5324981689453125
15.527000000000044,-0.960919189453125,8.787939453125,0.0216827392578125
15.537000000000036,-1.14783935546875,7.3703369140625,-0.0369354248046875
15.547000000000024,1.1746063232421875,6.8044921875,9.825869750976564
15.557000000000016,1.0908660888671875,9.612033081054689,0.521881103515625
15.567000000000007,-0.0083740234375,12.754833984375,4.09190673828125
15.576999999999998,1.4350982666015626,12.330749511718752,2.880364990234375
15.586999999999987,0.650482177734375,8.761471557617188,2.940478515625
15.598000000000184,0.5628540039062501,7.117321777343751,3.5570159912109376
15.607000000000198,1.7003753662109375,7.567724609375,4.523468017578125
15.61700000000019,0.7182220458984375,7.913601684570313,3.223101806640625
15.628000000000156,0.19200439453125,8.640945434570312,0.9344512939453126
15.638000000000147,0.75306396484375,9.436328125,1.5191375732421877
15.648000000000138,1.283319091796875,10.136007690429688,2.9211883544921875
15.65800000000013,1.1369232177734376,10.52674560546875,5.308831787109376
15.66800000000012,0.74468994140625,9.861907958984377,5.680429077148438
15.678000000000113,1.2318786621093751,8.790332031250001,4.447055053710938
15.688000000000102,0.6431549072265625,8.232562255859376,2.986685180664063
15.698000000000093,-0.0683380126953125,8.830407714843751,1.9411285400390623
15.708000000000084,0.0465057373046875,9.261221313476565,1.8364532470703123
15.718000000000076,-0.462066650390625,6.4970458984375,2.632733154296876
15.728000000000064,-0.7141845703125,3.796572875976562,3.773544311523438
15.738000000000056,0.6794921875000001,9.3753173828125,4.346417236328126
15.748000000000047,0.371746826171875,16.977883911132814,0.9084320068359376
15.758000000000038,-0.378326416015625,16.105639648437503,0.4318603515625
15.769000000000004,0.9368438720703126,9.283053588867189,4.25101318359375
15.778999999999996,4.17325439453125,6.157449340820313,10.646224975585938
15.790000000000193,4.52855224609375,5.7115325927734375,8.52296142578125
15.798999999999978,1.1817840576171876,4.485186767578125,0.757550048828125
15.809000000000196,-0.2435943603515625,8.807827758789063,-0.4173553466796875
15.819000000000187,-1.4521453857421875,12.555651855468753,-0.627752685546875
15.829000000000178,0.03349609375,11.879898071289062,-0.808392333984375
15.83900000000017,1.9565307617187504,9.530087280273438,-0.5701812744140625
15.84900000000016,0.9742279052734376,9.9303955078125,17.79420166015625
15.859000000000153,2.43026123046875,10.654748535156251,2.649032592773437
15.869000000000142,1.1985321044921875,8.189794921875,3.1085571289062504
15.879000000000133,-0.68427734375,7.778570556640625,-0.03409423828125
15.8900000000001,-1.6259063720703126,8.293722534179688,-0.957928466796875
15.899000000000116,-1.4880340576171875,8.01214599609375,-0.6171356201171876
15.910000000000082,1.772900390625,8.08212890625,11.778811645507814
15.920000000000073,1.1988311767578126,10.456314086914062,1.1064178466796877
15.930000000000064,2.6716125488281253,12.92216491699219,-0.33316650390625
15.940000000000056,0.9857421875,10.581027221679689,6.474914550781251
15.950000000000044,-0.2740997314453125,7.623202514648438,0.5226287841796875
15.960000000000036,0.627752685546875,7.102517700195313,5.439974975585938
15.970000000000027,1.3878448486328123,7.908367919921876,4.345819091796876
15.980000000000018,0.3617279052734375,8.074652099609375,2.4009521484375003
15.990000000000007,-0.40614013671875,9.177182006835938,1.3903869628906251
16.0,0.5671905517578125,10.783648681640626,3.445761108398438
16.00999999999999,1.092959594726563,10.144381713867189,5.642147827148438
16.019999999999982,0.6914550781250001,9.449188232421877,5.187109375
16.0300000000002,0.66513671875,9.55640563964844,4.080242919921876
16.04000000000019,0.8076446533203125,9.145181274414064,2.6103027343750003
16.050000000000182,0.772802734375,7.999734497070313,1.46724853515625
16.06100000000015,0.791943359375,6.837838745117188,2.033392333984376
16.07100000000014,1.3628723144531252,4.586123657226563,2.5899658203125
16.08100000000013,1.5939056396484377,6.686508178710938,3.306842041015625
16.091000000000122,1.2197662353515626,14.282046508789064,2.2191162109375
16.101000000000113,-0.1027313232421875,16.474844360351565,0.343634033203125
16.111000000000104,0.5920135498046876,11.972161865234376,1.9272216796875
16.121000000000095,2.124908447265625,7.611090087890625,8.364154052734376
16.131000000000085,1.5313995361328123,6.853240966796876,8.746517944335938
16.141000000000076,0.438140869140625,6.560897827148438,4.680032348632813
16.151000000000067,-0.5573211669921876,6.063839721679688,-0.4098785400390625
16.161000000000058,-1.4359954833984376,9.328363037109376,-0.2648284912109375
16.17100000000005,-1.834210205078125,11.998480224609375,-0.7500732421875
16.18100000000004,1.205560302734375,11.646621704101562,9.725381469726564
16.192000000000007,1.3688537597656252,10.269692993164064,7.312765502929688
16.201999999999998,1.7108428955078123,9.3585693359375,4.990319824218751
16.21199999999999,1.7292358398437502,9.411505126953124,2.10606689453125
16.22199999999998,0.1290496826171875,9.384738159179689,-0.1042266845703125
16.2320000000002,-0.7449890136718751,8.444155883789064,-0.2624359130859375
16.24200000000019,-0.7923919677734376,6.822586059570313,-0.6972869873046875
16.25200000000018,3.0447052001953128,6.7040039062500005,9.569415283203126
16.26200000000017,2.1706665039062503,9.717306518554688,2.158404541015625
16.272000000000162,0.3177642822265625,12.878051757812502,1.7770874023437502
16.282000000000153,0.4074859619140625,11.79840087890625,3.5377258300781254
16.292000000000144,0.9009552001953126,8.753695678710939,2.1932464599609376
16.302000000000135,1.07486572265625,7.525106811523438,4.838540649414063
16.312000000000126,0.7867095947265625,7.490414428710938,4.420437622070313
16.322000000000116,-0.0133087158203125,7.838833618164063,2.7836151123046875
16.332000000000107,0.4032989501953125,8.584719848632814,1.64609375
16.343000000000075,0.48629150390625,9.627435302734376,1.5668395996093751
16.353000000000065,0.3712982177734375,10.217953491210938,3.0532287597656254
16.363000000000056,1.0300048828125,10.399041748046876,5.361169433593751
16.373000000000047,1.5071746826171877,9.757681274414065,6.339733886718751
16.383000000000038,1.2607391357421875,8.624197387695313,4.559954833984375
16.39300000000003,0.7898498535156251,8.349349975585938,1.9587738037109377
16.40300000000002,0.420794677734375,8.967831420898438,1.7476287841796876
16.41300000000001,0.4035980224609375,8.878707885742188,1.98763427734375
16.423000000000002,0.1296478271484375,5.79422607421875,2.388690185546875
16.432999999999993,0.2941375732421875,4.076055908203125,3.1299407958984378
16.442999999999984,0.7167266845703125,10.385583496093751,3.529949951171876
16.453000000000202,0.4391876220703125,17.267535400390628,0.9171051025390624
16.463000000000193,-0.4257293701171875,14.822918701171876,0.9752746582031252
16.473000000000184,1.5604095458984375,8.703900146484376,5.618969726562501
16.483000000000175,3.645989990234375,6.655255126953126,10.282403564453126
16.494000000000142,2.626751708984376,6.405828857421875,7.573257446289063
16.504000000000133,-0.2193695068359375,5.7218505859375,1.1357269287109375
16.514000000000124,-0.674407958984375,8.461502075195312,-0.4266265869140625
16.524000000000115,-1.6429534912109376,11.984423828125,-0.5321990966796876
16.534000000000106,-0.532049560546875,11.867037963867189,-0.8662628173828125
16.544000000000096,1.901950073242188,10.257730102539064,6.356182861328126
16.554000000000087,1.45648193359375,9.697567749023438,9.464739990234376
16.564000000000078,2.8495605468750003,9.38294372558594,4.5536743164062505
16.57400000000007,1.1312408447265625,8.528045654296875,1.8188079833984376
16.58400000000006,0.1064697265625,8.131326293945314,-0.784466552734375
