time,ax,ay,az
0.0,0.107965087890625,7.835394287109375,6.006268310546876
0.0099999999999909,0.161199951171875,7.873974609375001,5.776132202148438
0.0199999999999818,0.3497650146484375,7.972817993164063,5.783010864257813
0.0299999999999727,0.444122314453125,8.049380493164064,5.7619262695312505
0.0399999999999636,0.3575408935546875,7.927658081054688,5.532986450195313
0.0500000000000113,0.3413909912109375,7.745822143554688,5.522219848632813
0.0600000000000022,0.5797515869140626,6.9088684082031255,5.484387207031251
0.0709999999999766,0.74588623046875,5.580838012695313,4.328472900390626
0.0809999999999604,-0.0025421142578125,7.125845336914063,4.668368530273438
0.091000000000001,0.2582489013671875,8.771340942382814,7.82791748046875
0.100999999999999,0.1734619140625,9.949835205078124,5.5160888671875
0.11099999999999,0.1194793701171875,10.634860229492189,4.519281005859376
0.1209999999999809,1.073968505859375,8.607897949218751,8.97216796875
0.1309999999999718,-0.4233367919921875,6.570916748046876,7.9720703125
0.1409999999999627,-0.9634613037109376,5.501882934570313,3.112445068359375
0.1510000000000104,-0.8658142089843751,6.040661621093751,4.809829711914063
0.1610000000000013,-0.7017730712890625,8.314059448242189,7.047637939453126
0.1709999999999922,-1.1684753417968752,9.157742309570311,4.735958862304688
0.1809999999999831,-0.9082824707031252,9.809121704101564,3.624755859375
0.190999999999974,0.1428070068359375,9.502423095703126,8.362060546875
0.2019999999999981,0.4272247314453125,7.873675537109375,9.070114135742188
0.211999999999989,-0.1437042236328125,6.766061401367188,4.409671020507813
0.2219999999999871,0.1209747314453125,6.9851318359375005,3.795675659179688
0.2319999999999709,0.6954925537109375,7.778121948242188,6.616375732421876
0.2419999999999618,0.3572418212890625,7.681671142578126,4.9324493408203125
0.2520000000000095,0.023028564453125,7.876815795898438,3.350057983398438
0.2620000000000004,0.34273681640625,8.6671142578125,6.761874389648438
0.2719999999999913,0.6434539794921875,8.72991943359375,7.949340820312501
0.2819999999999822,0.503338623046875,8.239590454101563,4.923626708984376
0.2919999999999731,0.2561553955078125,8.167214965820314,4.190151977539063
0.3019999999999641,0.2100982666015625,8.088558959960938,6.136514282226563
0.3120000000000118,0.1447509765625,7.073059082031251,5.589810180664063
0.3220000000000027,-0.2100982666015625,6.374725341796876,4.835400390625001
0.3319999999999936,-0.1604522705078125,7.233959960937501,6.2972656250000005
0.3429999999999609,-0.002392578125,8.282357788085939,6.11363525390625
0.3530000000000015,-0.21951904296875,8.55047607421875,4.844970703125
0.3629999999999995,-0.18961181640625,8.271591186523438,6.137112426757813
0.3729999999999904,-0.1359283447265625,7.120312500000001,7.338934326171875
0.3829999999999813,-0.309539794921875,4.423727416992188,5.7936279296875
0.3929999999999722,-0.124114990234375,4.985684204101563,4.7265380859375
0.4049999999999727,-0.260491943359375,9.563134765625,4.615283203125
0.4130000000000109,-1.2592437744140623,12.516323852539063,4.108953857421875
0.4230000000000018,0.24404296875,11.270837402343751,4.6214141845703125
0.4329999999999927,2.1534698486328128,8.685357666015626,7.735504150390626
0.4429999999999836,1.2730010986328126,5.930303955078125,10.51822204589844
0.4529999999999745,0.51739501953125,5.026358032226563,7.363607788085938
0.4629999999999654,-0.7795318603515625,6.007015991210938,2.78436279296875
0.4729999999999563,-1.0652954101562502,8.590103149414062,2.028158569335938
0.4839999999999875,1.4472106933593751,9.41180419921875,5.73441162109375
0.4939999999999713,1.323245239257813,8.479595947265626,8.155850219726563
0.5049999999999955,-0.6113037109375,7.376467895507813,7.962200927734376
0.51400000000001,0.1182830810546875,8.544644165039063,6.765911865234376
0.5240000000000009,0.9872375488281252,9.153555297851565,6.2242919921875
0.5339999999999918,-0.289801025390625,8.106652832031251,4.0771026611328125
0.5439999999999827,-0.5058807373046875,6.833950805664063,3.1010803222656254
0.5539999999999736,1.0110137939453123,7.120462036132813,5.903387451171875
0.5639999999999645,0.8650665283203126,7.539761352539063,7.639202880859376
0.5740000000000123,-0.079852294921875,8.065081787109376,5.702261352539063
0.5840000000000032,-0.0031402587890625,9.036318969726564,4.3971099853515625
0.5939999999999941,0.7225585937500001,9.709530639648438,6.149822998046876
0.6049999999999613,0.5369842529296875,8.388677978515625,6.337789916992188
0.6139999999999759,-0.386700439453125,6.815408325195313,4.979702758789063
0.625,-0.5483489990234376,6.928607177734375,5.484536743164063
0.6349999999999909,-0.1523773193359375,7.1182189941406255,6.142047119140625
0.6449999999999818,-0.3841583251953125,7.253997802734376,4.556515502929688
0.6549999999999727,-0.491375732421875,7.512545776367188,4.749716186523438
0.6649999999999636,-0.1854248046875,8.328564453125,6.464297485351563
0.6750000000000114,-0.1754058837890625,8.333798217773438,6.791931152343751
0.6850000000000023,0.002093505859375,7.996145629882813,6.338687133789063
0.6949999999999932,0.087030029296875,7.954873657226563,6.348257446289063
0.7049999999999841,0.4460662841796875,7.905975341796876,5.841180419921876
0.714999999999975,0.5537322998046875,7.422225952148438,5.308981323242188
0.7249999999999659,0.41810302734375,7.412954711914063,5.278326416015625
0.7349999999999568,0.4964599609375,7.634866333007813,5.007815551757813
0.7450000000000045,0.6877166748046876,7.361065673828126,4.539318847656251
0.7549999999999955,0.78895263671875,5.323486328125,4.403390502929688
0.7659999999999627,0.8501129150390626,5.152267456054688,4.3461181640625
0.7760000000000105,-0.5872283935546876,10.289730834960938,5.254251098632813
0.7860000000000014,-0.0429168701171875,14.123687744140629,6.936083984375
0.7959999999999923,0.6596038818359375,11.36175537109375,6.404483032226563
0.8059999999999832,-0.174359130859375,7.162182617187501,7.087564086914063
0.8159999999999741,0.9389373779296876,4.726837158203125,10.629925537109376
0.825999999999965,0.6252105712890625,4.24144287109375,8.085418701171875
0.8359999999999559,-1.487884521484375,5.554669189453126,1.4135650634765626
0.8460000000000036,-2.262930297851563,8.078390502929688,0.3455780029296875
0.8559999999999945,-0.6421081542968751,11.025299072265623,7.703204345703125
0.8659999999999854,0.7614379882812501,9.930096435546876,9.82452392578125
0.8759999999999764,-0.9800598144531252,7.604959106445313,7.599874877929688
0.8859999999999673,0.6999786376953125,8.142691040039063,6.162384033203126
0.8959999999999511,1.3935272216796877,8.497241210937501,6.306686401367188
0.9069999999999824,0.1108062744140625,7.4301513671875,3.867453002929688
0.9169999999999732,-0.8181121826171875,6.952981567382813,2.0647949218750004
0.926999999999964,0.63223876953125,7.285549926757813,5.518331909179688
0.9370000000000118,1.272552490234375,7.532135009765626,7.753897094726563
0.9470000000000028,-0.506329345703125,7.962051391601563,5.8550872802734375
0.9569999999999936,-0.8239440917968751,9.24073486328125,5.1691650390625
0.9669999999999844,0.1748077392578125,9.83828125,6.701162719726563
0.9769999999999754,0.4972076416015625,8.009005737304689,5.829965209960938
0.9869999999999663,0.065496826171875,6.477157592773438,4.569226074218751
0.9969999999999573,-0.1016845703125,6.759182739257813,6.261825561523438
1.007000000000005,0.04007568359375,6.805538940429688,6.2314697265625005
1.016999999999996,0.1327880859375,7.243829345703125,3.7856567382812494
1.0269999999999868,0.6763519287109375,8.285797119140625,4.539767456054688
1.0369999999999775,0.6775482177734375,9.0977783203125,6.429904174804688
1.0469999999999686,0.0719268798828125,8.359967041015626,6.546691894531251
1.0579999999999927,0.2929412841796875,7.825225830078126,6.7626220703125
1.0679999999999836,0.5550781250000001,7.611090087890625,6.947598266601563
1.0779999999999743,-0.008074951171875,6.884194946289063,5.3406829833984375
1.0879999999999654,-0.7838684082031251,5.438778686523438,4.056167602539063
1.0979999999999563,-0.663641357421875,4.895962524414063,4.2445831298828125
1.108000000000004,-1.05692138671875,7.591500854492188,3.8533966064453127
1.117999999999995,-0.7046142578125001,12.109884643554688,4.3103790283203125
1.127999999999986,0.5728729248046875,12.578680419921875,6.904531860351563
1.1379999999999768,0.3398956298828125,9.925909423828124,8.5068115234375
1.1479999999999675,0.849066162109375,6.430203247070313,9.466534423828126
1.1579999999999515,1.48638916015625,4.9145050048828125,7.739691162109375
1.1680000000000064,0.3288299560546875,5.111593627929688,3.832461547851562
1.1779999999999973,-0.8758331298828126,7.316354370117188,1.6869171142578123
1.187999999999981,0.8255889892578125,8.923419189453126,4.375576782226563
1.1979999999999862,2.2458831787109377,9.173892211914064,8.139550781250001
1.2090000000000032,0.4127197265625,8.396902465820313,9.443954467773438
1.218999999999994,-0.5184417724609376,8.789584350585939,6.888531494140626
1.228999999999985,0.3467742919921875,9.245071411132812,5.6108947753906255
1.238999999999976,0.0231781005859375,8.003771972656251,4.826876831054688
1.2489999999999668,-0.823345947265625,6.717163085937501,3.337496948242188
1.2589999999999577,0.0303558349609375,6.46414794921875,4.220208740234376
1.2690000000000057,0.4176544189453125,7.032534790039063,6.972720336914063
1.2789999999999964,-0.1882659912109375,7.99599609375,6.775631713867188
1.2889999999999873,0.0287109375,9.250454711914063,5.136416625976563
1.2989999999999853,0.39058837890625,10.0189208984375,5.7125793457031255
1.3089999999999762,0.4341033935546875,8.981289672851563,6.341827392578126
1.31899999999996,0.2298370361328125,7.295867919921876,5.273690795898438
1.329999999999984,0.1760040283203125,6.426763916015625,5.614035034179688
1.3389999999999986,0.304754638671875,6.343621826171876,6.066531372070313
1.3489999999999895,0.1655364990234375,6.813314819335938,4.638461303710938
1.3599999999999568,0.1710693359375,7.754345703125001,4.4060821533203125
1.3700000000000043,0.03289794921875,8.821286010742188,5.822189331054688
1.3799999999999957,-0.2483795166015625,8.763565063476562,6.423773193359375
1.3899999999999864,-0.16568603515625,8.302545166015626,6.567178344726563
1.3999999999999773,-0.224005126953125,7.784552001953125,7.210781860351563
1.4099999999999682,-0.1766021728515625,7.434338378906251,6.47252197265625
1.4209999999999925,-0.0871795654296875,7.020721435546876,4.932748413085938
1.4300000000000068,0.3650177001953125,6.462503051757813,4.811325073242188
1.4399999999999975,0.7707092285156251,5.132528686523438,4.247723388671876
1.4499999999999815,0.8634216308593751,6.004473876953125,3.2510650634765628
1.4599999999999866,0.098095703125,9.77054138183594,4.029998779296875
1.4699999999999775,0.0569732666015625,12.480584716796876,5.415301513671875
1.4799999999999611,0.945068359375,12.6005126953125,6.381604003906251
1.4909999999999854,1.401004028320313,8.681021118164063,9.832748413085938
1.5009999999999764,0.5788543701171875,5.570669555664063,10.024453735351564
1.5109999999999673,-0.756353759765625,4.547244262695313,6.2015625000000005
1.520999999999951,-0.9953125,4.853793334960938,5.026208496093751
1.531000000000006,-0.9404327392578126,6.947299194335938,3.3478149414062504
1.5409999999999968,-0.7748962402343751,9.08880615234375,2.477215576171876
1.5509999999999875,0.358587646484375,9.89734802246094,7.184164428710938
1.5609999999999855,-0.7478302001953125,9.175088500976564,10.9161376953125
1.5709999999999766,-0.5848358154296875,8.159289550781251,7.896554565429688
1.5809999999999604,0.203369140625,8.509353637695312,3.4225830078125004
1.591000000000001,0.7852142333984375,8.390921020507813,4.1967315673828125
1.600999999999999,0.5399749755859375,6.913055419921876,5.321990966796875
1.61099999999999,-0.6697723388671876,6.553570556640626,4.018933105468751
1.6219999999999573,1.3349090576171876,7.269699096679688,5.103369140625
1.6309999999999718,1.2317291259765626,8.06239013671875,7.780364990234376
1.641999999999996,-0.360382080078125,8.617318725585939,6.445755004882813
1.6519999999999868,-0.3366058349609375,9.452627563476565,4.915402221679688
1.6619999999999775,0.472833251953125,8.922073364257812,6.593496704101563
1.6719999999999686,0.4652069091796875,7.32786865234375,6.490765380859376
1.6819999999999595,-0.094805908203125,6.410015869140626,4.620965576171876
1.6920000000000073,-0.4807586669921875,7.241885375976563,5.187258911132813
1.7019999999999982,-0.2785858154296875,7.639352416992188,5.779721069335938
1.711999999999989,0.1305450439453125,7.62454833984375,3.8338073730468754
1.721999999999987,0.4200469970703125,8.390023803710939,4.557711791992188
1.731999999999971,0.329876708984375,8.730816650390626,7.229623413085938
1.7419999999999618,0.1607513427734375,7.959658813476563,7.01444091796875
1.7520000000000095,0.462664794921875,7.273886108398438,6.228179931640626
1.7620000000000005,0.7074554443359375,7.604959106445313,6.697573852539063
1.7729999999999675,0.41929931640625,7.369589233398438,6.150421142578126
1.7829999999999515,-0.1854248046875,7.258633422851563,4.6229095458984375
1.7930000000000064,-0.5447601318359375,6.659890747070313,4.824185180664063
1.8029999999999973,-0.191705322265625,6.118569946289063,4.81566162109375
1.812999999999981,-0.8743377685546876,6.0484375,3.6217651367187504
1.8229999999999864,-0.7699615478515626,9.726727294921876,3.0581634521484378
1.832999999999977,0.264080810546875,12.65479431152344,6.447250366210938
1.842999999999961,-0.256005859375,11.161975097656253,8.558102416992188
1.853000000000001,1.1660827636718751,8.089755249023439,8.005865478515625
1.8629999999999995,1.7078521728515623,5.604315185546875,9.432440185546875
1.8729999999999905,0.8930297851562501,4.969085693359375,8.335891723632812
1.8829999999999807,-0.5076751708984375,5.281466674804688,2.19698486328125
1.8929999999999725,-1.6034759521484376,7.550827026367188,0.0174957275390625
1.9029999999999632,1.4536407470703123,10.193728637695314,6.2912841796875005
1.913000000000011,2.3668579101562504,9.697119140625,9.07205810546875
1.9239999999999853,-0.40972900390625,8.366546630859375,7.105059814453125
1.933999999999976,-0.0521881103515625,8.706442260742188,6.706097412109376
1.94399999999996,0.9317596435546877,8.771939086914063,7.469778442382813
1.954000000000008,-0.6530242919921876,6.931149291992188,4.186712646484375
1.9639999999999984,-1.0833892822265625,6.025708007812501,2.1980316162109377
1.973999999999989,0.36845703125,7.223193359375,5.719906616210938
1.983999999999988,0.7946350097656251,7.89132080078125,7.553518676757813
1.993999999999972,0.048748779296875,8.114727783203126,4.852297973632813
2.0039999999999623,0.0964508056640625,9.2915771484375,5.115182495117188
2.01400000000001,0.7059600830078125,9.846505737304687,7.884442138671876
2.024000000000001,0.464459228515625,8.298956298828125,6.171804809570313
2.033999999999992,-0.0276641845703125,6.724938964843751,3.9637542724609376
2.044999999999959,0.0752166748046875,7.020571899414063,5.666821289062501
2.055000000000007,0.2775390625,6.9899169921875,6.310873413085938
2.0649999999999977,-0.117236328125,6.768753051757813,4.03209228515625
2.074999999999981,-0.1529754638671875,7.596136474609375,4.715921020507813
2.084999999999986,0.1069183349609375,8.872128295898438,6.7841552734375
2.094999999999977,-0.2193695068359375,8.771939086914063,6.385043334960938
2.1049999999999613,-0.5344421386718751,8.02650146484375,6.17105712890625
2.115000000000009,-0.0231781005859375,7.7642150878906255,7.117620849609375
2.125,0.54969482421875,7.222296142578125,6.460858154296876
2.134999999999991,0.416607666015625,5.985781860351563,4.679583740234375
2.144999999999982,0.5815460205078126,4.607507324218751,3.890631103515626
2.1549999999999727,0.898114013671875,5.897256469726563,3.8904815673828126
2.164999999999964,0.0270660400390625,10.406069946289064,4.255947875976563
2.175000000000012,-0.052337646484375,13.090093994140624,5.301055908203125
2.1850000000000023,1.2837677001953125,11.783746337890626,6.425567626953126
2.1959999999999766,1.304852294921875,8.028744506835938,9.045291137695314
2.2059999999999604,0.9673492431640626,5.523416137695313,10.25040283203125
2.216000000000001,0.1706207275390625,4.958020019531251,6.782659912109375
2.225999999999999,-1.815667724609375,5.4135070800781255,1.7214599609375
2.23599999999999,-1.4542388916015625,7.656997680664063,1.6724121093750002
2.245999999999981,-0.2349212646484375,9.730615234375,5.711831665039063
2.255999999999972,-0.653173828125,8.649319458007813,9.315652465820314
2.2659999999999627,-0.7765411376953125,7.936331176757813,9.721493530273438
2.2760000000000105,-0.1362274169921875,8.589804077148438,7.530789184570313
2.2860000000000014,1.05572509765625,9.2772216796875,4.818502807617188
2.2959999999999923,0.0318511962890625,8.297311401367189,3.013302612304688
2.305999999999983,-0.2148834228515625,6.8311096191406255,3.656756591796875
2.315999999999974,0.6963897705078126,6.313714599609376,5.655905151367188
2.326999999999998,1.6958892822265623,6.750958251953126,6.18541259765625
2.335999999999956,0.5543304443359376,8.024557495117188,5.935986328125001
2.346999999999987,-0.57362060546875,9.61502380371094,5.785104370117188
2.356999999999971,-0.0234771728515625,10.14931640625,5.9149017333984375
2.366999999999962,0.5037872314453126,8.4697265625,6.140252685546876
2.377000000000009,0.20396728515625,6.690396118164063,6.10107421875
2.3870000000000005,-0.452197265625,6.469232177734376,6.074606323242188
2.396999999999992,-0.493768310546875,7.024758911132813,5.596688842773438
2.4069999999999823,-0.2420989990234375,7.349551391601563,4.49625244140625
2.416999999999973,0.054132080078125,7.91524658203125,4.194638061523438
2.426999999999964,0.308642578125,8.767602539062501,5.639605712890625
2.437000000000012,0.0710296630859375,8.627188110351563,6.699667358398438
2.4470000000000027,0.322698974609375,7.961453247070313,6.46654052734375
2.4569999999999936,1.0851837158203126,7.503872680664063,6.504373168945313
2.4669999999999845,0.9411804199218752,7.474862670898438,6.387884521484375
2.4769999999999754,-0.003887939453125,6.839483642578125,5.586669921875
2.4869999999999663,-0.7466339111328125,5.7653656005859375,4.616778564453125
2.4979999999999905,-0.249127197265625,4.7121826171875005,4.275836181640625
2.5079999999999814,-0.4720855712890625,7.144836425781251,3.6654296875
2.5179999999999723,0.0880767822265625,11.963638305664062,4.326977539062501
2.527999999999963,-0.449505615234375,13.1005615234375,6.557608032226563
2.538000000000011,-0.2370147705078125,10.573849487304688,7.743878173828126
2.548000000000002,1.4004058837890625,6.908718872070313,9.443356323242188
2.5579999999999927,1.3030578613281252,5.218960571289063,9.734054565429688
2.567999999999984,0.0462066650390625,4.224993896484375,4.71397705078125
2.5779999999999745,-1.3295257568359375,6.353939819335938,0.5655456542968751
2.587999999999965,0.047552490234375,9.1360595703125,3.423330688476563
2.5979999999999563,2.423382568359376,9.63431396484375,7.41519775390625
2.608000000000004,1.3462738037109376,8.29447021484375,8.721545410156251
2.617999999999995,-0.693548583984375,8.333648681640625,7.709335327148438
2.6289999999999623,0.440234375,9.071160888671876,7.271493530273438
2.63900000000001,0.6631927490234375,8.52894287109375,5.454779052734375
2.649000000000001,-0.76383056640625,6.766061401367188,2.234368896484375
2.658999999999992,-0.27335205078125,6.749911499023438,3.1414550781250004
2.6689999999999827,0.724951171875,7.045394897460938,7.0270019531250005
2.6789999999999736,-0.0251220703125,7.282409667968751,6.96300048828125
2.6889999999999645,-0.3545501708984375,8.339630126953125,4.931253051757813
2.6990000000000123,0.236566162109375,10.131072998046877,5.99639892578125
2.709000000000003,0.5715270996093751,9.815402221679689,7.113134765625
2.718999999999994,-0.0514404296875,7.681222534179688,5.241690063476563
2.728999999999985,-0.0753662109375,6.64598388671875,5.0550689697265625
2.738999999999976,0.4777679443359375,6.637161254882813,6.648974609375
2.75,0.1949951171875,6.522167968750001,5.384646606445313
2.759999999999991,-0.15611572265625,7.021618652343751,3.707000732421875
2.769999999999982,0.18482666015625,8.438323974609375,5.269503784179688
2.7799999999999727,0.19439697265625,9.1599853515625,6.516635131835938
2.789999999999964,-0.1795928955078125,8.452529907226562,6.214422607421875
2.800000000000012,-0.2356689453125,8.0761474609375,6.750958251953126
2.8100000000000023,0.2304351806640625,7.672549438476563,7.202557373046876
2.8220000000000027,0.3611297607421875,6.995449829101563,5.677737426757813
2.829999999999984,0.32000732421875,5.37193603515625,4.453634643554688
2.839999999999975,0.762335205078125,4.7196594238281255,4.2027130126953125
2.849999999999966,0.433355712890625,6.463101196289063,3.959417724609376
2.859999999999957,-0.3635223388671875,10.850341796875,3.970782470703125
2.8700000000000045,0.093609619140625,13.452719116210938,5.470181274414063
2.8799999999999955,1.1566619873046875,11.997283935546877,7.66103515625
2.8899999999999864,1.0175933837890625,7.617370605468751,9.580630493164064
2.8999999999999773,0.9965087890625,4.881756591796876,9.126040649414064
2.9110000000000014,0.0249725341796875,4.1068603515625,6.214422607421875
2.9209999999999923,-1.8487152099609376,5.6049133300781255,1.873239135742188
2.930999999999983,-1.7163757324218751,7.705447387695313,0.8031585693359375
2.940999999999974,0.624462890625,10.08411865234375,5.5570617675781255
2.950999999999965,0.063702392578125,8.990710449218751,10.508950805664064
2.960999999999956,-0.823345947265625,8.016482543945314,10.49444580078125
2.971000000000004,0.2956329345703125,8.578140258789062,6.969580078125
2.9809999999999945,0.930712890625,9.275875854492188,4.5820861816406255
2.990999999999985,-0.0007476806640625,8.196673583984376,3.151025390625
3.0009999999999764,-0.7496246337890625,6.792379760742188,3.139511108398438
3.010999999999968,0.5613586425781251,6.309527587890625,4.854092407226563
3.020999999999951,1.3827606201171876,6.63701171875,6.618170166015625
3.031000000000006,0.2687164306640625,7.828366088867188,6.597683715820313
3.040999999999997,-0.5275634765625,9.745120239257814,5.671905517578125
3.051999999999964,0.17047119140625,10.457659912109376,5.768804931640625
3.062000000000012,0.5641998291015625,8.671450805664064,6.34990234375
3.0720000000000027,0.2175750732421875,6.456072998046875,6.275582885742188
3.0819999999999936,-0.1837799072265625,6.136962890625001,6.205599975585938
3.0919999999999845,-0.2582489013671875,6.969281005859376,5.645886230468751
3.1019999999999754,-0.0964508056640625,7.516583251953126,4.131234741210938
3.1119999999999663,0.2328277587890625,8.049380493164064,3.62535400390625
3.1219999999999573,0.1903594970703125,8.863006591796875,5.528500366210938
3.132000000000005,0.1184326171875,8.704348754882814,7.069619750976563
3.141999999999996,0.3363067626953125,7.786944580078125,6.691293334960938
3.151999999999987,0.8208038330078126,7.419085693359375,6.380706787109376
3.1619999999999777,0.8375518798828125,7.408020019531251,6.676339721679688
3.1719999999999686,-0.206658935546875,6.604412841796876,5.63212890625
3.1819999999999595,-0.5172454833984376,5.012600708007813,4.245330810546875
3.192000000000008,-0.8064483642578125,5.322589111328125,4.796820068359375
3.201999999999998,-0.4074859619140625,8.837136840820314,4.1307861328125
3.212999999999965,-0.3470733642578125,12.030630493164065,3.913809204101563
3.2229999999999563,0.557171630859375,12.3134033203125,6.113186645507813
3.233000000000004,0.3557464599609375,9.852935791015623,8.906970214843751
3.242999999999995,1.5752136230468752,6.639852905273438,9.405374145507814
3.252999999999986,1.12989501953125,4.925869750976563,8.188150024414064
3.262999999999977,-0.145648193359375,4.511953735351563,4.399951171875
3.274000000000001,-1.4404815673828126,6.990963745117188,1.0977447509765623
3.2829999999999515,0.0155517578125,9.344662475585938,3.1861663818359376
3.2930000000000064,2.3381469726562503,9.332101440429687,7.44749755859375
3.3029999999999973,0.8302246093750001,7.869039916992188,9.304437255859376
3.312999999999981,-0.1782470703125,8.313909912109375,8.015286254882813
3.322999999999986,-0.291595458984375,8.892465209960939,7.460507202148438
3.332999999999977,0.472235107421875,8.807528686523439,4.829867553710938
3.343999999999994,-0.9174041748046876,6.976907348632813,1.96011962890625
3.353999999999985,0.1197784423828125,6.778024291992188,3.4183959960937504
3.363999999999976,0.7108947753906251,6.826324462890626,7.469180297851563
3.373999999999967,0.1090118408203125,7.140948486328125,6.857727050781251
3.3839999999999577,0.0342437744140625,8.430697631835939,4.530645751953125
3.394000000000005,0.5304046630859376,10.421322631835938,6.073709106445313
3.4039999999999964,0.43843994140625,9.849945068359377,7.115826416015626
3.413999999999988,-0.0680389404296875,7.523013305664063,5.047442626953125
3.4239999999999853,0.02691650390625,6.560897827148438,5.3605712890625
3.433999999999976,0.3404937744140625,6.847708129882813,7.044049072265626
3.44399999999996,0.02930908203125,6.73570556640625,5.1313323974609375
3.454000000000008,-0.23447265625,7.097732543945313,3.4267700195312503
3.463999999999998,0.0626556396484375,8.562738037109376,5.345468139648438
3.474999999999966,0.1915557861328125,8.932989501953125,6.642095947265625
3.484999999999957,-0.1535736083984375,8.265908813476564,6.081036376953126
3.4950000000000045,-0.3656158447265625,7.945901489257813,6.525756835937501
3.5049999999999955,0.189312744140625,7.8629089355468755,6.967636108398438
3.5149999999999864,0.4409820556640625,7.089657592773438,5.930902099609376
3.5249999999999773,0.2500244140625,6.123654174804688,4.965347290039063
3.534999999999968,0.5396759033203126,4.5865722656250005,4.478607177734375
3.544999999999959,0.91336669921875,5.432498168945313,4.374081420898438
3.555000000000007,-0.032598876953125,9.401187133789064,4.855288696289063
3.5649999999999977,-0.608612060546875,13.9212158203125,4.966992187500001
3.574999999999981,0.7666717529296876,13.042990112304688,5.823385620117188
3.584999999999986,1.097894287109375,8.70240478515625,8.139550781250001
3.594999999999977,0.8960205078125001,5.062396240234375,10.28016052246094
3.604999999999961,0.6781463623046875,3.985586547851563,7.975509643554688
3.615000000000009,-1.5071746826171877,4.924673461914063,2.2234527587890627
3.625999999999976,-2.152572631835937,7.455422973632813,-0.2501739501953125
3.6359999999999673,-0.0524871826171875,10.216757202148438,5.093798828125
3.645999999999951,1.4688934326171876,9.4542724609375,8.746517944335938
3.656000000000006,0.200677490234375,7.815206909179688,10.707684326171876
3.665999999999997,-0.6032287597656251,7.749859619140626,9.063684082031251
3.675999999999988,0.433355712890625,8.984130859375,5.815011596679688
3.6859999999999857,0.1263580322265625,8.650515747070314,2.9108703613281253
3.6959999999999766,-0.9646575927734377,7.271194458007813,2.2037139892578126
3.70599999999996,0.208453369140625,6.566879272460938,4.895663452148438
3.716000000000001,1.4264251708984377,6.557608032226563,6.588562011718751
3.725999999999999,0.562255859375,7.44869384765625,6.079989624023438
3.73599999999999,-0.47791748046875,9.396551513671875,5.815310668945313
3.745999999999981,-0.0106170654296875,10.72159118652344,6.1740478515625
3.755999999999972,0.5956024169921875,9.204248046875,5.748318481445313
3.7659999999999614,0.3461761474609375,6.71776123046875,5.645886230468751
3.776999999999987,0.055926513671875,6.014193725585938,6.808978271484375
3.7869999999999777,-0.1559661865234375,6.543701171875001,6.4796997070312505
3.7969999999999686,-0.3898406982421875,7.284204101562499,4.096392822265625
3.80699999999996,-0.0835906982421875,8.070166015625,3.3244873046875
3.8170000000000073,0.3378021240234375,9.117965698242188,5.240643310546876
3.826999999999998,-0.0049346923828125,8.738592529296875,6.7907348632812505
3.837999999999965,-0.088525390625,7.801748657226563,6.81107177734375
3.846999999999987,0.661846923828125,7.317401123046875,6.946850585937501
3.856999999999971,0.9224884033203126,7.461703491210938,6.585720825195313
3.866999999999962,-0.3225494384765625,6.658395385742188,4.990319824218751
3.8770000000000095,-0.6059204101562501,5.098135375976563,3.76292724609375
3.887000000000001,-1.057220458984375,4.855587768554688,4.5675811767578125
3.896999999999992,-0.107666015625,9.226080322265624,4.649676513671875
3.907999999999952,0.402850341796875,12.793414306640626,5.199819946289063
3.916999999999973,0.3102874755859375,12.29725341796875,6.350201416015626
3.927999999999997,0.319110107421875,9.038113403320311,8.494100952148438
3.937999999999981,1.5258666992187502,6.043353271484375,9.61158447265625
3.947999999999986,1.1660827636718751,4.728182983398438,7.312765502929688
3.957999999999977,-0.3542510986328125,5.168118286132813,2.3170623779296875
3.967999999999961,-1.0534820556640625,7.770645141601563,1.6818328857421876
3.9780000000000015,1.437042236328125,9.310568237304688,5.568426513671875
3.988,1.5346893310546876,8.554812622070314,8.730966186523439
3.9979999999999913,-0.3569427490234375,8.021417236328126,8.587411499023439
4.007999999999981,-0.37742919921875,8.850595092773439,7.361065673828126
4.017999999999972,0.5310028076171875,9.458010864257814,6.472821044921876
4.027999999999963,-0.20396728515625,7.924368286132813,4.001736450195313
4.038999999999987,-0.5419189453125001,6.734359741210938,1.9989990234375
4.048000000000002,0.6126495361328126,6.579739379882813,5.002731323242188
4.058999999999976,0.570928955078125,7.060198974609375,7.529742431640625
4.06899999999996,-0.115740966796875,7.523910522460938,6.0449981689453125
4.079000000000008,0.2884552001953125,9.180172729492188,4.898654174804688
4.088999999999999,0.768316650390625,10.408312988281253,6.635815429687501
4.0989999999999895,0.48988037109375,9.14966735839844,6.439324951171876
4.108999999999988,-0.0921142578125,7.036422729492188,4.841381835937501
4.118999999999971,-0.0180938720703125,6.562692260742188,5.81456298828125
4.128999999999962,0.2100982666015625,6.619216918945313,6.363958740234375
4.13900000000001,-0.146246337890625,6.554168701171876,4.312472534179688
4.149000000000001,-0.360382080078125,7.500732421875001,4.212582397460938
4.158999999999992,-0.127105712890625,8.880352783203126,6.08133544921875
4.169999999999959,-0.183331298828125,8.974111938476563,6.402389526367188
4.178999999999974,-0.40614013671875,8.17962646484375,6.543850708007813
4.1889999999999645,-0.19080810546875,7.974462890625,7.192538452148438
4.1999999999999815,0.2651275634765625,7.533032226562501,6.486578369140625
4.209999999999987,0.4421783447265625,6.981094360351563,5.2834106445312505
4.2199999999999775,0.2763427734375,6.749612426757813,5.197427368164063
4.229999999999961,0.5404235839843751,5.127294921875,4.487878417968751
4.240000000000009,0.8812164306640625,5.165875244140626,3.2479248046875004
4.25,0.2296875,7.976257324218751,4.136318969726563
4.259999999999991,-0.2899505615234375,13.124935913085938,5.141949462890626
4.269999999999982,0.4906280517578125,13.6388916015625,6.190347290039063
4.279999999999973,0.8705993652343751,10.2342529296875,7.92601318359375
4.289999999999964,0.9615173339843752,6.198272705078126,11.020962524414063
4.300000000000011,1.038079833984375,4.010409545898438,9.81375732421875
4.310000000000002,-0.7289886474609375,3.8768737792968753,3.4795562744140627
4.319999999999993,-1.9312591552734373,5.8695922851562505,0.1269561767578125
4.329999999999984,-1.3133758544921876,9.201705932617188,3.3250854492187503
4.341000000000001,1.3216003417968751,10.576092529296876,6.973468017578125
4.350999999999999,0.1757049560546875,8.847454833984376,8.867343139648439
4.36099999999999,-0.8728424072265626,8.080184936523438,10.314553833007814
4.370999999999981,0.91217041015625,9.32926025390625,7.61497802734375
4.380999999999972,0.2941375732421875,8.491558837890626,3.3617218017578128
4.390999999999963,-0.8036071777343751,7.192837524414063,1.538128662109375
4.4010000000000105,0.0019439697265625,6.637460327148438,4.400848388671875
4.411000000000001,1.0374816894531251,6.526654052734376,6.125747680664063
4.420999999999992,0.603826904296875,6.694882202148438,5.200567626953125
4.430999999999983,-0.1311431884765625,8.43323974609375,6.187655639648438
4.440999999999974,0.0477020263671875,10.342068481445311,7.253549194335938
4.450999999999965,0.3222503662109375,9.992901611328126,5.948995971679688
4.460999999999956,0.3665130615234375,7.595538330078125,5.645437622070313
4.471000000000004,0.2977264404296875,6.378015136718751,7.009506225585938
4.4809999999999945,0.016748046875,6.404632568359376,6.369192504882813
4.491999999999962,-0.2811279296875,6.959112548828125,4.221255493164063
4.5020000000000095,-0.0832916259765625,7.596136474609375,3.551632690429688
4.5120000000000005,0.3267364501953125,8.77777099609375,4.479653930664063
4.521999999999991,0.1221710205078125,9.089703369140626,5.939126586914063
4.531999999999982,-0.150732421875,8.407369995117188,6.801052856445313
4.541999999999973,0.298175048828125,7.650119018554688,7.246670532226563
4.551999999999964,0.6901092529296875,7.384841918945313,7.014141845703126
4.562000000000012,0.20396728515625,6.969729614257813,6.036624145507813
4.572000000000003,-0.3135772705078125,5.618969726562501,4.870541381835938
4.581999999999994,-0.3074462890625,4.929159545898438,4.886691284179688
4.5919999999999845,-1.639215087890625,6.267807006835938,4.451092529296876
4.601999999999975,-0.9084320068359376,10.653701782226562,3.711187744140626
4.611999999999966,-0.247930908203125,12.924557495117188,4.6236572265625
4.621999999999957,1.2762908935546875,11.940759277343751,6.633273315429688
4.632000000000005,1.2342712402343752,7.703054809570313,9.239239501953126
4.642999999999972,1.5910644531250002,5.082284545898438,9.6265380859375
4.652999999999963,0.6425567626953126,4.619021606445313,7.416094970703125
4.663000000000011,-0.8522064208984376,5.849255371093751,2.6917999267578128
4.673000000000002,-1.319207763671875,8.269497680664063,0.906787109375
4.682999999999993,1.2528137207031251,9.702502441406253,5.65904541015625
4.692999999999984,2.56962890625,8.889324951171876,8.766555786132812
4.702999999999975,0.367559814453125,7.847357177734375,8.330957031250001
4.712999999999965,-0.35888671875,8.47510986328125,7.060797119140625
4.722999999999956,0.4460662841796875,9.496142578125,6.344967651367188
4.733000000000004,-0.6045745849609375,8.137457275390625,3.42916259765625
4.742999999999995,-0.572125244140625,6.709237670898438,2.0350372314453127
4.753999999999962,0.4293182373046875,6.555364990234375,5.7649169921875005
4.762999999999977,0.5770599365234376,6.904232788085938,7.7881408691406255
4.774000000000001,0.0850860595703125,7.61856689453125,5.339935302734375
4.783999999999992,0.22310791015625,9.38309326171875,4.805044555664063
4.793999999999983,0.5797515869140626,10.330404663085938,6.827969360351563
4.803999999999974,0.3683074951171875,8.791229248046875,6.364108276367188
4.8139999999999645,-0.0061309814453125,6.808230590820313,5.043405151367188
4.824000000000012,0.1443023681640625,6.74228515625,6.17105712890625
4.834000000000003,0.3533538818359375,6.674694824218751,6.240292358398438
4.843999999999994,-0.0949554443359375,6.864157104492188,4.101177978515626
4.853999999999985,-0.355596923828125,7.675241088867188,4.4180450439453125
4.863999999999976,0.0088226318359375,8.872277832031251,6.062643432617188
4.873999999999967,-0.093310546875,8.5953369140625,6.469830322265626
4.883999999999958,-0.541021728515625,8.104559326171875,6.727780151367188
4.8940000000000055,-0.1670318603515625,7.898648071289063,7.1346679687500005
4.903999999999996,0.502142333984375,7.300054931640625,6.116177368164063
4.914999999999964,0.452496337890625,5.211782836914063,4.702911376953125
4.925000000000011,0.5839385986328125,4.683172607421875,4.103720092773438
4.935000000000002,0.2181732177734375,6.689797973632813,4.4135589599609375
4.944999999999993,-0.4855438232421875,11.99638671875,4.3843994140625
4.954999999999984,0.2489776611328125,13.202395629882814,5.375375366210938
4.964999999999975,1.9937652587890624,10.617364501953126,6.664675903320313
4.974999999999966,0.841290283203125,6.662432861328125,9.725830078125
4.984999999999957,1.0178924560546876,5.025759887695313,9.687399291992188
4.9950000000000045,0.0764129638671875,4.980599975585938,4.8389892578125
5.004999999999996,-1.8114807128906247,6.5679260253906255,1.1883636474609376
5.014999999999986,-1.248028564453125,8.957662963867188,2.1512268066406253
5.024999999999977,0.7910461425781251,9.2748291015625,7.54140625
5.034999999999968,-0.3695037841796875,7.820889282226563,9.78250427246094
5.044999999999959,-0.7381103515625,7.59464111328125,8.740985107421876
5.055999999999983,0.2552581787109375,9.117517089843751,6.955673217773438
5.065999999999974,0.8264862060546876,9.452328491210938,5.0191802978515625
5.075999999999965,-0.9260772705078124,7.918386840820313,2.6511260986328127
5.085999999999956,-0.6032287597656251,6.873727416992188,3.1493804931640628
5.096000000000004,1.27344970703125,6.429006958007813,6.258685302734375
5.1059999999999945,0.9893310546875,6.447250366210938,6.893466186523438
5.1159999999999854,-0.11544189453125,7.823132324218751,5.297467041015626
5.125999999999976,0.03529052734375,10.047781372070313,5.344271850585938
5.1370000000000005,0.705511474609375,10.281207275390626,6.430950927734376
5.145999999999951,0.50782470703125,8.175738525390626,5.962005615234375
5.156000000000006,0.066693115234375,6.495700073242188,5.971725463867188
5.165999999999997,-0.04605712890625,6.618917846679688,6.868194580078126
5.175999999999988,-0.119329833984375,6.989019775390625,5.853890991210938
5.185999999999986,-0.2169769287109375,7.487274169921876,3.5942504882812503
5.195999999999977,-0.008074951171875,8.283255004882813,4.001437377929688
5.206999999999994,0.10228271484375,8.85552978515625,6.169860839843751
5.2169999999999845,-0.168975830078125,8.338433837890626,6.890176391601563
5.226999999999975,0.042169189453125,7.754345703125001,6.234161376953126
5.236999999999966,0.66693115234375,7.659390258789063,6.237002563476563
5.246999999999957,0.692352294921875,7.57071533203125,6.52396240234375
5.257000000000005,-0.3880462646484375,6.221151733398438,5.540911865234375
5.266999999999996,-0.50064697265625,4.733267211914063,4.509710693359375
5.276999999999987,-0.2308837890625,5.465994262695313,5.113836669921875
5.286999999999978,0.1520782470703125,9.690838623046876,4.868746948242188
5.296999999999969,-0.374737548828125,12.643429565429688,4.371389770507813
5.30699999999996,0.4493560791015625,11.850289916992187,5.182772827148438
5.317000000000007,0.8115325927734376,8.795266723632814,8.294918823242188
5.326999999999998,1.4143127441406251,5.845816040039063,10.025500488281253
5.337999999999965,0.6126495361328126,4.71397705078125,7.544247436523438
5.347999999999956,-0.6477905273437501,5.537322998046875,2.660995483398437
5.358000000000004,-1.0382293701171876,8.371481323242188,1.7945831298828123
5.367999999999995,0.8320190429687501,9.224285888671876,5.275634765625
5.377999999999986,1.8593322753906247,8.66531982421875,7.633670043945313
5.387999999999977,-0.3300262451171875,7.739990234375001,8.673843383789062
5.397999999999968,-0.393280029296875,8.379107666015626,8.165121459960938
5.407999999999952,0.5067779541015626,9.07325439453125,6.479400634765626
5.418000000000006,-0.0955535888671875,8.328564453125,3.4524902343750004
5.427999999999997,-0.3548492431640625,7.118368530273438,2.524169921875
5.437999999999981,0.514105224609375,6.84696044921875,5.388833618164063
5.447999999999986,0.608612060546875,6.714022827148438,7.113882446289063
5.457999999999977,0.2190704345703125,7.379159545898438,5.649923706054688
5.467999999999961,0.2409027099609375,9.12574157714844,5.319149780273438
5.4780000000000015,0.474029541015625,10.343563842773438,6.466690063476563
5.488999999999976,0.17047119140625,9.120059204101564,5.646185302734375
5.498999999999967,-0.12142333984375,7.235305786132813,4.906430053710938
5.508999999999958,0.088824462890625,6.709686279296876,6.611441040039063
5.5190000000000055,-0.0348419189453125,6.669461059570313,6.512298583984376
5.528999999999996,-0.3505126953125,6.6023193359375005,4.282565307617188
5.538999999999987,-0.03529052734375,7.732363891601563,4.529449462890625
5.548999999999985,0.195892333984375,8.791677856445313,6.054119873046876
5.558999999999976,-0.1957427978515625,8.688796997070312,5.841030883789063
5.56899999999996,-0.23507080078125,7.98343505859375,6.398202514648438
5.579000000000008,0.106170654296875,8.029342651367188,7.345663452148438
5.588999999999999,0.420196533203125,7.460806274414063,6.324929809570313
5.5989999999999895,0.6401641845703125,5.785552978515625,4.670910644531251
5.609999999999957,0.9534423828125,4.548141479492188,4.323687744140625
5.6200000000000045,0.7708587646484376,5.668316650390626,4.5047760009765625
5.629999999999996,-0.3529052734375,10.757778930664063,4.417745971679688
5.639999999999986,-0.4000091552734375,13.806820678710938,4.9657958984375
5.649999999999977,1.09879150390625,11.530581665039064,5.922079467773438
5.659999999999968,1.5017913818359376,7.526004028320313,8.748910522460939
5.669999999999959,1.1491851806640625,5.0670318603515625,11.296707153320312
5.680000000000007,-0.076263427734375,4.732220458984376,7.401889038085938
5.689999999999998,-1.8084899902343752,5.499041748046875,0.5426666259765626
5.6999999999999815,-2.0707763671875004,7.878909301757813,0.1553680419921875
5.709999999999987,0.33675537109375,10.444650268554687,7.104013061523438
5.7199999999999775,0.530853271484375,8.839529418945313,9.232659912109376
5.729999999999961,-0.5217315673828126,7.1660705566406255,9.33987731933594
5.740000000000009,-0.9351989746093752,8.252301025390626,7.95352783203125
5.75,0.7787841796875,9.66900634765625,6.094046020507813
5.759999999999991,-0.333465576171875,8.608645629882814,2.469439697265625
5.770999999999951,-0.548199462890625,6.889877319335938,1.928268432617188
5.779999999999973,1.1070159912109376,6.3211914062500005,6.131130981445313
5.790999999999997,1.465753173828125,6.427362060546876,7.077993774414063
5.800999999999988,0.0861328125,7.473965454101563,5.210287475585938
5.810999999999986,-0.6835296630859375,9.714166259765626,5.224194335937501
5.820999999999977,0.6365753173828126,10.654299926757814,6.766510009765626
5.83099999999996,0.7974761962890625,8.79212646484375,5.947201538085938
5.841000000000001,0.0731231689453125,6.500335693359376,5.514294433593751
5.850999999999999,-0.2930908203125,6.50601806640625,6.786398315429688
5.86099999999999,-0.1475921630859375,6.919784545898438,6.251358032226563
5.870999999999981,-0.107366943359375,6.961804199218751,3.765618896484375
5.880999999999972,-0.0107666015625,7.802795410156251,3.760086059570313
5.890999999999963,0.2095001220703125,8.942559814453126,6.132028198242188
5.9010000000000105,-0.00418701171875,8.785247802734375,6.740042114257813
5.911999999999978,0.1200775146484375,7.932891845703126,6.408221435546875
5.921999999999969,0.8403930664062501,7.894760131835938,6.590206909179688
5.93199999999996,0.7678680419921876,7.5617431640625,6.498989868164063
5.942000000000007,-0.026318359375,6.92471923828125,5.479153442382813
5.951999999999998,-0.4675994873046875,5.3055419921875,4.615133666992188
5.961999999999989,0.0345428466796875,4.1787872314453125,4.377819824218751
5.971999999999987,0.475225830078125,6.964495849609375,4.206002807617188
5.981999999999971,-0.1051239013671875,12.909753417968751,5.095892333984375
5.992999999999995,-0.6096588134765626,13.6006103515625,5.4793029785156255
6.0020000000000095,0.115142822265625,10.574896240234375,6.086270141601563
6.0120000000000005,1.31531982421875,6.349005126953125,11.120553588867187
6.021999999999991,1.0178924560546876,4.74747314453125,10.622747802734375
6.031999999999982,-0.5967987060546875,4.035382080078126,3.315664672851563
6.041999999999973,-1.6709167480468752,6.3585754394531255,-0.044561767578125
6.052999999999997,-0.115142822265625,9.706240844726564,4.257742309570313
6.062999999999981,2.307940673828125,10.000079345703126,7.152462768554688
6.072999999999986,0.5510406494140625,8.019473266601564,7.732662963867188
6.082999999999977,-0.9465637207031252,7.850347900390625,9.098077392578126
6.092999999999961,0.877178955078125,9.161929321289064,8.739788818359376
6.1030000000000015,0.9820037841796876,8.694628906250001,4.526010131835938
6.113,-1.141259765625,7.134219360351563,0.68607177734375
6.122999999999991,0.5150024414062501,7.201361083984375,3.498995971679688
6.132999999999981,1.19329833984375,6.8864379882812505,7.392916870117188
6.142999999999972,0.3479705810546875,6.5233642578125,6.229675292968751
6.154999999999973,-0.4421783447265625,8.006015014648439,4.804745483398438
6.163000000000011,0.2859130859375,10.649514770507814,6.762173461914063
6.173000000000002,0.41331787109375,10.100119018554688,6.919186401367188
6.182999999999993,-0.6509307861328125,7.717709350585938,4.6393585205078125
6.192999999999984,-0.3674102783203125,6.525009155273438,5.514892578125
6.204000000000008,0.428271484375,6.402838134765625,7.362411499023438
6.213999999999999,-0.2794830322265625,6.266610717773438,5.4084228515625
6.2239999999999895,-0.34393310546875,7.069021606445313,3.3168609619140628
6.233999999999988,0.4954132080078125,8.972616577148438,4.6273956298828125
6.243999999999971,0.401055908203125,9.3418212890625,6.41868896484375
6.254999999999996,-0.081646728515625,8.191888427734376,6.830960083007813
6.26400000000001,0.0064300537109375,7.639501953125,7.288839721679688
6.274000000000001,0.8979644775390626,7.60899658203125,7.237249755859375
6.283999999999992,1.0157989501953126,6.390875244140625,5.3342529296875005
6.293999999999983,0.7225585937500001,4.467541503906251,3.3406372070312504
6.303999999999974,0.7532135009765626,4.909869384765625,3.39925537109375
6.3139999999999645,-0.57720947265625,9.940115356445313,4.61468505859375
6.324000000000012,-0.5221801757812501,13.862149047851563,5.31212158203125
6.334000000000003,0.86551513671875,11.846401977539063,5.374777221679688
6.343999999999994,0.6371734619140625,8.270843505859375,8.665768432617188
6.354999999999961,1.1913543701171876,5.798263549804688,12.736291503906251
6.365000000000009,0.1027313232421875,4.617077636718751,7.543649291992188
6.375,-1.7151794433593752,4.999591064453125,0.3868499755859375
6.384999999999991,-1.8953704833984373,7.217062377929688,0.1233673095703125
6.394999999999982,0.10467529296875,10.163223266601562,7.497741699218751
6.404999999999973,0.6431549072265625,8.896951293945314,8.531185913085938
6.414999999999964,-1.1581573486328125,7.290185546875,8.507110595703125
6.425000000000011,0.3357086181640625,8.812762451171876,8.267404174804689
6.435000000000002,1.5134552001953123,9.907815551757814,6.538616943359376
6.444999999999993,-0.4517486572265625,8.342620849609375,2.434298706054688
6.454999999999984,-0.8417388916015626,7.006964111328125,1.9010528564453129
6.464999999999975,0.7617370605468751,6.417193603515625,6.106906127929688
6.474999999999966,1.3370025634765623,6.466091918945313,6.812118530273438
6.484999999999957,-0.255706787109375,7.134219360351563,5.055966186523438
6.495999999999981,-0.8110839843750001,9.422271728515623,5.713327026367188
6.505999999999972,0.511114501953125,10.690936279296876,6.9821411132812505
6.515999999999963,0.7251007080078126,8.98951416015625,5.825628662109375
6.5260000000000105,-0.0019439697265625,6.8969055175781255,5.220904541015625
6.536000000000001,-0.0521881103515625,6.6166748046875,6.677386474609375
6.545999999999992,0.0130096435546875,6.736453247070313,6.459960937500001
6.555999999999983,-0.07716064453125,6.5440002441406255,3.897808837890625
6.565999999999974,0.387298583984375,7.621258544921876,3.702066040039063
6.575999999999965,0.5973968505859375,8.990560913085938,5.984286499023438
6.585999999999956,0.021832275390625,8.967681884765625,6.55985107421875
6.596000000000004,0.0001495361328125,8.027099609375,6.409567260742188
6.606999999999971,0.8320190429687501,7.941415405273438,6.964794921875001
6.6159999999999854,0.72913818359375,7.577593994140625,6.725836181640625
6.6270000000000095,-0.252117919921875,6.567477416992188,5.184268188476563
6.6370000000000005,-0.2406036376953125,4.880560302734375,4.273144531250001
6.646999999999991,-0.1709197998046875,4.148281860351563,4.2291809082031255
6.656999999999982,-1.6025787353515626,8.185458374023439,3.738253784179688
6.666999999999973,-0.2603424072265625,13.803530883789064,5.449246215820313
6.676999999999964,-0.1326385498046875,13.14347839355469,5.212380981445313
6.687000000000012,0.8913848876953125,9.520217895507812,7.246520996093751
6.697000000000003,1.8174621582031247,6.138906860351563,12.331198120117188
6.706999999999994,1.0274627685546875,4.49625244140625,10.306628417968753
6.7169999999999845,-0.9655548095703126,4.093701171875001,1.212588500976563
6.726999999999975,-1.8149200439453128,7.081582641601563,-0.0251220703125
6.736999999999966,0.3838592529296875,9.996640014648438,6.229525756835938
6.746999999999957,1.8751831054687504,9.371429443359377,7.794122314453125
6.757000000000005,1.0697814941406252,8.259478759765626,6.205300903320313
6.766999999999996,-0.3862518310546875,8.429052734375,9.042300415039064
6.777999999999963,0.9428253173828126,9.516329956054689,8.719451904296875
6.788000000000011,-0.36068115234375,8.18560791015625,2.9681427001953127
6.798000000000002,-1.271954345703125,6.746173095703125,0.4027008056640625
6.807999999999993,1.2272430419921876,7.174295043945313,5.285504150390626
6.817999999999984,0.7116424560546876,6.722994995117188,7.766308593750001
6.827999999999975,-0.2717071533203125,6.743182373046875,4.968487548828126
6.837999999999965,-0.1323394775390625,8.805435180664062,4.878317260742188
6.847999999999956,0.5852844238281251,10.7773681640625,7.579537963867188
6.858000000000004,0.302362060546875,9.404327392578123,6.400146484375001
6.867999999999995,-0.46595458984375,7.0419555664062505,4.483541870117188
6.877999999999986,-0.15252685546875,6.45457763671875,6.453530883789063
6.887999999999977,0.2906982421875,6.5305419921875005,6.948794555664063
6.897999999999968,-0.292791748046875,6.469979858398438,4.114785766601563
6.908999999999992,-0.3333160400390625,7.633670043945313,3.5036315917968754
6.918999999999983,0.2352203369140625,9.264959716796875,5.518182373046876
6.928999999999974,0.14295654296875,8.982934570312501,6.6157775878906255
6.9389999999999645,-0.2450897216796875,8.010949707031251,6.8909240722656255
6.949000000000012,0.1550689697265625,7.868890380859375,7.309027099609375
6.959000000000003,0.8519073486328126,7.509854125976563,6.553720092773438
6.968999999999994,0.7908966064453126,5.0725646972656255,4.636068725585938
6.978999999999985,0.774298095703125,3.929061889648438,3.563894653320313
6.988999999999976,0.28770751953125,6.82841796875,3.906182861328125
6.998999999999967,-0.7230072021484375,13.016073608398438,4.7289306640625
7.008999999999958,0.085833740234375,13.570254516601564,5.029946899414063
7.0190000000000055,1.114044189453125,10.2318603515625,6.1910949707031255
7.028999999999996,0.9257781982421877,6.724938964843751,10.796209716796875
7.038999999999987,1.43853759765625,4.969982910156251,11.096179199218753
7.048999999999985,-0.427374267578125,4.224395751953125,3.831863403320313
7.060000000000002,-2.107562255859375,6.474166870117188,-0.0300567626953125
7.069999999999993,-2.246331787109375,8.95841064453125,2.2034149169921875
7.079999999999984,0.4143646240234375,9.671249389648438,8.7951171875
7.089999999999975,-0.2732025146484375,7.828814697265625,8.6742919921875
7.099999999999966,-0.9090301513671876,7.581332397460938,9.068768310546876
7.109999999999957,0.9141143798828124,9.363055419921876,8.157644653320313
7.1200000000000045,0.1057220458984375,9.253744506835938,4.58896484375
7.129999999999996,-1.5989898681640626,7.881301879882813,1.07366943359375
7.139999999999986,-0.0010467529296875,7.118966674804688,3.384152221679688
7.149999999999977,2.045355224609376,6.338388061523438,6.8012023925781255
7.159999999999968,1.295880126953125,6.256143188476563,6.319097900390625
7.169999999999959,-0.7182220458984375,8.00855712890625,5.130734252929688
7.180000000000007,-0.2540618896484375,10.608541870117188,6.20694580078125
7.189999999999998,0.4308135986328125,10.25025329589844,6.409567260742188
7.1999999999999815,0.423486328125,7.892218017578125,5.344720458984376
7.210999999999956,-0.0402252197265625,6.452334594726563,6.3654541015625
7.221000000000004,-0.193798828125,6.691293334960938,6.9552246093750005
7.230999999999994,-0.039776611328125,6.767706298828125,4.988973999023438
7.2409999999999854,0.0844879150390625,7.270297241210938,3.20665283203125
7.250999999999976,0.3389984130859375,8.474063110351564,4.355239868164063
7.260999999999967,0.346923828125,9.01104736328125,6.3825012207031255
7.270999999999951,-0.0764129638671875,8.193682861328126,6.964196777343751
7.281000000000006,0.37384033203125,7.7806640625,6.806735229492188
7.290999999999997,0.890936279296875,7.934835815429688,6.549832153320313
7.300999999999988,0.148638916015625,7.281661987304688,5.967538452148438
7.310999999999986,-0.7986724853515625,5.44132080078125,4.6595458984375
7.320999999999977,-0.3004180908203125,3.8622192382812495,3.75814208984375
7.33099999999996,-0.8474212646484376,6.947000122070313,4.329071044921875
7.341000000000001,-0.4708892822265625,12.719992065429688,5.634222412109375
7.350999999999999,-0.978564453125,12.97734375,4.922280883789063
7.361999999999966,0.4533935546875,10.382742309570313,5.909368896484375
7.371999999999957,1.6155883789062502,6.613235473632813,12.076687622070311
7.382000000000005,1.33565673828125,4.8007080078125,10.162774658203126
7.391999999999996,-0.4110748291015625,4.141702270507813,2.398858642578125
7.401999999999987,-1.4811553955078125,6.793426513671876,0.5157501220703126
7.411999999999978,0.6787445068359376,9.771139526367188,5.5465942382812505
7.421999999999969,2.112945556640625,9.255538940429688,6.837689208984376
7.431999999999959,1.017144775390625,8.064035034179689,6.257040405273438
7.442000000000007,-0.3446807861328125,8.441912841796876,9.119012451171876
7.451999999999998,0.8728424072265626,9.618014526367189,9.469973754882814
7.461999999999989,-0.082244873046875,8.533428955078126,3.784759521484376
7.472999999999956,-1.0971466064453126,7.163528442382813,0.2699127197265625
7.483000000000004,0.6762023925781251,7.124798583984376,4.866952514648438
7.492999999999995,0.4765716552734375,6.799258422851563,7.578939819335938
7.502999999999986,-0.2038177490234375,6.416744995117188,5.319598388671875
7.512999999999977,-0.2705108642578125,8.298358154296876,5.000189208984375
7.522999999999968,0.6298461914062501,10.414294433593753,7.264315795898438
7.532999999999951,0.46834716796875,9.831253051757812,6.039166259765626
7.543000000000006,-0.5154510498046876,7.654904174804688,4.535879516601563
7.552999999999997,-0.1511810302734375,6.856829833984375,6.270947265625001
7.562999999999981,0.530255126953125,6.56224365234375,6.844418334960938
7.572999999999986,-0.0387298583984375,6.375323486328125,4.504177856445313
7.582999999999977,-0.3715972900390625,7.0688720703125005,4.200021362304688
7.592999999999961,0.0979461669921875,8.823080444335938,5.514294433593751
7.6030000000000015,0.1206756591796875,9.050225830078126,5.828768920898438
7.612999999999999,-0.2426971435546875,8.201458740234376,6.371286010742188
7.6229999999999905,-0.1622467041015625,7.871731567382813,7.660586547851563
7.633999999999958,0.3641204833984375,7.813711547851563,7.172799682617188
7.644000000000005,0.269464111328125,7.0270019531250005,5.2225494384765625
7.654999999999973,0.4101776123046875,5.8206939697265625,4.150225830078125
7.663999999999987,1.0654449462890625,4.641152954101563,3.343927001953125
7.673999999999985,0.9048431396484377,5.990716552734376,3.619073486328125
7.683999999999976,-1.00906982421875,11.702099609375,5.494406127929688
7.69399999999996,-0.0393280029296875,14.261260986328129,6.655703735351563
7.704000000000008,1.451846313476563,11.03382263183594,6.0958404541015625
7.713999999999999,0.8426361083984376,6.797613525390625,9.516329956054689
7.723999999999989,1.4415283203125,4.885494995117188,11.012738037109376
7.7339999999999876,-0.2121917724609375,4.677639770507813,4.48428955078125
7.743999999999971,-1.9675964355468751,5.808132934570313,-0.1440032958984375
7.7549999999999955,-2.0139526367187504,8.069866943359376,1.2765899658203126
7.76400000000001,0.0590667724609375,10.011294555664064,9.1528076171875
7.774999999999977,0.0554779052734375,8.400790405273439,9.098077392578126
7.784999999999968,-0.8863006591796876,7.560397338867188,9.473562622070313
7.794999999999959,0.4702911376953125,9.327166748046876,8.0641845703125
7.805000000000007,0.2773895263671875,9.39027099609375,4.772296142578125
7.814999999999998,-1.0699310302734375,7.704849243164063,1.5642974853515623
7.824999999999981,0.417803955078125,6.77518310546875,3.0900146484375
7.834999999999987,1.5810455322265626,6.204403686523438,6.642694091796876
7.8449999999999775,1.1952423095703126,6.734210205078125,6.222198486328126
7.854999999999961,-0.5594146728515625,8.125045776367188,5.174847412109376
7.865000000000009,-0.5749664306640625,10.359713745117189,6.004025268554688
7.875,0.50543212890625,10.564877319335938,6.510952758789063
7.884999999999991,0.388494873046875,8.16287841796875,5.846414184570313
7.894999999999982,-0.27574462890625,6.21890869140625,5.659344482421876
7.904999999999973,-0.1296478271484375,6.335098266601563,6.438278198242188
7.915999999999997,0.0462066650390625,6.77159423828125,5.907275390625
7.925999999999988,-0.0581695556640625,6.99051513671875,3.6754486083984377
7.935999999999986,0.2954833984375,8.252301025390626,3.5573150634765627
7.945999999999977,0.6165374755859375,9.270193481445313,6.269451904296876
7.95599999999996,0.0629547119140625,8.702703857421875,7.457815551757813
7.966000000000001,0.207257080078125,7.733410644531251,6.773837280273438
7.975999999999999,1.0250701904296875,7.752401733398438,6.395510864257813
7.98599999999999,0.664837646484375,7.425515747070313,6.362911987304688
7.995999999999981,-0.2917449951171875,7.071414184570313,5.257092285156251
8.005999999999972,-0.652874755859375,6.336294555664063,4.2516113281250005
8.015999999999963,-0.0710296630859375,4.609002685546876,4.1822265625
8.02600000000001,0.045159912109375,5.363711547851563,4.004727172851563
8.036000000000001,-0.2379119873046875,10.81265869140625,4.812371826171876
8.045999999999992,-0.677398681640625,14.32974853515625,6.726434326171876
8.05699999999996,-0.1188812255859375,12.04483642578125,5.719906616210938
8.067000000000007,1.27225341796875,7.527200317382813,8.561990356445314
8.076999999999998,1.6576080322265627,4.987179565429688,11.648117065429688
8.086999999999989,0.6676788330078125,4.086373901367188,6.739593505859376
8.096999999999987,-1.6728607177734376,5.18052978515625,0.6824829101562501
8.106999999999971,-2.0124572753906254,8.268450927734376,0.342138671875
8.116999999999962,1.0135559082031251,10.33399353027344,7.622006225585938
8.12700000000001,2.0876739501953128,9.233856201171877,8.395108032226563
8.137,-0.1559661865234375,7.96788330078125,8.206991577148438
8.146999999999991,-0.101983642578125,8.734704589843751,8.738442993164064
8.157999999999952,1.3983123779296875,9.144882202148438,6.439773559570313
8.166999999999973,-0.6051727294921876,7.260128784179688,1.9578765869140624
8.176999999999964,-0.7318298339843751,6.685610961914063,1.7467315673828123
8.187000000000012,0.9473114013671876,7.150219726562501,6.274087524414063
8.197999999999986,0.8495147705078125,6.804193115234376,7.092050170898438
8.207999999999977,-0.361279296875,7.471871948242188,4.860372924804688
8.217999999999961,-0.1508819580078125,9.829458618164065,5.890228271484375
8.228000000000002,0.5568725585937501,10.677178955078126,7.316802978515626
8.238,0.1431060791015625,8.405575561523438,5.483340454101563
8.24799999999999,-0.221014404296875,6.4791015625,4.7743896484375
8.257999999999981,0.1879669189453125,6.405978393554688,6.656900024414063
8.267999999999972,0.0895721435546875,6.3286682128906255,6.331060791015625
8.277999999999963,-0.3536529541015625,6.794473266601563,3.9012481689453127
8.288000000000011,0.1667327880859375,8.446548461914062,4.009661865234375
8.298000000000002,0.413916015625,9.4566650390625,5.774935913085938
8.307999999999993,-0.0399261474609375,8.579336547851563,6.943112182617188
8.317999999999984,-0.1760040283203125,7.7328125,7.51927490234375
8.327999999999975,0.410028076171875,7.730569458007813,7.1789306640625
8.337999999999965,0.7262969970703126,7.30513916015625,5.713626098632813
8.34899999999999,0.4533935546875,6.633123779296875,4.504925537109376
8.358999999999988,0.7852142333984375,4.856036376953125,3.8430786132812496
8.368999999999971,1.1808868408203126,4.789642333984375,3.5568664550781253
8.378999999999962,0.218621826171875,8.850445556640626,4.534683227539063
8.38900000000001,-0.8809173583984375,13.70289306640625,5.722598266601563
8.399999999999977,0.63343505859375,13.26624755859375,6.227133178710938
8.408999999999992,1.128848266601563,9.177630615234376,7.808029174804688
8.418999999999983,0.8780761718750001,5.452984619140626,10.759573364257813
8.428999999999974,0.4445709228515625,4.529898071289063,9.01822509765625
8.438999999999965,-1.2448883056640625,4.629040527343751,2.0271118164062503
8.449000000000012,-2.0493927001953125,6.704452514648438,-0.3796722412109375
8.459000000000003,-1.645794677734375,9.289334106445311,4.311276245117188
8.469999999999978,0.8058502197265626,10.210177612304689,9.624893188476562
8.478999999999985,-0.459375,7.794570922851563,10.339376831054688
8.490000000000009,-1.1354278564453126,7.786795043945313,8.227777099609376
8.5,0.600537109375,9.390420532226564,6.330313110351563
8.509999999999991,0.201873779296875,8.798855590820313,4.041961669921875
8.519999999999982,-0.6844268798828126,7.113284301757813,1.314273071289063
8.529999999999973,0.8722442626953125,6.557608032226563,3.683224487304688
8.539999999999964,2.0078216552734376,6.5006347656250005,7.159191894531251
8.550000000000011,0.6519775390625,7.049880981445313,6.550579833984376
8.560000000000002,-0.9760223388671876,9.076992797851563,4.926617431640626
8.569999999999993,-0.113348388671875,10.737442016601562,6.408969116210938
8.579999999999984,0.548199462890625,9.7605224609375,7.208090209960938
8.589999999999975,-0.071478271484375,6.853390502929688,5.483639526367188
8.599999999999966,-0.3225494384765625,6.095242309570313,5.3661041259765625
8.61099999999999,-0.0937591552734375,6.796566772460938,6.900045776367188
8.620000000000005,-0.0976470947265625,7.015487670898438,5.232717895507813
8.630999999999972,-0.001495361328125,7.406973266601563,2.639312744140625
8.640999999999963,0.593359375,8.999383544921876,4.483990478515626
8.65100000000001,0.5662933349609376,9.209930419921877,7.435086059570313
8.661000000000001,0.2325286865234375,8.130130004882814,6.826922607421875
8.670999999999992,0.7215118408203125,7.522265625,6.043652343750001
8.680999999999983,1.278384399414063,7.593145751953125,7.0299926757812505
8.690999999999974,0.4498046875,7.221847534179688,6.420632934570313
8.700999999999965,-0.451300048828125,6.319097900390625,4.450344848632813
8.710999999999956,-0.2965301513671875,5.604464721679688,4.357632446289063
8.721000000000004,0.128900146484375,5.399749755859375,5.172454833984375
8.730999999999995,-0.81287841796875,8.362359619140626,4.344024658203125
8.740999999999985,-0.713287353515625,12.698608398437502,4.597787475585938
8.750999999999976,-0.339447021484375,12.689636230468752,5.960958862304688
8.760999999999967,0.584088134765625,9.291876220703124,7.211679077148438
8.772999999999968,1.486688232421875,5.68057861328125,10.408312988281253
8.781999999999982,0.80091552734375,4.7918853759765625,9.7724853515625
8.791999999999973,-0.9363952636718752,4.942767333984375,3.288449096679688
8.801999999999964,-1.7426940917968752,7.306634521484375,0.129498291015625
8.812000000000012,0.2803802490234375,9.659286499023438,4.315313720703125
8.822000000000003,2.40513916015625,9.49853515625,7.597930908203126
8.831999999999994,0.9661529541015624,7.801748657226563,8.376864624023439
8.841999999999985,0.003887939453125,8.082876586914063,8.161383056640625
8.851999999999975,0.402850341796875,9.084768676757813,7.708139038085938
8.861999999999966,0.158807373046875,8.719302368164064,3.892724609375
8.87299999999999,-1.0518371582031252,7.191192626953126,1.8044525146484376
8.882000000000005,0.074468994140625,6.818099975585938,4.821942138671876
8.891999999999996,0.8937774658203126,6.6830688476562505,7.264315795898438
8.901999999999987,0.26019287109375,6.983935546875,5.728280639648438
8.913000000000011,-0.1317413330078125,8.629132080078126,5.046994018554688
8.923000000000002,0.1867706298828125,10.30244140625,6.754696655273438
8.932999999999993,0.28651123046875,9.70728759765625,6.215469360351563
8.942999999999984,0.16927490234375,7.396804809570313,5.10635986328125
8.952999999999975,0.098394775390625,6.578991699218751,6.193637084960938
8.962999999999965,0.107965087890625,6.8200439453125,6.66392822265625
8.972999999999956,-0.11783447265625,6.820492553710938,4.691098022460938
8.983000000000004,-0.1090118408203125,7.355084228515626,3.831414794921875
8.992999999999995,0.36187744140625,8.512194824218751,5.3725341796875
9.002999999999986,0.262286376953125,8.880801391601564,6.415997314453126
9.012999999999977,-0.3156707763671875,8.203851318359376,6.564785766601563
9.022999999999968,-0.1093109130859375,7.880554199218751,6.933392333984376
9.032999999999952,0.490777587890625,7.729522705078126,6.445156860351563
9.043000000000006,0.6951934814453126,6.05142822265625,5.36954345703125
9.052999999999995,0.5715270996093751,4.05960693359375,4.536328125000001
9.063999999999965,0.2211639404296875,5.289242553710938,4.292135620117188
9.074000000000012,-0.3210540771484375,10.670150756835938,4.739398193359375
9.084000000000003,-0.08074951171875,14.079275512695313,4.967141723632813
9.093999999999994,0.8302246093750001,11.916983032226565,5.393170166015626
9.103999999999983,0.6895111083984375,7.849600219726563,8.768948364257813
9.113999999999976,1.1276519775390623,5.2445312500000005,11.348895263671876
9.123999999999969,0.48270263671875,4.307089233398438,7.192538452148438
9.133999999999958,-1.3935272216796877,4.6475830078125,0.899609375
9.144000000000004,-2.0390747070312503,8.018725585937501,-0.2752960205078125
9.153999999999996,0.333465576171875,10.575494384765626,6.101223754882813
9.163999999999987,1.158755493164063,8.866445922851563,8.626141357421876
9.173999999999984,-0.0016448974609375,7.332803344726563,9.553115844726562
9.183999999999976,-0.2205657958984375,8.086016845703126,9.354083251953126
9.194999999999991,0.6122009277343751,9.398645019531251,6.880307006835938
9.204000000000008,-0.6702209472656251,8.826220703125001,2.574114990234375
9.214999999999977,-1.194793701171875,7.2856994628906255,1.5025390625
9.224999999999966,0.8079437255859375,6.555215454101563,5.297616577148438
9.234999999999957,1.3450775146484375,6.113186645507813,7.151565551757813
9.245000000000005,0.078955078125,7.104013061523438,5.4135070800781255
9.254999999999995,-0.5464050292968751,9.503619384765626,5.168118286132813
9.264999999999986,0.564947509765625,10.889968872070312,6.677835083007813
9.274999999999975,0.7077545166015625,9.2126220703125,6.224591064453126
9.284999999999968,0.055328369140625,6.818249511718751,5.521322631835938
9.29499999999996,-0.0605621337890625,6.222946166992188,6.884344482421875
9.305000000000009,0.0632537841796875,6.652862548828126,6.662731933593751
9.314999999999998,0.02572021484375,6.940719604492188,4.07994384765625
9.324999999999982,0.0333465576171875,7.948593139648438,3.071920776367188
9.334999999999988,0.148638916015625,9.091348266601564,5.147482299804688
9.344999999999978,-0.03289794921875,8.951831054687501,6.7865478515625
9.355999999999996,-0.0381317138671875,7.876666259765625,6.769500732421876
9.365999999999984,0.6658843994140625,7.479647827148438,6.654208374023438
9.375999999999976,0.97078857421875,7.528396606445313,6.79013671875
9.385999999999967,-0.0562255859375,7.2871948242187505,5.9012939453125
9.395999999999953,-0.8797210693359375,5.680279541015626,4.171160888671875
9.406000000000006,-0.8094390869140625,4.009063720703125,3.8037506103515626
9.415999999999997,0.10706787109375,6.260031127929688,5.126547241210938
9.425999999999988,0.3255401611328125,12.363348388671875,5.909069824218751
9.435999999999986,-0.9123199462890624,13.53421630859375,5.157650756835938
9.445999999999977,-0.014056396484375,10.832247924804689,5.732916259765625
9.45599999999996,1.6070648193359376,7.1669677734375,10.981784057617189
9.466,1.7492736816406251,5.163034057617188,10.146923828125
9.476,-0.1981353759765625,3.768759155273438,3.008966064453125
9.48599999999999,-1.14783935546875,6.007464599609375,0.5356384277343751
9.496999999999955,0.5525360107421875,9.306082153320313,4.904187011718751
9.507000000000003,1.7577972412109375,9.626687622070314,6.4049316406250005
9.516999999999996,0.9930694580078124,8.139550781250001,6.309078979492188
9.526999999999989,0.0243743896484375,8.273983764648438,9.149069213867188
9.536999999999978,0.3796722412109375,9.288885498046875,10.487268066406251
9.546999999999969,0.007177734375,8.623300170898439,4.892224121093751
9.55699999999996,-1.361676025390625,7.188351440429688,0.17764892578125
9.567000000000007,0.189013671875,7.276428222656251,3.8954162597656254
9.576999999999998,0.7494750976562501,6.932943725585938,7.505667114257813
9.586999999999987,0.0465057373046875,6.269451904296876,5.495602416992188
9.596999999999989,-0.250323486328125,7.907470703125001,4.605862426757813
9.606999999999973,0.636724853515625,10.455117797851564,7.373178100585938
9.617999999999997,0.5881256103515625,10.319638061523438,6.703854370117188
9.62700000000001,-0.297576904296875,8.171551513671876,4.125701904296875
9.637999999999977,0.103179931640625,7.06468505859375,5.381954956054688
9.647999999999968,0.739605712890625,6.457269287109376,7.387982177734376
9.657999999999952,0.108563232421875,5.834750366210938,5.367449951171875
9.668000000000006,-0.2998199462890625,6.587664794921875,3.7902923583984376
9.677999999999995,0.2017242431640625,8.755938720703126,4.9693847656250005
9.68799999999998,0.0426177978515625,9.372625732421875,5.826675415039063
9.697999999999986,-0.516796875,8.272637939453126,6.3585754394531255
9.707999999999975,-0.5004974365234376,7.8727783203125,7.77647705078125
9.71799999999996,0.1789947509765625,7.744476318359376,7.927957153320313
9.728000000000002,0.258099365234375,6.927410888671876,5.595941162109376
9.738,0.1375732421875,4.965048217773438,3.684420776367188
9.74799999999999,0.5688354492187501,4.467541503906251,2.9304595947265626
9.75799999999998,0.5028900146484375,7.074105834960938,4.002484130859376
9.769000000000004,-0.71717529296875,13.347595214843752,5.33006591796875
9.778999999999996,0.26737060546875,13.488009643554689,5.427413940429688
9.788999999999987,1.7637786865234375,9.780560302734376,6.70340576171875
9.798999999999984,1.5687835693359375,6.426315307617188,12.065472412109376
9.808999999999976,0.9700408935546876,5.24273681640625,11.2822021484375
9.81899999999996,-1.0469024658203123,4.438381958007813,1.6046722412109375
9.829000000000008,-1.839892578125,6.147430419921876,-0.8045043945312501
9.839,-0.215032958984375,9.378756713867189,5.045498657226563
9.84899999999999,0.9428253173828126,9.356625366210938,8.281011962890625
9.858999999999988,-1.0639495849609375,7.628436279296875,7.689895629882813
9.868999999999971,-0.6255096435546875,8.231365966796876,9.104656982421876
9.878999999999962,1.1832794189453126,10.161279296875,8.068521118164064
9.889999999999986,0.201873779296875,9.125442504882812,3.5842315673828127
9.899,-1.4999969482421875,7.355682373046876,1.38291015625
9.908999999999992,-0.5205352783203125,6.261077880859376,5.5280517578125
9.91999999999996,1.6644866943359375,6.102120971679688,6.993804931640626
9.930000000000009,0.791943359375,6.604263305664063,4.792782592773438
9.939999999999998,-0.4086822509765625,8.419482421875001,5.173800659179688
9.949999999999982,0.3524566650390625,10.6457763671875,6.847259521484376
9.959999999999988,0.8952728271484376,10.038809204101565,6.20694580078125
9.969999999999978,0.6054718017578126,7.747915649414063,5.466891479492188
9.97999999999996,0.05203857421875,6.657498168945313,6.459512329101563
9.990000000000007,0.109759521484375,6.816006469726563,6.474914550781251
10.0,-0.122021484375,6.535028076171876,4.7440338134765625
10.009999999999993,-0.237164306640625,6.814361572265626,3.7844604492187504
10.019999999999982,0.2241546630859375,8.273983764648438,5.060003662109375
10.029999999999973,-0.0408233642578125,9.06787109375,6.26676025390625
10.039999999999964,-0.5339935302734375,8.624945068359375,6.465045166015625
10.050000000000011,0.15731201171875,8.126840209960939,6.879110717773438
10.060999999999986,0.7065582275390625,8.111437988281251,6.842025756835938
10.070999999999977,0.306549072265625,7.06468505859375,6.136215209960938
10.08099999999996,-0.2438934326171875,6.6591430664062505,5.345767211914063
10.091,0.2160797119140625,7.090405273437501,5.02740478515625
10.101,0.259893798828125,5.8740783691406255,4.470382690429688
10.11099999999999,-0.0970489501953125,4.2360595703125,3.769805908203125
10.12099999999998,-0.1924530029296875,7.558303833007813,3.944464111328125
10.130999999999972,0.1335357666015625,14.144473266601564,6.102868652343751
10.140999999999964,0.1045257568359375,14.019012451171877,6.2524047851562505
10.15100000000001,0.8732910156250001,9.315203857421876,5.837442016601563
10.161,1.885800170898437,5.512200927734376,11.7343994140625
10.170999999999992,1.6626922607421877,4.492514038085938,11.716455078125
10.180999999999983,-0.69384765625,3.88375244140625,2.859579467773438
10.192000000000007,-2.23287353515625,6.296817016601563,-0.6717163085937501
10.200999999999963,-2.4087280273437504,9.906170654296876,0.230584716796875
10.211999999999987,1.185821533203125,11.0381591796875,11.234051513671876
10.221999999999989,1.073968505859375,8.23944091796875,8.185308837890625
10.231999999999973,-0.411822509765625,7.734158325195313,8.195626831054689
10.241999999999962,0.99710693359375,9.239837646484377,8.934335327148439
10.25200000000001,0.4689453125,8.207589721679689,4.224545288085938
10.262,-1.5213806152343752,6.519326782226563,0.2428466796875
10.271999999999991,0.7648773193359375,6.9958984375,3.817657470703125
10.281999999999982,2.452093505859376,7.171752929687501,7.370486450195313
10.291999999999971,0.8581878662109376,6.802548217773438,5.8920227050781255
10.301999999999964,-0.5323486328125,8.576644897460938,4.6124420166015625
10.312000000000012,0.1819854736328125,10.972213745117188,7.156948852539063
10.322000000000005,0.32239990234375,9.893759155273438,7.131228637695313
10.331999999999994,-0.5804992675781251,6.931747436523438,4.511355590820313
10.341999999999985,-0.56046142578125,6.126046752929688,5.704953002929688
10.351999999999975,-0.150732421875,6.250610351562501,7.608099365234375
10.363,-0.690557861328125,6.510354614257813,4.819699096679688
10.373999999999969,-0.5369842529296875,7.587164306640625,2.61748046875
10.38299999999998,0.4427764892578125,9.3250732421875,4.8561859130859375
10.392999999999972,0.2268463134765625,9.142190551757814,7.250857543945313
10.402999999999963,0.03529052734375,7.917938232421876,7.427609252929688
10.413000000000013,0.6078643798828125,7.680026245117188,7.133023071289063
10.423000000000002,1.3737884521484376,7.739242553710938,6.744976806640626
10.432999999999993,0.789251708984375,7.235006713867188,5.142996215820313
10.442999999999984,0.6811370849609375,5.3127197265625,3.94835205078125
10.452999999999976,1.232177734375,4.066485595703125,3.749319458007813
10.462999999999964,0.6533233642578126,6.770846557617188,4.288247680664063
10.47399999999999,-0.9274230957031252,12.92994079589844,5.32647705078125
10.483000000000004,-0.3225494384765625,13.864990234375002,5.14464111328125
10.493999999999971,1.1357269287109375,10.388723754882813,5.894116210937501
10.503999999999962,1.238458251953125,6.367996215820313,11.077786254882811
10.51400000000001,1.0466033935546877,5.022470092773438,12.209924316406251
10.524,-0.6455474853515626,4.27135009765625,3.223849487304688
10.533999999999992,-2.2095458984375003,6.2075439453125005,-0.2773895263671875
10.543999999999984,-2.3747833251953128,8.651712036132814,1.2613372802734375
10.553999999999974,-0.2690155029296875,9.964938354492189,10.13017578125
10.563999999999965,0.2136871337890625,8.465689086914063,7.930200195312499
10.574000000000012,-0.7146331787109376,7.716961669921876,9.061441040039064
10.584000000000003,0.8632720947265625,9.14248962402344,8.652758789062501
10.593999999999994,0.1404144287109375,8.930596923828126,4.802203369140625
10.603999999999983,-1.4319580078125,7.577743530273438,1.0735198974609377
10.613999999999976,-0.1332366943359375,7.186557006835938,3.2042602539062504
10.625,1.9345489501953128,6.495700073242188,6.572262573242188
10.633999999999958,1.8138732910156248,6.43125,6.097933959960938
10.644999999999982,-0.8496643066406251,8.075250244140626,5.245428466796875
10.654999999999973,-0.8070465087890626,10.546035766601562,6.174795532226563
10.664999999999964,0.3560455322265625,10.373770141601565,6.330612182617188
10.675000000000011,0.131591796875,7.814010620117188,5.658895874023438
10.685000000000002,-0.1625457763671875,6.292181396484375,6.299359130859376
10.694999999999991,-0.058319091796875,6.640301513671876,6.803744506835938
10.704999999999984,0.0456085205078125,6.883746337890625,5.260083007812501
10.714999999999977,0.334063720703125,7.078442382812501,3.4094238281250004
10.724999999999966,0.5864807128906251,8.512194824218751,3.9730255126953127
10.734999999999957,0.4966094970703125,9.108096313476564,6.2314697265625005
10.745000000000005,0.1567138671875,8.3393310546875,6.949542236328125
10.754999999999995,0.5395263671875,7.653109741210938,6.95462646484375
10.764999999999986,1.071575927734375,7.856927490234375,6.775033569335938
10.77600000000001,0.2859130859375,7.6275390625,5.969033813476563
10.786,-0.7692138671875001,7.035226440429688,4.833456420898438
10.795999999999992,-1.020135498046875,5.50352783203125,4.453485107421876
10.805999999999983,-0.427374267578125,3.921734619140625,4.642947387695313
10.815999999999974,-0.3916351318359375,7.202108764648438,4.372586059570313
10.825999999999963,-0.518292236328125,13.084411621093752,5.581137084960938
10.835999999999956,-0.932806396484375,13.554104614257811,5.26068115234375
10.846000000000004,0.34991455078125,10.013687133789062,6.007913208007813
10.855999999999996,2.0199340820312504,5.8805084228515625,11.528488159179688
10.865999999999984,1.4533416748046877,4.544253540039063,10.253842163085938
10.875999999999976,-0.49227294921875,4.7193603515625,2.920889282226563
10.885999999999967,-1.4479583740234376,6.645834350585938,-0.015850830078125
10.895999999999953,0.6996795654296876,10.03028564453125,4.606610107421876
10.906000000000006,2.0852813720703125,9.588555908203126,7.186856079101563
10.916999999999971,1.3515075683593751,8.319741821289064,7.2531005859375
10.926999999999964,-0.0133087158203125,8.082727050781251,8.613430786132813
10.937000000000012,0.4155609130859375,9.116320800781253,9.262567138671876
10.947000000000005,0.0835906982421875,8.336639404296875,4.247723388671876
10.956999999999994,-1.362124633789063,7.081881713867188,0.56046142578125
10.966999999999985,-0.193499755859375,7.188949584960938,4.246377563476563
10.976999999999975,0.6537719726562501,6.921429443359376,7.774981689453125
10.986999999999966,-0.037384033203125,6.726882934570313,5.853292846679688
10.996999999999955,-0.3701019287109375,8.366696166992188,4.561001586914063
11.007000000000003,0.6051727294921876,10.562933349609375,6.992309570312501
11.016999999999996,0.5067779541015626,9.794168090820314,6.810324096679688
11.026999999999989,-0.1538726806640625,7.423422241210938,4.6284423828125005
11.036999999999978,0.2859130859375,6.431100463867188,5.688504028320313
11.046999999999969,0.6521270751953125,6.384295654296875,7.171902465820313
11.05699999999996,0.036785888671875,6.417941284179688,5.103369140625
11.067999999999984,-0.12979736328125,7.326971435546875,3.490771484375
11.077999999999976,0.2205657958984375,9.1875,4.739697265625001
11.087999999999964,0.146246337890625,9.002822875976562,6.487326049804688
11.097999999999956,-0.2977264404296875,8.055361938476564,7.1137329101562505
11.108000000000004,-0.198883056640625,7.588510131835938,7.647726440429688
11.117999999999997,0.0761138916015625,7.473965454101563,6.771145629882813
11.127999999999986,0.6971374511718751,5.994305419921876,4.576702880859376
11.137999999999977,0.7479797363281251,4.762725830078125,3.7244964599609376
11.147999999999968,0.2609405517578125,6.066979980468751,4.160693359375
11.157999999999952,-0.7367645263671876,11.11890869140625,4.854391479492188
11.168000000000006,0.057122802734375,13.061233520507814,5.719308471679688
11.177999999999995,1.3305725097656251,10.449136352539064,6.110494995117188
11.18799999999998,1.233673095703125,7.256988525390626,8.284750366210938
11.199000000000012,1.121820068359375,5.685812377929688,9.940863037109375
11.209000000000003,-0.2165283203125,5.01544189453125,5.899050903320313
11.218999999999994,-1.74478759765625,5.9276123046875,0.31402587890625
11.228999999999983,-0.6584075927734375,8.880203247070312,3.1268005371093754
11.238999999999976,0.5505920410156251,9.306082153320313,8.660983276367189
11.248999999999969,-0.8420379638671875,7.8838439941406255,9.9710693359375
11.258999999999958,-0.8046539306640625,7.448992919921875,7.982089233398438
11.269000000000004,0.905889892578125,9.170602416992187,6.5320373535156255
11.278999999999996,1.0519866943359375,9.65166015625,4.864859008789063
11.288999999999987,-1.2688140869140625,8.160485839843751,2.3634185791015625
11.298999999999984,-0.9486572265625,6.893466186523438,3.091360473632813
11.308999999999976,1.2079528808593751,6.427810668945313,6.828268432617188
11.31899999999996,0.959423828125,6.717013549804688,7.176986694335938
11.329000000000008,-0.32120361328125,7.994949340820313,4.914056396484376
11.339,-0.169873046875,10.00635986328125,5.248269653320313
11.34899999999999,0.5464050292968751,10.065127563476564,6.581384277343751
11.359999999999957,0.4230377197265625,7.829562377929688,5.819497680664063
11.370000000000005,0.211444091796875,6.32298583984375,5.840283203125001
11.379999999999995,0.088824462890625,6.657797241210938,7.122406005859376
11.391999999999996,0.0886749267578125,7.191940307617188,5.584127807617188
11.399999999999975,0.15731201171875,7.358074951171876,3.0321441650390626
11.409999999999968,0.3620269775390625,8.339630126953125,4.258340454101563
11.41999999999996,0.3189605712890625,8.707937622070313,6.904382324218751
11.430000000000009,-0.1030303955078125,8.220449829101563,6.614880371093751
11.439999999999998,0.1344329833984375,7.610043334960938,6.314163208007813
11.449999999999982,0.78297119140625,7.943060302734375,6.916793823242188
11.459999999999988,0.3410919189453125,7.639501953125,6.154907226562501
11.469999999999978,-0.4864410400390625,7.011749267578126,4.62425537109375
11.47999999999996,-0.81287841796875,5.0997802734375,4.55487060546875
11.490999999999984,-0.274847412109375,4.434494018554688,4.393072509765625
11.500999999999976,0.1066192626953125,7.524658203125001,3.952239990234376
11.510999999999967,-0.0366363525390625,13.29959411621094,4.98553466796875
11.520999999999953,-0.51978759765625,13.506253051757811,6.593795776367188
11.531000000000006,0.9081329345703124,9.818243408203124,7.358673095703126
11.540999999999997,1.8029571533203128,5.921630859375,10.335787963867189
11.550999999999988,1.1752044677734377,4.531094360351563,9.572705078125
11.560999999999986,-0.4248321533203125,4.347164916992188,3.516043090820313
11.570999999999977,-1.6274017333984376,6.785501098632813,0.0291595458984375
11.58099999999996,0.3982147216796875,9.782354736328124,4.497598266601563
11.591,2.4375885009765628,9.945947265625,8.175439453125001
11.601,0.205462646484375,8.076745605468751,8.852987670898438
11.61099999999999,-1.1279510498046876,7.977304077148438,7.927359008789063
11.62099999999998,0.0390289306640625,9.135311889648438,6.988272094726563
11.632000000000003,0.7621856689453126,8.519970703125,4.237704467773438
11.641999999999996,-0.95523681640625,6.967486572265625,1.3977142333984376
11.651999999999989,-0.0955535888671875,6.786697387695313,3.813919067382813
11.661999999999978,1.1840270996093751,7.038516235351563,7.446002197265625
11.671999999999969,0.581695556640625,7.152761840820313,6.876718139648438
11.68199999999996,-0.0219818115234375,8.57081298828125,5.1428466796875005
11.692000000000007,0.4317108154296875,10.290777587890624,6.354388427734375
11.701999999999998,0.6675292968750001,9.6480712890625,6.767257690429688
11.711999999999987,0.0160003662109375,7.195080566406251,5.046395874023438
11.721999999999989,-0.1230682373046875,6.461007690429688,5.2853546142578125
11.731999999999973,0.10946044921875,6.444857788085938,6.484335327148438
11.741999999999962,-0.2029205322265625,6.586618041992188,4.936935424804688
11.75200000000001,-0.3069976806640625,7.400692749023438,3.7757873535156254
11.762999999999977,-0.009271240234375,8.973214721679689,5.242886352539063
11.771999999999991,-0.13876953125,9.024655151367188,6.672601318359376
11.781999999999982,-0.3135772705078125,8.283404541015626,6.995300292968751
11.793000000000006,-0.125311279296875,7.846609497070313,7.292129516601563
11.802999999999995,0.5490966796875001,7.562939453125001,6.53233642578125
11.81299999999998,0.8436828613281251,6.05382080078125,4.927215576171875
11.822999999999986,1.1551666259765625,4.4035400390625,3.720907592773438
11.832999999999975,1.0815948486328126,5.320346069335938,3.4225830078125004
11.84299999999996,-0.04246826171875,9.71072692871094,4.095645141601563
11.853000000000002,-0.245538330078125,13.549169921875,5.090359497070313
11.865000000000007,1.3376007080078125,12.517669677734377,6.4004455566406255
11.87299999999999,1.08802490234375,8.433837890625,9.072207641601564
11.88299999999998,0.8118316650390626,5.53941650390625,10.998382568359377
11.894000000000004,0.20277099609375,4.412362670898438,7.422824096679688
11.902999999999963,-1.7856109619140623,5.2445312500000005,1.6027282714843751
11.913999999999987,-2.03369140625,7.255194091796875,0.6850250244140625
11.923999999999984,-0.2175750732421875,9.627734375,5.759683227539063
11.933999999999976,-0.6084625244140626,9.1695556640625,9.386233520507814
11.94399999999996,-0.702520751953125,7.630679321289063,9.895104980468751
11.954000000000008,-0.7189697265625,8.139550781250001,7.783056640625
11.964,0.62625732421875,9.533676147460938,5.530294799804688
11.97399999999999,-0.10946044921875,8.841622924804689,2.87408447265625
11.983999999999988,-0.1906585693359375,7.240390014648438,2.3859985351562503
11.993999999999971,1.6130462646484376,6.432745361328125,5.0281524658203125
12.003999999999962,1.523773193359375,6.306536865234375,7.006964111328125
12.01400000000001,0.4436737060546875,7.404431152343751,6.273040771484376
12.024,-0.7062591552734375,9.319390869140626,5.462106323242188
12.033999999999992,0.03648681640625,10.405172729492188,6.181674194335938
12.043999999999984,0.33914794921875,9.179873657226564,6.10526123046875
12.053999999999974,-0.040374755859375,6.856530761718751,5.646035766601563
12.064999999999998,-0.31881103515625,6.230572509765626,6.231768798828125
12.074999999999982,-0.387896728515625,6.868493652343751,6.206497192382813
12.084999999999988,-0.160003662109375,7.337887573242188,4.399502563476563
12.094999999999978,0.1949951171875,7.90208740234375,3.4915191650390627
12.10499999999996,0.4062896728515625,8.780911254882813,5.388684082031251
12.115000000000007,0.4822540283203125,8.755789184570313,7.029244995117188
12.125,0.3656158447265625,7.986575317382813,6.782510375976563
12.134999999999993,0.8604309082031251,7.510452270507813,6.431698608398438
12.144999999999982,0.9637603759765626,7.529293823242188,6.309677124023438
12.154999999999973,0.28232421875,7.129882812500001,5.851498413085938
12.164999999999964,-0.50244140625,5.845516967773438,4.895663452148438
12.175000000000011,-0.4007568359375,5.004525756835938,4.19957275390625
12.185000000000002,-0.0381317138671875,6.513494873046875,3.996652221679688
12.195999999999977,-0.100787353515625,10.89520263671875,4.199423217773438
12.204999999999984,-0.587078857421875,12.893304443359376,5.845068359375
12.216,-0.1185821533203125,11.072402954101562,6.721200561523438
12.226,1.0325469970703125,7.709335327148438,8.8585205078125
12.23599999999999,1.4941650390625,5.3466644287109375,10.089053344726564
12.24599999999998,0.28052978515625,4.6718078613281255,6.244628906250001
12.255999999999972,-1.8898376464843751,5.839535522460938,1.3664611816406251
12.265999999999964,-0.6590057373046876,8.663973999023439,2.5841339111328128
12.27600000000001,1.930361938476563,9.581228637695313,6.763967895507813
12.286,1.051089477539063,8.271292114257813,8.66651611328125
12.295999999999992,-0.7935882568359376,7.993603515625001,8.277273559570313
12.305999999999983,0.5700317382812501,9.035122680664063,7.550527954101563
12.315999999999974,1.027163696289063,9.200061035156253,5.4588165283203125
12.325999999999963,-0.5226287841796875,7.627987670898438,2.4585235595703128
12.335999999999956,-0.3198577880859375,6.815557861328125,2.902496337890625
12.346000000000004,0.896917724609375,6.665722656250001,6.524111938476563
12.356999999999973,0.6282012939453125,6.8864379882812505,7.085769653320313
12.366999999999962,-0.1703216552734375,7.840777587890625,5.22838134765625
12.37700000000001,-0.0186920166015625,9.6528564453125,5.693737792968751
12.387,0.2833709716796875,10.21571044921875,6.850848388671875
12.396999999999991,-0.050543212890625,8.391220092773438,5.4867797851562505
12.406999999999982,-0.07476806640625,6.712527465820313,4.92392578125
12.416999999999971,0.1622467041015625,6.653012084960938,6.46055908203125
12.426999999999964,0.074169921875,6.634170532226563,6.0584564208984375
12.437000000000012,-0.27215576171875,6.91275634765625,3.9278656005859376
12.447000000000005,0.031103515625,8.066577148437501,4.590310668945313
12.456999999999994,0.4347015380859375,9.027346801757814,6.490914916992188
12.466999999999985,0.000299072265625,8.62943115234375,6.608898925781251
12.476999999999975,-0.1891632080078125,8.0593994140625,6.480297851562501
12.486999999999966,0.384307861328125,7.869638061523438,6.722994995117188
12.49799999999999,0.52935791015625,7.232913208007813,6.060101318359376
12.50799999999998,0.33436279296875,6.465344238281251,5.0136474609375
12.517999999999972,0.50662841796875,5.079293823242188,4.206600952148438
12.527999999999963,0.85654296875,5.224493408203125,3.7192626953125
12.538000000000013,0.145050048828125,8.500830078125,4.7767822265625
12.548000000000002,-0.6213226318359375,13.454064941406251,5.825479125976563
12.557999999999993,0.6160888671875,12.725973510742188,6.012249755859376
12.567999999999984,1.3061981201171875,8.625244140625,7.294372558593751
12.577999999999976,0.9039459228515626,5.783459472656251,10.635757446289062
12.587999999999964,0.4161590576171875,4.5989837646484375,8.863604736328126
12.597999999999956,-1.3911346435546876,4.739697265625001,1.9551849365234373
12.608000000000004,-2.0422149658203126,7.0299926757812505,-0.4825531005859375
12.617999999999997,-0.5662933349609376,10.007556152343753,5.348757934570313
12.627999999999986,1.2828704833984377,9.740933227539063,8.919082641601562
12.63900000000001,-0.3509613037109375,7.750308227539063,9.562237548828126
12.649,-0.62625732421875,7.898049926757813,8.784051513671876
12.658999999999992,0.8985626220703126,9.460552978515626,6.607852172851563
12.668999999999984,0.4789642333984375,8.612982177734375,3.342730712890625
12.678999999999974,-0.8462249755859376,7.22139892578125,1.8512573242187504
12.688999999999965,0.0471038818359375,6.7697998046875005,4.855438232421875
12.699000000000012,1.460369873046875,6.701162719726563,6.548785400390625
12.709000000000003,0.35948486328125,6.965841674804688,5.9937072753906255
12.718999999999994,-0.7756439208984376,8.777023315429688,5.803945922851563
12.728999999999983,-0.1131988525390625,10.443753051757811,6.389978027343751
12.738999999999976,0.429168701171875,9.562835693359377,5.993856811523438
12.748999999999969,0.122320556640625,7.085470581054688,5.4825927734375
12.758999999999958,-0.0497955322265625,6.262274169921875,6.375473022460938
12.769000000000004,0.020635986328125,6.68187255859375,6.494952392578125
12.779999999999973,0.038580322265625,7.211080932617188,4.5974884033203125
12.789999999999964,0.308642578125,7.862011718750001,3.5920074462890628
12.800000000000011,0.5893218994140625,8.797659301757813,4.849905395507813
12.810000000000002,0.2127899169921875,8.910260009765626,6.5155883789062505
12.819999999999991,0.1963409423828125,7.923321533203126,7.090554809570313
12.829999999999984,0.5169464111328126,7.591799926757813,6.580636596679688
12.839999999999977,0.8359069824218751,7.486676025390626,6.256741333007813
12.849999999999966,0.3802703857421875,7.429852294921876,5.962005615234375
12.859999999999957,-0.5444610595703125,7.201510620117188,5.248867797851563
12.870000000000005,-0.5625549316406251,7.327270507812501,4.631134033203125
12.879999999999995,-0.4095794677734375,6.205749511718751,4.931103515625001
12.889999999999986,0.1281524658203125,4.8038482666015625,5.280569458007813
12.899999999999975,-0.5489471435546875,7.405926513671876,5.2878967285156255
12.911,-0.8348602294921875,12.737039184570314,5.490069580078125
12.920999999999992,-0.0085235595703125,13.141683959960938,5.107556152343751
12.930999999999983,0.8122802734375001,9.317745971679688,6.330462646484375
12.940999999999974,1.48638916015625,5.787197875976563,10.934680175781253
12.950999999999963,1.1476898193359375,4.837344360351563,9.81256103515625
12.960999999999956,-0.3049041748046875,4.601824951171875,3.2168212890625
12.971000000000004,-1.7177215576171876,7.102069091796875,0.008673095703125
12.980999999999996,0.2106964111328125,10.156643676757811,4.302154541015625
12.992999999999997,2.309286499023438,9.837234497070312,6.9312988281250005
13.000999999999976,1.2607391357421875,8.022015380859376,7.648025512695313
13.010999999999967,0.0665435791015625,7.851992797851563,8.648272705078126
13.020999999999953,0.24344482421875,8.790332031250001,8.625244140625
13.031000000000006,-0.3084930419921875,8.306881713867188,4.391876220703125
13.040999999999997,-1.179840087890625,7.066180419921875,1.6489349365234376
13.050999999999988,0.11185302734375,6.995449829101563,4.53154296875
13.060999999999986,0.9422271728515624,7.166818237304688,7.056759643554688
13.072000000000005,0.1284515380859375,7.093695068359375,5.4957519531250005
13.081999999999994,-0.0946563720703125,8.504418945312501,4.909869384765625
13.09299999999996,0.5205352783203125,10.35089111328125,6.97197265625
13.101999999999975,0.6389678955078125,9.580032348632812,6.380258178710938
13.111999999999966,0.123516845703125,7.3709350585937505,4.553375244140625
13.121999999999955,0.0210845947265625,6.65555419921875,5.956921386718751
13.132000000000003,0.1380218505859375,6.885989379882813,7.054815673828125
13.141999999999996,-0.2211639404296875,6.4767089843750005,4.861419677734375
13.151999999999989,-0.256304931640625,7.224688720703125,3.88255615234375
13.161999999999978,0.2397064208984375,8.728723144531251,5.566632080078126
13.171999999999969,-0.00299072265625,9.083273315429688,6.157150268554688
13.18199999999996,-0.575714111328125,8.127288818359375,6.306088256835938
13.192000000000007,-0.34034423828125,7.693185424804688,7.182369995117188
13.202999999999976,0.4481597900390625,7.452880859375001,6.782211303710938
13.212999999999964,0.85953369140625,5.601922607421876,4.925869750976563
13.222999999999956,0.5209838867187501,4.715023803710938,3.5541748046875004
13.233000000000004,0.3050537109375,6.721499633789063,4.416400146484375
13.242999999999997,-0.0937591552734375,12.168502807617188,5.16258544921875
13.252999999999986,0.5852844238281251,12.866238403320311,5.133425903320313
13.262999999999977,1.379022216796875,9.409710693359376,6.298312377929688
13.272999999999968,1.0041351318359375,6.554019165039063,10.051071166992188
13.282999999999952,1.37513427734375,5.5989318847656255,10.038659667968751
13.293000000000006,-1.1554656982421876,4.8485595703125,4.529598999023438
13.302999999999995,-2.1214691162109376,6.665124511718751,-0.424383544921875
13.31299999999998,-0.9141143798828124,9.630725097656253,3.819302368164063
13.322999999999986,0.62147216796875,9.529937744140623,7.807281494140626
13.332999999999975,-0.456982421875,7.466189575195313,9.2389404296875
13.34299999999996,-0.5468536376953126,7.330560302734375,8.736947631835939
13.353999999999983,0.205462646484375,9.164172363281253,7.105508422851563
13.363999999999976,0.6916046142578125,9.222640991210938,4.305743408203125
13.373999999999969,-0.7846160888671876,8.061941528320313,2.195040893554688
13.383999999999958,-0.1948455810546875,7.111639404296875,4.385296630859376
13.394000000000004,1.51031494140625,6.482839965820313,6.7533508300781255
13.403999999999996,0.8868988037109375,6.482989501953125,6.342575073242188
13.413999999999987,-0.3090911865234375,8.118316650390625,5.260382080078125
13.423999999999984,-0.084039306640625,10.25040283203125,5.797964477539063
13.433999999999976,0.47672119140625,9.877310180664065,5.748019409179688
13.44399999999996,0.175555419921875,7.852142333984376,5.091256713867188
13.454000000000008,0.0441131591796875,6.624301147460938,6.619366455078126
13.464,0.12142333984375,6.600973510742188,7.299307250976563
13.474999999999966,-0.5007965087890626,6.923672485351563,4.975665283203125
13.483999999999988,-0.0037384033203125,7.577444458007813,3.7437866210937503
13.495000000000005,0.4484588623046875,8.388229370117188,4.998394775390626
13.504999999999995,-0.0946563720703125,8.622702026367188,6.112887573242188
13.514999999999986,-0.0276641845703125,8.113531494140625,6.463998413085938
13.524999999999975,0.4725341796875,7.893862915039063,6.720153808593751
13.534999999999968,0.7760925292968751,7.80997314453125,6.426763916015625
13.54499999999996,0.5401245117187501,7.539013671875001,5.501583862304688
13.555000000000009,-0.105572509765625,7.252352905273438,5.414105224609376
13.564999999999998,-0.382513427734375,6.017184448242188,5.305990600585938
13.574999999999982,-0.0847869873046875,4.541412353515625,4.342977905273438
13.584999999999988,0.04007568359375,6.212628173828126,4.744183349609376
13.594999999999978,-0.042767333984375,12.059939575195314,5.517434692382813
13.60499999999996,-0.5147033691406251,13.501168823242187,5.466741943359375
13.615000000000007,0.2199676513671875,10.4567626953125,5.044601440429688
13.625,1.1034271240234377,6.635964965820313,9.8610107421875
13.635999999999967,1.179541015625,5.036376953125,11.190985107421875
13.645999999999953,-0.32838134765625,4.377371215820313,4.500588989257813
13.656000000000006,-1.6647857666015626,6.297863769531251,-0.1909576416015625
13.665999999999997,-0.133685302734375,9.569863891601564,3.902593994140626
13.675999999999988,2.36326904296875,9.97645263671875,7.329513549804688
13.685999999999986,1.089968872070313,8.125494384765625,7.831057739257813
13.695999999999977,-0.0131591796875,7.704101562500001,8.012295532226563
13.70599999999996,0.0683380126953125,8.856277465820312,9.070562744140624
13.716,-0.01734619140625,8.813510131835939,5.3892822265625
13.726,-1.0253692626953126,7.525405883789063,1.0952026367187502
13.73599999999999,0.128900146484375,7.099975585937501,2.70660400390625
13.74599999999998,1.4173034667968751,7.086068725585938,7.187005615234376
13.755999999999972,0.5348907470703126,6.7099853515625005,7.099975585937501
13.765999999999964,-0.5718261718750001,7.75015869140625,4.8605224609375
13.776999999999989,0.1338348388671875,10.083670043945313,5.923425292968751
13.786,0.77698974609375,10.454669189453126,6.954776000976563
13.796999999999969,-0.002093505859375,7.956967163085938,5.0244140625
13.80699999999996,-0.3527557373046875,6.454129028320313,4.875027465820313
13.817000000000007,0.191705322265625,6.6441894531250005,7.094741821289063
13.826999999999998,0.0083740234375,6.439923095703126,6.159991455078125
13.836999999999987,-0.5133575439453125,6.904531860351563,3.4529388427734378
13.846999999999989,0.155517578125,8.623898315429688,4.20914306640625
13.856999999999973,0.44801025390625,9.327615356445314,6.5484863281250005
13.866999999999962,-0.11065673828125,8.250656127929688,7.031637573242188
13.87700000000001,-0.217724609375,7.663427734375,6.922924804687501
13.887,0.3072967529296875,7.680325317382813,7.0533203125
13.896999999999991,0.6856231689453125,7.27762451171875,5.9149017333984375
13.906999999999982,0.44083251953125,5.90966796875,4.243685913085938
13.918000000000006,0.7330261230468751,4.542459106445313,3.1019775390625
13.927999999999995,0.8948242187500001,6.075802612304688,4.075756835937501
13.93799999999998,-0.5612091064453125,11.770437622070313,5.823834228515626
13.947999999999986,-0.235369873046875,13.953665161132813,5.8296661376953125
13.957999999999975,1.197784423828125,10.82462158203125,5.534033203125
13.96799999999996,1.36795654296875,6.944906616210938,9.850244140625
13.978000000000002,0.9180023193359376,5.0321899414062505,12.374563598632813
13.988,-0.4942169189453125,4.262677001953126,4.563394165039063
13.99799999999999,-2.057467651367188,5.8296661376953125,-0.5944061279296875
14.009999999999993,-2.009765625,8.242132568359375,0.6603515625
14.017999999999972,0.3398956298828125,10.241281127929687,9.187948608398438
14.027999999999963,0.3919342041015625,8.514886474609376,8.406024169921876
14.038000000000013,-0.9585266113281252,7.454376220703126,9.031533813476564
14.048000000000002,0.6853240966796875,9.197967529296877,8.479745483398439
14.057999999999993,0.6057708740234375,9.379803466796876,5.365057373046875
14.06899999999996,-1.069482421875,7.836141967773438,1.69693603515625
14.079000000000008,0.107965087890625,6.952233886718751,2.75804443359375
14.089,1.4182006835937502,6.460858154296876,6.509457397460938
14.09899999999999,1.02821044921875,6.343621826171876,6.348257446289063
14.109999999999957,-0.71597900390625,7.861712646484375,4.9025421142578125
14.118999999999971,-0.484197998046875,10.092791748046876,6.148327636718751
14.128999999999962,0.6902587890625,10.567120361328126,6.900344848632813
14.13900000000001,0.364569091796875,8.19398193359375,5.759533691406251
14.149,-0.131292724609375,6.489270019531251,5.628091430664063
14.158999999999992,0.029010009765625,6.591702270507813,6.72972412109375
14.168999999999984,0.109759521484375,6.836193847656251,5.83011474609375
14.178999999999974,-0.0378326416015625,6.89122314453125,3.490472412109375
14.189999999999998,0.2643798828125,8.132223510742188,3.719412231445313
14.199000000000012,0.5763122558593751,9.226678466796876,6.29906005859375
14.209999999999988,0.0019439697265625,8.627337646484376,6.995001220703125
14.219999999999978,0.0198883056640625,7.864553833007813,6.400595092773438
14.22999999999996,0.9428253173828126,7.754644775390625,6.775033569335938
14.240000000000007,0.5091705322265625,7.334747314453126,6.59873046875
14.25,-0.4400848388671875,5.6108947753906255,4.7111358642578125
14.259999999999993,-0.1780975341796875,4.3054443359375005,3.527706909179688
14.269999999999982,-0.6989318847656251,6.142794799804688,4.3736328125
14.279999999999973,-0.7672698974609375,11.597125244140626,5.055816650390625
14.289999999999964,-0.5644989013671875,13.080523681640626,5.133874511718751
14.300000000000011,0.829327392578125,10.96937255859375,5.780319213867188
14.310000000000002,1.2525146484375,7.3335510253906255,10.759573364257813
14.319999999999991,1.2822723388671875,5.300009155273438,11.153302001953126
14.33099999999996,0.062506103515625,4.479803466796875,4.488775634765625
14.339999999999977,-1.1989807128906251,6.253451538085938,0.3488677978515625
14.351,0.0079254150390625,9.123049926757814,4.1189727783203125
14.36099999999999,2.178143310546876,9.410458374023438,6.495700073242188
14.37099999999998,0.394775390625,7.990911865234375,7.191192626953126
14.380999999999972,-0.15013427734375,8.368939208984376,8.064483642578125
14.390999999999964,-0.2546600341796875,9.159835815429688,8.830258178710938
14.40100000000001,0.1099090576171875,8.955868530273438,5.103518676757813
14.411,-0.7810272216796875,7.4780029296875,1.7812744140625
14.420999999999992,0.269464111328125,6.894662475585938,3.851901245117188
14.430999999999983,0.87867431640625,6.695480346679688,6.683367919921875
14.440999999999974,0.414215087890625,6.676339721679688,5.8849945068359375
14.450999999999963,0.112451171875,7.745971679687501,5.266363525390625
14.460999999999956,0.442327880859375,9.852935791015623,6.522616577148438
14.471000000000004,0.533245849609375,10.0595947265625,6.339883422851563
14.480999999999996,0.1296478271484375,8.28370361328125,5.269204711914063
14.490999999999984,-0.2322296142578125,6.925466918945313,5.779721069335938
14.50200000000001,0.10347900390625,6.6950317382812505,6.487326049804688
14.512,-0.1329376220703125,6.447399902343751,5.213427734375
14.521999999999991,-0.6479400634765625,6.87088623046875,4.227984619140625
14.531999999999982,-0.091815185546875,8.217608642578126,5.159893798828126
14.541999999999971,0.07716064453125,9.002523803710938,5.9567718505859375
14.551999999999964,-0.285614013671875,8.578887939453125,6.428707885742188
14.562000000000012,-0.0937591552734375,8.122055053710938,7.111788940429688
14.572000000000005,0.48748779296875,7.957565307617188,6.81705322265625
14.581999999999994,0.670819091796875,7.107452392578126,5.68297119140625
14.591999999999985,0.67530517578125,5.359823608398438,4.898953247070313
14.601999999999975,1.0397247314453126,4.137515258789063,3.8550415039062496
14.611999999999966,0.8145233154296876,6.00836181640625,3.658401489257813
14.621999999999955,-0.6346313476562501,12.63206481933594,4.83719482421875
14.63299999999998,-0.2141357421875,14.59098815917969,5.701663208007813
14.641999999999996,1.5130065917968751,10.6433837890625,5.7768798828125005
14.652999999999963,1.6366729736328127,6.553421020507813,10.179971313476564
14.663000000000013,1.0860809326171876,5.132827758789063,12.980334472656253
14.673000000000002,-0.4972076416015625,3.879266357421875,4.6834716796875
14.682999999999993,-2.10008544921875,5.412759399414063,-0.41092529296875
14.692999999999984,-2.267416381835938,8.334695434570314,-0.1598541259765625
14.702999999999976,-1.1400634765625002,10.445697021484376,8.32557373046875
14.712999999999964,1.245635986328125,8.83758544921875,9.601416015625
14.722999999999956,-0.1710693359375,7.466488647460938,7.951733398437501
14.733000000000004,0.098992919921875,8.996990966796876,9.165368652343751
14.742999999999997,0.477020263671875,9.472216796875,5.423526000976563
14.752999999999986,-1.0038360595703126,7.698568725585938,1.6453460693359376
14.762999999999977,-0.0136077880859375,7.070516967773438,2.5434600830078127
14.772999999999968,1.684075927734375,6.684115600585938,6.073709106445313
14.783999999999992,1.23636474609375,6.142495727539063,6.693237304687501
14.793999999999984,-0.4092803955078125,7.502227783203126,5.247372436523438
14.803999999999974,-1.140362548828125,10.151260375976562,5.7305236816406255
14.813999999999965,0.726446533203125,10.760171508789064,6.7028076171875
14.824000000000012,0.401654052734375,8.177682495117189,6.213375854492188
14.834000000000003,-0.3677093505859375,6.376968383789063,5.993856811523438
14.843999999999994,-0.031103515625,6.641796875000001,6.479400634765626
14.853999999999983,0.0378326416015625,7.073059082031251,5.7952728271484375
14.863999999999976,-0.020037841796875,6.978253173828126,3.81376953125
14.873999999999969,0.3098388671875,7.964743041992188,3.4985473632812503
14.883999999999958,0.466552734375,9.227276611328126,5.789141845703125
14.894000000000004,0.16448974609375,8.599075317382812,7.419235229492188
14.903999999999996,0.2100982666015625,7.782757568359376,6.605758666992188
14.914999999999964,0.8187103271484376,7.762719726562499,6.0807373046875
14.923999999999984,0.8680572509765626,7.7531494140625,6.6217590332031255
14.935000000000002,-0.4293182373046875,6.627291870117188,5.8666015625000005
14.944999999999991,-0.657958984375,4.9145050048828125,3.9292114257812494
14.954999999999984,-0.28531494140625,4.3365478515625,3.8237884521484378
14.964999999999977,-0.6772491455078126,8.402435302734375,5.126995849609376
14.974999999999966,-0.5498443603515626,13.320379638671875,5.609548950195313
14.984999999999957,-0.973779296875,12.831246948242187,4.53692626953125
14.995000000000005,1.3857513427734376,9.59962158203125,7.11014404296875
15.004999999999995,2.0659912109375003,5.8965087890625005,12.58122253417969
15.014999999999986,0.8746368408203126,4.500140380859375,9.769046020507814
15.024999999999975,-0.7476806640625,4.057513427734375,1.5388763427734375
15.034999999999968,-1.8437805175781248,7.499984741210938,0.0925628662109375
15.04499999999996,-0.00478515625,10.238589477539064,5.423675537109375
15.055000000000009,2.171115112304688,9.367242431640626,6.932196044921875
15.065999999999974,1.4965576171875,7.925863647460938,6.754098510742188
15.075999999999963,-0.2600433349609375,8.292376708984376,9.530535888671876
15.085999999999956,0.8900390625000001,9.361410522460938,9.054412841796877
15.096000000000004,-0.1395172119140625,8.428903198242189,3.105267333984376
15.105999999999996,-1.3594329833984375,6.981991577148438,0.3327178955078125
15.115999999999984,0.80390625,6.988272094726563,5.341131591796875
15.125999999999976,0.9256286621093752,6.659890747070313,7.926611328125
15.135999999999967,-0.3533538818359375,6.645086669921875,4.901345825195313
15.145999999999953,-0.2893524169921875,8.731713867187501,4.372137451171875
15.156000000000006,0.7775878906250001,10.817593383789063,7.374673461914063
15.165999999999997,0.44083251953125,9.71790466308594,6.683666992187501
15.175999999999988,-0.31881103515625,7.141397094726563,4.568478393554688
15.185999999999986,-0.045159912109375,6.626693725585938,6.232666015625001
15.195999999999977,0.4498046875,6.43125,7.385589599609376
15.20599999999996,-0.2349212646484375,6.356033325195313,4.58597412109375
15.216999999999985,-0.487786865234375,7.428506469726563,3.302056884765625
15.226999999999975,0.3216522216796875,9.13785400390625,5.217465209960938
15.236999999999966,0.094207763671875,8.98831787109375,6.548635864257813
15.246999999999955,-0.372344970703125,8.034875488281251,6.868194580078126
15.257000000000003,-0.02572021484375,7.929153442382813,7.205996704101563
15.266999999999996,0.5486480712890626,7.480844116210938,6.566131591796876
15.276999999999989,0.7436431884765625,4.9538330078125,4.704107666015625
15.286999999999978,0.5241241455078125,4.12420654296875,3.433200073242188
15.296999999999969,0.2175750732421875,7.134368896484376,4.629489135742188
15.30699999999996,-0.5139556884765626,13.5790771484375,5.157800292968751
15.317000000000007,0.1973876953125,13.314996337890626,4.788446044921876
15.327999999999976,1.4464630126953126,9.601266479492187,6.479251098632813
15.337999999999964,1.2372619628906252,6.247021484375001,11.503814697265623
15.347999999999956,1.480706787109375,4.867401123046875,9.928750610351564
15.358000000000004,-0.6645385742187501,3.9793060302734378,2.6892578125
15.367999999999997,-2.1908538818359378,6.669760131835938,0.0779083251953125
15.377999999999986,-2.1480865478515625,9.457861328125,2.33037109375
15.387999999999977,0.7047637939453125,9.906170654296876,8.6862548828125
15.397999999999968,0.4442718505859375,7.518975830078125,8.275479125976563
15.407999999999952,-0.5161987304687501,7.543798828125,10.600616455078123
15.418000000000006,0.7514190673828125,9.420028686523438,8.55167236328125
15.427999999999995,-0.21234130859375,9.267800903320314,3.566436767578125
15.43799999999998,-1.5508392333984375,7.778720092773438,0.9111236572265624
15.447999999999986,0.7213623046875001,7.414599609375,4.121664428710938
15.457999999999975,1.4600708007812502,6.208142089843751,6.9223266601562505
15.46799999999996,0.5573211669921876,6.099578857421875,5.642895507812501
15.478000000000002,-0.5797515869140626,8.22568359375,5.144790649414063
15.488999999999976,0.2277435302734375,10.673291015625,6.610394287109376
15.498999999999969,0.71597900390625,10.288983154296876,5.9611083984375
15.508999999999958,0.189910888671875,7.703652954101563,5.204904174804688
15.519000000000004,-0.0186920166015625,6.547589111328126,6.853390502929688
15.528999999999996,0.29368896484375,6.307733154296876,7.401889038085938
15.538999999999987,-0.1622467041015625,6.660638427734376,4.821942138671876
15.548999999999984,-0.0997406005859375,7.521966552734375,3.33345947265625
15.558999999999976,0.3959716796875,8.776873779296876,4.366903686523438
15.56899999999996,-0.0674407958984375,8.969924926757812,5.882003784179688
15.579000000000008,-0.210546875,8.19158935546875,6.859970092773438
15.589,0.324493408203125,7.791580200195313,6.994552612304688
15.59899999999999,0.7123901367187501,7.727279663085938,6.445156860351563
15.61099999999999,0.5609100341796875,7.453030395507813,5.9754638671875
15.618999999999971,-0.198284912109375,7.2991577148437505,5.4443115234375
15.629999999999995,-0.6335845947265626,6.339584350585938,4.706799316406251
15.639999999999986,-0.2029205322265625,4.609002685546876,4.304547119140626
15.649999999999975,-0.006280517578125,5.134921264648438,5.470480346679688
15.659999999999968,-0.4152618408203125,10.811013793945314,5.783758544921875
15.66999999999996,-0.8798706054687501,14.019461059570313,5.141201782226563
15.680000000000009,0.29368896484375,11.636602783203124,4.877120971679688
15.689999999999998,1.80400390625,7.62095947265625,8.874969482421875
15.699999999999982,1.31173095703125,5.348159790039063,11.140890502929688
15.709999999999988,0.1422088623046875,4.081887817382813,6.066680908203125
15.719999999999978,-0.978564453125,5.430255126953125,0.6268554687500001
15.72999999999996,-0.9283203125,8.928353881835939,2.6971832275390626
15.740000000000007,1.60482177734375,10.239337158203126,6.155355834960938
15.75,2.077505493164063,8.621057128906251,7.165023803710938
15.759999999999993,0.1727142333984375,7.733111572265625,8.820687866210939
15.769999999999982,0.367559814453125,8.749658203125001,9.2485107421875
15.779999999999973,-0.26019287109375,8.733807373046876,6.288891601562501
15.790999999999997,-0.7034179687500001,7.678829956054688,1.81656494140625
15.800999999999988,-0.6625946044921875,7.0883117675781255,2.50084228515625
15.810999999999986,0.77100830078125,7.051675415039063,6.147579956054688
15.820999999999977,0.472235107421875,6.620114135742188,6.632376098632813
15.83099999999996,-0.24942626953125,7.386785888671875,5.261129760742188
15.841,0.1888641357421875,9.742129516601564,6.010754394531251
15.851,0.6542205810546875,10.672692871093751,6.816156005859376
15.86099999999999,0.20037841796875,8.575299072265626,5.403189086914063
15.87099999999998,0.0064300537109375,6.774884033203126,5.0191802978515625
15.880999999999972,0.36427001953125,6.580935668945313,6.763369750976563
15.890999999999964,0.18961181640625,6.265264892578125,6.346463012695313
15.90100000000001,-0.3668121337890625,6.658694458007813,3.99620361328125
15.911999999999978,-0.018841552734375,8.210879516601564,4.085775756835938
15.921999999999969,0.372943115234375,9.427355957031253,5.811422729492188
15.930999999999983,-0.2561553955078125,8.652758789062501,6.751556396484376
15.942000000000007,-0.6045745849609375,7.821636962890626,7.031936645507813
15.951999999999998,-0.0121124267578125,7.682418823242188,7.051376342773438
15.961999999999987,0.6914550781250001,6.891671752929688,6.186309814453126
15.971999999999989,0.7213623046875001,5.042807006835938,4.374530029296875
15.981999999999973,0.7325775146484376,4.650274658203125,3.514398193359375
15.991999999999962,0.12979736328125,8.163925170898438,4.331912231445313
16.00200000000001,-0.2178741455078125,13.144973754882814,5.337393188476563
16.012,0.9326568603515626,11.956161499023438,5.007815551757813
16.02199999999999,1.630242919921875,9.09583435058594,6.141299438476563
16.031999999999982,1.478912353515625,6.551626586914063,11.605050659179687
16.041999999999973,0.2929412841796875,5.183969116210938,10.604354858398438
16.052999999999997,-1.341189575195313,5.119070434570313,2.086477661132813
16.06299999999998,-1.9894287109375,6.972122192382813,-0.41690673828125
16.072999999999986,-1.0265655517578125,9.254641723632814,5.752655029296875
16.082999999999977,0.3289794921875,9.435879516601563,8.31959228515625
16.09299999999996,-1.2296356201171876,7.2650634765625,8.274282836914063
16.103,-0.7478302001953125,8.033529663085938,8.034127807617189
16.113,1.0516876220703126,9.5571533203125,7.51688232421875
16.12299999999999,-0.3536529541015625,9.104806518554687,3.785208129882813
16.13299999999998,-1.091015625,7.515087890625001,1.5550262451171877
16.142999999999972,1.3224975585937502,6.997543334960938,4.819549560546875
16.152999999999963,1.55338134765625,6.241040039062501,7.20584716796875
16.16300000000001,0.5731719970703125,6.62265625,5.6883544921875
16.173000000000002,-0.4125701904296875,8.641693115234375,4.931103515625001
16.182999999999993,0.28292236328125,10.436724853515626,6.574356079101563
16.192999999999984,0.7899993896484375,9.605902099609375,6.1417480468750005
16.204000000000008,0.3982147216796875,7.406375122070313,5.113986206054688
16.214,-0.1395172119140625,6.746771240234375,6.554318237304688
16.22399999999999,-0.1398162841796875,6.880755615234375,6.909317016601563
16.233999999999988,-0.1897613525390625,6.775482177734376,4.455728149414063
16.24399999999997,-0.0853851318359375,7.181771850585938,3.732272338867188
16.253999999999962,0.2764923095703125,8.550326538085939,5.566781616210938
16.26400000000001,-0.032000732421875,8.816799926757813,6.427062988281251
16.274,-0.2133880615234375,8.256787109375,6.163879394531251
16.283999999999992,0.5555267333984375,7.898648071289063,6.774285888671876
16.293999999999983,0.88944091796875,7.943508911132813,6.676040649414063
16.303999999999974,0.0689361572265625,7.008758544921876,5.611492919921876
16.313999999999965,-0.552685546875,5.360720825195313,4.72354736328125
16.324000000000012,-0.0251220703125,4.083682250976563,4.383502197265625
16.334999999999987,0.4574310302734375,7.276577758789063,4.437783813476563
16.343999999999994,0.0823944091796875,12.930538940429688,5.241091918945313
16.353999999999985,-0.290997314453125,12.94923095703125,4.734613037109376
16.36500000000001,0.25899658203125,9.901385498046876,6.173001098632813
16.375,1.392031860351563,6.525906372070313,11.797204589843751
16.38499999999999,0.9079833984375,4.9803009033203125,10.575793457031253
16.394999999999982,-0.7639801025390626,4.165029907226563,2.3489135742187504
16.404999999999973,-1.6914031982421875,6.839633178710938,0.191107177734375
16.414999999999964,-0.0512908935546875,10.042697143554689,5.243783569335938
16.42500000000001,2.1138427734375003,9.484329223632812,6.728079223632813
16.435000000000002,0.33017578125,7.681222534179688,6.764865112304688
16.444999999999993,-0.2956329345703125,7.885189819335938,9.543545532226563
16.454999999999984,0.3976165771484375,9.077142333984376,9.157293701171875
16.464999999999975,0.1891632080078125,8.599224853515626,3.7902923583984376
16.474999999999966,-1.2812255859375,7.301101684570313,0.6299957275390625
16.48599999999999,1.1689239501953126,7.467984008789063,4.436288452148438
16.49599999999998,1.425079345703125,6.80748291015625,7.585369873046876
16.505999999999972,-0.0174957275390625,6.483587646484375,5.716766357421875
16.515999999999963,-0.405841064453125,8.354733276367188,4.992861938476563
16.527999999999963,0.4894317626953125,10.471267700195312,7.060797119140625
16.536,0.4921234130859375,9.688296508789064,6.32059326171875
16.545999999999992,-0.3632232666015625,7.56712646484375,4.707846069335938
16.555999999999983,-0.3093902587890625,6.912457275390626,5.921630859375
16.565999999999974,0.090618896484375,6.952532958984375,6.654058837890625
16.575999999999965,-0.2920440673828125,6.325827026367188,4.691995239257813
16.585999999999956,-0.1386199951171875,7.044198608398438,4.07156982421875
16.596000000000004,0.54072265625,8.622103881835939,5.709738159179688
16.605999999999995,0.3037078857421875,9.040505981445314,6.110195922851563
16.615999999999985,-0.2229583740234375,8.237646484375,6.242236328125
16.62700000000001,0.206060791015625,8.059100341796876,7.209585571289063
16.637,0.5606109619140626,7.728924560546876,6.741836547851563
16.64699999999999,0.545208740234375,6.18900146484375,5.1084533691406255
16.656999999999982,0.6951934814453126,4.013101196289063,3.9398284912109376
16.666999999999973,0.775494384765625,5.160940551757813,3.8222930908203128
16.676999999999964,-0.56165771484375,11.191433715820311,5.096340942382813
