time,ax,ay,az
0.0,-0.964208984375,6.984982299804688,4.831063842773438
0.0100000000000477,-1.1823822021484376,5.956024169921875,5.1021728515625
0.0200000000000386,-0.1006378173828125,5.0117034912109375,6.868792724609375
0.0300000000000295,-2.3519042968750004,10.769891357421876,7.518228149414063
0.0400000000000204,-2.4776641845703127,15.128869628906251,7.477554321289063
0.0510000000000445,0.5534332275390625,11.745166015625,5.179034423828125
0.0610000000000354,0.7322784423828126,6.838436889648438,5.269055175781251
0.0710000000000263,0.6237152099609375,4.548440551757813,8.242282104492189
0.0810000000000172,1.3814147949218751,4.129440307617188,5.5919036865234375
0.0910000000000081,0.679791259765625,5.639456176757813,1.9850921630859373
0.100999999999999,1.1345306396484376,8.418734741210939,3.541912841796876
0.1110000000000468,2.619723510742188,11.737390136718751,6.181076049804688
0.1210000000000377,2.499496459960937,10.7247314453125,7.713223266601563
0.1310000000000286,-0.131591796875,8.049679565429688,7.531088256835938
0.1410000000000195,-0.2298370361328125,7.335345458984375,7.127191162109376
0.1510000000000104,-0.012860107421875,7.067077636718751,6.789688110351563
0.1610000000000013,-1.1237640380859375,6.22489013671875,3.2299804687500004
0.1710000000000491,-1.4252288818359375,6.4243713378906255,0.6817352294921876
0.18100000000004,-1.475921630859375,7.861862182617188,4.1623382568359375
0.1910000000000309,-0.8584869384765625,7.771841430664063,8.006463623046876
0.2019999999999981,-1.1375213623046876,7.813262939453126,7.491012573242188
0.2120000000000459,-0.2583984375,9.015533447265623,6.671853637695313
0.2220000000000368,1.1122497558593751,9.535021972656253,7.828366088867188
0.2320000000000277,1.2957305908203125,7.868890380859375,7.908367919921876
0.2420000000000186,1.1778961181640626,6.476260375976563,4.709640502929688
0.2520000000000095,1.4913238525390626,6.486877441406251,4.074560546875
0.2620000000000004,1.7248992919921875,6.9372802734375005,5.71287841796875
0.2720000000000482,0.9592742919921876,7.838385009765625,4.2027130126953125
0.2820000000000391,0.3692047119140625,8.957064819335939,2.811578369140625
0.29200000000003,0.4233367919921875,9.567022705078124,5.666522216796875
0.3020000000000209,0.0354400634765625,8.903829956054688,8.108447265625001
0.3120000000000118,-0.93729248046875,7.821038818359375,7.258782958984375
0.3220000000000027,-1.47322998046875,6.872531127929688,6.575552368164063
0.3330000000000268,-1.0089202880859376,6.596188354492188,7.392916870117188
0.3430000000000177,-1.304254150390625,6.557757568359375,6.456671142578125
0.3530000000000086,-1.3006652832031251,6.958065795898438,3.872238159179688
0.3629999999999995,0.5920135498046876,6.298461914062501,2.886495971679688
0.3730000000000473,1.4123687744140625,5.356533813476563,3.186764526367188
0.3830000000000382,1.0054809570312502,8.093045043945313,4.921383666992188
0.3930000000000291,0.6219207763671876,12.274673461914064,8.05042724609375
0.40300000000002,0.6895111083984375,14.08555603027344,5.936434936523438
0.4130000000000109,2.345773315429688,9.918731689453123,7.509555053710938
0.4230000000000018,2.4924682617187504,5.3749267578125,11.077188110351564
0.4330000000000495,0.41331787109375,4.2086944580078125,8.494998168945314
0.4430000000000405,-0.0731231689453125,5.246923828125,2.3321655273437503
0.4530000000000314,-0.6548187255859376,7.106704711914063,0.271856689453125
0.4630000000000223,-0.04844970703125,10.66895446777344,3.643148803710938
0.4730000000000132,-1.645794677734375,10.778115844726564,5.8142639160156255
0.4830000000000041,-1.588372802734375,9.201556396484376,6.9970947265625005
0.4940000000000282,-0.9821533203125,7.193435668945313,10.421173095703123
0.5040000000000191,-0.3608306884765625,6.912158203125,9.866693115234376
0.51400000000001,-0.37025146484375,7.572659301757813,4.192694091796875
0.5240000000000009,-0.9491058349609376,7.234109497070313,1.6155883789062502
0.5340000000000487,0.35589599609375,7.217062377929688,4.076055908203125
0.5440000000000396,2.135824584960938,7.170257568359376,5.750860595703125
0.5540000000000305,1.701123046875,6.821987915039063,4.305145263671875
0.5640000000000214,1.2882537841796875,8.016482543945314,4.758538818359376
0.5740000000000123,2.0718231201171875,9.819290161132812,6.895709228515625
0.5840000000000032,2.734417724609376,9.244024658203124,6.830661010742188
0.5940000000000509,0.9156097412109376,7.447348022460938,6.22489013671875
0.6040000000000418,-0.8940765380859376,6.458016967773438,7.762719726562499
0.6140000000000327,-0.8871978759765625,6.6764892578125,7.701260375976563
0.625,-1.5798492431640627,7.099526977539063,4.92093505859375
0.6340000000000146,-1.8626220703125,7.911956787109376,3.29039306640625
0.6450000000000387,-1.7251983642578126,8.898297119140626,4.199722290039063
0.6550000000000296,-1.1729614257812502,9.023309326171876,5.671456909179688
0.6650000000000205,-0.8895904541015626,8.282955932617188,6.201712036132813
0.6750000000000114,0.17286376953125,6.639852905273438,6.626843261718751
0.6850000000000023,1.7141326904296876,6.98094482421875,5.965594482421875
0.69500000000005,1.5822418212890623,7.757485961914063,4.939627075195313
0.7050000000000409,0.9284698486328126,6.887335205078125,4.91973876953125
0.7150000000000318,1.1575592041015623,4.590161132812501,4.68466796875
0.7250000000000227,1.708599853515625,7.978649902343751,5.784954833984376
0.7350000000000136,1.8298736572265624,12.515277099609376,9.298605346679688
0.7450000000000045,0.31043701171875,12.070556640625,6.461306762695313
0.7550000000000523,-0.3360076904296875,8.737545776367188,3.4417236328125003
0.7650000000000432,0.8279815673828126,6.181225585937501,8.542251586914062
0.7750000000000341,-0.0797027587890625,5.178286743164063,9.526797485351564
0.7860000000000014,-1.49835205078125,5.0519287109375,3.173455810546875
0.7960000000000491,-1.6202239990234375,7.05870361328125,0.648388671875
0.80600000000004,-0.72913818359375,11.20608825683594,5.922976684570313
0.8160000000000309,0.9821533203125,10.516278076171876,8.366995239257813
0.8260000000000218,-0.43126220703125,8.259628295898438,5.284158325195313
0.8360000000000127,1.149932861328125,7.460955810546875,6.842773437500001
0.8460000000000036,2.6234619140625,7.497592163085938,10.711871337890626
0.8560000000000514,1.02880859375,6.545944213867188,6.175393676757813
0.8660000000000423,-0.9075347900390626,6.610992431640626,0.1239654541015625
0.8760000000000332,0.399560546875,8.194131469726564,1.6483367919921876
0.8860000000000241,2.5907135009765625,8.633020019531251,6.749761962890625
0.896000000000015,0.5142547607421876,7.432693481445313,5.983987426757813
0.9070000000000392,-1.4944641113281252,7.916442871093751,4.385446166992188
0.91700000000003,-1.3965179443359377,9.071759033203126,8.169757080078126
0.9270000000000208,-0.60950927734375,8.752200317382814,8.46015625
0.9370000000000118,-1.406536865234375,7.380355834960938,4.416400146484375
0.9470000000000028,-0.8136260986328125,6.789688110351563,4.268807983398438
0.9570000000000504,0.4753753662109375,6.779968261718751,7.6718017578125
0.9670000000000414,0.5692840576171876,6.641348266601563,6.9958984375
0.9770000000000324,0.2083038330078125,7.283157348632813,4.065887451171875
0.9870000000000232,0.9271240234375,9.1396484375,4.7081451416015625
0.9990000000000236,1.7492736816406251,9.683810424804689,6.630432128906251
1.007000000000005,1.2087005615234376,8.700311279296876,5.570370483398438
1.0170000000000528,0.7508209228515625,7.570864868164063,5.0640411376953125
1.0270000000000437,1.0672393798828126,7.023861694335938,6.797015380859375
1.0370000000000346,1.0914642333984377,6.162384033203126,6.569570922851563
1.0470000000000257,1.278384399414063,3.253158569335938,4.19119873046875
1.0580000000000496,0.244342041015625,4.762725830078125,3.0004425048828125
1.0680000000000405,-1.1729614257812502,11.587255859375,5.689999389648438
1.0780000000000314,-0.569134521484375,13.85826110839844,6.5807861328125
1.0880000000000225,-0.9200958251953124,11.5310302734375,2.6433502197265626
1.0990000000000464,-0.496759033203125,8.532830810546876,9.715811157226565
1.108000000000004,1.2107940673828126,6.338986206054688,14.96243591308594
1.1180000000000518,0.0728240966796875,3.985137939453125,6.125149536132813
1.1280000000000427,-1.4143127441406251,4.2480224609375,-0.5067779541015626
1.1380000000000337,-1.3734893798828125,8.256188964843751,0.5537322998046875
1.1480000000000246,0.7928405761718751,10.742974853515626,8.243478393554689
1.1580000000000157,-1.0457061767578126,9.711773681640626,5.480648803710938
1.1680000000000064,-1.42178955078125,8.483633422851563,6.6083007812500005
1.1779999999999973,2.1660308837890625,8.498736572265626,10.636953735351565
1.188000000000045,1.6917022705078126,7.985229492187501,8.313012695312501
1.1990000000000125,-1.172662353515625,7.237100219726563,2.0589630126953127
1.2090000000000032,-1.8044525146484376,7.0060668945312505,2.242294311523437
1.219000000000051,1.5327453613281252,7.24412841796875,5.783609008789063
1.2290000000000418,1.97208251953125,6.757537841796876,5.04056396484375
1.2390000000000327,0.06041259765625,7.506414794921875,3.897808837890625
1.2490000000000236,0.2524169921875,9.51348876953125,6.183767700195313
1.2590000000000146,1.6879638671875,9.701455688476564,7.235903930664063
1.2690000000000057,1.1674285888671876,7.9565185546875,5.824880981445313
1.2789999999999964,0.0037384033203125,7.048385620117188,5.710784912109375
1.289000000000044,-0.4191497802734375,6.842175292968751,6.991412353515625
1.299000000000035,-0.3289794921875,6.697872924804688,6.397903442382813
1.309000000000026,-0.1631439208984375,6.945654296875,5.092901611328125
1.3190000000000168,0.0614593505859375,7.6275390625,4.82164306640625
1.3290000000000075,-0.2893524169921875,8.844464111328126,5.529098510742188
1.3389999999999986,-0.5941070556640625,9.147424316406251,6.847409057617188
1.3500000000000227,-0.448907470703125,8.590850830078125,6.218609619140626
1.3600000000000136,0.2977264404296875,7.76212158203125,5.064938354492188
1.3700000000000043,0.91396484375,7.562789916992188,5.752655029296875
1.3800000000000523,0.5441619873046876,7.216464233398438,6.377267456054688
1.3900000000000432,0.2400054931640625,6.783407592773438,5.320346069335938
1.400000000000034,0.4098785400390625,6.078643798828125,4.832559204101563
1.410000000000025,0.5842376708984376,4.703659057617188,4.579843139648438
1.420000000000016,-0.0115142822265625,6.525158691406251,3.2761871337890627
1.4300000000000068,-0.2591461181640625,12.351983642578126,5.34801025390625
1.4399999999999975,0.0381317138671875,13.24052734375,6.745425415039063
1.4500000000000457,0.7170257568359375,10.748358154296875,4.693490600585938
1.4600000000000364,2.1712646484375,6.394613647460938,12.235195922851563
1.4700000000000273,1.5037353515625,5.193389892578125,12.75169372558594
1.4810000000000514,-1.301861572265625,4.776034545898438,3.760983276367188
1.490000000000009,-1.9101745605468752,5.9048828125,-0.9517974853515626
1.5010000000000332,-2.0152984619140626,9.756036376953126,2.608956909179688
1.511000000000024,0.9975555419921877,10.778115844726564,7.634268188476563
1.521000000000015,0.8103363037109376,8.305984497070312,4.534683227539063
1.531000000000006,0.2720062255859375,7.598828125000001,8.441613769531251
1.5409999999999968,2.512655639648438,8.48587646484375,11.874963378906251
1.5510000000000446,0.8716461181640626,8.226281738281251,5.874826049804688
1.5610000000000357,-0.9691436767578124,7.454226684570313,-0.0916656494140625
1.5710000000000264,0.7031188964843751,7.429852294921876,3.62056884765625
1.5810000000000173,1.1204742431640626,7.208837890625,7.5402099609375
1.5910000000000082,0.4167572021484375,6.373080444335938,4.6887054443359375
1.600999999999999,-0.9920227050781252,7.636810302734376,3.542959594726563
1.6110000000000468,-1.0277618408203126,9.931292724609376,7.194931030273438
1.6210000000000375,-0.069384765625,9.767999267578126,7.279718017578125
1.632000000000005,-0.7258483886718751,7.665969848632813,4.7911376953125
1.6420000000000528,-0.7357177734375,6.632824707031251,6.297415161132813
1.6520000000000437,0.38699951171875,6.6875549316406255,7.926611328125
1.6620000000000346,0.6193786621093751,6.6516662597656255,5.753552246093751
1.6720000000000257,0.0825439453125,7.337588500976563,3.763525390625
1.6820000000000164,0.63642578125,8.537466430664063,4.5511322021484375
1.6920000000000073,1.3483673095703126,8.848501586914063,6.454727172851563
1.7019999999999982,0.6412109375,8.495297241210938,6.874325561523438
1.712000000000046,0.380718994140625,8.086764526367189,6.012548828125
1.7220000000000368,0.9471618652343752,7.982089233398438,5.398703002929688
1.7320000000000275,0.6331359863281251,7.621109008789063,5.956173706054688
1.7420000000000186,-0.3069976806640625,7.006964111328125,5.858975219726563
1.7520000000000095,-0.42587890625,6.736901855468751,4.925122070312501
1.7620000000000005,1.413116455078125,4.437783813476563,4.744482421875
1.7730000000000246,1.5877746582031251,4.497448730468751,3.605764770507813
1.7830000000000157,-1.406536865234375,10.78858337402344,3.614736938476563
1.7930000000000064,-0.9150115966796876,13.861700439453124,7.270895385742188
1.8029999999999973,0.2127899169921875,12.418228149414064,4.816708374023438
1.813000000000045,0.3823638916015625,8.24482421875,8.535821533203126
1.823000000000036,1.4312103271484375,5.317654418945313,15.564318847656253
1.8330000000000268,0.471038818359375,4.360922241210938,8.227926635742188
1.8430000000000173,-1.594952392578125,4.23905029296875,-0.323297119140625
1.8530000000000089,-1.6988800048828123,7.099526977539063,-0.28411865234375
1.8629999999999995,-0.8390472412109375,11.085562133789065,1.3290771484375
1.8730000000000475,1.640261840820313,10.579531860351564,10.388873291015626
1.8830000000000384,-1.239654541015625,8.005715942382814,7.688250732421875
1.893000000000029,-0.0459075927734375,8.078988647460939,10.123895263671876
1.90300000000002,1.9007537841796875,8.64737548828125,8.818295288085938
1.914000000000044,-0.351708984375,7.866796875,2.537628173828125
1.924000000000035,-1.734918212890625,6.669760131835938,1.7426940917968752
1.934000000000026,0.0521881103515625,6.458316040039063,6.138607788085938
1.9440000000000168,2.0994873046875,6.6202636718750005,6.117373657226563
1.954000000000008,0.3816162109375,7.117022705078125,3.508416748046875
1.9639999999999984,-0.226397705078125,9.631472778320314,4.907177734375001
1.9740000000000464,1.426873779296875,11.006607055664062,7.496246337890626
1.9840000000000373,2.0929077148437503,8.86988525390625,6.257339477539063
1.994000000000028,0.5942565917968751,6.579739379882813,4.546347045898438
2.004000000000019,-0.3050537109375,6.459661865234375,6.366052246093751
2.01600000000002,0.0677398681640625,6.6456848144531255,7.356878662109375
2.024000000000001,-0.512908935546875,6.658544921875,4.73551025390625
2.0340000000000487,-0.485394287109375,7.648175048828126,3.233270263671875
2.04400000000004,0.3354095458984375,8.761322021484375,5.923275756835938
2.055000000000007,-0.1245635986328125,8.774032592773438,8.6336181640625
2.0640000000000214,-0.9486572265625,8.2029541015625,7.593145751953125
2.075000000000045,-0.1936492919921875,8.066128540039063,5.19608154296875
2.0850000000000364,0.91217041015625,8.153756713867189,5.1775390625
2.095000000000028,0.400457763671875,7.455422973632813,5.709588623046876
2.105000000000018,-0.147442626953125,6.673947143554688,4.743734741210938
2.117000000000018,0.4149627685546875,5.936285400390625,4.603021240234376
2.125,0.7070068359375,4.891775512695313,5.09619140625
2.135000000000048,0.1993316650390625,7.081283569335938,3.891378784179688
2.1450000000000387,-0.3832611083984375,11.438467407226565,4.5032806396484375
2.1550000000000296,0.3093902587890625,12.28409423828125,6.776229858398438
2.1650000000000205,1.2146820068359376,10.183560180664063,6.373678588867188
2.175000000000012,2.2647247314453125,6.691293334960938,10.918081665039065
2.1850000000000023,1.4413787841796877,5.432498168945313,11.178274536132813
2.19500000000005,-1.5065765380859375,5.8501525878906255,4.028652954101563
2.205000000000041,-1.84766845703125,6.694732666015626,0.6168365478515625
2.216000000000008,-0.760540771484375,9.806729125976563,3.7591888427734377
2.225999999999999,0.418701171875,9.67005310058594,6.007614135742188
2.236000000000047,0.24703369140625,8.302844238281251,5.4706298828125
2.2460000000000377,0.354400634765625,7.893264770507813,7.851693725585938
2.2560000000000286,2.0420654296875003,8.462249755859375,10.289431762695314
2.26600000000002,1.04495849609375,7.962350463867188,5.789739990234375
2.2760000000000105,-0.6027801513671875,7.299307250976563,1.749871826171875
2.2860000000000014,0.64539794921875,7.171005249023438,4.520925903320313
2.296000000000049,1.173709106445313,7.481890869140625,6.807034301757813
2.30600000000004,0.2582489013671875,6.866848754882813,4.740594482421876
2.316000000000031,-0.5250213623046875,7.608547973632813,4.128543090820313
2.326000000000022,-0.413916015625,9.5033203125,6.912457275390626
2.3360000000000127,-0.3114837646484375,9.542648315429688,6.937130737304688
2.346000000000004,-1.0977447509765623,7.922573852539063,4.578497314453125
2.357000000000028,-0.66513671875,6.871334838867188,5.890826416015625
2.367000000000018,0.419000244140625,6.847109985351563,7.485180664062501
2.377000000000009,0.253912353515625,6.6908447265625,5.799310302734376
2.3870000000000005,0.0287109375,7.276278686523438,4.286004638671876
2.397000000000048,0.5163482666015625,8.408267211914064,4.8844482421875
2.407000000000039,1.242495727539063,8.765509033203125,6.32896728515625
2.41700000000003,0.8456268310546876,8.172149658203125,7.037469482421876
2.427000000000021,0.563751220703125,8.045642089843751,6.473269653320313
2.437000000000012,0.986639404296875,8.073904418945313,5.39825439453125
2.4470000000000027,0.8261871337890626,7.804888916015625,5.216717529296876
2.4570000000000505,-0.135479736328125,7.181622314453126,5.641400146484376
2.4670000000000414,-0.5087219238281251,7.021319580078125,5.350552368164063
2.4770000000000323,0.089422607421875,7.179379272460938,5.3835998535156255
2.487000000000023,1.1913543701171876,5.4299560546875005,5.5335845947265625
2.498000000000048,1.0323974609375002,5.3571319580078125,3.886593627929688
2.508000000000038,-1.1426055908203123,9.854879760742188,4.191946411132813
2.518000000000029,-0.3766815185546875,12.685598754882813,6.863708496093751
2.52800000000002,0.30924072265625,11.08062744140625,5.292980957031251
2.538000000000011,-0.339447021484375,8.526849365234376,7.264166259765625
2.548000000000002,0.1060211181640625,6.104513549804688,13.331744384765626
2.5580000000000496,0.011065673828125,5.009161376953125,8.796014404296876
2.5680000000000405,-0.1329376220703125,5.353244018554688,0.416607666015625
2.578000000000032,0.1591064453125,7.787542724609375,0.3886444091796875
2.5880000000000223,1.5907653808593751,10.455267333984375,5.1971282958984375
2.598000000000013,-1.2098968505859375,9.4949462890625,6.952084350585938
2.608000000000004,-0.8779266357421875,8.086465454101564,7.031637573242188
2.618000000000052,-0.3707000732421875,7.898498535156251,9.194229125976562
2.6280000000000427,1.73641357421875,8.602066040039062,8.54449462890625
2.6380000000000337,-0.6563140869140626,7.718756103515625,4.261630249023438
2.649000000000001,-1.8639678955078127,6.876119995117188,2.85015869140625
2.6590000000000487,0.37623291015625,7.057058715820313,5.435189819335938
2.66900000000004,1.6300933837890623,7.113583374023438,5.747869873046875
2.6790000000000305,0.1547698974609375,7.190444946289063,4.215573120117188
2.6890000000000214,-0.0357391357421875,8.870184326171875,5.251559448242188
2.6990000000000123,1.5209320068359375,10.159185791015624,6.828118896484376
2.709000000000003,2.1319366455078126,8.8298095703125,5.67938232421875
2.719000000000051,0.7926910400390625,7.156051635742188,4.542459106445313
2.729000000000042,0.0773101806640625,6.724490356445313,6.333303833007813
2.7390000000000327,0.13817138671875,6.848754882812501,7.021319580078125
2.749000000000024,-0.0435150146484375,6.701461791992188,5.4109649658203125
2.7590000000000146,-0.3061004638671875,7.5354248046875005,4.09549560546875
2.769000000000005,-0.198284912109375,8.650665283203125,5.725588989257813
2.7789999999999964,-0.2480804443359375,8.595187377929689,8.055661010742188
2.7900000000000205,-0.9561340332031252,8.131027221679688,7.335195922851563
2.800000000000012,-0.43365478515625,7.986276245117188,5.262326049804688
2.8100000000000023,0.45279541015625,8.085418701171875,4.855288696289063
2.82000000000005,0.281427001953125,7.627239990234376,5.5859222412109375
2.830000000000041,0.0509918212890625,6.970776367187501,5.187857055664063
2.840000000000032,0.736614990234375,7.141247558593751,4.764071655273438
2.8500000000000227,0.6928009033203125,6.112588500976563,5.870339965820313
2.8600000000000136,0.0737213134765625,5.298065185546875,4.993161010742188
2.8700000000000045,-0.005084228515625,8.166766357421876,3.9637542724609376
2.8800000000000523,0.30625,11.91309509277344,6.434689331054688
2.890000000000043,0.9094787597656252,11.315997314453126,5.944958496093751
2.900000000000034,1.286907958984375,8.614627075195314,5.846414184570313
2.910000000000025,1.8520050048828127,6.424520874023438,11.551965332031251
2.920000000000016,0.30625,6.163879394531251,9.56851806640625
2.93100000000004,-1.8144714355468752,6.148776245117188,2.1427032470703127
2.941000000000031,-1.6568603515625002,7.302746582031251,1.3697509765625
2.951000000000022,-0.292791748046875,10.069314575195314,5.8610687255859375
2.9610000000000127,0.30804443359375,8.974111938476563,6.476260375976563
2.971000000000004,0.1927520751953125,7.677035522460938,4.9817962646484375
2.9810000000000514,1.2919921875,7.965640258789063,8.368640136718751
2.9910000000000423,2.0259155273437504,8.769845581054689,9.520816040039064
3.001000000000033,0.3816162109375,7.957565307617188,4.253854370117188
3.011000000000024,-0.459674072265625,7.143191528320313,2.2144805908203127
3.021000000000015,1.093408203125,7.601818847656251,5.5844268798828125
3.031000000000006,1.310235595703125,7.3589721679687505,6.427362060546876
3.040999999999997,-0.0162994384765625,6.730621337890626,4.123757934570313
3.051000000000045,-0.8732910156250001,8.090203857421876,5.043704223632813
3.062000000000012,-0.27454833984375,9.628781127929688,7.548434448242188
3.0710000000000264,-0.5156005859375,8.953176879882813,5.9029388427734375
3.0820000000000505,-1.2341217041015626,7.453628540039063,4.5458984375
3.0920000000000414,-0.421392822265625,7.041207885742188,6.877764892578125
3.1020000000000323,0.3509613037109375,6.943859863281251,7.242483520507813
3.112000000000023,0.0820953369140625,6.754696655273438,5.058209228515626
3.122000000000014,0.1495361328125,7.5282470703125,4.390829467773438
3.132000000000005,0.9230865478515624,8.662777709960938,5.4718261718750005
3.1420000000000528,1.057070922851563,8.577542114257813,6.3690429687500005
3.152000000000044,0.6892120361328126,8.011248779296876,6.594842529296876
3.1620000000000346,0.8970672607421876,8.082278442382814,6.156103515625
3.172000000000025,1.0823425292968751,8.081381225585938,5.486630249023438
3.1820000000000164,0.398663330078125,7.513742065429688,5.49515380859375
3.192000000000008,-0.235369873046875,6.976907348632813,5.605661010742188
3.201999999999998,0.5254699707031251,5.669064331054688,4.9409729003906255
3.2130000000000223,1.6303924560546876,4.305743408203125,4.529898071289063
3.223000000000013,0.055328369140625,7.457516479492188,4.481597900390625
3.233000000000004,-1.8289764404296875,12.831695556640629,5.134173583984375
3.243000000000052,-0.0551788330078125,12.8337890625,5.2075958251953125
3.2530000000000427,-0.1392181396484375,9.67020263671875,5.468984985351563
3.2630000000000337,0.1819854736328125,6.097634887695313,12.364096069335938
3.273000000000025,0.7345214843750001,5.096640014648438,12.298150634765626
3.2830000000000155,-0.8350097656250001,4.874429321289063,2.9859375000000004
3.2930000000000064,-1.4016021728515626,6.246722412109375,-0.5731719970703125
3.3029999999999973,0.40733642578125,9.671099853515626,3.0065734863281253
3.313000000000045,2.03668212890625,10.390667724609376,7.637557983398438
3.323000000000036,-0.7759429931640626,8.384939575195313,7.731915283203126
3.333000000000027,-1.0174438476562502,7.544696044921875,8.187701416015626
3.3430000000000177,1.6206726074218751,8.838632202148439,8.570065307617188
3.354000000000042,0.8963195800781251,8.869287109375001,5.41739501953125
3.3640000000000327,-1.948306274414063,7.467236328125001,1.8210510253906247
3.374000000000024,-1.1137451171875,6.510354614257813,3.941772460937501
3.3840000000000146,1.670169067382813,6.744827270507813,6.5739074707031255
3.39400000000002,0.7421478271484375,6.786398315429688,5.770001220703126
3.4039999999999964,-0.7337738037109376,8.201608276367189,4.63023681640625
3.4140000000000583,0.292791748046875,10.17249450683594,6.103018188476563
3.424000000000035,2.0290557861328127,10.01234130859375,6.939523315429688
3.434000000000012,1.2417480468750002,7.636212158203126,5.2704010009765625
3.444000000000017,-0.112750244140625,6.279769897460938,5.243185424804688
3.454000000000022,0.19140625,6.5260559082031255,7.049880981445313
3.463999999999998,0.478814697265625,6.733163452148438,6.15849609375
3.4740000000000606,0.07716064453125,7.248913574218751,3.412863159179688
3.4840000000000373,0.06519775390625,8.495446777343751,3.7962738037109376
3.494000000000014,0.0997406005859375,9.22637939453125,7.014739990234376
3.5050000000000523,-0.31163330078125,8.234356689453126,8.73590087890625
3.5150000000000574,-0.4765716552734375,7.6658203125,6.902587890625001
3.525000000000034,0.20994873046875,7.879058837890626,5.139706420898438
3.535000000000011,0.3919342041015625,7.98642578125,5.305242919921875
3.545000000000016,-0.22908935546875,7.179528808593751,5.603268432617188
3.555000000000021,-0.07596435546875,6.7841552734375,4.7615295410156255
3.5649999999999977,0.629248046875,7.141397094726563,4.792333984375
3.57500000000006,0.3180633544921875,6.410763549804688,5.978005981445313
3.5850000000000364,-0.4260284423828125,6.219058227539063,4.729229736328126
3.595000000000013,-0.1523773193359375,8.771490478515625,3.8545928955078126
3.605000000000018,0.5970977783203125,12.150558471679688,6.262124633789063
3.617000000000018,1.3818634033203123,10.705441284179688,6.695330810546875
3.626000000000033,1.15382080078125,7.529592895507813,6.303546142578125
3.63600000000001,1.154718017578125,5.846414184570313,10.448388671875
3.646000000000015,0.4822540283203125,6.125897216796876,9.641641235351564
3.65600000000002,-1.5951019287109376,6.4438110351562505,2.3290252685546875
3.665999999999997,-1.5761108398437502,7.933489990234375,0.232977294921875
3.6760000000000574,0.722259521484375,10.401583862304689,5.884695434570313
3.686000000000036,0.3028106689453125,9.226678466796876,8.376266479492188
3.696000000000012,-0.2083038330078125,7.4800964355468755,5.93060302734375
3.706000000000017,1.0116119384765625,7.788888549804688,6.722695922851563
3.717000000000056,2.116534423828125,8.625393676757813,8.653955078125001
3.725999999999999,0.0946563720703125,7.627987670898438,4.755398559570313
3.736000000000061,-0.9287689208984377,6.856231689453126,1.84228515625
3.7460000000000377,1.3992095947265626,7.626641845703125,5.097686767578125
3.7560000000000144,1.3694519042968751,7.726681518554688,7.066479492187501
3.76600000000002,-0.1686767578125,7.180426025390625,5.070620727539063
3.777000000000058,-0.8065979003906251,8.31121826171875,4.850054931640625
3.7870000000000346,-0.2452392578125,9.823327636718751,7.200015258789063
3.7970000000000113,-0.17645263671875,8.628683471679688,6.505868530273438
3.807000000000016,-0.8164672851562501,6.8744750976562505,4.383502197265625
3.8170000000000215,-0.39537353515625,6.701312255859375,6.051278686523438
3.826999999999998,0.4496551513671875,7.27164306640625,7.203305053710938
3.83700000000006,0.0937591552734375,7.1454345703125,4.983590698242188
3.847000000000037,-0.1751068115234375,7.820590209960938,3.885247802734375
3.8570000000000135,0.6252105712890625,8.691638183593751,6.050680541992188
3.867000000000018,0.9972564697265626,8.570663452148438,7.261923217773438
3.8770000000000095,0.6160888671875,7.775131225585938,6.673049926757813
3.887000000000001,0.7138854980468751,7.773336791992188,5.786450195312501
3.8970000000000624,1.040771484375,7.984481811523438,5.561398315429688
3.907000000000039,0.3937286376953125,7.505667114257813,5.332009887695313
3.918000000000021,-0.2035186767578125,6.9001953125,5.037124633789063
3.927999999999997,0.8240936279296875,5.6991210937500005,5.041012573242188
3.9380000000000592,1.6004852294921876,5.512948608398438,4.828671264648438
3.948000000000036,0.1078155517578125,8.375369262695314,4.508065795898438
3.9580000000000126,-1.0615570068359377,11.746212768554688,4.841830444335938
3.9680000000000177,0.1197784423828125,11.45386962890625,5.254400634765625
3.978000000000023,-0.3745880126953125,8.962448120117188,7.122406005859376
3.988,-0.6329864501953125,6.776080322265625,11.522506713867188
3.9980000000000615,-0.3745880126953125,5.52506103515625,10.35672302246094
4.008000000000038,-0.3578399658203125,5.797366333007813,3.071920776367188
4.018000000000015,0.2426971435546875,6.952832031250001,0.9186004638671876
4.02800000000002,0.6193786621093751,9.0630859375,4.367800903320313
4.038000000000011,-0.6811370849609375,9.54937744140625,6.318051147460938
4.048000000000016,-0.7885040283203125,8.492306518554688,7.20225830078125
4.059000000000012,0.256005859375,8.136859130859376,8.037866210937501
4.0680000000000405,1.556072998046875,8.625244140625,7.943508911132813
4.079000000000022,0.6072662353515625,8.418734741210939,5.440573120117188
4.088999999999999,-1.3399932861328123,7.410263061523438,3.4363403320312504
4.099000000000061,-0.154022216796875,6.750958251953126,4.419390869140625
4.109000000000037,1.25311279296875,6.779071044921875,5.640203857421875
4.119000000000014,0.280828857421875,7.0377685546875,5.36954345703125
4.129000000000019,-0.4771697998046875,8.208337402343751,5.3466644287109375
4.13900000000001,0.3515594482421875,9.735250854492188,5.864059448242188
4.149000000000001,1.6336822509765627,9.541452026367187,6.118121337890625
4.159000000000063,1.1381195068359375,7.965042114257813,5.3765716552734375
4.16900000000004,0.0171966552734375,6.731967163085938,5.6203155517578125
4.179000000000016,0.1087127685546875,6.586468505859376,6.696975708007813
4.189000000000021,0.305950927734375,6.72374267578125,6.103466796875001
4.199000000000012,0.206060791015625,7.25908203125,4.389782714843751
4.210000000000036,0.05084228515625,8.437277221679688,4.441522216796876
4.220000000000013,-0.081048583984375,8.883941650390625,6.758734130859375
4.230000000000018,-0.056524658203125,8.226431274414063,7.999285888671875
4.240000000000023,-0.2035186767578125,7.804440307617188,6.535626220703126
4.25,0.122918701171875,7.996594238281251,5.047741699218751
4.260000000000062,0.166583251953125,7.926611328125,5.211184692382813
4.270000000000039,-0.117535400390625,7.155154418945313,5.568426513671875
4.280000000000015,0.082843017578125,6.90318603515625,4.944561767578126
4.2900000000000205,0.3904388427734375,6.205001831054688,5.291485595703126
4.300000000000011,0.0955535888671875,5.692691040039063,5.770449829101563
4.3100000000000165,-0.36187744140625,7.563537597656251,4.559954833984375
4.32000000000005,0.01495361328125,10.9639892578125,4.47830810546875
4.330000000000041,0.6368743896484376,11.574545288085938,5.71826171875
4.340000000000032,1.807293701171875,9.150714111328126,6.357678222656251
4.350999999999999,1.8561920166015624,6.816156005859376,9.6648193359375
4.361000000000061,1.0385284423828125,6.392221069335938,10.152307128906251
4.371000000000038,-1.071575927734375,6.606207275390625,4.849307250976563
4.381000000000014,-1.562503051757813,7.224240112304688,2.0532806396484378
4.39100000000002,-0.3081939697265625,9.024954223632813,4.204656982421875
4.4010000000000105,0.1329376220703125,9.027047729492187,6.221151733398438
4.411000000000001,0.19559326171875,7.76451416015625,5.665774536132813
4.421000000000063,0.4257293701171875,7.6813720703125,6.907821655273438
4.43100000000004,1.3823120117187502,8.631375122070313,8.413052368164063
4.441000000000017,0.4263275146484375,8.4182861328125,5.800955200195313
4.451000000000022,-0.4293182373046875,7.5737060546875,3.618624877929688
4.461000000000013,0.5156005859375,7.569668579101563,5.014843750000001
4.471000000000018,1.125408935546875,7.483535766601563,5.979949951171875
4.481000000000051,0.6047241210937501,6.898550415039063,5.031591796875
4.4910000000000565,-0.1218719482421875,7.4636474609375005,5.10037841796875
4.5020000000000095,-0.2438934326171875,8.982037353515626,6.272592163085938
4.5120000000000005,-0.0514404296875,9.167462158203126,5.827722167968751
4.522000000000062,-0.5594146728515625,8.069418334960938,4.958020019531251
4.532000000000039,-0.37982177734375,7.319793701171876,6.2553955078125005
4.542000000000016,0.2109954833984375,6.980795288085938,7.05032958984375
4.552000000000021,0.0035888671875,6.838735961914063,5.9039855957031255
4.562000000000012,0.0255706787109375,7.299905395507813,5.167819213867188
4.572000000000017,0.36905517578125,8.261871337890625,5.124005126953126
4.5820000000000505,0.4924224853515625,8.6216552734375,5.489620971679688
4.592000000000056,0.4774688720703125,8.203701782226563,6.618020629882813
4.602000000000032,0.5205352783203125,7.902236938476563,6.6217590332031255
4.612000000000023,0.8505615234375,7.991210937500001,5.441619873046875
4.622000000000014,0.6605010986328126,7.814160156250001,5.333505249023438
4.634000000000015,0.05921630859375,7.421627807617188,5.7424865722656255
4.643000000000015,0.21832275390625,6.651068115234375,5.411563110351563
4.65300000000002,1.20406494140625,5.271896362304688,5.0834808349609375
4.663000000000011,1.326385498046875,5.61478271484375,5.172903442382813
4.673000000000016,-0.48270263671875,8.993252563476563,4.315911865234376
4.68300000000005,-0.9966583251953126,12.76859130859375,4.312322998046875
4.6930000000000405,0.08134765625,11.773727416992188,5.217913818359375
4.703000000000031,-0.31641845703125,8.381948852539063,7.747915649414063
4.713000000000022,-0.106768798828125,5.5485382080078125,12.028536987304689
4.723000000000013,0.0967498779296875,5.2315216064453125,10.139596557617187
4.734000000000037,-0.1745086669921875,6.085971069335938,2.621817016601563
4.743000000000052,-0.5718261718750001,7.695278930664063,-0.2106964111328125
4.753000000000057,0.81168212890625,9.6959228515625,4.228433227539063
4.763000000000034,0.27813720703125,9.458160400390623,7.759579467773438
4.77300000000001,-0.81885986328125,7.755691528320313,7.733709716796875
4.783000000000016,-0.5613586425781251,7.689297485351563,7.478152465820313
4.79400000000004,2.124459838867188,9.032131958007811,7.822982788085938
4.804000000000016,-0.105572509765625,8.610440063476563,5.071218872070313
4.814000000000021,-1.848117065429688,7.211978149414063,2.4655517578125004
4.824000000000012,0.3529052734375,6.737500000000001,4.578497314453125
4.834000000000017,1.5879241943359377,6.680227661132813,6.940270996093751
4.844000000000051,0.0943572998046875,6.958663940429688,5.462255859375
4.854000000000056,-0.478515625,8.426211547851564,4.412213134765626
4.864000000000033,0.8688049316406251,10.095034790039064,6.391473388671876
4.874000000000009,1.6175323486328126,9.507806396484376,6.548635864257813
4.884000000000015,0.5860321044921876,7.587164306640625,4.548440551757813
4.89400000000002,-0.058917236328125,6.671704101562501,5.648278808593751
4.905000000000015,0.2717071533203125,6.597384643554688,7.640249633789063
4.9150000000000205,0.3122314453125,6.733013916015626,5.78226318359375
4.924000000000035,0.071478271484375,7.403085327148438,3.3896850585937504
4.9350000000000165,-0.017047119140625,8.74427490234375,4.701416015625
4.94500000000005,-0.107965087890625,8.877062988281251,7.479647827148438
4.955000000000041,-0.21234130859375,7.952182006835938,7.7746826171875005
4.965000000000032,-0.0512908935546875,7.656698608398438,6.3406311035156255
4.975000000000023,0.332568359375,8.027398681640626,5.455227661132813
4.985000000000014,0.2166778564453125,7.912255859375,5.243035888671876
4.995000000000019,-0.221612548828125,7.215118408203126,4.9322998046875
5.005000000000052,-0.10347900390625,6.174197387695313,5.00467529296875
5.015000000000057,0.35230712890625,4.860073852539063,5.462554931640625
5.025000000000034,0.2758941650390625,6.2697509765625,5.007666015625
5.035000000000011,-0.1990325927734375,10.721292114257814,4.320547485351563
5.045000000000016,0.0357391357421875,12.94190368652344,5.07047119140625
5.05600000000004,1.7083007812500002,10.33399353027344,5.725289916992188
5.066000000000017,1.959222412109375,6.716116333007813,9.100918579101563
5.076000000000022,1.3814147949218751,5.748617553710938,11.881692504882814
5.086000000000013,-0.5950042724609376,6.085073852539063,6.720751953125
5.096000000000018,-2.055075073242188,6.740640258789063,0.7781860351562501
5.106000000000051,-0.7991210937500001,8.901736450195314,2.59176025390625
5.1160000000000565,0.760540771484375,9.91409606933594,6.309677124023438
5.126000000000033,-0.2211639404296875,8.259628295898438,6.441867065429688
5.13600000000001,-0.314324951171875,7.237997436523438,6.626394653320313
5.146000000000015,1.48280029296875,8.28370361328125,8.8417724609375
5.15600000000002,1.4174530029296877,8.737246704101564,7.2267822265625
5.165999999999997,-0.4218414306640625,7.8150573730468755,2.630490112304688
5.176000000000059,-0.3395965576171875,7.291680908203125,2.888140869140625
5.186000000000036,1.4899780273437502,7.5737060546875,6.443511962890626
5.196000000000012,1.1998779296875002,6.8583251953125,6.3645568847656255
5.2070000000000505,-0.2141357421875,7.000982666015625,4.1623382568359375
5.217000000000056,-0.4726837158203125,8.936428833007813,5.699719238281251
5.227000000000032,0.2486785888671875,9.841720581054688,7.445703125
5.237000000000023,-0.389990234375,8.122952270507813,5.601473999023438
5.247000000000014,-0.7932891845703126,6.888232421875,5.125949096679688
5.257000000000019,-0.065496826171875,7.018777465820313,7.149172973632813
5.267000000000053,0.12381591796875,7.031188964843751,6.684115600585938
5.277000000000058,-0.33197021484375,7.141546630859375,4.342977905273438
5.287000000000035,0.00538330078125,8.137307739257814,4.081140136718751
5.297000000000011,0.908880615234375,8.835342407226562,5.955575561523438
5.307000000000016,0.672314453125,8.221795654296876,7.155154418945313
5.3170000000000215,0.3055023193359375,7.796365356445313,6.527999877929688
5.326999999999998,0.9230865478515624,8.030688476562501,5.71048583984375
5.338000000000022,1.1490356445312502,7.978350830078125,5.700466918945313
5.347000000000037,0.1664337158203125,7.292727661132813,5.565435791015625
5.358000000000018,-0.0438140869140625,6.657199096679688,5.084078979492188
5.368000000000052,0.8713470458984376,5.633474731445313,5.071218872070313
5.378000000000057,1.0009948730468752,5.682821655273438,5.1619873046875
5.388000000000034,-0.450103759765625,8.108746337890626,4.49027099609375
5.39800000000001,-0.9902282714843752,11.991751098632813,4.442269897460938
5.408000000000016,-0.22430419921875,11.946591186523438,5.823834228515626
5.418000000000021,-0.9111236572265624,9.388626098632812,7.4292541503906255
5.427999999999997,-0.09749755859375,6.449642944335938,10.54334411621094
5.438000000000059,0.9443206787109376,5.148080444335938,9.829608154296876
5.448000000000036,0.371148681640625,5.5914550781250005,3.857284545898438
5.458000000000013,0.3210540771484375,7.131976318359375,0.8815155029296876
5.468000000000018,1.08084716796875,9.342568969726564,3.406881713867188
5.478000000000023,0.012860107421875,9.587210083007813,6.785650634765625
5.488,-0.82364501953125,8.421575927734375,7.718905639648438
5.4980000000000615,0.1745086669921875,8.081979370117189,7.712475585937501
5.509000000000015,1.377227783203125,8.528494262695313,7.893862915039063
5.51900000000002,-0.093310546875,8.174392700195312,5.732766723632813
5.528999999999996,-1.446014404296875,7.298410034179688,2.989675903320313
5.539000000000058,-0.23507080078125,6.942214965820313,3.8759765625
5.549000000000035,0.6477905273437501,6.976309204101563,5.957070922851563
5.559000000000012,0.0052337646484375,7.147677612304688,5.482443237304688
5.569000000000017,-0.1927520751953125,8.1551025390625,5.183221435546876
5.579000000000022,0.59156494140625,9.659136962890626,6.4438110351562505
5.588999999999999,1.4694915771484376,9.543096923828124,6.471475219726563
5.599000000000061,0.978564453125,7.744326782226563,5.064340209960938
5.609000000000037,0.3013153076171875,6.672750854492188,5.948696899414063
5.619000000000014,0.35350341796875,6.644039916992188,7.019973754882813
5.629000000000019,0.3674102783203125,6.875222778320313,5.254849243164063
5.640000000000057,0.3002685546875,7.35777587890625,4.054821777343751
5.650000000000034,-0.0459075927734375,8.526400756835939,5.012451171875
5.660000000000011,-0.171368408203125,8.806930541992188,6.633123779296875
5.670000000000016,-0.1855743408203125,8.187402343750001,7.51090087890625
5.680000000000021,-0.39656982421875,7.836441040039063,6.965243530273438
5.689999999999998,-0.0203369140625,8.034725952148438,5.352795410156251
5.70000000000006,0.1030303955078125,7.643539428710938,5.0256103515625
5.710000000000036,-0.2068084716796875,7.097283935546876,5.660690307617188
5.720000000000013,-0.347821044921875,5.5092102050781255,5.144491577148438
5.730000000000018,0.18662109375,4.566384887695313,3.9493988037109378
5.740000000000023,0.658856201171875,7.73759765625,4.853643798828125
5.75,-0.2415008544921875,12.33000183105469,5.7110839843750005
5.760000000000062,0.518292236328125,12.0406494140625,4.430755615234375
5.770000000000039,2.3368011474609376,9.207238769531251,5.719757080078125
5.780000000000015,2.50323486328125,6.182421875,12.677224731445314
5.790999999999997,1.3933776855468751,6.024960327148438,10.357321166992188
5.801000000000059,-1.5942047119140623,6.0270538330078125,1.9376892089843751
5.811000000000036,-1.838546752929688,7.066778564453125,1.3465728759765625
5.821000000000012,-0.351708984375,9.56717224121094,6.427212524414063
5.831000000000017,-0.045758056640625,9.056954956054687,6.1970764160156255
5.841000000000022,-0.6603515625,7.612435913085938,4.473074340820313
5.850999999999999,0.26856689453125,8.167962646484376,8.679525756835938
5.861000000000061,1.447509765625,9.0523193359375,10.135260009765624
5.871000000000038,0.1173858642578125,8.187252807617188,4.006222534179688
5.881000000000014,-0.8457763671875,7.387384033203125,1.248477172851563
5.89100000000002,0.8873474121093751,7.636361694335938,5.5107055664062505
5.9010000000000105,1.4632110595703125,7.177734375000001,6.744378662109376
5.911000000000001,0.6147430419921875,6.370239257812501,4.100579833984376
5.921000000000063,0.16448974609375,7.672698974609376,4.819100952148438
5.93100000000004,0.49466552734375,9.72283935546875,7.613034057617188
5.9420000000000215,0.1945465087890625,9.2461181640625,6.467587280273438
5.951999999999998,-0.67889404296875,7.624249267578126,4.851101684570313
5.96200000000006,-0.222509765625,7.046890258789063,6.851296997070313
5.972000000000037,0.2639312744140625,6.976309204101563,7.263717651367188
5.9820000000000135,-0.4179534912109375,6.726583862304688,5.002282714843751
5.992000000000019,-0.6634918212890626,7.465292358398438,3.9808013916015614
6.0020000000000095,0.1040771484375,8.597879028320314,4.988973999023438
6.0120000000000005,0.4631134033203125,8.67130126953125,6.066830444335938
6.022000000000062,0.1280029296875,8.219104003906251,6.505569458007813
6.032000000000039,0.466552734375,8.022015380859376,6.683218383789063
6.042000000000016,1.1393157958984377,8.077642822265625,6.236553955078126
6.052999999999997,0.87149658203125,7.43314208984375,5.806338500976563
6.063000000000059,0.258697509765625,6.924569702148438,5.5256591796875005
6.073000000000036,0.7215118408203125,6.338687133789063,5.087069702148438
6.083000000000013,1.4318084716796875,5.185015869140625,4.460812377929688
6.093000000000018,0.9495544433593752,6.997393798828125,4.306341552734375
6.103000000000023,-0.6282012939453125,10.103707885742187,4.837344360351563
6.113,0.0007476806640625,11.363699340820313,4.817156982421875
6.1230000000000615,-0.392083740234375,10.14737243652344,5.914303588867188
6.13600000000001,-1.7972747802734377,8.811715698242189,10.408612060546876
6.143000000000015,-0.9606201171875,6.877316284179688,10.83060302734375
6.15300000000002,0.195294189453125,5.641848754882813,5.051181030273438
6.163000000000011,0.822149658203125,5.548687744140626,2.5925079345703126
6.173000000000016,0.996807861328125,7.772290039062501,4.603021240234376
6.18300000000005,-0.1069183349609375,8.992803955078125,4.6647796630859375
6.1930000000000405,-0.8065979003906251,9.128433227539062,5.239297485351563
6.203000000000031,0.142059326171875,8.783901977539063,7.796813964843751
6.213999999999999,1.3613769531250002,8.720199584960938,8.49365234375
6.224000000000061,0.822149658203125,8.062240600585938,6.2150207519531255
6.235000000000014,-0.6762023925781251,7.624099731445313,4.729678344726563
6.244000000000014,-0.3046051025390625,7.112088012695313,4.794427490234376
6.254000000000019,0.42049560546875,7.018478393554688,4.28570556640625
6.26400000000001,0.0635528564453125,7.092349243164063,4.614984130859376
6.274000000000001,-0.404345703125,7.619165039062499,5.8775177001953125
6.284000000000063,0.0512908935546875,8.74786376953125,6.321640014648438
6.29400000000004,0.9335540771484376,9.27527770996094,6.088513183593751
6.304000000000016,1.1025299072265626,8.806182861328125,5.833255004882813
6.314000000000021,0.39716796875,7.593893432617188,5.547940063476563
6.324000000000012,0.013458251953125,6.868942260742188,5.791534423828125
6.335000000000036,0.3195587158203125,6.705648803710938,6.196926879882813
6.345000000000013,0.582891845703125,6.766659545898438,5.35458984375
6.356000000000051,0.365167236328125,7.594940185546876,4.399801635742188
6.365000000000023,0.00777587890625,8.734704589843751,5.634072875976563
6.375,0.0491973876953125,8.786593627929689,7.416244506835938
6.385000000000062,-0.06639404296875,8.151214599609375,6.94864501953125
6.395000000000039,-0.05203857421875,7.904928588867188,5.725439453125
6.405000000000015,0.1114044189453125,7.938424682617188,5.557659912109376
6.4150000000000205,-0.14893798828125,7.348355102539063,5.6991210937500005
6.425000000000011,-0.3727935791015625,6.535476684570313,4.940225219726563
6.4350000000000165,-0.0575714111328125,5.121612548828125,4.557562255859375
6.44500000000005,0.3237457275390625,5.705850219726563,4.993609619140625
6.455000000000041,-0.0136077880859375,8.997888183593751,5.260382080078125
6.465000000000032,-0.249127197265625,12.630120849609376,4.804595947265625
6.475000000000023,1.287506103515625,11.234799194335938,5.092602539062501
6.485000000000014,2.3604278564453125,8.134017944335938,7.795767211914063
6.496000000000038,1.7622833251953127,5.722149658203126,11.607443237304688
6.506000000000014,0.3016143798828125,6.057110595703126,7.877264404296875
6.51600000000002,-1.8125274658203123,6.310125732421875,2.046551513671876
6.5260000000000105,-1.329376220703125,7.795318603515626,2.469439697265625
6.536000000000001,0.5902191162109376,9.507656860351563,5.993856811523438
6.546000000000063,-0.2950347900390625,8.911904907226564,6.239694213867188
6.55600000000004,-0.6045745849609375,7.8494506835937505,6.059353637695313
6.566000000000017,0.8048034667968751,8.157644653320313,8.73829345703125
6.576000000000022,1.317413330078125,8.763116455078126,8.0402587890625
6.586000000000013,-0.2567535400390625,7.9110595703125,3.393423461914063
6.596000000000018,-0.49466552734375,7.294821166992188,2.6641357421875003
6.606000000000051,1.15980224609375,7.391122436523438,5.908770751953125
6.6160000000000565,1.4056396484375,7.206295776367188,5.99161376953125
6.626000000000033,0.4457672119140625,6.917691040039063,4.505374145507813
6.6370000000000005,-0.0904693603515625,8.429351806640625,5.710784912109375
6.647000000000062,0.2525665283203125,9.660183715820311,7.282409667968751
6.658000000000016,0.123516845703125,8.815454101562501,5.664578247070313
6.667000000000016,-0.4828521728515625,7.3404296875,4.9937591552734375
6.677000000000021,-0.176751708984375,6.956570434570313,6.739144897460938
6.688000000000059,0.1260589599609375,6.8798583984375,6.636862182617188
6.697000000000017,-0.36187744140625,6.887484741210938,4.946804809570313
6.7070000000000505,-0.4335052490234375,7.742083740234375,4.491616821289063
6.717000000000056,0.241949462890625,8.742929077148439,5.4132080078125
6.727000000000032,0.385504150390625,8.617617797851564,6.455474853515626
6.737000000000023,0.19439697265625,8.08392333984375,6.75364990234375
6.747000000000014,0.7149322509765625,7.811468505859375,6.420034790039063
6.757000000000019,1.11494140625,7.887881469726563,5.774935913085938
6.767000000000053,0.5359375000000001,7.331607055664063,5.518930053710938
6.777000000000058,0.28292236328125,6.905130004882813,5.044302368164063
6.788000000000011,1.1191284179687502,5.641998291015625,4.7675109863281255
6.798000000000016,1.634280395507813,5.667269897460938,4.811773681640625
6.80800000000005,0.2899505615234375,7.778121948242188,5.0280029296875
6.8180000000000405,-0.817364501953125,11.457757568359376,4.5436553955078125
6.828000000000031,-0.2163787841796875,12.304281616210938,5.130584716796875
6.838000000000022,-0.616986083984375,10.069015502929688,7.128536987304688
6.848000000000013,-0.7113433837890626,6.584973144531251,10.38319091796875
6.858000000000018,0.0468048095703125,4.999890136718751,9.754241943359377
6.868000000000052,-0.26378173828125,5.287448120117188,4.781118774414063
6.878000000000057,-0.1173858642578125,6.812716674804688,1.739404296875
6.888000000000034,0.115142822265625,8.948092651367189,2.80230712890625
6.89800000000001,-0.1831817626953125,9.62354736328125,6.126046752929688
6.908000000000016,-0.50782470703125,8.777322387695314,8.186056518554688
6.918000000000021,0.209051513671875,8.119512939453125,8.282058715820312
6.927999999999997,1.6040740966796876,8.507110595703125,7.40263671875
6.939000000000021,0.7852142333984375,8.298806762695314,5.764617919921875
6.949000000000012,-1.075164794921875,7.5641357421875,3.474172973632813
6.959000000000017,-0.2008270263671875,6.80509033203125,3.464303588867188
6.969000000000051,1.0041351318359375,6.834548950195313,5.394815063476563
6.979000000000056,0.3174652099609375,7.038516235351563,5.960659790039063
6.989000000000033,-0.3153717041015625,8.074502563476564,5.340533447265625
6.999000000000009,0.3856536865234375,9.560144042968751,6.161785888671876
7.009000000000015,0.9162078857421876,9.714016723632811,6.652713012695313
7.01900000000002,0.5824432373046875,8.3441162109375,5.1373138427734375
7.028999999999996,0.2080047607421875,6.860867309570313,5.2696533203125
7.039000000000058,0.107366943359375,6.353042602539063,7.0658813476562505
7.049000000000035,0.154022216796875,6.477157592773438,6.112438964843751
7.0600000000000165,0.4358978271484375,7.239492797851563,3.921435546875
7.069000000000017,0.34512939453125,8.449838256835939,4.410418701171875
7.080000000000041,-0.0282623291015625,9.010000610351565,6.436483764648438
7.090000000000032,0.00418701171875,8.460903930664063,7.273886108398438
7.100000000000023,0.1517791748046875,7.757186889648438,7.149472045898438
7.110000000000014,0.3063995361328125,7.75972900390625,6.301452636718751
7.120000000000019,0.2133880615234375,7.766757202148438,5.1069580078125005
7.130000000000052,-0.0901702880859375,7.350448608398438,4.875775146484376
7.140000000000057,-0.240155029296875,6.725088500976563,5.313467407226563
7.152000000000058,-0.061309814453125,5.2161193847656255,5.131781005859375
7.160000000000011,0.1184326171875,6.130831909179688,4.325033569335938
7.170000000000016,-0.270660400390625,9.730316162109377,5.051779174804688
7.180000000000021,-0.2743988037109375,12.047378540039062,5.954827880859376
7.189999999999998,1.2261962890625,10.20120544433594,4.397259521484376
7.20000000000006,2.391531372070313,7.783804321289063,7.927508544921875
7.210000000000036,2.3538482666015628,5.9039855957031255,12.31998291015625
7.221000000000018,-0.2009765625,6.609497070312501,6.392221069335938
7.231000000000051,-2.0410186767578127,6.575701904296875,1.1421569824218751
7.241000000000056,-0.8934783935546876,8.069567871093751,4.054971313476563
7.2520000000000095,0.3683074951171875,9.287091064453126,7.097134399414063
7.26100000000001,-0.2705108642578125,8.368939208984376,5.397805786132813
7.271000000000015,-0.3505126953125,7.752401733398438,5.498443603515625
7.282000000000039,0.8393463134765625,8.683563232421875,9.37890625
7.290999999999997,0.8284301757812501,8.7580322265625,7.763018798828125
7.301000000000059,-0.5627044677734375,7.787991333007813,2.2185180664062503
7.3110000000000355,-0.0659454345703125,7.284204101562499,3.453536987304688
7.321000000000012,1.218121337890625,7.523162841796876,6.995300292968751
7.331000000000017,1.18253173828125,7.041656494140626,5.531192016601563
7.342000000000056,0.41331787109375,7.014590454101563,4.015045166015625
7.352000000000032,0.204266357421875,8.649618530273438,6.238497924804688
7.362000000000023,0.5012451171875001,9.526199340820312,7.100872802734376
7.372000000000014,-0.1496856689453125,8.532681274414063,5.157351684570313
7.382000000000019,-0.581097412109375,7.46065673828125,5.154061889648438
7.392000000000053,0.042169189453125,7.145135498046876,6.892419433593751
7.402000000000058,0.24822998046875,6.851446533203125,6.312069702148438
7.412000000000035,-0.3704010009765625,6.839035034179688,5.1141357421875
7.422000000000011,-0.56046142578125,7.824627685546876,4.859475708007813
7.432000000000016,0.201275634765625,8.660235595703126,5.451190185546875
7.442000000000021,0.3195587158203125,8.417837524414063,6.37442626953125
7.451999999999998,0.097796630859375,8.06717529296875,6.654507446289063
7.46200000000006,0.7985229492187501,7.953079223632813,6.149075317382813
7.472000000000037,1.0579681396484375,7.868142700195313,5.783459472656251
7.482000000000013,0.516796875,7.333999633789063,5.831460571289063
7.493000000000052,0.3004180908203125,7.012796020507813,5.012301635742188
7.503000000000057,1.1177825927734375,5.913107299804688,4.88145751953125
7.513000000000034,1.60242919921875,6.037670898437501,5.355337524414063
7.52300000000001,0.3991119384765625,8.030688476562501,4.846765136718751
7.533000000000015,-0.453692626953125,10.554559326171876,3.7844604492187504
7.543000000000021,0.1487884521484375,11.02664489746094,5.0819854736328125
7.552999999999997,-0.8396453857421876,9.344064331054687,7.744476318359376
7.563000000000059,-1.41580810546875,7.6326232910156255,9.50272216796875
7.573000000000036,-0.252716064453125,6.394613647460938,9.153256225585938
7.583000000000013,0.2415008544921875,5.956622314453125,5.7051025390625005
7.593000000000018,0.2259490966796875,6.4438110351562505,3.0852294921875
7.603000000000023,0.09869384765625,8.464642333984376,3.3104309082031254
7.612999999999999,-0.3336151123046875,9.366943359375,5.617623901367188
7.623000000000061,-0.5767608642578126,8.75982666015625,6.807034301757813
7.633000000000038,0.0327484130859375,8.093643188476562,6.7386962890625
7.64400000000002,1.2372619628906252,8.361611938476564,7.1361633300781255
7.653999999999996,0.7318298339843751,8.227029418945314,6.778323364257813
7.664000000000058,-0.5807983398437501,7.560995483398438,4.385894775390625
7.674000000000035,0.0650482177734375,7.258035278320313,4.035830688476563
7.684000000000012,0.8930297851562501,7.238894653320313,5.310626220703125
7.694000000000017,0.150732421875,7.411309814453125,5.749365234375
7.704000000000022,-0.1818359375,7.724139404296875,5.4737701416015625
7.713999999999999,0.3671112060546875,8.795416259765625,5.7768798828125005
7.724000000000061,0.9852935791015626,9.16058349609375,6.320892333984376
7.734000000000037,0.9526947021484377,8.18201904296875,5.587118530273438
7.744000000000014,-0.0192901611328125,7.204650878906251,5.233914184570313
7.754000000000019,-0.1568634033203125,7.032833862304688,6.526654052734376
7.76400000000001,0.2821746826171875,6.904382324218751,6.267956542968751
7.775000000000034,0.320306396484375,7.138705444335938,4.78216552734375
7.785000000000011,0.0689361572265625,8.10306396484375,4.981646728515625
7.795000000000016,-0.0007476806640625,8.796313476562501,6.13516845703125
7.805000000000021,0.158209228515625,8.312713623046875,6.8655029296875005
7.814999999999998,0.1114044189453125,7.8015991210937505,6.565682983398438
7.82500000000006,0.2092010498046875,7.948593139648438,5.692242431640626
7.835000000000036,0.2423980712890625,7.7890380859375,5.340084838867188
7.845000000000013,-0.165087890625,7.195379638671875,5.351748657226563
7.855000000000018,-0.3485687255859375,5.19010009765625,5.208493041992188
7.865000000000023,0.179144287109375,4.935739135742188,4.329519653320313
7.875,0.3883453369140625,8.53253173828125,5.553173828125001
7.885000000000062,-0.6596038818359375,12.341665649414065,5.75714111328125
7.895000000000039,0.322698974609375,11.206985473632812,3.6440460205078127
7.905000000000015,2.106964111328125,8.433538818359375,6.737051391601563
7.91500000000002,2.4674957275390628,6.174795532226563,12.574493408203129
7.925000000000011,0.362176513671875,6.361416625976563,7.884442138671876
7.9360000000000355,-1.7883026123046877,6.194384765625,1.268963623046875
7.946000000000012,-0.831121826171875,7.640997314453125,3.583184814453125
7.956000000000017,0.676800537109375,9.344363403320314,7.138705444335938
7.966000000000022,-0.201873779296875,8.590850830078125,5.173501586914063
7.975999999999999,-0.414813232421875,7.6565490722656255,4.769754028320313
7.986000000000061,1.038079833984375,8.508157348632814,9.676333618164064
7.996000000000038,1.1669799804687502,8.842520141601563,8.806332397460938
8.006000000000014,-0.293389892578125,7.981192016601563,2.294332885742188
8.01600000000002,-0.338848876953125,7.502377319335938,2.5492919921875004
8.02600000000001,0.7880554199218751,7.7232421875,6.929354858398438
8.036000000000001,0.8103363037109376,7.119714355468751,5.8917236328125
8.046000000000063,0.261090087890625,6.695629882812501,3.699822998046875
8.05600000000004,0.1685272216796875,8.163327026367188,6.1182708740234375
8.067000000000021,0.2875579833984375,9.577191162109376,7.539013671875001
8.076999999999998,-0.2068084716796875,8.801547241210939,5.35159912109375
8.08700000000006,-0.6177337646484375,7.557107543945313,4.858279418945313
8.097000000000037,0.031402587890625,7.116424560546876,7.101321411132813
8.107000000000014,0.5259185791015626,6.863708496093751,6.718807983398438
8.117000000000019,-0.131591796875,6.845166015625001,4.704556274414063
8.12700000000001,-0.3973175048828125,7.706942749023438,4.704855346679688
8.137,0.343035888671875,8.643487548828126,5.487826538085938
8.147000000000062,0.5191894531250001,8.49783935546875,6.070867919921875
8.157000000000039,0.095404052734375,8.042501831054688,6.544448852539063
8.167000000000016,0.615789794921875,7.955023193359375,6.608898925781251
8.177000000000021,1.0119110107421876,7.9571166992187505,5.978604125976563
8.187000000000012,0.4317108154296875,7.359271240234375,5.543753051757813
8.197000000000017,0.09390869140625,6.933242797851563,5.128491210937501
8.208000000000013,0.8628234863281251,5.786450195312501,4.898953247070313
8.218000000000018,1.4376403808593752,5.837591552734375,4.9204864501953125
8.228000000000023,0.116937255859375,8.250955200195314,5.121911621093751
8.238,-0.42886962890625,11.127432250976565,4.550982666015625
8.248000000000062,0.156414794921875,10.9209228515625,4.839437866210938
8.258000000000038,-1.0606597900390626,9.288885498046875,7.3350463867187505
8.268000000000015,-1.00428466796875,7.122406005859376,10.706637573242189
8.27800000000002,0.1517791748046875,6.266610717773438,8.321685791015625
8.288000000000011,0.369952392578125,5.93060302734375,3.4657989501953126
8.298000000000016,0.6702209472656251,6.714022827148438,2.977862548828125
8.30800000000005,0.0805999755859375,8.508755493164063,5.046694946289063
8.31800000000004,-0.59036865234375,9.061441040039064,6.057559204101563
8.328000000000031,-0.431561279296875,8.628833007812501,6.835745239257813
8.338000000000022,0.454888916015625,8.378060913085939,7.79501953125
8.34900000000006,1.304852294921875,8.6934326171875,7.489816284179688
8.358000000000018,0.073870849609375,8.205795288085938,5.405282592773438
8.369000000000014,-0.9304138183593752,7.368392944335938,3.817358398437501
8.379000000000019,0.267071533203125,7.072161865234375,4.586871337890625
8.38900000000001,0.7076049804687501,7.035076904296876,5.349804687500001
8.399000000000001,-0.1912567138671875,7.421478271484376,5.0580596923828125
8.409000000000063,-0.153424072265625,8.246469116210939,5.557211303710938
8.41900000000004,0.7303344726562501,9.36499938964844,6.14952392578125
8.429000000000016,1.1092590332031251,9.201406860351565,5.870938110351563
8.439000000000021,0.6428558349609376,7.880853271484375,5.308981323242188
8.449000000000012,0.070880126953125,6.82303466796875,6.146084594726563
8.459000000000017,0.050543212890625,6.734808349609375,6.849652099609376
8.469000000000051,0.2995208740234375,6.820941162109375,5.571566772460938
8.479000000000056,0.401055908203125,7.407571411132813,4.2710510253906255
8.489000000000033,0.1727142333984375,8.370733642578125,5.097686767578125
8.5,0.0653472900390625,8.733657836914062,6.73271484375
8.510000000000062,0.019140625,8.066577148437501,7.293624877929688
8.520000000000039,-0.021234130859375,7.819992065429688,6.518728637695313
8.530000000000015,0.1712188720703125,8.109793090820313,5.375823974609375
8.54000000000002,0.134881591796875,7.88175048828125,5.160940551757813
8.550000000000011,-0.260491943359375,7.12808837890625,5.236157226562501
8.560000000000016,-0.344232177734375,5.601025390625001,4.991217041015625
8.57000000000005,0.0139068603515625,4.948748779296875,4.419839477539063
8.580000000000041,0.2726043701171875,7.802944946289063,5.523416137695313
8.590000000000032,-0.5208343505859375,11.94375,5.740542602539063
8.600000000000023,0.158807373046875,11.557946777343751,4.46275634765625
8.610000000000014,2.351754760742188,8.856875610351564,6.123355102539063
8.620000000000019,2.376129150390625,6.239993286132813,11.71884765625
8.630000000000052,1.104922485351563,6.181375122070313,8.844464111328126
8.64100000000002,-1.502838134765625,6.314013671875,1.7054595947265627
8.652000000000058,-1.4772674560546877,7.160687255859376,2.8556915283203126
8.661000000000001,0.5668914794921875,9.1456298828125,7.123452758789063
8.671000000000063,-0.1664337158203125,9.113180541992188,6.097036743164063
8.68100000000004,-0.3982147216796875,8.027249145507813,5.022470092773438
8.691000000000017,0.7409515380859375,8.31361083984375,8.662927246093751
8.701000000000022,1.253411865234375,8.806930541992188,8.980691528320314
8.711000000000013,0.0480010986328125,7.897750854492188,3.6020263671875004
8.721000000000018,-0.6776977539062501,7.213623046875001,2.032345581054688
8.731000000000051,0.679791259765625,7.533181762695313,5.745477294921876
8.741000000000057,1.11673583984375,7.286297607421876,6.05980224609375
8.75200000000001,0.3671112060546875,6.922177124023438,4.236956787109375
8.76100000000001,0.1146942138671875,8.045791625976562,5.687008666992188
8.772000000000062,0.3337646484375,9.5547607421875,7.411459350585938
8.782000000000039,-0.009271240234375,9.011196899414063,5.963949584960938
8.792000000000016,-0.6126495361328126,7.517031860351563,5.065386962890625
8.802000000000021,-0.1878173828125,6.9013916015625005,6.6561523437500005
8.812000000000012,0.445916748046875,6.862960815429688,6.642095947265625
8.822000000000017,-0.091217041015625,6.835296630859376,5.020376586914063
8.83200000000005,-0.5187408447265626,7.651315307617188,4.446905517578125
8.842000000000056,0.173162841796875,8.65814208984375,5.162884521484376
8.853000000000023,0.47672119140625,8.679675292968751,6.260629272460938
8.862000000000023,0.1870697021484375,8.185159301757814,6.753201293945313
8.872000000000014,0.5298065185546875,7.893264770507813,6.439324951171876
8.88200000000002,0.9434234619140626,7.924368286132813,5.875125122070313
8.892000000000053,0.609808349609375,7.301849365234376,5.8057403564453125
8.902000000000058,0.2047149658203125,6.888381958007813,5.335299682617188
8.912000000000035,0.8930297851562501,5.811273193359376,4.678237915039063
8.923000000000016,1.6638885498046876,5.7006164550781255,4.470382690429688
8.93300000000005,0.2932403564453125,8.114428710937501,4.718463134765625
8.94300000000004,-0.3198577880859375,11.004214477539064,4.63382568359375
8.953000000000031,0.1176849365234375,10.857070922851562,4.995553588867188
8.963000000000022,-1.176699829101563,9.6217529296875,7.06767578125
8.973000000000013,-0.9902282714843752,7.640997314453125,11.595928955078126
8.983000000000018,-0.3201568603515625,6.205151367187501,9.422869873046876
8.993000000000052,0.2570526123046875,5.690896606445313,3.242391967773438
9.003000000000057,0.6436035156250001,6.402239990234375,2.81307373046875
9.013000000000034,0.0512908935546875,8.608346557617189,5.2475219726562505
9.02300000000001,-0.7116424560546876,9.280661010742188,5.266812133789063
9.033000000000015,-0.5600128173828125,8.667413330078126,5.612091064453125
9.04300000000002,0.5402740478515625,8.4757080078125,8.013491821289064
9.054000000000016,1.3968170166015623,8.581878662109375,8.417687988281251
9.06400000000002,0.294287109375,8.047735595703125,5.331710815429688
9.074000000000012,-0.863720703125,7.368243408203125,3.8309661865234377
9.084000000000016,0.1966400146484375,7.380953979492188,4.777679443359375
9.094000000000053,0.8867492675781251,7.186407470703125,4.906729125976563
9.104000000000056,0.0904693603515625,7.156201171875001,4.759735107421875
9.114000000000033,-0.26856689453125,7.799505615234375,5.845217895507813
9.12400000000001,0.6290985107421876,9.086114501953126,6.399099731445313
9.134000000000016,1.2679168701171877,9.100469970703124,5.906228637695313
9.14400000000002,0.6102569580078125,8.014987182617189,5.624053955078125
9.153999999999996,-0.10108642578125,7.313812255859376,6.053671264648438
9.164000000000058,0.10347900390625,6.994403076171875,6.414053344726563
9.174000000000037,0.32957763671875,6.799557495117188,5.7619262695312505
9.184000000000012,0.20157470703125,7.023712158203126,4.8766723632812505
9.194000000000017,0.151629638671875,8.243927001953125,4.702462768554688
9.204000000000022,-0.003289794921875,8.769696044921876,6.173001098632813
9.215000000000032,-0.067889404296875,8.437725830078126,7.120462036132813
9.225000000000025,0.016448974609375,7.925415039062501,6.370388793945313
9.235000000000014,0.26318359375,8.044146728515626,5.47900390625
9.24500000000002,0.1894622802734375,7.707989501953126,5.867349243164063
9.255000000000052,-0.0402252197265625,7.233062744140626,5.750262451171875
9.265000000000056,-0.2558563232421875,6.155654907226563,4.835250854492188
9.275000000000034,-0.1251617431640625,4.688555908203125,4.306042480468751
9.28500000000001,0.241949462890625,6.902288818359375,4.8392883300781255
9.295000000000016,-0.34931640625,11.264407348632814,5.540762329101563
9.30500000000002,-0.203668212890625,11.8947021484375,4.71995849609375
9.314999999999998,2.001242065429688,9.75379333496094,4.752108764648438
9.32500000000006,2.5847320556640625,6.8355957031250005,11.48721618652344
9.335000000000036,1.8520050048828127,6.184515380859375,11.309268188476564
9.346000000000018,-1.0697814941406252,5.943911743164063,3.103173828125
9.356000000000051,-1.837948608398437,6.507962036132813,1.5708770751953127
9.366000000000057,-0.09749755859375,9.10660095214844,6.517532348632813
9.376000000000031,-0.0107666015625,9.54578857421875,6.29307861328125
9.38600000000001,-0.6732116699218751,8.117568969726562,3.555221557617188
9.396000000000017,0.238360595703125,7.918087768554688,7.774383544921876
9.40600000000002,1.44930419921875,8.879904174804688,10.48352966308594
9.415999999999997,0.2687164306640625,8.212075805664064,5.165127563476563
9.42600000000006,-0.8074951171875001,7.42177734375,0.9829010009765624
9.436000000000035,0.6922027587890626,7.525704956054688,5.060153198242188
9.446000000000012,1.3519561767578123,7.588360595703126,7.287643432617188
9.456000000000016,0.5908172607421875,6.708489990234376,4.421484375
9.466000000000022,0.1137969970703125,7.315008544921875,4.40054931640625
9.476,0.5055816650390625,9.194378662109376,7.679876708984375
9.48600000000006,0.3276336669921875,9.371578979492188,6.852044677734376
9.496000000000038,-0.69803466796875,7.874124145507813,4.347613525390625
9.50700000000002,-0.5073760986328125,7.339981079101563,5.707943725585938
9.517000000000053,0.3491668701171875,7.099377441406251,7.35777587890625
9.527000000000058,-0.00478515625,6.713723754882813,5.648577880859375
9.537000000000036,-0.6359771728515625,6.969729614257813,4.336099243164063
9.547000000000011,-0.16329345703125,8.439968872070313,5.151370239257813
9.557000000000016,0.4861419677734375,8.7771728515625,6.168215942382813
9.56700000000002,0.15970458984375,8.325274658203126,6.160440063476563
9.576999999999998,0.3122314453125,7.988668823242188,6.434091186523438
9.58700000000006,1.0614074707031251,8.049679565429688,6.380258178710938
9.597000000000037,0.9413299560546876,7.489517211914063,5.8677978515625
9.607000000000014,0.36666259765625,6.733163452148438,5.224194335937501
9.61700000000002,0.8115325927734376,5.737252807617188,4.573263549804688
9.628000000000055,1.6045227050781252,5.914004516601563,4.739248657226563
9.638000000000034,0.456683349609375,7.933041381835938,5.080490112304688
9.64800000000001,-0.5136566162109375,10.577886962890624,4.372286987304688
9.658000000000015,0.0372344970703125,10.7749755859375,4.8333068847656255
9.66900000000004,-1.1536712646484375,9.9519287109375,7.414749145507813
9.677999999999995,-1.1735595703125,7.940368652343751,10.74686279296875
9.68800000000006,-0.0940582275390625,6.269601440429688,8.687600708007814
9.698000000000036,0.216827392578125,5.5575103759765625,4.161141967773438
9.708000000000013,0.5067779541015626,6.389080810546876,3.695785522460938
9.718000000000018,0.007476806640625,8.457015991210938,4.471728515625
9.728000000000025,-0.477020263671875,9.1719482421875,4.642648315429688
9.738,-0.300567626953125,8.771340942382814,6.098681640625
9.748000000000062,0.509320068359375,8.497689819335939,8.033679199218751
9.758000000000038,1.3224975585937502,8.44879150390625,7.982089233398438
9.76900000000002,0.3180633544921875,7.9828369140625,5.692691040039063
9.778999999999996,-0.61907958984375,7.4666381835937505,4.516888427734376
9.789000000000058,0.3159698486328125,7.397552490234376,4.66851806640625
9.799000000000037,0.4945159912109375,7.26207275390625,4.562796020507813
9.809000000000012,-0.0509918212890625,7.328018188476563,5.120864868164063
9.819000000000017,-0.048150634765625,7.831655883789063,5.959014892578125
9.829000000000022,0.4350006103515625,8.883044433593751,6.03946533203125
9.839,1.06409912109375,9.1193115234375,5.887985229492188
9.84900000000006,0.5834899902343751,8.237646484375,5.611343383789063
9.859000000000036,-0.0246734619140625,7.320242309570313,5.677587890625
9.869000000000014,0.0803009033203125,6.959561157226563,6.228329467773438
9.87900000000002,0.3541015625,6.770846557617188,6.1791320800781255
9.88900000000001,0.3321197509765625,7.042852783203125,5.055368041992188
9.899,0.1878173828125,8.083026123046876,4.811923217773438
9.909000000000065,0.0405242919921875,8.806631469726563,6.14713134765625
9.91900000000004,0.0037384033203125,8.419931030273439,6.983038330078125
9.93000000000002,-0.0602630615234375,7.926162719726563,6.331359863281251
9.939999999999998,0.262286376953125,7.967135620117188,5.749215698242188
9.95000000000006,0.289501953125,7.788739013671876,5.700167846679688
9.960000000000036,-0.1209747314453125,7.280764770507813,5.254400634765625
9.970000000000011,-0.095404052734375,6.585421752929688,4.946206665039063
9.980000000000018,-0.0665435791015625,4.846615600585938,4.92930908203125
9.990000000000023,0.0765625,6.386538696289063,4.6598449707031255
10.0,-0.177349853515625,10.634710693359375,5.413656616210938
10.010000000000062,-0.1703216552734375,12.024948120117188,5.335897827148438
10.02000000000004,1.624859619140625,9.924563598632814,4.226788330078126
10.030000000000015,2.24005126953125,7.195379638671875,10.03626708984375
10.04000000000002,1.9107727050781247,6.1836181640625005,12.006106567382814
10.050000000000011,-0.799420166015625,5.953482055664063,4.530047607421875
10.060000000000016,-1.7839660644531252,6.51199951171875,1.2191680908203126
10.071000000000012,-0.1807891845703125,9.055010986328126,5.449993896484376
10.081000000000016,0.25540771484375,9.6624267578125,6.5425048828125005
10.091000000000022,-0.33316650390625,8.103662109375001,4.103121948242188
10.101,-0.1592559814453125,7.895657348632813,6.946102905273438
10.11100000000006,1.1424560546875,8.683413696289064,10.392013549804688
10.121000000000038,0.418701171875,8.250656127929688,6.171804809570313
10.131000000000014,-0.922039794921875,7.4660400390625,1.6025787353515626
10.14100000000002,0.5262176513671876,7.577444458007813,4.445709228515625
10.15100000000001,1.43076171875,7.637258911132813,6.9612060546875005
10.161,0.6608001708984376,6.694284057617188,4.909869384765625
10.171000000000063,0.0342437744140625,7.175042724609376,4.235311889648438
10.18100000000004,0.4996002197265625,9.052020263671876,7.11552734375
10.191000000000017,0.5453582763671876,9.472515869140626,6.83798828125
10.201000000000022,-0.5562744140625,8.198168945312501,4.3343048095703125
10.21200000000006,-0.45758056640625,7.434039306640625,5.5436035156250005
10.222000000000037,0.516796875,7.074703979492188,7.549331665039063
10.232000000000014,-0.0103179931640625,6.575253295898438,6.142495727539063
10.24200000000002,-0.5905181884765626,6.948944091796876,4.459466552734376
10.25200000000001,-0.1855743408203125,8.27353515625,5.10516357421875
10.262,0.261090087890625,8.861660766601563,6.000286865234376
10.272000000000062,0.1344329833984375,8.27772216796875,6.054269409179688
10.28200000000004,0.251519775390625,8.033529663085938,6.19139404296875
10.292000000000016,0.9692932128906252,7.97386474609375,6.6130859375
10.30200000000002,0.81287841796875,7.738644409179688,5.812319946289063
10.312000000000012,0.1951446533203125,7.141397094726563,5.062246704101563
10.322000000000015,0.7654754638671876,6.273638916015625,5.098284912109375
10.33200000000005,1.55457763671875,5.332608032226563,5.3596740722656255
10.342000000000056,1.0778564453125,6.890475463867188,4.913906860351563
10.353000000000025,-0.4466644287109375,9.754092407226564,4.269406127929688
10.363,-0.0186920166015625,11.436822509765626,4.654611206054688
10.373000000000062,-0.45758056640625,10.481585693359376,5.977856445312501
10.383000000000038,-1.2581970214843752,8.461203002929688,9.069665527343751
10.393000000000017,-0.4634124755859375,6.360968017578125,10.678375244140623
10.40300000000002,0.232977294921875,5.764169311523438,6.431997680664063
10.413000000000013,0.2524169921875,6.057559204101563,2.8387939453125
10.423000000000016,0.1662841796875,8.192037963867188,3.1259033203125
10.43300000000005,-0.29368896484375,9.210528564453126,5.217465209960938
10.44300000000004,-0.5869293212890625,8.720648193359375,6.3798095703125
10.453000000000031,-0.07357177734375,8.003024291992189,7.224838256835938
10.463000000000022,1.1967376708984376,8.308676147460938,8.112185668945314
10.473000000000011,1.0107147216796877,8.417239379882814,6.84097900390625
10.483000000000018,-0.5147033691406251,7.926910400390626,4.226190185546876
10.494000000000014,-0.46236572265625,7.494750976562501,3.782965087890626
10.50400000000002,0.8119812011718751,7.33743896484375,4.936785888671875
10.51400000000001,0.51380615234375,7.017282104492188,5.640203857421875
10.524,-0.1966400146484375,7.2617736816406255,5.421432495117188
10.534000000000065,0.2325286865234375,8.728424072265625,5.741738891601563
10.54400000000004,1.05811767578125,9.435281372070314,6.3406311035156255
10.554000000000016,0.6700714111328125,8.58636474609375,5.541958618164063
10.56400000000002,-0.0447113037109375,7.407870483398438,5.429208374023438
10.574000000000012,-0.0518890380859375,7.024160766601563,6.670806884765626
10.584000000000016,0.1978363037109375,6.720901489257813,6.655255126953126
10.594000000000053,0.251220703125,6.884793090820313,4.913308715820313
10.604000000000056,0.2008270263671875,7.886685180664063,4.294079589843751
10.614000000000033,0.1987335205078125,8.8465576171875,5.60521240234375
10.62400000000001,0.0091217041015625,8.519073486328125,6.7518554687500005
10.634000000000016,0.031103515625,7.923321533203126,6.63402099609375
10.64500000000004,0.3805694580078125,7.875469970703126,6.261825561523438
10.655000000000015,0.4122711181640625,7.947097778320313,5.721551513671876
10.66500000000002,0.0083740234375,7.385739135742188,5.4004974365234375
10.675000000000011,-0.2857635498046875,6.237600708007813,5.0999298095703125
10.685000000000016,-0.005084228515625,4.92093505859375,4.966394042968751
10.69500000000005,0.10228271484375,7.176986694335938,4.751361083984375
10.70500000000004,-0.4643096923828125,10.746563720703126,5.179632568359375
10.715000000000032,-0.2827728271484375,10.923913574218751,4.706799316406251
10.725000000000025,1.7334228515625,9.389373779296877,4.76541748046875
10.735000000000014,2.6101531982421875,7.469778442382813,10.51822204589844
10.74500000000002,1.7181701660156252,6.6908447265625,10.147970581054688
10.755000000000052,-1.0762115478515626,6.513195800781251,3.619223022460938
10.765000000000056,-1.740899658203125,6.676040649414063,3.40224609375
10.775000000000034,-0.1739105224609375,8.476007080078126,6.724191284179688
10.786,-0.0180938720703125,8.900091552734375,5.6517181396484375
10.796000000000063,-0.2286407470703125,8.186505126953126,3.953585815429688
10.80600000000004,0.0402252197265625,8.288339233398439,7.182818603515625
10.816000000000017,1.04256591796875,8.808126831054688,9.47745056152344
10.826000000000022,0.21712646484375,8.073455810546875,5.369393920898438
10.836000000000013,-0.58319091796875,7.5877624511718755,2.337698364257813
10.846000000000018,0.766522216796875,7.608398437500001,5.54180908203125
10.856000000000051,1.12989501953125,7.599276733398438,6.307583618164063
10.866000000000057,0.503936767578125,6.923373413085938,4.2759857177734375
10.876000000000031,0.511114501953125,7.509405517578125,4.815960693359376
10.88600000000001,0.6809875488281251,8.84595947265625,7.2154174804687505
10.896000000000017,0.163592529296875,9.038412475585938,6.459661865234375
10.90700000000004,-0.6853240966796875,8.074652099609375,4.734613037109376
10.915999999999997,-0.28531494140625,7.45048828125,6.119168090820313
10.92700000000002,0.3001190185546875,7.127789306640626,7.049581909179688
10.937000000000012,-0.1742095947265625,6.707443237304688,5.58427734375
10.947000000000015,-0.50244140625,7.184463500976563,4.7784271240234375
10.95700000000005,-0.1535736083984375,8.2149169921875,5.349206542968751
10.967000000000056,0.2471832275390625,8.65455322265625,5.731121826171876
10.977000000000032,0.150433349609375,8.272189331054689,5.984735107421876
10.987000000000023,0.40673828125,8.132073974609376,6.358724975585938
10.997000000000014,0.9821533203125,7.969827270507813,6.434988403320313
11.00700000000002,0.8870483398437501,7.552920532226563,5.818600463867188
11.017000000000053,0.448907470703125,6.995599365234376,5.361468505859375
11.027000000000058,0.9006561279296875,5.9276123046875,4.971029663085938
11.037000000000036,1.5309509277343751,5.634970092773438,4.702761840820313
11.047000000000011,0.5292083740234376,7.954724121093751,5.046395874023438
11.057000000000016,-0.3270355224609375,10.326516723632814,4.754800415039063
11.069000000000017,0.152825927734375,10.323825073242189,4.330267333984375
11.078000000000031,-1.0495941162109377,9.62833251953125,6.575552368164063
11.088000000000022,-1.5188385009765626,8.430398559570314,11.016775512695313
11.098000000000011,-0.5513397216796876,7.03836669921875,8.872277832031251
11.108000000000018,0.3366058349609375,5.867947387695313,3.6634857177734377
11.118000000000052,0.9136657714843752,6.106158447265625,4.007119750976563
11.128000000000055,0.212939453125,8.065829467773439,5.852395629882813
11.138000000000034,-0.6051727294921876,8.769696044921876,4.792184448242188
11.14800000000001,-0.5523864746093751,8.644833374023438,4.9155517578125005
11.158000000000015,0.5956024169921875,8.799154663085938,7.695129394531251
11.16900000000004,1.3719940185546875,8.819342041015625,8.236151123046875
11.177999999999995,0.1969390869140625,7.951284790039063,5.542706298828126
11.18800000000006,-0.5115631103515625,7.345214843750001,4.631134033203125
11.198000000000036,0.42647705078125,7.447198486328125,5.304644775390625
11.209000000000016,0.6074157714843751,7.338037109375,4.600180053710938
11.219000000000053,-0.2145843505859375,7.30155029296875,4.523468017578125
11.229000000000056,-0.3829620361328125,7.925863647460938,5.481546020507813
11.239000000000033,0.64300537109375,8.798855590820313,6.189749145507813
11.24900000000001,1.15023193359375,8.708834838867189,6.21591796875
11.259000000000016,0.3360076904296875,8.035922241210939,5.719158935546876
11.27000000000004,-0.0865814208984375,7.540509033203126,5.803646850585938
11.278999999999996,0.296380615234375,7.270297241210938,6.313116455078125
11.289000000000058,0.383709716796875,6.733163452148438,6.127990722656251
11.299000000000037,0.1960418701171875,7.030291748046875,4.92572021484375
11.309000000000012,0.2296875,8.030389404296876,4.9227294921875
11.319000000000017,0.2349212646484375,8.700909423828126,6.290237426757813
11.329000000000022,0.0764129638671875,8.312713623046875,6.776080322265625
11.339,0.088226318359375,8.12818603515625,5.810375976562501
11.350000000000025,0.2618377685546875,8.186355590820312,5.639456176757813
11.360000000000014,0.0958526611328125,7.754046630859375,6.0644378662109375
11.37000000000002,-0.1208251953125,7.135565185546875,5.485882568359376
11.380000000000052,-0.1798919677734375,6.213824462890625,4.994656372070313
11.390000000000056,-0.2002288818359375,4.784857177734375,4.93170166015625
11.400000000000034,0.0279632568359375,6.914401245117188,4.745678710937501
11.41000000000001,-0.514105224609375,11.249005126953126,5.086770629882813
11.420000000000016,-0.2930908203125,11.677426147460938,4.862615966796875
11.43000000000002,1.7367126464843752,9.316400146484376,4.734762573242188
11.439999999999998,2.5026367187500003,6.794174194335938,11.10440368652344
11.45000000000006,2.0289062500000004,6.480895996093751,11.139395141601565
11.460000000000036,-1.0026397705078125,6.545046997070313,3.348263549804688
11.470000000000011,-1.5779052734375,6.555813598632813,2.137319946289063
11.480000000000018,0.206658935546875,8.737396240234375,6.5858703613281255
11.491000000000057,0.02811279296875,9.266305541992187,6.350650024414063
11.501000000000031,-0.3650177001953125,8.153607177734376,3.745132446289063
11.51100000000001,0.0073272705078125,8.008108520507813,6.878363037109375
11.521000000000017,1.3115814208984375,8.955120849609376,9.755438232421875
11.53100000000002,0.4625152587890625,8.241983032226564,5.478106689453125
11.540999999999997,-0.8170654296875001,7.4172912597656255,1.900454711914063
11.55100000000006,0.578704833984375,7.435684204101563,5.350701904296876
11.561000000000035,1.1297454833984375,7.697073364257813,6.871633911132813
11.571000000000012,0.427972412109375,6.916046142578126,4.484588623046875
11.581000000000016,0.1936492919921875,7.271792602539063,4.836447143554688
11.591000000000022,0.3635223388671875,8.912652587890626,7.247268676757813
11.601,0.20277099609375,9.162826538085938,6.4602600097656255
11.61100000000006,-0.552685546875,8.001828002929688,4.625003051757813
11.621000000000038,-0.4880859375,7.520620727539063,5.7544494628906255
11.631000000000014,0.408233642578125,7.404431152343751,6.801800537109376
11.642000000000053,0.068487548828125,6.816604614257813,5.578594970703126
11.652000000000058,-0.390887451171875,6.949542236328125,5.129537963867188
11.662000000000036,-0.0213836669921875,8.027847290039062,5.585623168945313
11.672000000000011,0.400457763671875,8.649020385742189,5.691494750976563
11.682000000000016,0.262884521484375,8.325125122070313,6.1197662353515625
11.69200000000002,0.260791015625,8.115475463867188,6.372482299804688
11.701999999999998,0.87867431640625,8.04923095703125,6.0056701660156255
11.71200000000006,0.8761322021484376,7.651315307617188,5.792730712890625
11.722000000000037,0.140863037109375,7.137509155273438,5.551528930664063
11.732000000000014,0.566741943359375,6.511251831054688,4.9861328125
11.74200000000002,1.4970062255859375,5.597286987304688,4.880261230468751
11.75200000000001,1.2655242919921876,6.471475219726563,5.117575073242188
11.762,-0.251519775390625,9.565228271484376,4.581936645507813
11.77300000000001,-0.031103515625,11.131170654296875,4.25938720703125
11.783000000000015,0.33974609375,10.378106689453126,5.580838012695313
11.79300000000002,-1.4288177490234375,8.67548828125,8.947045898437501
11.802999999999995,-1.41640625,7.019525146484376,10.59717712402344
11.81300000000006,-0.3129791259765625,5.951239013671875,7.206295776367188
11.823000000000036,0.1449005126953125,5.9204345703125005,3.656906127929688
11.833000000000013,0.5994903564453126,7.383346557617188,3.6077087402343753
11.843000000000018,-0.0228790283203125,9.05889892578125,4.5885162353515625
11.853000000000025,-0.8958709716796875,9.021365356445314,5.743533325195313
11.863,-0.38101806640625,8.598028564453125,6.974215698242188
11.873000000000062,0.9054412841796876,8.552270507812501,7.580584716796875
11.883000000000038,1.4144622802734377,8.189645385742189,6.893316650390625
11.893000000000017,-0.1688262939453125,7.643090820312499,5.334402465820313
11.90300000000002,-0.5486480712890626,7.207791137695313,4.59674072265625
11.913000000000013,0.8335144042968751,7.283456420898438,4.476663208007813
11.923000000000016,0.6419586181640625,7.129583740234375,5.017984008789063
11.934000000000012,-0.2866607666015625,7.469329833984376,5.542855834960938
11.944000000000017,-0.031103515625,8.415594482421875,5.856881713867188
11.954000000000022,0.7663726806640626,9.09478759765625,6.3319580078125
11.964,0.91575927734375,8.898297119140626,5.834152221679688
11.97400000000006,0.3859527587890625,7.91524658203125,4.9589172363281255
11.98600000000006,-0.015252685546875,7.230670166015625,5.730075073242188
11.994000000000014,0.0586181640625,6.755444335937501,6.782659912109375
12.00400000000002,0.2956329345703125,6.754248046875,5.641848754882813
12.01400000000001,0.356494140625,7.395010375976563,4.58238525390625
12.024,0.1327880859375,8.535971069335938,5.556613159179688
12.034000000000065,-0.040374755859375,8.764761352539063,6.715219116210938
12.04400000000004,0.14893798828125,8.162280273437501,6.699218750000001
12.054000000000016,0.1789947509765625,7.876666259765625,6.139056396484375
12.064999999999998,0.2382110595703125,7.910910034179688,5.714523315429688
12.074000000000012,0.055328369140625,7.543051147460938,5.290887451171876
12.086000000000013,-0.3122314453125,6.997543334960938,5.226885986328125
12.095000000000011,-0.2764923095703125,5.562295532226563,5.373580932617188
12.105000000000018,-0.0035888671875,5.141351318359376,4.754650878906251
12.115000000000023,-0.07177734375,8.442510986328125,4.602423095703125
12.125,-0.6081634521484376,11.9724609375,5.515341186523438
12.135000000000062,0.3509613037109375,10.869631958007814,4.5316925048828125
12.14500000000004,2.162741088867188,8.598925781250001,6.375622558593751
12.155000000000015,2.848065185546876,6.570767211914063,12.774722290039064
12.16500000000002,0.8882446289062501,6.237600708007813,9.156246948242188
12.175000000000011,-1.8150695800781247,6.3092285156250005,1.834658813476563
12.186000000000035,-0.98035888671875,7.768252563476563,2.757894897460938
12.19500000000005,0.472833251953125,9.697567749023438,5.909368896484375
12.206000000000016,0.2373138427734375,8.577243041992189,4.8198486328125005
12.215000000000032,-0.2863616943359375,7.435385131835938,4.582235717773438
12.226,0.5644989013671875,8.344863891601562,9.030636596679688
12.23600000000006,1.2252990722656252,8.69522705078125,9.396102905273438
12.246000000000038,-0.145947265625,8.075698852539062,3.625952148437501
12.256000000000014,-0.6868194580078125,7.581930541992188,2.8331115722656253
12.26600000000002,0.76502685546875,7.764065551757813,6.394165039062501
12.27600000000001,0.9171051025390624,7.108499145507813,6.205899047851563
12.286,0.207855224609375,6.441268920898438,4.108355712890625
12.296000000000063,-0.01256103515625,7.8871337890625,5.2576904296875
12.30600000000004,0.1782470703125,9.496441650390626,6.861465454101563
12.316000000000017,-0.0405242919921875,8.994598388671875,5.5844268798828125
12.326000000000022,-0.45877685546875,7.763018798828125,5.107107543945313
12.336000000000013,0.036187744140625,7.409515380859376,6.847409057617188
12.346000000000018,0.4798614501953125,7.000833129882813,6.871783447265625
12.357000000000014,-0.07476806640625,6.725686645507813,5.4299560546875005
12.36700000000002,-0.3911865234375,7.433889770507813,4.8724853515625
12.37700000000001,0.3434844970703125,8.429501342773438,5.083779907226563
12.387,0.53773193359375,8.454922485351563,5.850003051757813
12.397000000000062,0.05203857421875,8.125942993164063,6.471774291992188
12.40700000000004,0.4284210205078125,8.098428344726564,6.274984741210938
12.417000000000016,0.922039794921875,8.045343017578126,5.9044342041015625
12.42700000000002,0.5120117187500001,7.560247802734375,5.7816650390625
12.437000000000012,0.4544403076171875,6.277526855468751,5.256643676757813
12.447000000000015,1.2807769775390625,4.88504638671875,4.382455444335938
12.45700000000005,1.299319458007813,5.939276123046875,5.008862304687501
12.467000000000056,-0.349017333984375,9.942657470703123,5.431002807617188
12.477000000000032,-0.248529052734375,12.359161376953129,4.141403198242188
12.488,-0.251519775390625,10.695272827148438,4.393521118164063
12.497000000000014,-0.7463348388671875,8.282656860351564,9.931143188476565
12.508000000000038,-0.310137939453125,6.172851562500001,13.013381958007814
12.518000000000017,-0.1894622802734375,5.741888427734375,5.747122192382813
12.52800000000002,-0.2189208984375,6.072811889648438,0.4533935546875
12.538000000000013,0.5235260009765625,8.097979736328126,4.022073364257813
12.548000000000016,-0.5686859130859375,9.2509033203125,6.039913940429688
12.55800000000005,-0.9407318115234377,8.610739135742188,5.328570556640625
12.56800000000004,-0.1244140625,7.739691162109375,7.081134033203125
12.578000000000031,1.3020111083984376,8.498138427734375,9.24417419433594
12.588000000000022,1.0307525634765626,8.700909423828126,7.024160766601563
12.598000000000011,-0.904095458984375,8.179177856445314,3.1442962646484376
12.608000000000018,-0.5274139404296876,7.360168457031251,3.901846313476563
12.618000000000052,1.3582366943359376,7.04375,5.789739990234375
12.628000000000055,0.9081329345703124,6.778472900390626,5.058657836914063
12.638000000000034,-0.281427001953125,7.243380737304688,4.939028930664063
12.649,0.0312530517578125,8.835940551757814,6.266311645507813
12.659000000000065,1.1639892578125002,9.592742919921877,6.261825561523438
12.66900000000004,1.045257568359375,8.631076049804689,5.398403930664063
12.679000000000016,-0.040673828125,7.481591796875,5.82353515625
12.68900000000002,-0.1466949462890625,6.9779541015625,6.856381225585938
12.699000000000012,0.1428070068359375,6.741537475585938,6.274386596679688
12.709000000000016,0.1921539306640625,6.788342285156251,4.986431884765626
12.719000000000053,0.0133087158203125,7.767355346679688,4.376773071289063
12.729000000000056,-0.07835693359375,8.76102294921875,5.185015869140625
12.739000000000033,-0.139068603515625,8.757135009765626,6.637759399414063
12.74900000000001,-0.0309539794921875,8.009304809570313,6.956271362304688
12.759000000000016,0.499151611328125,7.828665161132813,6.1492248535156255
12.76900000000002,0.506329345703125,7.924517822265625,5.7499633789062505
12.778999999999996,-0.0551788330078125,7.057955932617188,5.81815185546875
12.79000000000002,-0.3533538818359375,5.009161376953125,5.088565063476563
12.800000000000011,0.331072998046875,5.2031097412109375,4.306341552734375
12.810000000000016,0.5519378662109375,9.001925659179689,4.8485595703125
12.82000000000005,-0.42647705078125,11.998928833007811,4.929608154296876
12.83000000000004,0.7077545166015625,10.659384155273438,3.749468994140625
12.840000000000032,1.7757415771484375,8.144485473632812,7.41759033203125
12.850000000000025,2.00677490234375,6.360369873046875,12.701898193359376
12.860000000000014,0.0500946044921875,6.426016235351563,7.898648071289063
12.87000000000002,-1.97327880859375,6.598431396484376,1.8292755126953129
12.880000000000052,-0.8375518798828125,8.050875854492189,3.8741821289062495
12.890000000000056,0.249127197265625,9.210678100585938,6.606954956054688
12.900000000000034,-0.1736114501953125,8.244674682617188,4.889083862304688
12.91000000000001,-0.4984039306640625,7.696176147460938,4.853793334960938
12.920000000000016,0.75306396484375,8.51697998046875,8.971270751953126
12.93100000000004,1.190606689453125,8.699563598632814,8.118765258789063
12.941000000000017,-0.164190673828125,8.046389770507814,2.8993560791015627
12.951000000000022,0.1296478271484375,7.637857055664063,3.448602294921875
12.961000000000013,1.3942749023437502,7.6101928710937505,6.847708129882813
12.971000000000018,0.9630126953125,7.080087280273438,5.914154052734375
12.981000000000051,0.2471832275390625,6.807034301757813,4.192544555664063
12.991000000000057,0.28890380859375,8.198468017578126,5.9323974609375005
13.001000000000031,0.2495758056640625,9.325671386718753,6.992459106445313
13.01100000000001,-0.4326080322265625,8.678628540039064,5.153463745117188
13.021000000000017,-0.6715667724609375,7.683016967773438,5.086471557617188
13.03100000000002,-0.101385498046875,7.458712768554688,6.944906616210938
13.040999999999997,0.028411865234375,7.040310668945313,6.351995849609375
13.05100000000006,-0.4342529296875,6.84696044921875,4.9648986816406255
13.061000000000035,-0.2938385009765625,7.4666381835937505,5.508013916015625
13.072000000000015,0.270660400390625,8.456866455078126,5.5998291015625
13.08200000000005,0.4981048583984375,8.345162963867189,5.752804565429688
13.092000000000056,0.41929931640625,8.169158935546875,6.304293823242188
13.102000000000032,0.777288818359375,8.12579345703125,6.3176025390625
13.112000000000023,1.143801879882813,7.970126342773438,5.736355590820313
13.122000000000014,0.6271545410156251,7.416244506835938,5.622109985351563
13.13200000000002,0.32598876953125,6.790884399414063,5.5495849609375005
13.142000000000053,0.90439453125,5.659194946289063,4.842129516601563
13.152000000000058,1.2691131591796876,5.8666015625000005,4.938131713867188
13.162000000000036,-0.1419097900390625,8.338284301757813,5.24871826171875
13.172000000000011,-0.6296966552734375,11.264706420898438,4.463653564453125
13.182000000000016,-0.3265869140625,10.696768188476565,4.890130615234376
13.19200000000002,-1.5647460937500002,9.258529663085938,7.356430053710938
13.201999999999998,-0.94207763671875,7.382000732421876,10.863052368164062
13.213000000000022,0.4475616455078125,6.312817382812501,8.478549194335939
13.222000000000037,0.50064697265625,5.72783203125,3.417648315429688
13.233000000000018,0.7328765869140625,6.863409423828125,2.886495971679688
13.243000000000052,0.6135467529296875,8.852239990234375,4.933346557617188
13.253000000000055,-0.1766021728515625,8.933587646484376,5.737850952148438
13.263000000000034,-0.443524169921875,8.308377075195313,6.224142456054688
13.27300000000001,0.8438323974609375,8.414996337890626,7.899246215820313
13.283000000000015,1.448406982421875,8.666217041015626,8.06298828125
13.29300000000002,-0.2256500244140625,8.138055419921876,5.2235961914062505
13.302999999999995,-1.0050323486328123,7.427011108398438,3.701617431640625
13.31300000000006,0.229388427734375,7.348205566406251,4.814913940429688
13.323000000000036,0.380419921875,7.143490600585938,5.29058837890625
13.333000000000013,-0.48748779296875,7.031936645507813,4.86710205078125
13.343000000000018,-0.3177642822265625,8.080035400390626,5.694036865234375
13.354000000000056,0.5942565917968751,9.183312988281251,6.616973876953126
13.364000000000033,1.0424163818359375,9.140545654296876,5.6532135009765625
13.37400000000001,0.6024810791015626,7.961752319335938,5.176193237304688
13.384000000000016,0.195294189453125,7.258633422851563,6.462951660156251
13.39400000000002,0.3225494384765625,6.800305175781251,6.960308837890626
13.403999999999996,0.50244140625,6.761276245117188,5.258139038085938
13.414000000000058,0.526068115234375,7.292279052734376,4.420437622070313
13.424000000000037,0.389990234375,8.405126953125,5.275036621093751
13.434000000000012,0.018243408203125,8.645730590820314,6.328817749023438
13.444000000000017,-0.2588470458984375,8.208038330078125,6.584674072265625
13.454000000000022,0.025421142578125,7.92720947265625,6.670806884765626
13.464,0.1232177734375,8.038165283203126,5.971575927734375
13.47400000000006,-0.200677490234375,7.705447387695313,5.231222534179688
13.48600000000006,-0.4714874267578125,6.746173095703125,5.202362060546875
13.49500000000002,-0.2920440673828125,4.887887573242188,4.955477905273438
13.505000000000052,0.34154052734375,5.62674560546875,5.0471435546875005
13.515000000000056,-0.026617431640625,9.709530639648438,5.555865478515625
13.525000000000034,-0.6655853271484375,12.185699462890623,4.588665771484376
13.53500000000001,1.4769683837890626,10.386032104492188,4.140954589843751
13.545000000000016,2.5667877197265625,7.549929809570313,8.9183349609375
13.55500000000002,2.0828887939453127,6.336294555664063,11.60938720703125
13.564999999999998,-0.1957427978515625,6.722396850585938,5.621960449218751
13.57500000000006,-1.768414306640625,6.557308959960938,1.879818725585937
13.586000000000013,-0.341839599609375,8.032034301757813,5.215969848632813
13.595000000000011,0.212042236328125,8.971868896484375,6.496298217773438
13.605000000000018,-0.3578399658203125,8.402435302734375,4.3547912597656255
13.615000000000023,-0.396868896484375,7.976406860351563,6.223394775390625
13.625,0.8227478027343751,8.731414794921875,9.352139282226563
13.635000000000062,0.5893218994140625,8.567523193359376,6.746023559570313
13.646000000000017,-0.4557861328125,7.526602172851563,2.7522125244140625
13.65600000000002,0.0662445068359375,7.5040222167968755,4.40892333984375
13.665999999999997,1.0875762939453126,7.649969482421875,6.613385009765626
13.67600000000006,0.7950836181640626,7.103115844726563,4.6667236328125
13.686000000000035,0.2513702392578125,7.083078002929688,4.555020141601563
13.696000000000012,0.43724365234375,8.567672729492188,6.777725219726563
13.706000000000016,0.5142547607421876,9.289483642578126,6.693386840820313
13.716000000000022,-0.3539520263671875,8.39136962890625,4.950692749023438
13.726,-0.398663330078125,7.540509033203126,5.649923706054688
13.73600000000006,0.3542510986328125,7.275531005859375,6.920980834960938
13.746000000000038,0.0635528564453125,6.887933349609376,5.94615478515625
13.756000000000014,-0.4115234375,6.945205688476563,5.1278930664062505
13.76600000000002,-0.2100982666015625,7.809674072265626,5.441769409179688
13.77600000000001,0.195892333984375,8.577691650390626,5.397955322265625
13.787000000000036,0.16748046875,8.450885009765626,5.982192993164063
13.797000000000011,0.1123016357421875,8.170205688476564,6.566281127929688
13.807000000000016,0.6942962646484375,7.996145629882813,6.10107421875
13.81700000000002,0.8972167968750001,7.717559814453126,5.6991210937500005
13.826999999999998,0.49346923828125,7.328317260742188,5.713626098632813
13.83700000000006,0.6030792236328125,6.433642578125,5.217465209960938
13.847000000000037,1.4524444580078126,5.294924926757813,4.755398559570313
13.857000000000014,1.6822814941406252,6.396408081054688,4.987179565429688
13.86700000000002,-0.203070068359375,9.694577026367188,4.786203002929688
13.87700000000001,0.249725341796875,11.71570739746094,4.2815185546875005
13.887,-0.2824737548828125,10.18445739746094,4.948150634765625
13.897000000000062,-1.8011627197265627,8.579486083984376,8.998336791992188
13.90700000000004,-0.5147033691406251,7.012197875976563,12.289627075195314
13.917000000000016,-0.7070068359375,5.878115844726563,7.217959594726563
13.927999999999995,-0.4653564453125,5.746075439453126,1.8110321044921875
13.93800000000006,0.8697021484375,7.899993896484376,3.2731964111328127
13.948000000000036,-0.197686767578125,9.198715209960938,5.887088012695313
13.958000000000013,-1.0792022705078126,8.661282348632813,5.171408081054688
13.968000000000018,-0.3449798583984375,7.767654418945313,5.850750732421876
13.978000000000025,1.562353515625,8.577392578125,8.535073852539064
13.988,1.5592132568359376,8.699713134765625,7.903134155273438
13.998000000000062,-0.3409423828125,8.010202026367189,4.140206909179688
14.008000000000038,-0.380718994140625,7.554266357421875,3.739151000976563
14.018000000000017,1.18731689453125,7.361065673828126,5.765814208984375
14.02800000000002,0.7813262939453126,6.812866210937501,5.474368286132813
14.038000000000013,-0.6232666015625,6.952682495117188,4.51898193359375
14.048000000000016,-0.2809783935546875,8.5857666015625,5.630633544921875
14.05800000000005,0.8632720947265625,9.351541137695314,6.614132690429688
14.06800000000004,0.7778869628906251,8.622851562500001,5.510107421875
14.079000000000022,-0.1263580322265625,7.72025146484375,5.446554565429688
14.089,-0.2456878662109375,7.520022583007813,6.784304809570313
14.09900000000006,0.117535400390625,6.855633544921876,6.877316284179688
14.109000000000036,0.2618377685546875,6.630880737304688,5.16258544921875
14.119000000000014,0.30804443359375,7.513742065429688,4.404138183593751
14.12900000000002,0.4438232421875,8.521466064453126,5.45328369140625
14.13900000000001,0.11065673828125,8.611636352539064,6.223843383789063
14.149,0.0844879150390625,8.123400878906251,6.200515747070313
14.159000000000065,0.5194885253906251,8.124148559570314,5.995202636718751
14.16900000000004,0.4079345703125,7.9586120605468755,6.130084228515625
14.179000000000016,-0.3907379150390625,6.599926757812501,5.64947509765625
14.18900000000002,-0.44501953125,4.439877319335938,4.8247833251953125
14.199000000000012,0.4128692626953125,6.60172119140625,5.060751342773438
14.210000000000036,-0.32718505859375,10.519119262695312,5.541360473632813
14.220000000000011,-0.5441619873046876,10.876361083984376,3.929061889648438
14.230000000000018,1.1545684814453123,9.187200927734375,4.2471252441406255
14.240000000000023,2.1276000976562504,7.598379516601563,10.585064697265626
14.25,1.90628662109375,7.104461669921876,10.48831481933594
14.260000000000062,-0.9227874755859377,6.969879150390626,3.5329406738281253
14.27000000000004,-1.6226165771484375,6.8266235351562505,3.1087066650390627
14.280000000000015,0.28052978515625,8.282656860351564,6.996047973632813
14.29000000000002,0.1134979248046875,8.516381835937501,5.954977416992188
14.300000000000011,-0.1873687744140625,7.915396118164063,3.3062438964843754
14.310000000000016,0.32239990234375,8.317349243164063,6.553271484375
14.32000000000005,0.9894805908203126,9.008654785156253,9.426458740234375
14.33000000000004,0.056524658203125,8.317349243164063,5.924023437500001
14.340000000000032,-0.5449096679687501,7.436880493164063,2.747427368164063
14.350000000000025,0.6335845947265626,7.607351684570313,5.762524414062501
14.36100000000006,0.9706390380859377,7.610940551757813,6.816903686523438
14.371000000000038,0.11424560546875,7.065283203125,3.930108642578125
14.381000000000014,0.1380218505859375,7.473068237304688,4.404885864257813
14.39100000000002,0.5160491943359375,8.591748046875,7.141845703125001
14.40300000000002,0.164190673828125,8.822332763671875,6.3226867675781255
14.411,-0.4783660888671875,8.168411254882812,4.65655517578125
14.421000000000063,-0.0593658447265625,7.863058471679688,6.116476440429688
14.43100000000004,0.4068878173828125,7.416842651367188,6.942813110351563
14.441000000000017,0.166583251953125,6.8798583984375,5.577847290039063
14.451000000000022,-0.146246337890625,6.991262817382813,5.321841430664063
14.461000000000013,-0.107366943359375,7.861264038085938,5.751309204101563
14.471000000000018,0.2660247802734375,8.334844970703125,5.475115966796875
14.481000000000051,0.2612396240234375,8.295217895507813,5.580090332031251
14.491000000000057,0.1951446533203125,8.274133300781251,6.228778076171875
14.503000000000055,0.57840576171875,8.106652832031251,6.204852294921875
14.512,0.6006866455078126,7.71187744140625,5.843273925781251
14.522000000000062,0.451898193359375,6.846810913085938,5.671456909179688
14.53200000000004,1.053033447265625,5.403338623046875,4.92572021484375
14.542000000000016,1.4440704345703126,5.675344848632813,4.785903930664063
14.55200000000002,0.2301361083984375,8.129531860351562,5.2973175048828125
14.562000000000012,-0.4640106201171875,11.483328247070313,4.3861938476562505
14.572000000000015,0.136077880859375,11.023504638671875,4.608554077148438
14.58200000000005,-1.09639892578125,9.317596435546877,6.808380126953126
14.592000000000056,-1.0974456787109377,7.016384887695313,11.214013671875
14.603000000000025,0.22430419921875,6.284555053710938,9.310867309570312
14.612000000000023,-0.0432159423828125,6.115728759765625,2.948553466796876
14.623000000000062,0.7032684326171875,6.861764526367188,2.0099151611328128
14.63200000000002,0.2296875,8.426959228515626,5.592800903320313
14.643000000000017,-0.9517974853515626,8.865100097656251,6.734658813476563
14.65300000000002,-0.4320098876953125,8.067922973632813,6.197674560546876
14.663000000000013,0.626556396484375,8.391668701171875,7.137957763671875
14.673000000000016,1.4802581787109377,8.926559448242188,8.153009033203126
14.68300000000005,0.012860107421875,8.474212646484375,5.360122680664063
14.69300000000004,-1.1106048583984376,7.452731323242188,3.375628662109375
14.703000000000031,0.5072265625000001,7.196575927734376,4.912411499023438
14.713000000000022,0.9132171630859376,7.026553344726563,5.650521850585938
14.723000000000011,-0.106170654296875,7.160537719726563,4.894467163085938
14.733000000000018,-0.3192596435546875,8.131475830078125,5.386590576171876
14.743000000000052,0.414215087890625,9.31669921875,6.247021484375001
14.753000000000055,1.311431884765625,9.086413574218753,5.9732208251953125
14.763000000000034,0.569732666015625,7.81236572265625,5.492761230468751
14.77300000000001,-0.2761932373046875,7.121209716796876,6.323583984375
14.784000000000065,0.15970458984375,6.9941040039062505,6.635665893554688
14.79400000000004,0.4690948486328125,6.860418701171875,5.559005737304688
14.804000000000016,0.312530517578125,7.28001708984375,4.4614105224609375
14.81400000000002,0.180340576171875,8.31241455078125,4.732818603515625
14.824000000000012,0.0127105712890625,8.712274169921876,6.271246337890625
14.834000000000016,-0.0931610107421875,8.223440551757813,7.059899902343751
14.844000000000053,0.0713287353515625,7.769747924804688,6.441119384765625
14.854000000000056,0.350213623046875,8.029043579101563,5.710336303710938
14.864000000000033,0.0991424560546875,7.811468505859375,5.740841674804688
14.87400000000001,-0.4993011474609375,6.621310424804688,5.424722290039063
14.884000000000016,-0.3488677978515625,4.483392333984376,4.329968261718751
14.89400000000002,0.3720458984375,5.7534027099609375,4.513897705078126
14.903999999999996,0.048748779296875,10.170999145507814,5.531341552734375
14.914000000000058,-0.5639007568359375,12.693972778320314,4.713079833984375
14.925000000000011,1.2472808837890623,10.594036865234376,4.49625244140625
14.935000000000016,2.3903350830078125,7.429852294921876,9.4518798828125
14.94500000000005,2.2087982177734378,6.127841186523438,12.198110961914065
14.95500000000004,-0.1825836181640625,6.170309448242188,5.6337738037109375
14.965000000000032,-1.8920806884765624,6.280966186523438,0.8414398193359376
14.975000000000025,-0.8088409423828126,8.042501831054688,4.569525146484375
14.985000000000014,0.6166870117187501,9.425411987304688,6.827969360351563
14.99500000000002,-0.5993408203125,8.465390014648438,4.7265380859375
15.005000000000052,-0.4725341796875,7.81236572265625,6.281564331054688
15.015000000000056,1.0249206542968752,8.776275634765625,10.079483032226562
15.025000000000034,0.8139251708984375,8.702105712890626,7.271493530273438
15.03500000000001,-0.483001708984375,7.68795166015625,1.73641357421875
15.045000000000016,-0.0490478515625,7.316204833984376,3.6144378662109378
15.05500000000002,1.1132965087890625,7.503723144531251,7.056011962890626
15.064999999999998,0.960919189453125,6.945205688476563,5.215222167968751
15.07500000000006,0.28770751953125,6.955523681640625,3.929061889648438
15.086000000000013,0.422589111328125,8.739190673828126,6.657199096679688
15.096000000000018,0.48330078125,9.623248291015626,7.305438232421875
15.106000000000051,-0.25780029296875,8.42725830078125,5.077200317382813
15.116000000000057,-0.5072265625000001,7.415347290039063,5.220904541015625
15.126000000000031,0.165087890625,7.174444580078125,7.013095092773438
15.13600000000001,0.1410125732421875,6.849203491210938,6.174795532226563
15.146000000000017,-0.5262176513671876,6.7721923828125,4.657901000976563
15.15600000000002,-0.4544403076171875,7.922125244140625,4.877120971679688
15.165999999999997,0.375335693359375,8.743975830078126,5.7314208984375
15.17600000000006,0.20994873046875,8.497241210937501,6.228778076171875
15.186000000000035,0.0246734619140625,8.093643188476562,6.618469238281251
15.196000000000012,0.7265960693359376,8.08392333984375,6.266162109375
15.20700000000005,1.079949951171875,7.717410278320313,5.887985229492188
15.217000000000056,0.72196044921875,6.642245483398438,5.457321166992188
15.227000000000032,1.0060791015625,5.158697509765625,4.534085083007813
15.237000000000023,1.6303924560546876,5.5316406250000005,4.332958984375001
15.247000000000014,0.5465545654296875,8.489614868164063,5.0535736083984375
15.25700000000002,-0.5223297119140625,11.5118896484375,4.769604492187501
15.267000000000053,-0.12022705078125,11.318838500976565,4.536776733398438
15.277000000000058,-1.164886474609375,9.598873901367188,7.412057495117188
15.287000000000036,-0.9797607421875,7.190594482421876,11.922067260742187
15.297000000000011,-0.07476806640625,5.875872802734375,8.880203247070312
15.307000000000016,-0.1368255615234375,5.5854736328125005,2.578451538085938
15.31700000000002,0.452197265625,6.689498901367188,2.4876831054687503
15.326999999999998,-0.1933502197265625,8.719451904296875,5.416796875
15.33700000000006,-0.726446533203125,9.063833618164065,5.789889526367188
15.347000000000037,-0.5401245117187501,8.376266479492188,6.109896850585938
15.357000000000014,0.69085693359375,8.458361816406251,8.228524780273439
15.368000000000052,1.7847137451171875,8.774032592773438,8.445651245117189
15.378000000000055,0.2791839599609375,8.195178222656251,4.801754760742188
15.388000000000034,-0.9165069580078126,7.440319824218751,3.3102813720703126
15.39800000000001,0.6450988769531251,7.267306518554688,4.94725341796875
15.408000000000015,0.9932189941406252,6.999935913085938,5.140902709960938
15.41800000000002,-0.0004486083984375,7.026852416992188,4.714425659179688
15.427999999999995,-0.23387451171875,8.041305541992188,5.89232177734375
15.43800000000006,0.428271484375,9.309371948242188,6.504373168945313
15.448000000000036,0.8559448242187501,9.180621337890626,5.7489166259765625
15.458000000000013,0.228192138671875,7.987173461914063,5.588763427734375
15.468000000000018,-0.3194091796875,7.222146606445313,6.325827026367188
15.478000000000025,-0.064300537109375,6.782211303710938,6.430203247070313
15.488,0.3437835693359375,6.708190917968751,5.61478271484375
15.498000000000062,0.2735015869140625,7.2291748046875,4.665676879882813
15.509000000000016,0.25540771484375,8.387631225585938,4.636517333984376
15.51900000000002,0.2310333251953125,8.783303833007814,6.07236328125
15.528999999999996,0.1568634033203125,8.374322509765626,7.033282470703125
15.539000000000058,0.2917449951171875,7.921975708007813,6.536972045898438
15.549000000000037,0.5316009521484375,7.898947143554688,5.7773284912109375
15.559000000000012,0.232080078125,7.690493774414063,5.728579711914063
15.569000000000017,-0.2260986328125,6.770846557617188,5.431002807617188
15.579000000000022,-0.322698974609375,4.680032348632813,4.506420898437501
15.589,0.0530853271484375,5.31571044921875,4.01474609375
15.59900000000006,-0.1275543212890625,9.777569580078126,5.220156860351563
15.609000000000036,-0.7210632324218751,12.759619140625,5.385693359375001
15.619000000000014,0.7798309326171876,10.8922119140625,3.904537963867188
15.62900000000002,2.0278594970703128,7.627090454101563,8.632720947265625
15.63900000000001,2.267266845703125,6.070120239257813,13.6293212890625
15.649,-0.06759033203125,6.216217041015626,6.679180908203126
15.66000000000001,-1.8654632568359373,6.216964721679688,0.107366943359375
15.670000000000016,-0.7762420654296875,7.824777221679688,4.1753479003906255
15.68000000000002,0.8822631835937501,9.669754028320312,7.2752319335937505
15.689999999999998,-0.2576507568359375,8.404678344726562,4.633078002929688
15.70000000000006,-0.441729736328125,7.688549804687501,5.172305297851563
15.710000000000036,1.0398742675781252,8.728872680664063,10.144232177734375
15.720000000000011,1.1303436279296877,8.940615844726564,8.24781494140625
15.730000000000018,-0.4816558837890625,7.851693725585938,1.663140869140625
15.740000000000023,-0.227294921875,7.108648681640625,2.912664794921876
15.75,1.1611480712890625,7.5497802734375,7.35538330078125
15.760000000000062,0.9317596435546877,7.031338500976563,6.018081665039063
15.77000000000004,0.03828125,6.799407958984376,3.517837524414063
15.780000000000015,0.080450439453125,8.544943237304688,5.921630859375
15.790999999999997,0.5640502929687501,9.750653076171876,7.727130126953125
15.80200000000002,-0.1993316650390625,8.627487182617188,5.452685546875
15.811000000000035,-0.8710479736328126,7.233810424804688,4.753604125976563
15.821000000000012,0.037982177734375,7.306484985351563,6.835147094726563
15.831000000000016,0.4993011474609375,7.009954833984375,6.639553833007813
15.841000000000022,-0.3748870849609375,6.759182739257813,4.673153686523438
15.851,-0.5450592041015625,7.543499755859376,4.802053833007813
15.86100000000006,0.452496337890625,8.726181030273438,5.744729614257813
15.871000000000038,0.5199371337890626,8.49903564453125,6.390576171875001
15.881000000000014,0.018243408203125,8.116073608398438,6.350051879882813
15.89100000000002,0.6377716064453125,8.0450439453125,5.930453491210938
15.902000000000058,1.3000671386718752,7.912704467773438,5.796170043945313
15.911,1.0827911376953123,6.327471923828125,5.5346313476562505
15.922000000000011,1.0875762939453126,4.9334960937500005,4.491915893554688
15.93100000000004,1.1614471435546876,6.365005493164063,4.391726684570313
15.94200000000002,0.1499847412109375,9.610687255859377,5.043853759765625
15.951999999999998,0.0299072265625,11.190087890625,4.773193359375
15.96200000000006,-0.4318603515625,9.96912536621094,4.873233032226563
15.972000000000037,-1.696636962890625,8.995046997070313,8.592944335937501
15.982000000000014,-0.856243896484375,7.330560302734375,12.2057373046875
15.99200000000002,-0.228790283203125,5.972772216796876,6.945953369140626
16.00200000000001,-0.055029296875,5.780169677734375,1.303955078125
16.012,0.6298461914062501,7.301849365234376,3.9579223632812495
16.022000000000062,-0.5007965087890626,8.770892333984376,6.495849609375001
16.03200000000004,-1.139764404296875,8.808575439453126,5.152566528320313
16.042000000000016,0.209051513671875,8.518325805664062,5.532537841796875
16.05200000000002,1.337750244140625,8.859866333007814,8.491708374023439
16.062000000000012,1.1146423339843752,8.533279418945312,8.06837158203125
16.072000000000017,-0.259295654296875,7.798458862304688,4.349856567382813
16.083000000000013,-0.1966400146484375,7.18431396484375,4.138711547851563
16.093000000000018,0.8454772949218751,7.158892822265625,5.69852294921875
16.103000000000023,0.5356384277343751,7.035974121093751,4.891476440429688
16.113,-0.4643096923828125,7.448095703125,4.473522949218751
16.12300000000006,-0.322998046875,8.60430908203125,6.1357666015625005
16.133000000000038,0.7729522705078126,9.173294067382812,6.512149047851563
16.143000000000015,0.9425262451171876,8.682516479492188,5.390179443359376
16.15300000000002,-0.08912353515625,8.051623535156251,5.403936767578125
16.16300000000001,-0.2145843505859375,7.328765869140626,6.366799926757813
16.173000000000016,0.32060546875,6.800604248046875,6.0819335937500005
16.18300000000005,0.5894714355468751,6.595889282226563,5.513247680664063
16.19300000000004,0.56644287109375,7.356579589843751,4.958020019531251
16.204000000000022,0.3799713134765625,8.385089111328126,5.272195434570313
16.213000000000022,0.0868804931640625,8.698068237304689,6.373529052734376
16.22400000000006,0.1350311279296875,8.320040893554689,6.744528198242188
16.234000000000037,0.39298095703125,7.977005004882813,6.070568847656251
16.244000000000014,0.2086029052734375,8.025604248046875,5.7130279541015625
16.25400000000002,-0.2175750732421875,7.6275390625,5.789440917968751
16.26400000000001,-0.2205657958984375,6.682321166992188,5.225689697265626
16.274,0.0016448974609375,4.837942504882813,4.860073852539063
16.284000000000063,0.0420196533203125,5.8296661376953125,4.3253326416015625
16.29400000000004,-0.352606201171875,9.49853515625,4.8068389892578125
16.304000000000016,-0.30445556640625,11.75772705078125,5.738748168945313
16.31400000000002,1.0995391845703126,10.407266235351564,4.1469360351562505
16.324000000000012,2.326483154296876,8.195925903320314,7.949639892578125
16.334000000000017,2.431906127929688,6.485382080078126,12.90422058105469
16.34400000000005,-0.29727783203125,6.356033325195313,7.202108764648438
16.354000000000056,-2.030999755859375,6.301004028320313,1.2312805175781252
16.365000000000023,-0.5336944580078126,8.116372680664064,3.796124267578125
16.375,0.157012939453125,9.638800048828124,6.621160888671875
16.385000000000062,-0.60352783203125,8.166168212890625,4.624554443359376
16.39500000000004,-0.63941650390625,7.725335693359375,4.889682006835938
16.405000000000015,0.8107849121093751,8.683413696289064,9.93218994140625
16.41500000000002,0.9154602050781252,8.582327270507813,8.489614868164063
16.42500000000001,-0.8568420410156251,7.740737915039063,2.37523193359375
16.435000000000016,-0.2310333251953125,7.395907592773438,3.434396362304688
16.44500000000005,1.38709716796875,7.795169067382813,7.164425659179688
16.45500000000004,1.1958404541015626,6.960308837890626,5.676242065429688
16.465000000000032,0.3512603759765625,6.77518310546875,3.394918823242188
16.475000000000023,0.3162689208984375,8.502474975585939,5.868844604492188
16.485000000000014,0.7113433837890626,9.528890991210938,7.380355834960938
16.49500000000002,-0.0321502685546875,8.414697265625001,5.285653686523438
16.506000000000014,-0.5713775634765625,7.522116088867188,4.879364013671875
16.51600000000002,0.2017242431640625,7.431945800781251,7.129434204101563
16.52600000000001,0.3168670654296875,7.0180297851562505,6.763668823242188
16.536,-0.53533935546875,6.7578369140625005,4.948001098632813
16.546000000000063,-0.572723388671875,7.614230346679688,4.845120239257813
16.55600000000004,0.20576171875,8.596832275390625,5.5926513671875
16.566000000000017,0.285015869140625,8.388528442382814,6.145635986328125
16.576000000000022,-0.059814453125,8.23345947265625,5.975314331054688
16.586000000000013,0.5760131835937501,8.171252441406251,5.9892211914062505
16.596000000000018,1.1734100341796876,7.901040649414063,6.126943969726563
16.60600000000005,0.6271545410156251,7.125845336914063,5.784954833984376
16.616000000000057,1.0952026367187502,5.4254699707031255,5.011404418945313
16.626000000000033,1.884454345703125,5.196530151367188,4.637713623046875
16.63600000000001,0.8526550292968751,8.170504760742189,5.09140625
16.646000000000015,-0.3566436767578125,11.016177368164064,4.77080078125
16.65600000000002,0.2468841552734375,10.944549560546877,3.877023315429688
16.667000000000016,-0.7334747314453125,9.391467285156253,6.199468994140625
16.67700000000002,-1.39307861328125,7.437478637695313,11.664117431640626
16.687000000000012,-0.8118316650390626,6.216815185546875,10.123895263671876
16.697000000000017,-0.6077148437500001,6.184814453125001,2.7886993408203127
16.70700000000005,0.4436737060546875,6.885391235351563,1.7435913085937502
16.717000000000056,0.029608154296875,8.457614135742189,5.897854614257813
16.727000000000032,-1.32010498046875,8.714666748046875,6.721798706054688
