time,ax,ay,az
0.0,0.2280426025390625,7.845263671875,6.375173950195313
0.0099999999999909,-0.00059814453125,7.760327148437501,5.321392822265626
0.0200000000000102,0.4909271240234375,7.854534912109376,5.876470947265625
0.030999999999949,0.8330657958984375,7.890423583984376,6.81346435546875
0.0410000000001673,0.6730621337890625,7.884442138671876,5.466891479492188
0.0510000000001582,0.5863311767578125,8.146578979492189,4.4808502197265625
0.0620000000001255,0.7756439208984376,8.230020141601564,5.8251800537109375
0.07100000000014,0.1966400146484375,7.945004272460938,5.977108764648438
0.0810000000001309,-0.2776885986328125,7.216613769531251,4.38798828125
0.0910000000001218,-0.8662628173828125,8.349798583984375,4.799063110351563
0.1010000000001127,-0.9748260498046876,8.726181030273438,6.5807861328125
0.1110000000001036,-0.131591796875,7.623202514648438,6.141299438476563
0.1210000000000945,-0.363372802734375,7.271942138671876,5.725140380859376
0.1310000000000855,0.6147430419921875,6.878512573242188,8.593991088867188
0.1410000000000764,-0.029010009765625,8.152859497070313,6.6788818359375
0.1510000000000673,0.5052825927734376,8.106802368164063,4.726837158203125
0.1620000000000345,1.5293060302734376,7.913302612304688,3.611746215820313
0.1720000000000254,1.16339111328125,8.178131103515625,5.4150024414062505
0.1820000000000163,0.6999786376953125,7.639950561523438,6.767556762695313
0.1920000000000072,-0.1840789794921875,7.252502441406251,5.677288818359376
0.2019999999999981,-0.009271240234375,7.749710083007813,5.739047241210938
0.211999999999989,0.9242828369140624,8.484381103515625,6.067428588867188
0.22199999999998,0.2280426025390625,8.4948486328125,6.011502075195313
0.2319999999999424,-1.2496734619140626,8.83399658203125,4.981198120117188
0.2419999999999618,-1.0276123046875,8.646029663085939,5.237652587890626
0.2519999999999527,-0.093310546875,7.912704467773438,5.761776733398438
0.2620000000001425,-0.672314453125,7.087115478515625,5.2116333007812505
0.2720000000001619,-0.3692047119140625,7.111041259765625,5.14464111328125
0.2820000000001528,0.5636016845703126,7.652212524414063,6.168814086914063
0.2920000000001437,1.1005859375,7.662979125976563,6.448745727539063
0.3020000000001346,1.4497528076171875,6.683218383789063,5.002432250976563
0.3120000000001255,0.93310546875,8.528643798828126,3.220260620117188
0.3230000000000927,1.343731689453125,11.778363037109376,7.538265991210938
0.3330000000000837,1.431060791015625,7.478900146484375,8.462249755859375
0.3430000000000746,-0.0106170654296875,5.851348876953125,3.223101806640625
0.3530000000000655,1.0285095214843751,6.2763305664062505,9.78968200683594
0.3630000000000564,-0.536236572265625,8.25140380859375,8.547186279296875
0.3730000000000473,-2.097991943359375,7.450936889648438,0.5555267333984375
0.3830000000000382,-1.729534912109375,8.037417602539064,-0.3940277099609375
0.3930000000000291,-0.6268554687500001,9.89615173339844,9.373223876953126
0.40300000000002,-0.5477508544921875,7.175341796875,11.436972045898438
0.4129999999999825,-2.122665405273437,6.884344482421875,3.748123168945313
0.4230000000000018,0.103179931640625,8.238693237304688,4.949047851562501
0.4339999999999691,2.595199584960937,9.343914794921876,9.617715454101564
0.4429999999999836,-0.1484893798828125,7.815505981445313,4.631582641601563
0.4539999999999509,-0.844281005859375,7.534677124023438,-0.389691162109375
0.4640000000001691,2.5742645263671875,7.865600585937501,5.965594482421875
0.47400000000016,2.885150146484375,7.727877807617188,9.49659118652344
0.484000000000151,0.9200958251953124,7.269848632812501,5.6859619140625
0.4940000000001419,0.157012939453125,9.089703369140626,2.1660308837890625
0.5040000000001328,-0.1682281494140625,9.6121826171875,7.286297607421876
0.5140000000001237,0.2056121826171875,7.904031372070313,8.199664306640626
0.5240000000001146,-0.823345947265625,6.868344116210938,2.9923675537109378
0.5340000000001055,-1.096099853515625,7.289736938476563,3.988726806640625
0.5440000000000964,-1.0913146972656251,7.627090454101563,7.861114501953126
0.5540000000000873,-0.6951934814453126,7.721746826171875,6.35289306640625
0.5640000000000782,-0.22789306640625,7.924816894531251,3.713729858398438
0.5740000000000691,0.6286499023437501,8.19697265625,6.015689086914063
0.58400000000006,0.9175537109375,8.202505493164063,8.476306152343751
0.5950000000000273,0.6434539794921875,7.710830688476563,6.763070678710938
0.6050000000000182,0.5408721923828126,7.6454833984375,4.6116943359375
0.6150000000000091,1.2075042724609375,7.982388305664063,5.124752807617188
0.625,1.371246337890625,8.123251342773438,5.420535278320313
0.6349999999999909,0.6210235595703125,7.715466308593751,4.3727355957031255
0.6450000000000102,0.6473419189453126,7.487872314453125,5.116976928710938
0.6549999999999727,0.8133270263671876,7.791580200195313,6.742434692382813
0.6649999999999636,0.29727783203125,7.871432495117188,6.770547485351563
0.6749999999999545,-0.7135864257812501,7.742083740234375,5.560800170898438
0.6849999999999454,-0.4629638671875,6.1492248535156255,5.775982666015626
0.6950000000001637,0.4998992919921875,3.253756713867188,5.766561889648438
0.7050000000001546,-1.193597412109375,8.687301635742188,5.260531616210938
0.7150000000001455,-1.3295257568359375,13.15843200683594,7.427609252929688
0.7250000000001364,-1.9671478271484373,11.375064086914064,1.1734100341796876
0.7350000000001273,0.2412017822265625,8.5546630859375,4.233218383789063
0.7460000000000946,2.1289459228515626,6.537570190429688,15.037802124023438
0.7560000000000855,-0.0777587890625,5.546444702148438,9.68994140625
0.7660000000000764,-1.2867584228515625,4.806240844726563,0.5286102294921875
0.7760000000000673,0.413916015625,7.422375488281251,1.670169067382813
0.7860000000000582,2.8435791015625003,10.745965576171876,8.051773071289062
0.7960000000000491,1.52945556640625,10.252645874023438,5.442068481445313
0.80600000000004,-0.1514801025390625,8.37701416015625,2.90758056640625
0.8160000000000309,1.1304931640625,6.999038696289063,8.55885009765625
0.8260000000000502,1.5083709716796876,8.767453002929688,9.134115600585938
0.8360000000000127,-0.6625946044921875,7.989566040039063,2.99730224609375
0.8460000000000036,-1.7491241455078126,6.869689941406251,-0.5118621826171875
0.8559999999999945,-0.6051727294921876,7.865002441406251,3.7952270507812496
0.8659999999999854,0.1996307373046875,7.422076416015625,9.885086059570312
0.8759999999999764,-0.6280517578125,6.555065917968751,5.267559814453126
0.8870000000001426,-0.9334045410156252,7.082928466796876,6.793426513671876
0.8970000000001619,1.1789428710937502,8.707040405273439,10.2103271484375
0.9070000000001528,1.5608581542968751,8.681021118164063,8.534774780273438
0.9170000000001436,0.3644195556640625,7.119265747070313,4.08592529296875
0.9270000000001346,0.3162689208984375,7.640548706054688,3.185867309570313
0.9370000000001256,1.322796630859375,8.269049072265625,5.788095092773438
0.9470000000001164,0.5012451171875001,7.617669677734375,4.723397827148438
0.9570000000001072,-0.6503326416015626,6.996945190429688,1.845724487304688
0.9670000000000982,-0.346624755859375,5.3761230468750005,3.5335388183593754
0.9790000000000418,0.46834716796875,7.813262939453126,7.13048095703125
0.98700000000008,-0.1197784423828125,10.925857543945312,9.937274169921876
0.9970000000000708,-0.9009552001953126,11.681015014648438,5.806338500976563
1.0070000000000905,0.602630615234375,7.956817626953126,3.653317260742188
1.0170000000000528,1.6211212158203123,5.870190429687501,10.98597106933594
1.02800000000002,-0.5760131835937501,6.80509033203125,9.596630859375
1.0379999999999825,-1.7223571777343751,6.472671508789063,1.4869873046875002
1.0480000000000018,-0.9778167724609376,6.660787963867188,-0.4140655517578125
1.0579999999999927,2.362969970703125,9.290231323242187,9.920526123046876
1.0679999999999836,1.1690734863281251,9.443655395507813,9.334793090820312
1.0789999999999509,-0.9700408935546876,8.342471313476564,2.515646362304688
1.0879999999999654,1.480706787109375,8.366397094726564,5.9054809570312505
1.0979999999999563,2.456878662109375,8.932092285156251,10.587905883789062
1.1079999999999472,0.745587158203125,8.221347045898439,4.928262329101563
1.1180000000001655,-1.2012237548828126,6.573159790039063,-0.201873779296875
1.1280000000001564,0.5408721923828126,8.243927001953125,3.25450439453125
1.1380000000001471,1.9768676757812504,7.079190063476563,8.333499145507814
1.1480000000001382,-1.0364349365234375,6.632675170898438,4.073513793945313
1.1580000000001291,-1.3482177734375,7.277175903320313,4.2001708984375
1.16800000000012,-0.6196777343750001,9.45068359375,8.677581787109375
1.179000000000087,-0.133685302734375,8.948541259765626,7.969229125976563
1.1890000000000782,-0.5438629150390626,7.701110839843751,5.608053588867188
1.1990000000000691,-0.5819946289062501,6.981393432617188,6.574505615234376
1.20900000000006,0.4198974609375,7.000085449218751,7.601968383789063
1.2190000000000225,1.100885009765625,6.562991333007813,5.578744506835938
1.2290000000000418,0.24703369140625,7.590155029296875,3.224746704101563
1.2390000000000327,0.590069580078125,8.800350952148438,3.426321411132813
1.2490000000000236,1.813424682617188,8.918634033203126,4.427764892578125
1.2590000000000146,1.7606384277343752,3.2885986328125,4.462008666992188
1.2690000000000057,0.30146484375,4.561300659179688,2.870346069335937
1.2789999999999964,0.7228576660156251,13.747305297851565,7.390374755859375
1.2889999999999873,-0.3461761474609375,15.662414550781252,10.885781860351564
1.2999999999999543,-0.1706207275390625,9.337783813476562,1.821798706054688
1.3099999999999454,1.421490478515625,4.349856567382813,8.785995483398438
1.3200000000001637,2.1714141845703128,5.413357543945313,17.979925537109377
1.3300000000001546,-0.98753662109375,4.881906127929688,6.738845825195313
1.3400000000001455,-1.8333129882812504,4.377072143554688,-0.8200561523437501
1.3500000000001364,-2.8739349365234377,8.25977783203125,0.0179443359375
1.360000000000127,-2.325885009765625,13.283145141601564,-0.5345916748046875
1.3700000000001182,-1.70291748046875,11.2247802734375,8.459408569335938
1.3800000000001091,0.532049560546875,6.520523071289063,14.796002197265626
1.3900000000001,2.3394927978515625,6.701760864257813,6.708639526367188
1.4000000000000623,3.1426513671875003,8.806481933593751,9.161032104492188
1.410000000000082,-1.5216796875,7.639501953125,0.1523773193359375
1.4200000000000728,-1.7561523437500002,6.787594604492188,-0.18243408203125
1.4300000000000637,0.9464141845703126,7.255493164062501,0.4723846435546875
1.4400000000000546,2.243341064453125,6.741088867187501,2.459869384765625
1.4510000000000502,2.949301147460938,6.057260131835938,11.139993286132814
1.4610000000000127,-1.5936065673828126,9.82093505859375,3.0895660400390628
1.4710000000000036,0.8768798828125001,11.420523071289065,10.594186401367187
1.4809999999999943,0.363372802734375,8.641094970703126,9.6552490234375
1.4909999999999854,-0.7692138671875001,6.365902709960938,5.002133178710938
1.5009999999999764,-0.6234161376953126,6.186309814453126,6.966738891601563
1.5109999999999673,-0.4254302978515625,5.893218994140625,8.228076171875001
1.5209999999999582,-0.645697021484375,6.6621337890625005,2.9033935546875003
1.530999999999949,-1.3902374267578126,8.233609008789063,0.3135772705078125
1.5410000000001671,-0.119927978515625,10.332647705078124,4.201217651367188
1.5510000000001585,2.080645751953125,9.693231201171876,7.975659179687501
1.5610000000001492,0.3135772705078125,7.828515625,7.467984008789063
1.57100000000014,0.6434539794921875,6.164776611328126,5.629736328125
1.582000000000107,1.46485595703125,4.587170410156251,5.829367065429688
1.591000000000122,0.8720947265625001,5.725588989257813,4.972225952148438
1.6020000000000891,-0.19678955078125,11.9664794921875,3.85264892578125
1.61200000000008,-0.1700225830078125,12.583615112304688,4.634722900390625
1.622000000000071,0.8973663330078125,8.490512084960939,4.631881713867188
1.6320000000000905,1.4682952880859377,4.714874267578125,10.50760498046875
1.6420000000000528,1.026715087890625,6.3002563476562505,13.340567016601565
1.6520000000000437,-1.9849426269531247,6.4611572265625,5.455975341796876
1.6620000000000346,-2.2832672119140627,7.610342407226563,-0.7418487548828125
1.6720000000000257,-1.5747650146484375,9.418234252929688,1.2910949707031252
1.6820000000000164,1.10596923828125,10.525997924804688,12.336282348632814
1.6920000000000073,-0.04844970703125,7.373477172851563,5.88035888671875
1.7019999999999982,-0.4640106201171875,6.393417358398438,5.142547607421875
1.711999999999989,2.465850830078125,8.099624633789062,8.549728393554688
1.7229999999999563,1.568035888671875,9.1779296875,5.996548461914063
1.7329999999999472,-1.244439697265625,8.447296142578125,0.4616180419921875
1.7430000000001655,0.1027313232421875,8.074652099609375,2.23765869140625
1.7530000000001564,3.7617309570312494,7.974761962890626,8.230917358398438
1.7630000000001471,1.3474700927734375,6.735855102539063,7.20823974609375
1.7730000000001382,-1.4775665283203123,7.283755493164063,3.0206298828125
1.7830000000001291,-1.1686248779296875,8.43802490234375,5.417843627929688
1.79300000000012,-0.6066680908203126,9.059197998046876,8.075848388671876
1.803000000000111,-0.5058807373046875,7.856927490234375,4.8437744140625005
1.8130000000001305,-0.8059997558593751,6.685012817382813,4.39337158203125
1.8230000000000928,-0.5468536376953126,6.8385864257812505,9.234454345703126
1.833000000000084,0.3766815185546875,7.215866088867188,9.033477783203123
1.8430000000000744,-0.0168975830078125,7.486526489257813,3.720458984375
1.8530000000000653,0.2274444580078125,8.377462768554688,2.997750854492188
1.8640000000000327,1.5369323730468751,9.35184020996094,6.216665649414063
1.874000000000024,1.5717742919921875,8.562738037109376,5.87796630859375
1.8840000000000143,0.3916351318359375,7.325027465820313,4.208843994140626
1.8940000000000048,1.0654449462890625,6.9420654296875,5.666821289062501
1.9039999999999964,1.6952911376953126,5.5201263427734375,6.502877807617188
1.9139999999999875,0.793438720703125,4.470382690429688,4.448101806640626
1.9239999999999784,-0.4414306640625,8.843865966796876,4.867999267578125
1.933999999999969,-1.0956512451171876,13.053457641601565,6.330014038085938
1.94399999999996,0.269464111328125,11.552862548828124,5.1500244140625
1.9539999999999509,0.7019226074218751,7.3215881347656255,5.030096435546875
1.9640000000001687,0.796429443359375,5.67100830078125,11.15225524902344
1.97400000000016,-0.54132080078125,6.403436279296876,9.952975463867189
1.984000000000151,-1.861874389648437,6.265414428710938,2.0233734130859378
1.9940000000001417,-1.6387664794921877,7.681671142578126,1.0913146972656251
2.004000000000133,0.332867431640625,9.723587036132812,8.243478393554689
2.014000000000124,-0.1221710205078125,9.527395629882813,8.752947998046876
2.0250000000000625,-0.8818145751953126,7.489218139648438,6.205300903320313
2.035000000000082,1.28302001953125,7.508807373046875,6.5395141601562505
2.0450000000000728,1.7314788818359377,8.651263427734376,7.23336181640625
2.055000000000064,-0.6311920166015625,8.620159912109376,3.637466430664063
2.0650000000000546,-1.5726715087890626,7.81236572265625,1.4883331298828126
2.075000000000045,0.6104064941406251,7.945452880859375,4.580740356445313
2.0850000000000364,2.2517150878906254,7.327120971679688,6.528598022460938
2.095000000000028,0.9766204833984377,6.769052124023438,3.650775146484375
2.105000000000018,0.020037841796875,7.727429199218751,5.390179443359376
2.115000000000009,0.6473419189453126,9.339129638671876,7.840628051757813
2.125,0.3841583251953125,8.774331665039064,5.728579711914063
2.134999999999991,0.421392822265625,6.940869140625001,4.8427276611328125
2.1450000000000102,0.11304931640625,6.644937133789063,8.361013793945313
2.1549999999999727,-0.4469635009765625,6.987374877929688,9.044692993164062
2.166000000000168,-0.3696533203125,6.773239135742188,5.124752807617188
2.1760000000001583,0.0297576904296875,7.846160888671876,3.3943206787109377
2.186000000000149,-0.031402587890625,9.501974487304688,5.048489379882813
2.19600000000014,-0.7233062744140626,9.281109619140626,4.602871704101563
2.206000000000131,-0.4705902099609375,8.065231323242188,4.7361083984375005
2.216000000000122,0.9311614990234376,7.240988159179688,7.349850463867188
2.2260000000001128,0.981854248046875,6.964645385742188,6.763668823242188
2.236000000000104,0.0171966552734375,6.131878662109376,4.390081787109375
2.2460000000000946,-0.091217041015625,5.768954467773438,4.45677490234375
2.256000000000085,0.485992431640625,7.898049926757813,5.79063720703125
2.2660000000000764,0.5610595703125001,11.658285522460938,5.130435180664063
2.276000000000068,0.258099365234375,10.44764099121094,5.14703369140625
2.286000000000058,0.2471832275390625,7.2767272949218755,6.057708740234375
2.297000000000025,0.492572021484375,6.011801147460938,10.863351440429687
2.3070000000000164,0.4520477294921875,7.615725708007813,8.538812255859376
2.317000000000008,-0.6195281982421875,7.669259643554688,1.6087097167968751
2.326999999999998,-0.1519287109375,7.234259033203125,3.199176025390625
2.336999999999989,0.3252410888671875,8.743228149414064,9.2867919921875
2.34699999999998,0.10467529296875,8.84476318359375,7.539013671875001
2.3569999999999425,-0.053533935546875,7.616921997070313,3.6575042724609377
2.366999999999962,0.9094787597656252,7.882348632812499,6.308929443359376
2.3780000000001564,1.504632568359375,8.953775024414064,8.312713623046875
2.3870000000001426,0.335260009765625,8.444604492187501,4.031344604492188
2.397000000000162,0.2301361083984375,7.550228881835938,2.582489013671875
2.407000000000153,1.014154052734375,7.726382446289063,5.793179321289063
2.417000000000144,0.067291259765625,8.801995849609376,5.476611328125
2.4270000000001346,-0.5341430664062501,8.106353759765625,3.806591796875
2.4380000000001303,-1.059912109375,7.054516601562501,4.4075775146484375
2.4480000000000928,-0.44561767578125,7.3009521484375,6.891522216796876
2.458000000000084,0.6954925537109375,7.996295166015625,6.908569335937501
2.4680000000000746,-0.6223693847656251,7.590005493164063,5.589212036132813
2.478000000000065,-0.91875,7.3694396972656255,6.756341552734376
2.4880000000000564,0.6151916503906251,7.679577636718751,7.975659179687501
2.498000000000048,0.8411407470703126,7.638754272460938,6.62205810546875
2.508000000000038,-0.048150634765625,7.266110229492188,5.323187255859375
2.518000000000029,0.2848663330078125,8.264263916015626,4.55546875
2.52800000000002,1.185223388671875,8.714068603515626,4.613189697265625
2.5379999999999825,0.8698516845703126,8.156298828125001,4.795474243164063
2.548000000000002,-0.0037384033203125,7.5159851074218755,4.8288208007812505
2.5579999999999927,0.7852142333984375,7.407720947265625,5.63870849609375
2.567999999999984,1.244439697265625,6.088214111328125,6.177337646484376
2.578999999999951,0.44801025390625,5.146136474609375,5.244082641601563
2.589000000000169,-0.5698822021484375,9.397000122070311,5.139108276367188
2.59900000000016,-0.7322784423828126,12.879397583007814,6.547738647460938
2.609000000000151,0.8336639404296876,10.037612915039062,5.445806884765625
2.619000000000142,0.289202880859375,5.3988525390625,5.347561645507813
2.629000000000133,-0.2729034423828125,5.457769775390625,10.50341796875
2.639000000000124,-0.6491363525390625,7.323233032226563,8.243328857421876
2.6490000000001146,-1.1840270996093751,7.355682373046876,0.7905975341796876
2.659000000000105,-0.6482391357421875,8.308975219726562,1.3274322509765626
2.6690000000000964,1.9085296630859376,9.685604858398438,11.182461547851563
2.679000000000088,-0.6279022216796876,9.017178344726563,9.587060546875
2.689000000000078,-1.184326171875,7.3724304199218755,4.656256103515625
2.699000000000069,1.2060089111328125,7.566827392578125,5.65067138671875
2.70900000000006,1.1113525390625,8.571112060546875,7.23336181640625
2.720000000000028,-0.966900634765625,7.913601684570313,3.892425537109376
2.730000000000018,-1.651177978515625,7.634417724609375,1.7308807373046875
2.740000000000009,0.2643798828125,7.892367553710938,6.087615966796875
2.75,1.9447174072265627,8.213272094726562,7.467684936523438
2.759999999999991,0.608013916015625,8.384341430664064,4.0078674316406255
2.7700000000000102,0.153424072265625,8.29447021484375,3.4723785400390628
2.7799999999999727,1.3570404052734375,8.352041625976563,6.222946166992188
2.789999999999964,1.5035858154296875,7.339233398437501,6.850399780273438
2.7999999999999545,0.23267822265625,6.785202026367188,4.3906799316406255
2.809999999999945,-0.082843017578125,6.846511840820313,6.002978515625
2.820000000000164,0.450701904296875,7.626791381835938,8.595785522460938
2.831000000000131,-0.08074951171875,7.796813964843751,6.679629516601563
2.840000000000145,-0.380120849609375,7.5737060546875,5.212380981445313
2.8500000000001364,-0.3805694580078125,8.288040161132812,6.385940551757813
2.860000000000128,-0.6410614013671876,8.692684936523438,6.356182861328126
2.8710000000000946,-0.5444610595703125,8.125643920898439,4.245330810546875
2.881000000000085,-0.23387451171875,7.631726074218751,3.8850982666015614
2.8910000000000764,0.57242431640625,7.730120849609375,5.840283203125001
2.901000000000068,0.59814453125,7.7073913574218755,5.877069091796876
2.911000000000058,0.0849365234375,6.90318603515625,4.840185546875
2.921000000000049,0.3590362548828125,5.9892211914062505,5.263522338867188
2.93100000000004,1.0774078369140625,6.330014038085938,5.9433135986328125
2.941000000000031,1.012210083007813,10.348797607421876,5.553472900390625
2.9510000000000502,-0.0805999755859375,11.857019042968751,5.612390136718751
2.9610000000000127,0.4400848388671875,8.767602539062501,5.129238891601563
2.971000000000004,0.7002777099609375,5.824880981445313,7.338485717773438
2.9809999999999945,0.027813720703125,6.562094116210938,10.635009765625
2.990999999999985,-0.743194580078125,7.250408935546876,6.135617065429688
3.0019999999999527,-1.331170654296875,7.0419555664062505,1.612298583984375
3.0120000000001426,0.3213531494140625,8.088858032226563,6.829165649414063
3.022000000000162,0.964208984375,9.658538818359377,8.862408447265626
3.032000000000153,-0.500946044921875,8.380603027343751,4.783660888671875
3.042000000000144,-0.043365478515625,8.175289916992188,3.935641479492188
3.0520000000001346,1.30216064453125,8.001528930664064,8.275927734375001
3.062000000000125,1.765872192382813,8.270394897460939,6.588262939453125
3.0720000000001164,0.040673828125,7.525106811523438,2.473776245117188
3.082000000000108,0.6608001708984376,7.955322265625001,3.539669799804688
3.0920000000000982,1.3349090576171876,8.657394409179688,5.921630859375
3.102000000000089,0.174957275390625,8.499334716796875,5.7792724609375
3.11200000000008,-0.747381591796875,7.376318359375,4.079345703125
3.122000000000071,-1.0307525634765626,7.268801879882813,5.27862548828125
3.1320000000000903,-0.172564697265625,7.5282470703125,7.949490356445313
3.1420000000000528,-0.10108642578125,7.865750122070313,5.850750732421876
3.152000000000044,-0.9172546386718752,7.400991821289063,4.431802368164063
3.1629999999999825,-0.0536834716796875,7.404580688476563,7.309326171875001
3.173000000000002,0.5277130126953126,7.66282958984375,8.402734375000001
3.1829999999999927,-0.04306640625,7.408468627929688,6.046643066406251
3.192999999999984,0.2080047607421875,7.956219482421876,4.2623779296875
3.2029999999999745,1.2682159423828123,8.855679321289063,5.224942016601563
3.212999999999965,1.0507904052734376,8.668161010742189,5.0423583984375
3.2229999999999563,0.235968017578125,7.733859252929688,3.988278198242188
3.2329999999999472,0.6957916259765625,7.206146240234376,5.984735107421876
3.243000000000165,0.8055511474609376,7.454824829101563,7.090255737304688
3.2530000000001564,0.366961669921875,7.1765380859375005,5.438031005859376
3.263000000000148,0.1926025390625,5.323336791992188,4.02012939453125
3.2730000000001382,0.467449951171875,6.425418090820313,4.640255737304688
3.283000000000129,-0.4658050537109375,10.773629760742187,7.731018066406251
3.2950000000000728,-1.202569580078125,12.070556640625,5.612838745117188
3.304000000000088,-0.3431854248046875,8.845211791992188,2.674005126953125
3.314000000000078,1.3346099853515625,5.6322784423828125,9.7126708984375
3.324000000000069,0.605023193359375,6.952383422851563,11.5717041015625
3.33400000000006,-1.4754730224609376,7.158444213867188,3.758291625976563
3.3440000000000225,-0.8359069824218751,6.574655151367188,-0.15252685546875
3.354000000000042,2.4834960937500004,8.131475830078125,7.575051879882813
3.3640000000000327,0.0808990478515625,9.459356689453124,10.31500244140625
3.374000000000024,-1.0323974609375002,8.483782958984376,4.1080566406250005
3.3840000000000146,-0.0037384033203125,8.22747802734375,4.646536254882813
3.3950000000000102,0.9305633544921876,8.199215698242188,9.92261962890625
3.4049999999999727,-0.1021331787109375,8.574700927734376,5.818002319335938
3.414999999999964,-1.565493774414063,7.467684936523438,1.7012725830078126
3.4249999999999545,-0.756353759765625,7.565481567382813,4.814166259765625
3.434999999999945,0.8140747070312501,8.160037231445314,6.7243408203125
3.445000000000164,1.10596923828125,8.161233520507814,3.6235595703125
3.4550000000001546,0.7198669433593751,8.102764892578126,3.258840942382813
3.465000000000145,0.4074859619140625,7.728475952148438,6.36246337890625
3.4750000000001364,1.487286376953125,7.862609863281251,6.755444335937501
3.485000000000128,1.347021484375,7.524209594726563,5.755197143554688
3.4950000000001182,0.231781005859375,7.286297607421876,6.124551391601563
3.505000000000109,0.1359283447265625,7.3583740234375,6.775930786132813
3.5150000000001,0.64898681640625,7.730718994140625,6.906475830078126
3.5250000000000625,-0.04127197265625,7.329214477539063,6.797164916992188
3.535000000000082,-0.95045166015625,7.443609619140625,5.1144348144531255
3.546000000000049,-0.5016937255859375,8.410211181640626,4.841830444335938
3.555000000000064,-0.327484130859375,8.859118652343751,6.04185791015625
3.566000000000031,-0.9811065673828124,8.125643920898439,4.88385009765625
3.5760000000000502,-0.17286376953125,7.609445190429688,4.152767944335938
3.5860000000000127,0.8910858154296876,7.593594360351563,6.225338745117188
3.596000000000004,0.27694091796875,6.471774291992188,6.663180541992188
3.6059999999999945,-0.119329833984375,4.749417114257813,3.834106445312501
3.6159999999999854,1.3224975585937502,8.091250610351564,4.5930023193359375
3.625999999999976,1.5767089843750002,12.544436645507814,7.900143432617188
3.6359999999999673,0.170770263671875,10.682861328125,5.639007568359375
3.645999999999958,0.2938385009765625,6.354837036132813,3.610699462890625
3.655999999999949,0.7378112792968751,5.564538574218751,10.632766723632812
3.6660000000001673,-0.1152923583984375,7.653707885742188,9.997686767578124
3.6760000000001583,-1.4630615234375002,7.444058227539063,1.2587951660156251
3.686000000000149,-0.470440673828125,7.113583374023438,-0.4580291748046875
3.697000000000117,1.5722229003906252,8.979046630859376,11.223434448242188
3.706000000000131,-0.392681884765625,8.838632202148439,10.862454223632811
3.717000000000098,-0.96002197265625,7.928555297851563,2.7462310791015625
3.727000000000089,0.535040283203125,8.164373779296875,5.124453735351563
3.73700000000008,1.7072540283203126,8.700161743164063,9.298306274414063
3.747000000000071,0.31282958984375,7.949639892578125,4.463653564453125
3.7570000000000894,-0.3835601806640625,7.097732543945313,0.8314208984375001
3.7670000000000528,2.3224456787109378,7.8751708984375,5.156005859375
3.777000000000044,1.448406982421875,8.134765625,7.988519287109375
3.7870000000000346,-0.40972900390625,8.407369995117188,4.162786865234375
3.7970000000000255,-0.835308837890625,8.572457885742189,3.5182861328125004
3.807000000000016,-0.2666229248046875,8.333200073242189,6.729873657226563
3.8170000000000073,0.30625,7.278521728515625,6.959710693359376
3.826999999999998,-0.3201568603515625,6.8355957031250005,5.0127502441406255
3.836999999999989,-0.7914947509765625,7.161135864257813,6.234759521484375
3.84699999999998,-0.386700439453125,7.435833740234376,6.924569702148438
3.856999999999944,-0.1266571044921875,7.634268188476563,6.062493896484376
3.8680000000001655,-0.0740203857421875,7.787393188476563,6.399099731445313
3.878000000000157,0.1661346435546875,8.192037963867188,6.253451538085938
3.8880000000001473,1.0146026611328125,8.263516235351563,5.548089599609376
3.898000000000138,1.1191284179687502,8.515185546875001,5.065835571289063
3.908000000000129,0.64300537109375,7.974911499023438,5.021572875976563
3.91800000000012,0.5067779541015626,7.626791381835938,4.5820861816406255
3.928000000000111,0.6156402587890626,7.4157958984375005,5.582781982421875
3.9380000000001294,0.8178131103515626,7.193435668945313,6.8864379882812505
3.9480000000000928,0.4996002197265625,5.525509643554688,5.082733154296875
3.958000000000084,0.6359771728515625,5.135369873046876,4.119122314453126
3.9680000000000746,0.22789306640625,8.904727172851564,6.253451538085938
3.9780000000000655,-1.5873260498046875,13.370474243164065,6.240740966796875
3.988000000000056,-0.3527557373046875,11.6087890625,4.492514038085938
3.999000000000024,0.459674072265625,7.14244384765625,4.926019287109376
4.009000000000015,0.720166015625,4.7903900146484375,10.72278747558594
4.0190000000000055,0.0348419189453125,5.708990478515625,10.147222900390624
4.028999999999996,-1.4147613525390623,6.511102294921876,2.075860595703125
4.038999999999987,-1.093408203125,8.218356323242189,-0.36068115234375
4.048999999999978,2.8374481201171875,9.38772888183594,8.816949462890626
4.058999999999969,0.703717041015625,9.340176391601563,10.706488037109375
4.06899999999996,-1.7371612548828126,7.941116333007813,5.94017333984375
4.078999999999951,0.6587066650390625,7.731466674804688,5.264120483398438
4.089000000000169,1.95234375,8.273834228515625,7.545892333984375
4.09900000000016,-0.6512298583984375,8.187701416015626,4.901495361328125
4.109000000000151,-2.022177124023438,7.858422851562499,0.7155303955078125
4.120000000000118,-0.5359375000000001,7.7806640625,4.02850341796875
4.129000000000133,1.708001708984375,7.616024780273438,8.074801635742189
4.1400000000001,0.5100677490234375,7.98941650390625,5.554071044921876
4.150000000000063,-0.075665283203125,8.712124633789063,3.5855773925781254
4.160000000000082,0.75904541015625,8.832949829101564,5.606109619140625
4.170000000000073,1.5305023193359375,7.787841796875001,7.25728759765625
4.180000000000064,1.0618560791015623,6.695779418945313,5.539865112304688
4.190000000000055,0.0177947998046875,6.445156860351563,5.1619873046875
4.2000000000000455,0.3707000732421875,7.066180419921875,7.507162475585938
4.210000000000036,0.4227386474609375,7.621109008789063,7.146780395507813
4.220000000000027,-0.1317413330078125,8.021716308593751,4.990469360351563
4.230000000000018,-0.4373931884765625,8.426211547851564,5.451190185546875
4.240000000000009,-0.4801605224609375,8.882894897460938,6.395361328125
4.25,-0.4394866943359375,8.300302124023439,5.992062377929688
4.259999999999991,-0.4062896728515625,7.366748046875,4.762277221679688
4.27000000000001,0.058917236328125,7.347756958007813,4.7947265625
4.280999999999949,0.58917236328125,7.558004760742188,5.831610107421875
4.291000000000167,0.1208251953125,6.772042846679688,5.227783203125
4.301000000000158,0.1951446533203125,5.524014282226563,4.776632690429688
4.311000000000149,1.1832794189453126,7.080685424804688,6.07415771484375
4.32100000000014,1.2374114990234375,11.39749450683594,6.695779418945313
4.331000000000131,0.09989013671875,11.628079223632811,5.71826171875
4.341000000000122,0.370550537109375,7.648175048828126,4.10745849609375
4.351000000000113,0.5283111572265625,5.7553466796875,8.060446166992188
4.361000000000104,0.0967498779296875,6.4946533203125005,9.707437133789064
4.371000000000095,-0.8182617187500001,8.049081420898439,3.032891845703125
4.3810000000000855,-0.8121307373046875,6.8942138671875,2.454336547851563
4.391000000000076,0.4945159912109375,8.354882812500001,8.068670654296875
4.401000000000067,0.7793823242187501,9.041104125976563,10.074398803710938
4.411000000000058,-0.1876678466796875,8.450885009765626,5.681475830078125
4.4220000000000255,-0.6762023925781251,7.968780517578126,4.372286987304688
4.432000000000016,1.4830993652343751,8.556906127929688,7.146182250976563
4.442000000000007,1.41341552734375,7.987921142578125,5.777926635742188
4.451999999999998,-0.1580596923828125,7.522265625,1.930810546875
4.461999999999989,0.950750732421875,7.595388793945313,3.72105712890625
4.47199999999998,1.4113220214843751,8.234954833984375,6.501531982421875
4.481999999999943,-0.137872314453125,8.845211791992188,5.372833251953125
4.491999999999962,-0.872991943359375,8.369836425781251,4.5795440673828125
4.501999999999953,-0.7358673095703125,7.837039184570313,5.256793212890625
4.512000000000143,0.259295654296875,7.434487915039063,7.5743041992187505
4.522000000000162,0.1709197998046875,7.102368164062501,6.734957885742188
4.532000000000153,-0.8405426025390625,7.155303955078126,4.598385620117188
4.542000000000144,-0.1425079345703125,7.229473876953126,6.237750244140625
4.552000000000135,0.5172454833984376,7.660287475585938,7.628436279296875
4.5620000000001255,0.0823944091796875,7.375271606445313,6.620712280273438
4.573000000000093,0.1182830810546875,7.923919677734376,5.235858154296875
4.583000000000084,0.9857421875,8.639300537109376,5.827722167968751
4.593000000000075,1.1967376708984376,8.843267822265625,5.577398681640625
4.6030000000000655,0.2702117919921875,8.0689697265625,3.926519775390626
4.613000000000056,0.374737548828125,7.423870849609376,4.72354736328125
4.623000000000047,0.7218109130859376,6.8266235351562505,6.2218994140625
4.633000000000038,0.496759033203125,5.3671508789062505,4.816558837890625
4.643000000000029,0.5100677490234375,4.50103759765625,4.038522338867188
4.65300000000002,-0.2237060546875,9.130078125,5.500238037109376
4.662999999999983,-0.651678466796875,13.875607299804688,6.587664794921875
4.673000000000002,-0.7155303955078125,12.178073120117189,6.136514282226563
4.683999999999969,-0.4206451416015625,7.208688354492188,6.450241088867188
4.695000000000164,0.7077545166015625,5.329916381835938,12.126483154296876
4.703999999999951,0.9132171630859376,4.893869018554688,9.871627807617188
4.714000000000169,-1.0643981933593751,5.604464721679688,1.0427154541015626
4.72400000000016,-1.0374816894531251,7.559051513671876,-0.1015350341796875
4.734000000000151,2.7291839599609378,10.770938110351564,7.29556884765625
4.744000000000142,0.2570526123046875,10.077239990234377,7.558901977539063
4.754000000000133,-0.9787139892578126,7.782907104492188,6.0524749755859375
4.764000000000124,1.072174072265625,7.726681518554688,8.315255737304689
4.774000000000115,1.06708984375,8.727078247070313,8.2208984375
4.7840000000001055,-0.5254699707031251,8.177532958984376,3.2443359375000003
4.795000000000073,-1.6988800048828123,7.816552734375,0.6702209472656251
4.804000000000087,0.172564697265625,7.81834716796875,4.78336181640625
4.814000000000078,1.33206787109375,6.9731689453125005,5.9971466064453125
4.824000000000069,0.34632568359375,6.205899047851563,4.470233154296875
4.83400000000006,0.351409912109375,7.399047851562501,6.559552001953126
4.845000000000027,0.5510406494140625,9.548181152343751,7.194033813476563
4.854000000000042,1.1515777587890623,9.066525268554688,5.803497314453125
4.865000000000009,0.6243133544921875,7.549630737304688,5.82652587890625
4.875,-0.1614990234375,6.852792358398438,8.187701416015626
4.884999999999991,0.26258544921875,6.644937133789063,7.460208129882813
4.895999999999958,-0.0629547119140625,6.808529663085938,4.288098144531251
4.904999999999973,0.0130096435546875,8.062240600585938,4.112094116210938
4.914999999999964,-0.24404296875,9.142190551757814,4.308135986328125
4.9249999999999545,-0.7891021728515626,9.245968627929688,3.922482299804688
4.934999999999945,0.00657958984375,8.183065795898438,6.868045043945313
4.945000000000164,0.24822998046875,7.43314208984375,7.750607299804688
4.955000000000155,0.4427764892578125,7.258483886718751,6.246572875976563
4.9650000000001455,0.7089508056640625,7.325177001953126,6.317303466796876
4.975000000000136,0.3093902587890625,7.595388793945313,6.1167755126953125
4.986000000000104,0.33436279296875,6.580038452148438,4.597787475585938
4.996000000000095,0.7831207275390626,5.550482177734375,3.293234252929688
5.0060000000000855,0.716278076171875,6.042755126953125,4.6602935791015625
5.016000000000076,-0.03050537109375,11.149713134765626,4.6762939453125005
5.026000000000067,-0.0168975830078125,13.242471313476564,5.8558349609375
5.036000000000058,0.8701507568359376,10.287039184570313,5.9772583007812505
5.046000000000049,0.6896606445312501,5.64169921875,7.891918945312501
5.05600000000004,1.2320281982421877,5.174847412109376,11.83428955078125
5.066000000000031,-0.5012451171875001,5.7170654296875005,7.262820434570313
5.07600000000005,-2.157806396484375,7.132723999023438,0.1745086669921875
5.086000000000013,-1.1246612548828123,8.375817871093751,2.9630584716796875
5.096000000000004,1.2468322753906251,9.936975097656251,9.2556884765625
5.1059999999999945,-0.7571014404296875,8.573056030273438,8.87945556640625
5.1159999999999854,-0.59515380859375,7.795767211914063,5.923425292968751
5.126999999999953,1.4053405761718751,7.957415771484375,6.344668579101563
5.137000000000143,1.7548065185546875,8.680123901367189,6.427810668945313
5.147000000000162,-0.1661346435546875,8.25858154296875,2.6073120117187503
5.157000000000153,-0.3249420166015625,7.732064819335938,1.0609588623046875
5.167000000000144,2.185171508789063,8.013641357421875,5.066732788085938
5.177000000000135,1.2042144775390626,7.413552856445313,7.601968383789063
5.1870000000001255,-1.0561737060546876,7.404281616210938,4.190301513671876
5.197000000000116,-1.0285095214843751,7.766009521484375,5.292980957031251
5.207000000000107,-0.083441162109375,9.038262939453126,8.028445434570314
5.217000000000098,0.0710296630859375,8.223440551757813,6.359771728515626
5.227000000000089,-0.033795166015625,6.870736694335938,4.440325927734375
5.23700000000008,-0.311334228515625,6.504074096679688,7.2172119140625
5.247000000000071,0.2356689453125,7.149322509765626,8.727526855468751
5.25700000000009,0.3004180908203125,7.094891357421876,5.4072265625
5.268000000000029,0.100787353515625,8.203402709960939,3.3310668945312503
5.27800000000002,0.89661865234375,9.340176391601563,5.193988037109375
5.287999999999983,1.0962493896484375,9.210079956054688,5.780319213867188
5.298000000000002,0.289202880859375,7.791879272460938,5.0176849365234375
5.307999999999993,0.331072998046875,7.188949584960938,5.752206420898438
5.317999999999984,1.236663818359375,6.600375366210938,6.438278198242188
5.327999999999975,0.7391571044921875,4.776632690429688,4.7126312255859375
5.337999999999965,-0.1469940185546875,6.014791870117188,3.4538360595703126
5.347999999999956,-0.5854339599609375,11.244219970703126,6.181375122070313
5.357999999999947,0.0318511962890625,12.681411743164064,6.5173828125
5.3680000000001655,0.7343719482421875,8.969476318359376,4.4808502197265625
5.378000000000156,0.4565338134765625,5.80020751953125,8.311965942382812
5.388000000000147,1.007275390625,6.486727905273438,11.515927124023438
5.398000000000138,-1.4647064208984375,7.067526245117188,5.993856811523438
5.408000000000129,-1.6813842773437502,6.305789184570313,-0.3949249267578125
5.419000000000096,0.4335052490234375,8.226730346679688,4.06199951171875
5.429000000000087,0.677398681640625,9.212771606445314,10.81146240234375
5.439000000000078,-0.9692932128906252,8.64857177734375,7.25010986328125
5.449000000000069,-0.2045654296875,7.911209106445313,4.7769317626953125
5.45900000000006,1.8472198486328129,8.50501708984375,7.64249267578125
5.469000000000023,0.7753448486328126,9.0834228515625,6.782360839843751
5.479000000000042,-1.7733489990234377,7.866647338867188,2.500244140625
5.489000000000033,-1.18013916015625,7.219604492187501,3.078201293945313
5.499000000000024,1.6712158203125,7.171603393554688,7.0105529785156255
5.509000000000015,1.128848266601563,7.502227783203126,5.797964477539063
5.5190000000000055,-0.154620361328125,8.490213012695314,2.846868896484376
5.528999999999996,0.4583282470703125,8.635263061523439,5.004376220703126
5.538999999999987,1.1937469482421876,8.781808471679689,6.581832885742188
5.548999999999978,1.0298553466796876,7.386337280273438,6.144140625
5.559999999999945,0.2776885986328125,7.054067993164063,5.489920043945313
5.56899999999996,0.0629547119140625,6.736154174804688,7.450039672851563
5.580000000000155,0.4071868896484375,7.3709350585937505,7.425665283203125
5.5900000000001455,0.0168975830078125,7.269400024414063,5.411862182617188
5.600000000000136,-0.2770904541015625,7.867993164062501,4.925421142578125
5.61200000000008,-0.350213623046875,8.448641967773439,6.426016235351563
5.620000000000118,-0.5483489990234376,8.752200317382814,6.079840087890625
5.630000000000109,-0.4278228759765625,8.178430175781251,4.56802978515625
5.6400000000001,0.2103973388671875,7.791281127929688,5.113687133789063
5.650000000000063,0.5254699707031251,7.70828857421875,5.953482055664063
5.660000000000082,0.1818359375,7.566827392578125,5.667718505859376
5.670000000000073,0.293988037109375,6.486279296875001,5.413058471679688
5.680000000000064,0.676800537109375,5.5320892333984375,4.964001464843751
5.691000000000031,0.8750854492187501,5.927163696289063,4.849456787109375
5.70100000000005,0.6482391357421875,10.473062133789064,5.182174682617188
5.711999999999989,-0.0970489501953125,13.15140380859375,5.94376220703125
5.721000000000004,0.746185302734375,9.759625244140626,5.501882934570313
5.7309999999999945,0.9356475830078126,5.782113647460938,6.636413574218751
5.7409999999999854,0.20516357421875,5.420086669921876,11.8348876953125
5.750999999999976,-0.8746368408203126,6.901989746093751,7.623202514648438
5.760999999999967,-1.9125671386718752,7.317550659179688,0.4350006103515625
5.770999999999958,0.012261962890625,7.93558349609375,2.9032440185546875
5.780999999999949,1.6408599853515626,9.514385986328126,10.559045410156251
5.791000000000167,-0.74169921875,8.63062744140625,7.3344482421875
5.801000000000158,-0.49287109375,7.982687377929688,3.978109741210938
5.8120000000001255,1.298272705078125,7.887432861328126,7.162481689453125
5.82100000000014,2.244537353515625,8.632122802734376,7.798757934570313
5.832000000000107,0.307147216796875,7.814907836914063,2.78436279296875
5.842000000000098,-0.2495758056640625,7.952331542968751,0.7113433837890626
5.852000000000089,1.783367919921875,8.085867309570313,6.430502319335938
5.86200000000008,0.8082427978515626,7.947097778320313,7.37691650390625
5.872000000000071,-1.2178222656250002,7.777374267578126,3.2136810302734378
5.88200000000009,-0.5882751464843751,7.3787109375,5.0306945800781255
5.892000000000053,-0.0991424560546875,8.129382324218751,8.310321044921876
5.902000000000044,-0.3249420166015625,7.811618041992188,6.70938720703125
5.912000000000035,-0.2821746826171875,7.356430053710938,3.8309661865234377
5.9220000000000255,-0.2992218017578125,7.10057373046875,6.702658081054688
5.932000000000016,0.0306549072265625,7.521368408203125,9.036767578125
5.942000000000007,0.03289794921875,7.332504272460938,5.830264282226563
5.951999999999998,0.2591461181640625,7.850497436523438,3.8475646972656254
5.962999999999965,0.8976654052734375,8.633020019531251,5.73919677734375
5.972999999999956,0.9057403564453126,8.8944091796875,5.442666625976563
5.981999999999943,0.6567626953125001,7.997940063476563,4.131683349609375
5.9930000000001655,0.6718658447265625,7.535873413085938,5.6886535644531255
6.003000000000156,0.744091796875,7.476657104492188,6.970028686523438
6.013000000000147,0.459674072265625,7.487722778320313,5.63511962890625
6.023000000000138,0.488983154296875,6.192141723632813,4.968038940429688
6.033000000000129,0.7766906738281251,4.8150634765625,5.012301635742188
6.04300000000012,0.5476013183593751,7.249063110351563,4.872186279296876
6.053000000000111,-1.3399932861328123,12.184353637695311,5.629437255859376
6.06300000000013,-0.7022216796875,12.86534118652344,5.763720703125
6.073000000000093,0.8359069824218751,8.746517944335938,5.180679321289063
6.083000000000084,0.260791015625,5.394216918945313,8.626739501953125
6.093000000000075,0.0892730712890625,5.324533081054688,11.462542724609376
6.1030000000000655,-1.1330352783203126,5.942864990234376,4.952038574218751
6.113000000000056,-1.214532470703125,7.196725463867188,-0.2896514892578125
6.124000000000024,1.4090789794921876,9.051721191406251,4.583132934570313
6.134000000000015,1.0379302978515623,10.193130493164062,10.574148559570313
6.1440000000000055,-1.16279296875,8.7460693359375,7.871432495117188
6.153999999999996,-0.3204559326171875,7.83150634765625,5.319598388671875
6.163999999999987,2.11025390625,7.848403930664063,7.029244995117188
6.173999999999978,0.4080841064453125,8.100222778320314,6.320742797851563
6.183999999999969,-2.0435607910156253,7.874124145507813,2.0185882568359377
6.19399999999996,-1.546502685546875,7.694531250000001,1.9204925537109376
6.203999999999951,1.493716430664063,7.6789794921875005,6.790884399414063
6.214000000000169,1.2290374755859377,7.130780029296876,7.535275268554688
6.22400000000016,-0.161199951171875,8.346060180664063,3.753057861328125
6.234000000000151,0.721661376953125,9.086264038085938,4.859176635742188
6.244000000000142,1.7015716552734377,8.854632568359376,7.295120239257813
6.254000000000133,0.9393859863281252,7.265213012695313,5.739047241210938
6.2650000000001,0.406439208984375,6.583627319335938,3.9710815429687503
6.275000000000063,0.419000244140625,6.600076293945313,7.240240478515625
6.285000000000082,0.2740997314453125,7.047637939453126,8.682217407226563
6.295000000000073,-0.15970458984375,7.481143188476563,4.964151000976563
6.305000000000064,-0.0856842041015625,8.41888427734375,4.112094116210938
6.315000000000055,-0.1987335205078125,9.266455078125,7.13048095703125
6.3250000000000455,-0.9531433105468752,8.844464111328126,6.555364990234375
6.335000000000036,-0.7454376220703125,7.718157958984375,4.008914184570313
6.345000000000027,0.2376129150390625,7.172201538085938,5.305392456054688
6.355000000000018,0.517095947265625,7.171902465820313,6.784304809570313
6.365000000000009,0.0375335693359375,6.6884521484375,4.677639770507813
6.375,0.5327972412109375,5.889031982421876,3.987380981445313
6.384999999999991,1.3688537597656252,6.519027709960938,5.8416290283203125
6.39500000000001,0.9936676025390626,10.342517089843753,6.421380615234376
6.405999999999949,0.445318603515625,12.2822998046875,5.683718872070313
6.416000000000167,0.8705993652343751,9.067422485351564,5.110696411132813
6.426000000000158,0.367559814453125,6.043353271484375,6.707293701171875
6.436000000000149,-0.1275543212890625,5.994903564453125,10.038659667968751
6.44600000000014,-0.7837188720703125,7.266708374023438,5.4603118896484375
6.456000000000131,-1.5454559326171875,7.0951904296875,0.9096282958984376
6.466000000000122,0.0629547119140625,7.856030273437501,5.903536987304688
6.476000000000113,0.631939697265625,9.0379638671875,10.838079833984375
6.486000000000104,-0.65616455078125,8.795864868164063,7.343121337890626
6.496000000000095,-0.5842376708984376,8.517428588867189,4.0497375488281255
6.5060000000000855,1.3190582275390623,8.42486572265625,6.605908203125001
6.516000000000076,1.3316192626953125,7.810720825195313,6.683666992187501
6.526000000000067,0.1789947509765625,6.98094482421875,3.3808624267578127
6.537000000000035,0.9613677978515626,7.440020751953125,2.9292633056640627
6.5470000000000255,1.893576049804688,8.084222412109376,5.5436035156250005
6.557000000000016,1.032696533203125,8.710330200195314,5.986380004882813
6.567000000000007,-0.2524169921875,9.038711547851562,4.784707641601563
6.576999999999998,-1.2421966552734376,8.985626220703125,4.496102905273438
6.586999999999989,-0.1280029296875,7.428057861328125,6.381753540039063
6.59699999999998,0.234173583984375,6.470578002929688,7.446600341796875
6.606999999999943,-0.9577789306640626,6.570318603515625,5.770599365234375
6.616999999999962,-0.7412506103515626,7.505068969726563,4.630386352539063
6.626999999999953,0.1598541259765625,7.723541259765626,6.265713500976563
6.637000000000143,0.158209228515625,7.974911499023438,7.654306030273438
6.647000000000162,-0.20875244140625,7.700662231445313,6.0639892578125005
6.657000000000153,0.52337646484375,8.232711791992188,5.64468994140625
6.667000000000144,1.3821624755859376,8.246170043945312,7.255194091796875
6.677000000000135,0.7911956787109375,8.250057983398438,4.9230285644531255
6.68800000000013,0.6458465576171876,7.721148681640625,2.865411376953125
6.698000000000093,0.908880615234375,7.717709350585938,5.094696044921875
6.708000000000084,0.4574310302734375,7.580584716796875,6.953280639648438
6.718000000000075,0.3153717041015625,6.644787597656251,4.95562744140625
6.7280000000000655,0.7790832519531251,4.852297973632813,3.808535766601562
6.738000000000056,0.7582977294921875,6.377716064453126,6.012698364257813
6.748000000000047,-1.3187591552734377,11.766848754882814,7.563986206054688
6.758000000000038,-1.531549072265625,13.2453125,5.655007934570313
6.768000000000029,1.314273071289063,9.02958984375,4.132879638671875
6.77800000000002,0.8982635498046876,5.117425537109376,8.051324462890626
6.787999999999983,-0.104376220703125,5.34202880859375,11.501870727539064
6.798000000000002,-0.9079833984375,6.78355712890625,4.765118408203126
6.807999999999993,-0.8294769287109376,6.722695922851563,-0.5169464111328126
6.81899999999996,0.9595733642578126,8.442361450195314,3.1263519287109376
6.828999999999951,1.20167236328125,9.750653076171876,12.63684997558594
6.839000000000169,-1.4461639404296875,9.126638793945313,7.830459594726563
6.84900000000016,-0.6543701171875,7.924667358398438,4.90299072265625
6.859000000000151,2.3828582763671875,8.189944458007814,7.103115844726563
6.869000000000142,1.0469024658203123,8.194729614257813,6.533383178710938
6.879000000000133,-1.894024658203125,7.444058227539063,2.3040527343750004
6.889000000000124,-1.977166748046875,7.605108642578125,1.9998962402343752
6.899000000000115,0.7976257324218751,7.562042236328126,7.021319580078125
6.9090000000001055,1.5281097412109377,7.497891235351563,7.401440429687501
6.919000000000096,-0.487786865234375,8.317648315429688,3.853546142578125
6.929000000000087,0.3799713134765625,9.91663818359375,4.563693237304688
6.939000000000078,1.842135620117188,8.858969116210938,7.235305786132813
6.949000000000069,0.9334045410156252,6.763369750976563,5.535977172851563
6.95900000000006,0.3808685302734375,6.300854492187501,3.804049682617188
6.970000000000027,0.7801300048828126,7.092648315429688,6.410763549804688
6.980000000000018,0.539227294921875,7.234259033203125,8.063885498046876
6.990000000000009,-0.0527862548828125,7.234259033203125,5.566781616210938
7.0,0.093609619140625,8.172299194335938,4.429708862304688
7.010999999999967,0.1981353759765625,8.81904296875,7.938125610351563
7.02000000000001,-0.9425262451171876,8.563186645507812,7.8990966796875
7.029999999999973,-1.2293365478515623,7.967285156250001,4.23306884765625
7.039999999999964,0.0480010986328125,7.694531250000001,3.5269592285156253
7.0499999999999545,0.5612091064453125,7.568472290039063,6.148028564453125
7.059999999999945,-0.16748046875,7.255194091796875,5.9294067382812505
7.070000000000164,-0.2621368408203125,7.366299438476563,3.972875976562501
7.080000000000155,1.089968872070313,6.944308471679688,5.604165649414063
7.0900000000001455,1.3115814208984375,5.963201904296875,6.007913208007813
7.100000000000136,0.5357879638671875,6.770397949218751,4.428961181640625
7.111000000000104,0.3195587158203125,11.966180419921876,5.704803466796875
7.121000000000095,0.5238250732421875,12.516473388671876,7.658642578125001
7.1310000000000855,1.1533721923828126,7.786795043945313,4.793530273437501
7.141000000000076,0.3279327392578125,4.651470947265626,6.510354614257813
7.151000000000067,-0.485394287109375,6.477755737304688,10.996438598632814
7.161000000000058,-1.21363525390625,7.1765380859375005,5.490966796875
7.171000000000049,-1.477716064453125,7.027151489257813,-0.413616943359375
7.18100000000004,1.3842559814453126,8.208636474609376,6.59873046875
7.191000000000031,0.6510803222656251,10.06976318359375,12.342413330078124
7.20100000000005,-1.4940155029296875,8.70240478515625,5.9518371582031255
7.211000000000013,0.1739105224609375,8.140597534179689,3.1869140625
7.221000000000004,1.729534912109375,7.8273193359375,7.578192138671875
7.230999999999994,1.3423858642578126,7.826123046875001,6.838735961914063
7.2409999999999854,-0.1643402099609375,7.103115844726563,1.7406005859375002
7.250999999999976,0.49705810546875,7.980294799804688,1.8976135253906248
7.262000000000143,2.058514404296876,8.382247924804688,7.730270385742188
7.272000000000162,0.96839599609375,8.493353271484375,6.763668823242188
7.282000000000153,-0.983648681640625,8.769845581054689,3.369647216796875
7.292000000000144,-1.02103271484375,8.177084350585938,5.6064086914062505
7.302000000000135,0.2304351806640625,7.369290161132813,7.898049926757813
7.312000000000125,-0.1123016357421875,6.581683349609375,5.91624755859375
7.322000000000116,-0.9425262451171876,6.912307739257813,3.964202880859376
7.332000000000107,-0.4397857666015625,7.5743041992187505,5.978305053710938
7.342000000000098,0.1302459716796875,7.696026611328126,7.700811767578125
7.352000000000089,-0.0076263427734375,7.81834716796875,6.255245971679688
7.36200000000008,0.226995849609375,7.961752319335938,5.678784179687501
7.372000000000071,0.9748260498046876,8.587261962890626,6.734658813476563
7.38200000000009,0.8499633789062501,8.469277954101564,5.971127319335938
7.393000000000029,0.7621856689453126,7.99898681640625,3.867453002929688
7.40300000000002,0.8418884277343751,7.3488037109375,4.369296264648438
7.4129999999999825,0.639715576171875,7.473068237304688,6.040811157226563
7.423000000000002,0.3303253173828125,7.585369873046876,6.0161376953125005
7.432999999999993,-0.0154022216796875,7.804888916015625,5.1237060546875
7.442999999999984,0.6926513671875001,6.934439086914063,6.030194091796876
7.4529999999999745,1.021630859375,5.037722778320313,5.77628173828125
7.462999999999965,0.306549072265625,6.725387573242188,4.771697998046875
7.472999999999956,-1.514801025390625,11.573648071289064,6.1656738281250005
7.482999999999947,-0.6286499023437501,12.502566528320314,5.255148315429688
7.493000000000165,1.5819427490234377,8.669058227539063,3.52366943359375
7.503000000000156,0.98873291015625,5.58487548828125,8.378958129882813
7.513000000000147,-0.076861572265625,5.603118896484375,11.701800537109376
7.523000000000138,-1.4712860107421877,7.063189697265625,5.259185791015625
7.5340000000001055,-0.828131103515625,7.028646850585938,0.976171875
7.544000000000096,1.2314300537109375,8.984579467773438,5.199221801757813
7.554000000000087,0.1912567138671875,9.41180419921875,10.050921630859376
7.564000000000078,-1.2442901611328123,8.95960693359375,6.641647338867188
7.574000000000069,-0.8886932373046875,7.643838500976563,5.4778076171875005
7.58400000000006,1.7105438232421877,7.506265258789063,6.84337158203125
7.5940000000000225,0.2178741455078125,8.188449096679689,5.528500366210938
7.604000000000042,-2.003634643554688,8.195477294921876,3.235812377929688
7.614000000000033,-1.5801483154296876,8.155999755859376,3.200820922851563
7.624000000000024,1.0908660888671875,7.584323120117188,5.904583740234376
7.6340000000000146,2.106515502929688,7.7402893066406255,5.995352172851563
7.644000000000005,0.6093597412109375,8.09229736328125,4.5047760009765625
7.653999999999996,0.6851745605468751,8.489913940429688,5.121762084960938
7.663999999999987,1.636822509765625,8.099774169921876,6.514242553710938
7.674999999999954,1.6504302978515626,7.443908691406251,5.525958251953125
7.684999999999945,0.7907470703125,6.730770874023438,5.550332641601563
7.695000000000164,-0.0644500732421875,6.835296630859376,7.220501708984376
7.705000000000155,0.0168975830078125,7.477554321289063,7.728475952148438
7.7150000000001455,0.12261962890625,7.631875610351563,6.174795532226563
7.725000000000136,-0.56165771484375,8.1311767578125,4.821792602539063
7.735000000000127,-1.0546783447265626,8.880352783203126,5.496051025390625
7.745000000000118,-1.1470916748046875,8.935083007812501,5.430853271484375
7.755000000000109,-0.6936981201171876,7.696923828125,5.216867065429688
7.7650000000001,0.0327484130859375,7.020123291015626,5.343823242187501
7.7750000000000625,0.6658843994140625,7.461853027343751,5.672653198242188
7.785000000000082,0.7016235351562501,7.558901977539063,5.906826782226563
7.796000000000049,0.2546600341796875,6.266610717773438,5.063442993164063
7.80600000000004,0.89542236328125,5.391824340820313,4.243237304687501
7.815000000000055,1.8028076171875,8.682217407226563,5.478405761718751
7.82600000000005,0.7768402099609376,12.680813598632811,6.457119750976563
7.836000000000013,-0.10347900390625,10.457360839843751,5.115032958984376
7.846000000000004,0.48988037109375,6.7832580566406255,4.820147705078125
7.855999999999994,0.701324462890625,5.372683715820313,11.21640625
7.8659999999999854,0.1543212890625,6.937579345703125,9.623995971679689
7.875999999999976,-1.6763000488281252,6.788342285156251,1.4599212646484376
7.885999999999967,-1.2199157714843751,7.940518188476563,2.0093170166015626
7.895999999999958,0.93729248046875,9.153405761718751,10.965335083007814
7.905999999999949,-0.3361572265625,9.124395751953124,7.905825805664063
7.916000000000167,-0.7917938232421876,8.093045043945313,3.1284454345703128
7.928000000000111,0.7639801025390626,8.0869140625,6.066680908203125
7.936000000000149,1.849163818359375,8.294619750976564,8.448641967773439
7.947000000000116,1.0098175048828126,7.416394042968751,4.4265686035156255
7.957000000000107,-0.136676025390625,7.930947875976563,0.355596923828125
7.967000000000098,1.9080810546875,8.387780761718751,4.899252319335938
7.977000000000089,1.7470306396484376,8.587860107421875,7.466189575195313
7.98700000000008,-0.218023681640625,7.688848876953125,4.808483886718751
7.997000000000071,-1.3079925537109376,7.534976196289063,3.929061889648438
8.00700000000009,-0.1136474609375,7.434786987304688,7.735354614257813
8.017000000000053,-0.161798095703125,7.739691162109375,7.414898681640626
8.02800000000002,-1.2801788330078123,7.423123168945313,4.336398315429688
8.037000000000035,-0.701324462890625,7.5249572753906255,4.8322601318359375
8.047000000000025,-0.03409423828125,7.528396606445313,8.229571533203126
8.057000000000016,-0.1158905029296875,7.440917968750001,7.655651855468751
8.067000000000007,0.0082244873046875,7.539611816406251,4.789044189453126
8.076999999999998,0.6123504638671875,8.344863891601562,5.329916381835938
8.086999999999989,1.2084014892578123,8.950784301757814,5.634222412109375
8.09699999999998,1.1524749755859376,8.34710693359375,4.45318603515625
8.107999999999947,0.8218505859375,7.515835571289063,4.535580444335938
8.118000000000166,0.9159088134765626,7.434936523437501,6.354388427734375
8.128000000000156,0.9715362548828126,7.596884155273438,6.581982421875001
8.138000000000147,0.17645263671875,7.596136474609375,5.537472534179688
8.148000000000138,-0.130096435546875,7.606005859375,6.012997436523438
8.15800000000013,0.0849365234375,6.444857788085938,5.85284423828125
8.16800000000012,0.1969390869140625,4.602273559570313,4.2889953613281255
8.178000000000111,-0.4673004150390625,7.467535400390625,4.817306518554688
8.18800000000013,-1.921240234375,13.113720703125,6.0883636474609375
8.198000000000093,-0.3255401611328125,12.824667358398438,4.643096923828125
8.208000000000084,1.2329254150390625,7.889974975585938,4.2109375
8.218000000000075,1.0714263916015625,4.691845703125001,10.838528442382811
8.228000000000065,0.5471527099609376,5.448947143554688,11.758624267578126
8.238000000000056,-0.7224090576171875,6.474765014648438,2.790643310546875
8.249000000000024,-0.5262176513671876,7.32906494140625,-0.424981689453125
8.259000000000015,2.6917999267578128,9.366494750976564,6.993954467773438
8.269000000000005,0.75306396484375,9.880300903320313,10.389022827148438
8.278999999999996,-1.2740478515625,8.345013427734376,5.895761108398438
8.288999999999987,-0.0897216796875,7.790832519531251,5.534930419921875
8.298999999999978,1.4659027099609376,8.120858764648439,7.964294433593751
8.308999999999969,-0.4451690673828125,8.162280273437501,5.301654052734375
8.31899999999996,-2.057916259765625,7.80458984375,0.9773681640625
8.32899999999995,-1.6001861572265623,7.936480712890625,3.732720947265625
8.33900000000017,0.8694030761718751,7.379608154296876,7.804888916015625
8.34900000000016,0.8465240478515625,7.664324951171875,6.114382934570313
8.359000000000151,-0.25899658203125,8.574551391601563,3.8729858398437504
8.370000000000118,1.375732421875,9.032580566406253,5.443862915039063
8.38000000000011,1.9166046142578128,8.068222045898438,6.898699951171875
8.3900000000001,1.2021209716796877,6.750360107421876,5.572015380859376
8.400000000000063,0.5628540039062501,6.6083007812500005,4.756744384765625
8.410000000000082,0.6234161376953126,7.137359619140626,6.729574584960938
8.420000000000073,0.7213623046875001,7.543649291992188,7.6359130859375
8.430000000000064,-0.142059326171875,7.715167236328125,5.355487060546875
8.440000000000055,-0.6271545410156251,8.430697631835939,4.606161499023438
8.450000000000045,-0.5854339599609375,8.746966552734376,7.171304321289063
8.460000000000036,-0.9087310791015626,8.452978515625,6.95103759765625
8.470000000000027,-1.05213623046875,7.455123901367188,4.36705322265625
8.480000000000018,-0.239556884765625,7.386038208007813,4.1698150634765625
8.490000000000009,0.651678466796875,7.699615478515626,6.509307861328126
8.5,0.114544677734375,7.402188110351563,5.957369995117188
8.510999999999967,-0.2699127197265625,6.425119018554688,4.019232177734375
8.520999999999958,1.035687255859375,5.523565673828125,5.005422973632813
8.530999999999949,1.8926788330078128,7.810720825195313,7.005618286132813
8.541000000000167,0.792242431640625,12.274523925781253,6.175094604492188
8.551000000000158,-0.3545501708984375,11.241229248046876,4.213479614257813
8.56100000000015,1.1034271240234377,7.08023681640625,4.647283935546875
8.57100000000014,1.1295959472656252,5.265765380859375,10.586709594726564
8.581000000000131,-0.6685760498046875,6.752752685546875,8.808276367187501
8.591000000000122,-1.7422454833984375,8.218057250976564,0.6279022216796876
8.601000000000113,0.0868804931640625,7.099227905273438,3.601876831054688
8.611000000000104,1.1122497558593751,8.5020263671875,10.933633422851564
8.621000000000095,0.17166748046875,8.63421630859375,9.182864379882814
8.631000000000085,-0.6256591796875001,8.233010864257814,3.209494018554688
8.641000000000076,0.0665435791015625,8.226580810546876,5.659942626953125
8.651000000000067,1.5992889404296875,8.698367309570314,8.178430175781251
8.661000000000058,0.7768402099609376,7.9660888671875005,3.313571166992188
8.672000000000025,0.1957427978515625,7.55576171875,0.9645080566406252
8.682000000000016,1.600335693359375,7.780963134765625,5.857180786132813
8.692000000000007,0.8845062255859376,8.234207153320312,7.033282470703125
8.701999999999998,-0.277239990234375,8.611337280273439,3.850555419921875
8.711999999999989,-0.6171356201171876,7.927658081054688,4.68167724609375
8.72199999999998,-0.4942169189453125,7.900592041015625,7.123901367187501
8.731999999999942,0.0844879150390625,7.512695312500001,7.198519897460938
8.741999999999962,-0.26796875,7.194183349609376,5.237652587890626
8.751999999999953,-0.7448394775390625,6.974365234375001,5.661886596679688
8.762000000000143,-0.2172760009765625,7.273437500000001,7.272390747070313
8.772000000000162,0.2977264404296875,7.50791015625,7.058853149414063
8.782000000000153,-0.09510498046875,7.590304565429688,5.9682861328125005
8.792000000000144,0.1191802978515625,8.457464599609375,4.940524291992188
8.803000000000111,1.2867584228515625,8.995346069335938,5.280569458007813
8.81300000000013,1.0907165527343752,8.564382934570313,5.368496704101563
8.823000000000093,0.2220611572265625,7.5608459472656255,4.715472412109375
8.833000000000084,0.7559051513671875,7.227679443359375,5.02860107421875
8.843000000000075,1.1674285888671876,7.080535888671876,6.314761352539063
8.853000000000065,0.7194183349609375,5.634072875976563,5.519528198242188
8.863000000000056,0.5241241455078125,4.709640502929688,3.441574096679688
8.873000000000047,0.1311431884765625,9.694427490234377,5.629736328125
8.883000000000038,-0.5653961181640625,13.26923828125,7.837786865234375
8.893000000000029,-0.3216522216796875,10.933932495117189,4.437933349609375
8.90300000000002,0.2630340576171875,6.043353271484375,5.582183837890625
8.912999999999982,0.45458984375,5.707794189453125,12.27332763671875
8.923000000000002,-0.7213623046875001,6.829763793945313,9.017178344726563
8.932999999999993,-1.137820434570313,6.737500000000001,0.4673004150390625
8.94399999999996,-0.17705078125,7.342074584960938,0.0059814453125
8.95399999999995,1.2810760498046876,9.5188720703125,11.113375854492189
8.96400000000017,-0.8625244140625,9.357373046875,8.367294311523438
8.97400000000016,-1.0611083984375,8.096334838867188,3.869247436523438
8.984000000000151,1.3223480224609376,7.712625122070313,7.290933227539063
8.994000000000142,1.2562530517578123,8.666815185546875,8.469876098632813
9.004000000000133,-1.0023406982421876,8.01214599609375,3.5398193359375
9.014000000000124,-1.4240325927734376,7.557257080078125,1.4262756347656251
9.024000000000116,0.5259185791015626,7.701559448242188,5.529397583007813
9.034000000000106,1.9883819580078128,8.171102905273438,6.459213256835938
9.044000000000096,0.9008056640625,7.445404052734376,3.830218505859375
9.054000000000087,-0.3384002685546875,7.887283325195313,3.9088745117187504
9.064000000000078,1.1512786865234377,8.63421630859375,7.542303466796875
9.07400000000007,1.6281494140625,8.329461669921876,6.816903686523438
9.08400000000006,0.0456085205078125,6.885092163085938,4.7171173095703125
9.095000000000027,0.2274444580078125,6.696527099609376,6.783108520507813
9.105000000000018,0.5369842529296875,7.2393432617187505,8.758929443359376
9.115000000000007,-0.2785858154296875,7.445404052734376,6.272592163085938
9.125,-0.6866699218750001,7.543798828125,4.198526000976563
9.134999999999993,-0.3808685302734375,8.788537597656251,4.9459075927734375
9.14500000000001,-0.3976165771484375,9.20230407714844,5.742037963867188
9.154999999999973,-0.65616455078125,8.192486572265626,4.971627807617188
9.164999999999964,-0.0064300537109375,7.227978515625001,5.455825805664063
9.174999999999956,0.8665618896484376,7.428356933593751,6.385940551757813
9.184999999999944,0.8085418701171876,7.322634887695313,5.773291015625
9.195000000000164,0.3482696533203125,6.1740478515625,4.662835693359376
9.205000000000156,0.703717041015625,5.930752563476563,4.499542236328125
9.216000000000122,1.4561828613281251,9.030337524414064,6.037521362304688
9.226000000000113,0.8061492919921875,11.830850219726564,6.015240478515626
9.236000000000104,0.12860107421875,9.220098876953124,4.831063842773438
9.246000000000096,0.3102874755859375,6.239993286132813,6.028399658203125
9.256000000000084,-0.2752960205078125,6.256292724609375,10.346554565429688
9.266000000000076,-0.87149658203125,8.568719482421876,7.112835693359376
9.276000000000067,-1.0503417968750002,7.449740600585938,1.4620147705078126
9.286000000000058,-0.1134979248046875,7.405776977539063,4.9035888671875005
9.29600000000005,0.4631134033203125,8.163775634765626,11.49319763183594
9.30600000000004,-0.1879669189453125,8.584719848632814,7.68795166015625
9.316000000000033,-0.8668609619140626,8.091848754882813,2.8573364257812504
9.32600000000005,0.7559051513671875,8.432192993164064,5.323635864257813
9.336000000000013,1.9255767822265624,8.529541015625,7.247268676757813
9.346000000000004,0.8705993652343751,7.580883789062501,4.270602416992188
9.355999999999996,0.4972076416015625,7.676586914062501,2.55706787109375
9.365999999999984,1.9085296630859376,7.906723022460938,5.99041748046875
9.376999999999953,1.3118804931640626,8.863604736328126,6.264965820312501
9.387000000000144,-0.5945556640625,8.497241210937501,4.1862640380859375
9.397000000000162,-1.475772094726563,7.957415771484375,3.729132080078125
9.407000000000153,-0.2077056884765625,7.069171142578125,7.059600830078126
9.417000000000144,0.3252410888671875,7.0916015625,7.540509033203126
9.428000000000113,-0.892132568359375,6.969729614257813,5.2768310546875
9.437000000000126,-0.8599822998046875,7.748214721679688,4.963552856445313
9.447000000000116,-0.0198883056640625,8.050128173828126,7.6454833984375
9.457000000000107,0.1801910400390625,7.828964233398438,7.591799926757813
9.467000000000098,-0.140863037109375,7.301400756835938,5.179034423828125
9.47700000000009,0.6824829101562501,7.95113525390625,5.620913696289063
9.48700000000008,1.6151397705078123,8.466287231445314,6.436483764648438
9.497000000000073,0.83082275390625,8.332003784179689,4.099234008789063
9.50700000000009,0.5600128173828125,7.834347534179688,3.302056884765625
9.517000000000053,0.9405822753906252,7.812664794921876,6.070568847656251
9.52800000000002,0.5354888916015625,7.767803955078126,7.036422729492188
9.537999999999982,0.1389190673828125,7.210632324218751,5.5639404296875
9.548000000000002,0.4263275146484375,5.869143676757813,5.041760253906251
9.557999999999993,0.6225189208984375,4.7863525390625,5.712130737304688
9.567999999999984,0.05921630859375,7.811019897460938,5.175296020507813
9.577999999999976,-1.8546966552734376,12.675729370117187,5.176791381835938
9.587999999999964,-0.681585693359375,12.549969482421876,5.475115966796875
9.597999999999956,0.5848358154296875,8.551223754882812,5.182324218750001
9.607999999999947,0.40015869140625,4.677041625976563,10.077090454101564
9.618000000000166,0.322698974609375,5.3332061767578125,10.953073120117187
9.628000000000156,-0.8112335205078126,6.421231079101563,3.739450073242188
9.638000000000147,-0.57960205078125,7.802795410156251,-0.42587890625
9.649000000000116,2.406484985351563,9.257781982421877,5.658297729492188
9.65800000000013,1.6381683349609375,9.992153930664063,9.962844848632812
9.669000000000096,-1.0039855957031252,8.473764038085939,7.008160400390626
9.679000000000087,-0.3856536865234375,7.127191162109376,5.969931030273438
9.689000000000078,1.7896484375,8.0761474609375,7.679876708984375
9.69900000000007,-0.172265625,8.490960693359376,5.741888427734375
9.70900000000006,-2.1377685546875003,8.173196411132814,0.78775634765625
9.719000000000024,-1.3510589599609375,7.577743530273438,2.889935302734376
9.729000000000042,1.2285888671875,7.5025268554687505,7.365551757812501
9.739000000000033,0.8019622802734375,7.50133056640625,5.869293212890625
9.749000000000024,0.1251617431640625,7.902386474609376,3.873883056640625
9.759000000000016,0.3805694580078125,8.724984741210939,6.075653076171875
9.769000000000004,1.565045166015625,8.8465576171875,7.129733276367188
9.778999999999996,1.5746154785156252,7.395458984375001,5.613287353515625
9.788999999999987,0.0539825439453125,6.310424804687501,5.543753051757813
9.798999999999978,0.404644775390625,6.692788696289063,8.272787475585938
9.809999999999944,0.868505859375,7.089508056640626,7.389776611328125
9.820000000000164,-0.163592529296875,7.741934204101563,3.987530517578125
9.830000000000156,-0.4873382568359375,8.612084960937501,4.607955932617188
9.840000000000146,-0.49346923828125,9.549676513671876,5.725888061523438
9.850000000000136,-0.8447296142578126,8.516232299804688,5.544351196289063
9.860000000000127,-0.5550781250000001,7.377963256835938,5.480499267578125
9.870000000000118,0.023626708984375,6.623104858398438,6.0599517822265625
9.88000000000011,0.02452392578125,5.818002319335938,5.038171386718751
9.8900000000001,-0.1206756591796875,5.592053222656251,4.345968627929688
9.900000000000064,0.509320068359375,8.715713500976562,5.069873046875
9.910000000000082,1.059912109375,12.64896240234375,5.709140014648438
9.920000000000073,0.8931793212890625,10.330554199218753,6.067279052734375
9.93100000000004,0.977667236328125,6.601571655273438,6.122607421875
9.941000000000033,0.7711578369140626,5.553921508789063,10.82925720214844
9.95100000000005,0.5259185791015626,7.120312500000001,8.634963989257812
9.961000000000013,-0.5423675537109376,7.521517944335938,0.8806182861328126
9.971000000000004,0.1697235107421875,7.269699096679688,2.5774047851562503
9.980999999999996,0.7307830810546876,8.717657470703125,9.913348388671876
9.990999999999984,-0.2717071533203125,8.954074096679689,8.494250488281251
10.000999999999976,-0.9544891357421876,8.058053588867189,3.654663085937501
10.010999999999967,0.408831787109375,8.332901000976562,5.865255737304688
10.020999999999958,1.3247406005859377,8.626889038085938,8.560046386718751
10.030999999999947,-0.037982177734375,7.926611328125,4.058560180664063
10.041000000000167,0.081048583984375,7.429852294921876,1.6767486572265626
10.051000000000158,1.666729736328125,7.5641357421875,5.886489868164063
10.06100000000015,0.7482788085937501,8.270843505859375,6.8266235351562505
10.07100000000014,-0.2914459228515625,8.527148437500001,4.026409912109376
10.082000000000107,-0.6054718017578126,8.315255737304689,3.915603637695313
10.092000000000098,0.1167877197265625,7.791281127929688,6.788790893554688
10.10200000000009,0.5920135498046876,7.308578491210938,6.941616821289063
10.11200000000008,-0.236566162109375,6.9875244140625,5.129238891601563
10.122000000000073,-0.433953857421875,7.359121704101563,6.066082763671876
10.13200000000009,-0.106768798828125,7.579537963867188,7.422225952148438
10.142000000000053,-0.0483001708984375,7.829412841796875,6.222796630859375
10.152000000000044,-0.2456878662109375,7.639053344726563,5.565136718750001
10.162000000000036,0.051739501953125,8.102017211914063,6.121560668945313
10.172000000000024,0.7557556152343751,8.243179321289062,6.048287963867188
10.182000000000016,0.6225189208984375,8.254544067382813,4.820895385742188
10.192000000000007,0.5535827636718751,7.846759033203125,4.699771118164063
10.201999999999998,0.504833984375,7.879058837890626,5.063143920898438
10.212999999999964,0.6105560302734375,7.725335693359375,6.107952880859376
10.222999999999956,0.8136260986328125,7.02640380859375,6.382949829101563
10.232999999999947,0.7285400390625001,5.3725341796875,4.511056518554688
10.243000000000166,1.1233154296875,4.537823486328126,4.107757568359375
10.253000000000156,0.1242645263671875,9.763961791992188,5.816058349609375
10.263000000000147,-1.48818359375,13.549169921875,6.497943115234375
10.273000000000138,0.0142059326171875,11.466879272460938,4.6408538818359375
10.28300000000013,0.9467132568359377,6.611889648437501,5.649923706054688
10.29300000000012,0.5999389648437501,5.084677124023438,12.56985778808594
10.303000000000113,-0.3240447998046875,5.607904052734376,9.92725524902344
10.31300000000013,-1.7850128173828126,6.695330810546875,0.7005767822265625
10.323000000000093,-0.8717956542968751,7.955172729492188,-0.3895416259765625
10.333000000000084,2.379568481445313,10.1433349609375,8.406622314453125
10.345000000000027,0.0671417236328125,9.196023559570314,11.709127807617188
10.353000000000064,-1.881463623046875,7.900143432617188,4.693490600585938
10.364000000000033,0.86072998046875,7.6565490722656255,5.81097412109375
10.374000000000024,2.0676361083984376,8.366995239257813,8.231365966796876
10.384000000000016,-0.8798706054687501,8.266357421875,4.040914916992188
10.394000000000004,-2.047747802734375,7.912854003906251,0.0300567626953125
10.403999999999996,0.20635986328125,7.556958007812501,5.307485961914063
10.413999999999987,2.038327026367188,7.135415649414063,8.172448730468751
10.423999999999978,0.5127593994140626,7.668362426757813,4.865457153320313
10.433999999999967,0.00179443359375,8.1885986328125,3.6694671630859377
10.44399999999996,0.9544891357421876,9.257183837890626,6.1925903320312505
10.45399999999995,1.5156982421875,8.157046508789064,7.381552124023438
10.46400000000017,0.7991210937500001,7.120462036132813,4.3428283691406255
10.47400000000016,-0.09271240234375,6.422726440429688,5.5160888671875
10.484000000000153,0.283221435546875,7.019973754882813,8.961700439453125
10.494000000000142,-0.0186920166015625,7.365103149414063,6.952233886718751
10.504000000000133,-0.2758941650390625,7.758831787109376,4.004428100585938
10.514000000000124,-0.253912353515625,8.715115356445313,4.988674926757813
10.525000000000064,-0.6742584228515626,9.33524169921875,6.629235839843751
10.535000000000082,-0.576910400390625,8.326770019531251,5.388385009765625
10.545000000000073,-0.12381591796875,7.313961791992188,4.711285400390626
10.555000000000064,0.4834503173828125,7.233660888671875,6.100625610351563
10.565000000000056,0.67889404296875,7.548583984375001,6.2721435546875
10.575000000000044,0.3620269775390625,7.448394775390626,5.367749023437501
10.585000000000036,0.2845672607421875,7.013693237304688,5.672653198242188
10.595000000000027,0.4206451416015625,5.995800781250001,4.702163696289063
10.605000000000018,0.5217315673828126,5.785702514648438,4.700369262695313
10.615000000000007,0.3333160400390625,9.548629760742188,4.799661254882813
10.625,-0.121124267578125,13.934674072265626,5.223895263671875
10.634999999999993,0.210546875,11.203695678710938,6.343621826171876
10.645999999999958,0.45758056640625,6.361117553710938,6.611889648437501
10.655999999999947,1.0687347412109376,3.93758544921875,11.486169433593751
10.666000000000167,0.3820648193359375,5.33963623046875,9.124246215820314
10.676000000000158,-1.6513275146484376,6.448895263671876,1.6335327148437502
10.68600000000015,-1.5701293945312502,8.787341308593751,0.095404052734375
10.69600000000014,2.446112060546876,10.212570190429688,8.980392456054688
10.706000000000133,0.9132171630859376,9.321484375,9.190042114257814
10.716000000000122,-0.3288299560546875,7.830758666992188,5.599081420898438
10.726000000000113,1.0908660888671875,7.69991455078125,6.314761352539063
10.736000000000104,1.8087890625,8.266357421875,7.30394287109375
10.746000000000096,0.4233367919921875,7.973416137695313,3.5704742431640626
10.756000000000084,-0.6290985107421876,8.084671020507812,0.0348419189453125
10.766000000000076,1.6199249267578126,7.677035522460938,4.7974182128906255
10.776000000000067,0.7134368896484375,7.560995483398438,7.9331909179687505
10.787000000000036,-0.6510803222656251,7.9529296875,6.057708740234375
10.797000000000024,-0.92772216796875,8.275628662109376,4.965945434570313
10.807000000000016,-1.0178924560546876,8.348153686523439,6.514541625976563
10.817000000000007,-0.2483795166015625,8.005267333984376,6.670806884765626
10.826999999999998,-0.22669677734375,7.141995239257813,4.964749145507813
10.836999999999987,-0.8030090332031251,6.793576049804688,5.208792114257813
10.84699999999998,-0.0282623291015625,6.858026123046876,7.5847717285156255
10.856999999999942,0.5806488037109375,7.612136840820313,6.581533813476563
10.866999999999962,0.493170166015625,8.147027587890626,5.06329345703125
10.876999999999953,0.6400146484375,8.669955444335939,5.298214721679688
10.887000000000144,1.272552490234375,8.916690063476564,5.854788208007813
10.897000000000162,1.4660522460937502,8.208486938476563,5.858078002929688
10.907000000000153,0.4140655517578125,7.329663085937501,4.9354400634765625
10.917000000000144,0.3829620361328125,7.245474243164063,5.328869628906251
10.927000000000136,0.715679931640625,7.419833374023438,6.422576904296876
10.937000000000126,-0.240155029296875,7.184762573242188,5.402142333984376
10.948000000000093,-0.26856689453125,5.672055053710938,4.595245361328125
10.958000000000084,0.2561553955078125,6.19498291015625,5.858227539062501
10.968000000000076,-0.4514495849609375,9.467132568359377,6.414801025390625
10.978000000000064,-1.3035064697265626,12.230410766601564,4.89342041015625
10.988000000000056,0.0267669677734375,10.538409423828126,4.775885009765625
10.998000000000047,0.9734802246093752,7.150668334960938,6.44859619140625
11.008000000000038,0.93011474609375,4.906130981445313,9.056954956054687
11.018000000000027,0.7119415283203125,5.7697021484375,6.896157836914063
11.02800000000002,0.0955535888671875,7.609445190429688,2.7197631835937504
11.037999999999982,0.0596649169921875,8.675787353515625,3.5673339843750003
11.048000000000002,1.1421569824218751,8.894708251953126,8.651712036132814
11.057999999999993,0.101983642578125,8.589654541015626,9.845458984375
11.067999999999984,-0.9734802246093752,8.279367065429689,6.929504394531251
11.07899999999995,0.5507415771484375,8.376116943359376,5.1717071533203125
11.08900000000017,0.5866302490234375,7.84346923828125,4.900747680664063
11.09900000000016,-1.322198486328125,8.03427734375,4.020578002929688
11.109000000000153,-1.8318176269531248,7.602865600585938,4.083831787109375
11.119000000000142,-0.9046936035156252,7.684213256835938,4.2743408203125
11.129000000000133,0.489581298828125,7.792477416992188,6.188104248046876
11.139000000000124,1.3290771484375,8.897998046875001,6.664077758789063
11.149000000000116,0.6853240966796875,9.101516723632812,4.5436553955078125
11.159000000000106,0.99052734375,8.318695068359375,3.973623657226563
11.169000000000096,2.284762573242188,7.077096557617188,6.776229858398438
11.179000000000087,1.7844146728515626,6.624151611328125,6.538168334960938
11.189000000000078,0.3527557373046875,6.456820678710938,4.686911010742188
11.19900000000007,0.0698333740234375,7.108499145507813,5.768804931640625
11.210000000000036,0.5202362060546876,8.078540039062501,7.963397216796875
11.220000000000027,-0.0064300537109375,8.094839477539063,7.078292846679688
11.230000000000018,-1.18253173828125,8.279965209960938,4.904934692382813
11.240000000000007,-0.9837982177734376,8.612384033203126,6.488223266601563
11.25,-0.7778869628906251,8.48468017578125,6.53592529296875
11.259999999999993,-1.0364349365234375,7.439871215820313,3.91246337890625
11.27000000000001,-0.4206451416015625,7.163677978515626,3.917098999023438
11.279999999999973,0.6433044433593751,7.587014770507813,6.184664916992188
11.289999999999964,0.8707489013671875,7.477853393554688,6.114831542968751
11.299999999999956,0.6002380371093751,6.398651123046876,4.209292602539063
11.309999999999944,1.6115509033203126,6.10107421875,5.108901977539063
11.320000000000164,2.10008544921875,8.185009765625,7.171005249023438
11.330000000000156,0.5299560546875001,12.430789184570314,5.93359375
11.340000000000146,0.6163879394531251,10.882940673828124,5.861218261718751
11.350000000000136,1.0937072753906252,6.40074462890625,4.625152587890625
11.361000000000104,-0.2908477783203125,5.156903076171876,7.861712646484375
11.371000000000096,-0.6922027587890626,6.44022216796875,9.677230834960938
11.381000000000084,-1.6320373535156252,7.521218872070313,2.4476074218750004
11.391000000000076,-1.4144622802734377,8.344714355468751,0.0112152099609375
11.401000000000067,0.8593841552734376,8.743527221679688,10.50042724609375
11.411000000000058,-0.252117919921875,9.238790893554688,11.494244384765626
11.42100000000005,-1.6154388427734376,7.83389892578125,5.951986694335938
11.43100000000004,-0.2678192138671875,8.239291381835939,3.5764556884765626
11.441000000000033,2.129244995117188,8.135363769531251,6.709835815429688
11.45100000000005,1.2021209716796877,7.487872314453125,5.4408721923828125
11.461000000000013,-0.1423583984375,7.126892089843751,1.6187286376953127
11.471000000000004,1.5053802490234376,7.962799072265626,3.855340576171875
11.480999999999996,2.63363037109375,8.110092163085938,7.763766479492188
11.490999999999984,1.0908660888671875,8.570663452148438,6.236105346679688
11.500999999999976,-0.8423370361328125,9.415393066406253,4.250115966796876
11.512000000000144,-1.06888427734375,9.115872192382811,5.116677856445313
11.522000000000162,0.0007476806640625,6.994403076171875,6.323733520507813
11.532000000000153,0.1018341064453125,5.799160766601563,6.387435913085938
11.542000000000144,-1.2203643798828123,6.641946411132813,5.158697509765625
11.552000000000136,-1.1991302490234377,7.748812866210938,5.3222900390625005
11.562000000000126,-0.0378326416015625,7.917190551757813,6.185711669921876
11.572000000000116,0.1239654541015625,8.210580444335939,7.161135864257813
11.582000000000107,0.131890869140625,7.943359375000001,6.939971923828126
11.592000000000098,0.6174346923828126,8.357574462890625,6.084326171875
11.60200000000009,1.502838134765625,8.056259155273438,6.928457641601563
11.613000000000056,1.30694580078125,8.002874755859375,4.716519165039063
11.622000000000073,0.5510406494140625,7.447796630859376,2.6798370361328128
11.633000000000038,0.9915740966796877,7.569818115234375,4.893869018554688
11.643000000000027,0.6853240966796875,7.376168823242188,6.693386840820313
11.65300000000002,0.6730621337890625,5.975314331054688,5.035031127929688
11.662999999999982,1.044061279296875,5.305691528320313,4.280322265625
11.673000000000002,0.4586273193359375,8.799752807617189,6.756939697265626
11.682999999999993,-1.741497802734375,12.6998046875,7.224090576171876
11.692999999999984,-0.5920135498046876,11.298651123046875,4.742837524414063
11.702999999999976,0.7926910400390625,6.928009033203126,4.955926513671876
11.712999999999964,0.2262481689453125,5.067630004882813,10.0930908203125
11.722999999999956,-0.60352783203125,5.5081634521484375,9.246865844726564
11.732999999999947,-1.81058349609375,7.385140991210938,1.6040740966796876
11.745000000000118,-0.1972381591796875,7.894161987304688,1.2417480468750002
11.753000000000156,1.5783538818359375,9.85428161621094,7.757485961914063
11.763000000000147,0.079254150390625,9.110040283203126,10.233355712890626
11.774000000000116,-1.03060302734375,8.489166259765625,6.7189575195312505
11.784000000000106,0.6087615966796875,7.587612915039063,6.3750244140625005
11.794000000000096,2.038775634765625,7.84825439453125,6.402688598632813
11.804000000000087,-0.3817657470703125,8.167364501953125,3.9393798828125
11.814000000000078,-1.81177978515625,7.488021850585938,2.8009613037109378
11.82400000000007,-1.0783050537109375,7.856179809570313,3.661840820312501
11.83400000000006,1.522576904296875,7.677035522460938,7.084274291992188
11.845000000000027,1.1251098632812502,8.029641723632814,5.764767456054688
11.854000000000042,-0.0418701171875,8.816500854492189,4.096691894531251
11.864000000000033,0.763531494140625,9.326718139648438,5.402740478515625
11.874000000000024,1.3782745361328126,8.001229858398439,6.528747558593751
11.884000000000016,0.9980041503906252,6.570318603515625,5.377767944335938
11.894000000000004,0.4741790771484375,6.243283081054688,5.477508544921875
11.904999999999973,0.3449798583984375,6.874923706054688,7.242932128906251
11.914999999999964,0.3102874755859375,7.42716064453125,7.470974731445313
11.924999999999956,0.099591064453125,7.829412841796875,5.610745239257813
11.934999999999944,-0.2775390625,8.53970947265625,5.4000488281250005
11.945000000000164,-0.44083251953125,8.935232543945313,6.661236572265626
11.955000000000156,-0.6730621337890625,8.432342529296875,6.08731689453125
11.965000000000146,-0.729437255859375,7.48099365234375,4.512252807617188
11.975000000000136,0.088525390625,7.270596313476563,4.6119934082031255
11.985000000000127,0.6512298583984375,7.416693115234375,5.626446533203126
11.995000000000118,0.04605712890625,6.569122314453126,4.811923217773438
12.00500000000011,-0.15252685546875,5.667120361328125,3.6397094726562496
12.0150000000001,1.3139739990234376,7.0856201171875,5.569622802734376
12.025000000000064,1.3721435546875,11.742324829101562,7.099676513671875
12.035000000000082,0.332269287109375,11.485870361328123,6.328369140625001
12.04600000000005,0.9003570556640625,8.347854614257812,4.664630126953125
12.05600000000004,0.7337738037109376,5.589361572265625,8.912802124023438
12.066000000000033,0.251220703125,6.690994262695313,10.812060546875
12.07600000000005,-1.2523651123046875,6.804940795898438,3.927566528320313
12.086000000000013,-1.2418975830078125,7.156051635742188,0.7265960693359376
12.096000000000004,0.6506317138671875,8.447894287109376,7.985977172851563
12.105999999999996,0.1280029296875,9.589154052734376,9.015832519531251
12.115999999999984,-0.9950134277343752,8.410809326171876,4.342230224609375
12.125999999999976,-0.1643402099609375,8.216412353515626,5.060751342773438
12.135999999999967,1.5484466552734375,8.070913696289063,8.780014038085938
12.145999999999958,1.2936370849609375,7.8240295410156255,6.188104248046876
12.155999999999947,0.0716278076171875,7.680026245117188,1.6037750244140627
12.166000000000167,1.045556640625,8.1407470703125,3.5942504882812503
12.176000000000158,1.5936065673828126,8.453427124023438,6.398052978515626
12.18600000000015,0.31881103515625,8.05999755859375,5.163333129882813
12.19600000000014,-0.8252899169921876,7.521667480468751,3.874630737304688
12.207000000000107,-0.05921630859375,7.407122802734375,6.563290405273438
12.217000000000098,0.195892333984375,7.834497070312499,7.390225219726563
12.22700000000009,-0.4029998779296875,7.745074462890625,5.357730102539063
12.23700000000008,-0.5508911132812501,7.606005859375,5.132080078125
12.247000000000073,-0.5668914794921875,7.320541381835938,7.613333129882813
12.25700000000009,-0.1009368896484375,7.509555053710938,7.611090087890625
12.267000000000053,-0.06519775390625,7.200164794921876,5.564089965820313
12.277000000000044,-0.0506927490234375,8.073007202148439,4.82822265625
12.287000000000036,0.8722442626953125,8.618963623046875,5.680728149414063
12.297000000000024,0.9890319824218752,8.831454467773439,4.479953002929688
12.307000000000016,0.686370849609375,7.869638061523438,4.5316925048828125
12.317000000000007,0.8388977050781251,7.559201049804688,6.220852661132813
12.326999999999998,0.7557556152343751,7.608248901367188,6.485830688476563
12.337999999999964,0.6963897705078126,7.551724243164063,5.978305053710938
12.347999999999956,0.3922332763671875,7.055862426757813,5.804095458984375
12.357999999999947,0.5269653320312501,5.8715362548828125,5.00048828125
12.368000000000166,1.0558746337890623,5.121163940429688,4.48309326171875
12.378000000000156,-0.160302734375,8.624795532226564,4.621713256835938
12.388000000000147,-2.0553741455078125,13.03775634765625,5.18411865234375
12.398000000000138,0.2860626220703125,11.847897338867188,5.859124755859376
12.40800000000013,0.449505615234375,7.883993530273438,5.446255493164063
12.41800000000012,-0.1795928955078125,4.873382568359375,11.057598876953126
12.428000000000113,-0.2504730224609375,5.639456176757813,11.118609619140626
12.43800000000013,-1.3528533935546876,6.436483764648438,2.997750854492188
12.448000000000093,-0.4882354736328125,7.318746948242188,-0.488385009765625
12.458000000000084,2.5374786376953127,9.276324462890626,6.8954101562500005
12.469000000000024,0.631939697265625,9.876263427734376,10.122399902343751
12.478000000000064,-1.7972747802734377,8.217758178710938,5.905780029296875
12.489000000000033,0.8342620849609376,7.574154663085938,5.309878540039063
12.499000000000024,2.0888702392578127,8.505316162109375,8.218356323242189
12.509000000000016,-0.30325927734375,8.688198852539063,5.307785034179688
12.519000000000004,-2.160348510742188,7.920928955078126,0.681884765625
12.528999999999996,-0.530853271484375,7.476358032226563,3.805395507812501
12.538999999999987,2.07017822265625,7.674343872070313,7.488021850585938
12.548999999999978,0.5941070556640625,7.148275756835938,5.6771392822265625
12.558999999999967,-0.3497650146484375,7.999136352539063,3.073565673828125
12.56899999999996,0.5426666259765626,8.818145751953125,6.316555786132813
12.57899999999995,1.4690429687500002,8.644235229492189,7.8494506835937505
12.58900000000017,0.7707092285156251,6.995300292968751,5.2935791015625
12.59900000000016,-0.062506103515625,6.470428466796876,5.230175781250001
12.609000000000153,0.4412811279296875,7.155154418945313,8.467184448242188
12.619000000000142,0.5827423095703126,7.371682739257813,7.671353149414063
12.63000000000011,-0.3354095458984375,7.663427734375,3.4732757568359376
12.6400000000001,-0.3721954345703125,8.695825195312501,3.816610717773438
12.650000000000064,-0.054730224609375,9.349896240234376,6.556561279296876
12.661000000000058,-0.451898193359375,8.266955566406251,6.266610717773438
12.670000000000073,-0.5375823974609375,7.204501342773438,4.609152221679688
12.680000000000064,0.4849456787109375,7.263867187500001,5.906228637695313
12.690000000000056,0.9706390380859377,7.694082641601563,7.110592651367188
12.700000000000044,-0.1710693359375,6.746771240234375,5.420684814453125
12.710000000000036,-0.390887451171875,5.4782562255859375,3.6679718017578127
12.720000000000027,1.1146423339843752,6.667666625976563,5.3656555175781255
12.730000000000018,1.3956207275390626,10.20374755859375,6.639553833007813
12.740000000000007,-0.472833251953125,12.273477172851564,4.76781005859375
12.75,-0.6570617675781251,9.558947753906253,4.2804718017578125
12.760999999999967,0.8719451904296875,6.539813232421875,8.176785278320313
12.770999999999958,0.596649169921875,5.246774291992188,10.73489990234375
12.780999999999947,-0.6673797607421875,6.62803955078125,4.776632690429688
12.791000000000167,-0.5591156005859376,7.5010314941406255,1.2223083496093752
12.801000000000158,0.5864807128906251,8.582925415039064,5.948397827148438
12.81100000000015,1.2960296630859376,8.600869750976564,10.015032958984376
12.82100000000014,0.55447998046875,8.384490966796875,6.942813110351563
12.831000000000133,-0.41331787109375,8.12998046875,5.549136352539063
12.841000000000122,0.9500030517578124,8.890371704101563,6.8080810546875
12.851000000000113,1.2142333984375,8.042202758789063,5.6049133300781255
12.861000000000104,0.1532745361328125,7.449591064453125,2.4061859130859378
12.871000000000096,0.5438629150390626,7.667614746093751,3.360675048828125
12.881000000000084,1.1372222900390625,7.786944580078125,6.133224487304688
12.891000000000076,0.2486785888671875,8.093344116210938,5.440423583984376
12.901000000000067,-0.6560150146484376,8.682815551757812,5.43175048828125
12.912000000000036,-0.8447296142578126,9.0427490234375,5.568276977539063
12.922000000000024,-0.6440521240234376,7.726382446289063,5.680429077148438
12.932000000000016,-0.128900146484375,7.065432739257813,6.3944641113281255
12.942000000000007,-0.0602630615234375,6.815109252929688,6.749911499023438
12.951999999999998,-0.2923431396484375,6.977056884765625,5.045050048828125
12.961999999999987,0.10706787109375,7.326223754882813,5.472424316406251
12.97199999999998,0.7083526611328126,7.873675537109375,7.691390991210938
12.981999999999942,0.176751708984375,7.93558349609375,6.363809204101563
12.991999999999962,0.4355987548828125,8.227777099609376,4.946356201171875
13.001999999999953,1.4542388916015625,8.5546630859375,6.428109741210938
13.012000000000144,0.8870483398437501,8.422024536132813,5.950192260742188
13.022000000000162,0.157012939453125,7.65146484375,3.723599243164063
13.032000000000153,0.1751068115234375,7.486227416992188,4.398904418945313
13.042000000000144,0.5112640380859376,7.360168457031251,7.051525878906251
13.052000000000136,0.0800018310546875,6.2015625000000005,5.764617919921875
13.06300000000013,-0.28890380859375,4.6598449707031255,3.458172607421876
13.073000000000093,0.5236755371093751,6.621459960937501,5.3945159912109375
13.083000000000084,-0.6213226318359375,12.29127197265625,6.986178588867188
13.093000000000076,-0.9413299560546876,13.32471618652344,5.862863159179688
13.103000000000064,0.353802490234375,9.461001586914064,3.8955657958984378
13.113000000000056,1.1849243164062502,5.082135009765626,8.828463745117189
13.123000000000047,1.53543701171875,4.973870849609376,12.23026123046875
13.133000000000038,-0.1529754638671875,5.558258056640625,5.47122802734375
13.143000000000027,-1.41580810546875,7.794122314453125,-0.50662841796875
13.15300000000002,0.1638916015625,8.913998413085938,1.1106048583984376
13.162999999999982,2.6164337158203126,10.357769775390626,11.931936645507813
13.173000000000002,-1.040771484375,8.513092041015625,8.63720703125
13.182999999999993,-1.290496826171875,7.557705688476563,5.264718627929688
13.192999999999984,1.0319488525390623,8.037567138671875,6.940420532226563
13.20399999999995,0.448907470703125,8.396304321289064,6.997543334960938
13.21400000000017,-1.791741943359375,7.883993530273438,1.7899475097656252
13.22400000000016,-1.7619842529296876,7.76810302734375,1.2084014892578123
13.234000000000153,0.4981048583984375,7.545892333984375,7.127938842773438
13.244000000000142,1.8370513916015627,7.374673461914063,7.30693359375
13.254000000000133,0.5603118896484376,7.690942382812499,4.161590576171875
13.264000000000124,0.8242431640625001,8.864950561523438,4.315762329101563
13.274000000000116,2.044906616210937,9.000430297851564,7.173248291015626
13.284000000000106,1.73282470703125,7.698419189453125,6.2165161132812505
13.294000000000096,0.322698974609375,6.25479736328125,4.584478759765625
13.304000000000087,0.0665435791015625,6.424520874023438,7.237997436523438
13.314000000000078,0.1700225830078125,7.13646240234375,8.483932495117188
13.32400000000007,-0.3847564697265625,7.8240295410156255,5.3402343750000005
13.33400000000006,-0.8408416748046875,8.312564086914064,3.96749267578125
13.345000000000027,-1.006378173828125,9.447393798828124,5.471676635742188
13.355000000000018,-0.8940765380859376,8.882595825195313,6.509906005859375
13.365000000000007,-0.7574005126953125,7.497293090820313,5.380908203125
13.375,-0.1447509765625,6.942962646484376,5.3417297363281255
13.384999999999993,0.916357421875,7.401290893554688,6.270947265625001
13.39500000000001,0.96959228515625,7.703503417968751,5.632427978515626
13.404999999999973,0.606817626953125,7.21123046875,5.152416992187501
13.414999999999964,1.1578582763671876,5.750711059570313,5.008712768554688
13.424999999999956,1.8011627197265627,6.202908325195313,4.862466430664063
13.434999999999944,1.13587646484375,9.5786865234375,5.860769653320313
13.44600000000014,-0.1303955078125,12.862799072265624,5.43773193359375
13.455000000000156,0.1302459716796875,10.296609497070314,4.48309326171875
13.466000000000122,0.829327392578125,6.590206909179688,6.332855224609376
13.476000000000113,0.4690948486328125,4.991217041015625,10.78260192871094
13.486000000000104,-1.1354278564453126,6.322836303710938,7.876965332031251
13.496000000000096,-1.9372406005859373,6.928906250000001,1.3525543212890625
13.506000000000084,-1.3479187011718752,8.654403686523438,3.4420227050781254
13.516000000000076,0.2181732177734375,8.935083007812501,10.424163818359377
13.526000000000067,-0.2409027099609375,8.772238159179688,8.759078979492188
13.536000000000058,-0.6368743896484376,8.10784912109375,4.882504272460938
13.54600000000005,1.5478485107421875,8.147177124023438,5.936734008789063
13.55600000000004,2.0559722900390627,8.158242797851564,6.39775390625
13.566000000000033,0.9395355224609376,7.797412109375,3.5004913330078127
13.57600000000005,-0.0309539794921875,7.906124877929688,1.6254577636718752
13.586000000000013,1.9305114746093752,8.11083984375,4.790539550781251
13.596000000000004,2.159600830078125,7.670455932617188,7.530490112304688
13.605999999999996,-0.60831298828125,8.471221923828125,4.866802978515626
13.616999999999962,-1.30335693359375,8.828164672851564,4.693490600585938
13.626999999999953,-0.4684967041015625,8.081082153320313,6.767556762695313
13.637000000000144,-0.7228576660156251,7.00546875,6.883148193359376
13.647000000000162,-0.609808349609375,6.817950439453125,5.3551879882812505
13.657000000000153,-0.9413299560546876,7.15201416015625,5.106808471679688
13.667000000000144,-0.5791534423828125,7.338037109375,7.008609008789063
13.677000000000136,0.3150726318359375,7.562490844726563,7.264614868164063
13.687000000000126,0.3970184326171875,7.851992797851563,5.520574951171875
13.697000000000116,0.9033477783203124,8.499932861328126,5.6517181396484375
13.707000000000107,1.4510986328125002,8.717208862304688,6.253152465820313
13.717000000000098,1.2378601074218751,8.492007446289064,5.155557250976563
13.72700000000009,0.9950134277343752,7.543499755859376,4.324285888671875
13.73700000000008,0.7469329833984375,7.309027099609375,4.836148071289063
13.747000000000073,0.74169921875,7.312466430664063,6.295022583007813
13.75700000000009,0.51859130859375,6.649423217773438,5.707345581054688
13.768000000000027,0.3533538818359375,5.207296752929688,4.311276245117188
13.77800000000002,0.7959808349609375,6.408819580078125,5.207894897460938
13.787999999999982,-0.94925537109375,11.23016357421875,6.809127807617188
13.798000000000002,-1.9789611816406247,13.064822387695314,5.872134399414063
13.807999999999993,0.5706298828125,9.728073120117188,4.627545166015626
13.817999999999984,1.0244720458984375,5.65306396484375,7.037170410156251
13.827999999999976,0.6160888671875,4.966842651367188,10.928250122070311
13.837999999999964,-0.9688446044921876,5.6696624755859375,6.2269836425781255
13.847999999999956,-1.86800537109375,7.280764770507813,-0.0213836669921875
13.857999999999947,0.6473419189453126,8.909661865234376,3.583782958984376
13.868000000000166,1.9100250244140624,9.876712036132814,10.049575805664062
13.878000000000156,-0.9700408935546876,8.890521240234376,10.007257080078126
13.888000000000147,-0.8973663330078125,8.004220581054689,6.1955810546875005
13.899000000000116,1.41102294921875,7.977304077148438,5.640054321289063
13.909000000000106,1.4252288818359375,7.74417724609375,5.839535522460938
13.919000000000096,-1.3085906982421875,7.761972045898438,2.9823486328125
13.929000000000087,-1.7731994628906251,7.965789794921876,2.27474365234375
13.939000000000078,-0.3440826416015625,7.566079711914063,5.860470581054688
13.94900000000007,1.3035064697265626,7.681820678710938,6.788043212890625
13.95900000000006,0.496759033203125,8.53372802734375,5.664129638671875
13.969000000000024,0.2573516845703125,9.643734741210938,4.475915527343751
13.979000000000042,0.7898498535156251,8.568719482421876,5.229278564453125
13.989000000000033,1.7881530761718751,7.114480590820313,6.128439331054688
13.999000000000024,1.2323272705078123,6.08013916015625,5.714822387695313
14.009000000000016,0.299072265625,6.454727172851563,5.514294433593751
14.019000000000004,0.414215087890625,7.095788574218751,6.923971557617188
14.029999999999973,0.7061096191406251,8.007211303710939,7.198519897460938
14.038999999999987,-0.0635528564453125,8.248263549804689,5.6935882568359375
14.049999999999956,-0.6003875732421875,8.716162109375,5.39227294921875
14.06100000000015,-0.6045745849609375,8.675637817382814,7.160986328125
14.070000000000164,-0.8077941894531251,7.964892578125,6.229226684570313
14.080000000000156,-0.7298858642578125,7.1490234375,3.613540649414063
14.090000000000146,0.2624359130859375,7.252352905273438,4.588217163085938
14.100000000000136,0.210546875,7.640249633789063,5.767608642578125
14.110000000000127,-0.2071075439453125,6.656900024414063,4.654013061523438
14.120000000000118,0.5585174560546875,5.492761230468751,4.204507446289063
14.13000000000011,1.4467620849609375,8.32437744140625,6.370388793945313
14.1400000000001,1.0157989501953126,12.19556884765625,7.755691528320313
14.150000000000064,0.4897308349609375,10.319937133789065,5.748617553710938
14.161000000000058,0.8317199707031251,6.923223876953125,3.635372924804688
14.170000000000073,0.9126190185546876,5.8390869140625,9.577340698242187
14.180000000000064,0.1164886474609375,7.335195922851563,8.941513061523438
14.190000000000056,-1.3833587646484375,6.847409057617188,1.5299041748046875
14.20100000000005,-0.6461456298828125,7.1573974609375,2.8032043457031253
14.211000000000013,0.740203857421875,8.44580078125,11.635256958007814
14.221000000000004,-0.1661346435546875,9.57569580078125,8.995645141601564
14.230999999999996,-1.1859710693359375,8.340078735351563,2.733221435546876
14.240999999999984,0.2691650390625,8.710479736328125,4.872036743164063
14.250999999999976,1.3769287109375,8.085867309570313,9.02301025390625
14.260999999999967,0.5516387939453126,7.236950683593751,4.8389892578125
14.270999999999958,-0.1691253662109375,7.144985961914063,1.1919525146484375
14.280999999999947,1.5705780029296876,8.1072509765625,5.0136474609375
14.291000000000167,1.7432922363281251,9.104507446289062,7.055264282226563
14.301000000000158,-0.0390289306640625,8.260824584960938,4.308135986328125
14.31100000000015,-0.9595733642578126,8.867941284179688,3.248971557617188
14.322000000000116,0.541021728515625,7.638455200195313,7.8464599609375005
14.332000000000107,0.439337158203125,6.779220581054688,7.689297485351563
14.342000000000098,-0.9941162109375,6.539215087890626,4.068878173828125
14.35200000000009,-0.1568634033203125,7.716812133789063,5.1954833984375
14.36200000000008,-0.0405242919921875,7.837936401367188,7.230670166015625
14.372000000000073,-0.7053619384765626,7.523162841796876,6.686358642578125
14.38200000000009,-0.0288604736328125,7.357177734375001,5.9253692626953125
14.392000000000053,0.4197479248046875,8.207290649414062,6.882550048828126
14.402000000000044,0.6996795654296876,8.428155517578126,6.644937133789063
14.412000000000036,0.4702911376953125,8.570513916015626,3.914556884765626
14.422000000000024,0.7108947753906251,8.094989013671876,3.831863403320313
14.432000000000016,0.781475830078125,7.597332763671876,5.83609619140625
14.442000000000007,0.5597137451171875,7.245773315429688,5.923425292968751
14.451999999999998,0.5627044677734375,7.4062255859375,5.490368652343751
14.461999999999987,0.8312713623046876,6.732266235351563,5.729327392578125
14.47199999999998,1.35360107421875,5.420535278320313,4.893270874023438
14.482999999999947,1.3325164794921875,6.308929443359376,4.480999755859376
14.493000000000166,-1.152923583984375,11.119955444335938,5.529098510742188
14.503000000000156,-1.634280395507813,12.87132263183594,6.40433349609375
14.513000000000147,1.454986572265625,9.895254516601565,5.1488281250000005
14.523000000000138,1.1624938964843752,6.133822631835938,6.844418334960938
14.53300000000013,0.5310028076171875,5.448049926757813,11.366989135742188
14.54300000000012,-0.7357177734375,5.626895141601563,7.425515747070313
14.553000000000113,-2.028009033203125,6.593197631835938,0.9398345947265626
14.56300000000013,-0.5087219238281251,8.511297607421875,3.2766357421875
14.573000000000093,0.188714599609375,10.108941650390626,9.00147705078125
14.583000000000084,-1.541119384765625,9.531881713867188,8.565579223632813
14.593000000000076,-0.8725433349609376,8.183663940429689,5.847760009765626
14.603000000000064,1.663739013671875,7.359271240234375,6.147280883789063
14.613000000000056,1.4108734130859375,7.683166503906251,6.6352172851562505
14.624000000000024,-1.1686248779296875,7.837039184570313,3.62056884765625
14.634000000000016,-1.8905853271484376,8.365350341796876,1.8008636474609376
14.644000000000004,0.6465942382812501,7.849301147460938,5.987875366210938
14.653999999999996,1.995260620117188,7.402337646484375,6.666769409179688
14.663999999999987,0.49825439453125,8.067025756835939,4.548141479492188
14.673999999999978,0.7427459716796876,8.601019287109375,5.2672607421875
14.683999999999967,0.9757232666015626,8.333499145507814,6.3032470703125005
14.69399999999996,1.2430938720703126,7.513592529296876,5.311224365234375
14.70399999999995,1.0896697998046876,6.802847290039063,4.618722534179688
14.71400000000017,0.3159698486328125,6.992010498046875,6.778921508789063
14.72400000000016,-0.1828826904296875,7.222445678710938,8.322732543945314
14.734000000000153,-0.045758056640625,7.732064819335938,5.93060302734375
14.745000000000118,0.1272552490234375,8.073904418945313,5.2194091796875
14.75500000000011,-0.6750061035156251,8.799005126953126,5.835797119140626
14.7650000000001,-1.1464935302734376,8.885586547851563,5.7065979003906255
14.775000000000064,-0.6495849609375001,7.864254760742188,5.1144348144531255
14.785000000000082,-0.0967498779296875,7.120312500000001,5.01544189453125
14.795000000000073,0.71298828125,7.182220458984376,5.864657592773438
14.805000000000064,0.4143646240234375,7.806533813476563,5.655007934570313
14.815000000000056,0.1350311279296875,7.706344604492188,5.750112915039063
14.825000000000044,0.669921875,6.378613281250001,5.073910522460938
14.835000000000036,1.3872467041015626,5.69134521484375,4.526010131835938
14.845000000000027,1.002789306640625,8.083026123046876,5.502630615234375
14.855000000000018,-0.1626953125,12.126931762695314,5.806637573242188
14.865000000000007,-0.133087158203125,11.17633056640625,5.762075805664063
14.875,1.0528839111328123,7.810421752929688,5.112789916992188
14.885999999999967,0.4900299072265625,5.140753173828125,9.024505615234377
14.89500000000001,-0.5842376708984376,6.231320190429688,9.724932861328126
14.905999999999947,-1.5257171630859376,6.791482543945313,3.2760375976562504
14.916000000000167,-0.8740386962890626,8.033380126953126,2.1788909912109378
14.926000000000158,1.2472808837890623,8.525653076171876,8.907269287109376
14.93600000000015,0.020037841796875,9.37098083496094,8.864801025390626
14.94600000000014,-0.5671905517578125,8.339480590820314,5.137911987304688
14.956000000000133,0.6784454345703126,8.414697265625001,5.289242553710938
14.966000000000122,1.6330841064453123,7.890872192382813,7.099975585937501
14.978000000000064,1.2013732910156252,7.476058959960938,4.637265014648438
14.986000000000104,0.0557769775390625,7.661633300781251,1.96729736328125
14.996000000000096,1.093109130859375,8.170953369140626,4.290042114257813
15.006000000000084,1.5551757812500002,8.255142211914062,6.800604248046875
15.016000000000076,-0.0901702880859375,7.93558349609375,5.46763916015625
15.026000000000067,-1.283917236328125,8.774929809570313,4.494308471679688
15.036000000000058,-0.5405731201171875,7.876815795898438,7.121807861328126
15.047000000000024,-0.563153076171875,7.403085327148438,6.510952758789063
15.057000000000016,-0.4705902099609375,6.866699218750001,5.247671508789063
15.067000000000007,-0.262286376953125,7.28121337890625,5.024114990234375
15.076999999999998,-0.4167572021484375,7.430899047851563,6.434091186523438
15.086999999999987,-0.0490478515625,7.549481201171876,7.2647644042968755
15.09699999999998,0.4409820556640625,7.859170532226563,5.882601928710938
15.106999999999942,0.7083526611328126,8.422024536132813,5.6117919921875
15.116999999999962,1.0419677734375,8.702853393554689,5.858377075195313
15.126999999999953,1.0059295654296876,8.470025634765626,5.463302612304688
15.137000000000144,0.6944458007812501,7.600323486328126,4.740145874023438
15.147000000000162,0.58438720703125,7.151565551757813,4.801605224609375
15.157000000000153,0.7668212890625,7.185061645507813,6.390277099609375
15.167000000000144,0.106768798828125,7.29197998046875,5.932995605468751
15.178000000000113,0.0106170654296875,6.0807373046875,4.21512451171875
15.18800000000013,0.6404632568359375,5.399151611328126,4.831362915039063
15.198000000000093,-0.4246826171875,9.822131347656253,6.464297485351563
15.208000000000084,-1.6169342041015626,12.641336059570314,6.722994995117188
15.218000000000076,0.074169921875,10.44779052734375,4.1035705566406255
15.228000000000064,1.1614471435546876,6.588412475585938,5.268606567382813
15.238000000000056,1.1781951904296877,5.467190551757813,11.373269653320314
15.248000000000047,-0.2986236572265625,6.418240356445313,7.673596191406251
15.258000000000038,-1.062603759765625,6.86490478515625,0.5585174560546875
15.268000000000027,0.9950134277343752,7.972668457031251,3.467892456054688
15.27800000000002,1.119876098632813,9.014337158203126,10.647869873046876
15.287999999999982,-0.8217010498046876,9.28125915527344,8.444604492187501
15.298000000000002,-1.3029083251953126,8.371182250976563,4.712332153320313
15.307999999999993,0.8719451904296875,8.364453125,6.062493896484376
15.31899999999996,0.890936279296875,7.815206909179688,7.085171508789063
15.32899999999995,-1.122418212890625,7.396954345703126,3.47880859375
15.33900000000017,-1.9949615478515623,7.810421752929688,2.6958374023437504
15.34900000000016,-0.75904541015625,8.073605346679688,5.87198486328125
15.359000000000153,1.3974151611328125,8.105007934570313,6.146234130859376
15.369000000000142,0.7361663818359375,8.09588623046875,4.4460083007812505
15.379000000000133,0.6829315185546876,9.069665527343751,4.991815185546876
15.389000000000124,1.7027679443359376,8.154504394531251,6.539813232421875
15.399000000000116,1.477716064453125,7.029544067382813,5.7110839843750005
15.409000000000106,1.1505310058593752,6.576300048828125,5.3773193359375
15.419000000000096,0.874188232421875,7.184463500976563,5.823086547851563
15.429000000000087,0.1045257568359375,7.488171386718751,6.316406250000001
15.439000000000078,0.1093109130859375,7.705596923828126,6.704751586914063
15.44900000000007,-0.068487548828125,7.932891845703126,6.255844116210938
15.45900000000006,-0.6186309814453126,8.243478393554689,6.015240478515626
15.470000000000027,-0.9821533203125,8.585916137695314,6.306686401367188
15.480000000000018,-1.1541198730468751,8.329013061523439,5.749215698242188
15.490000000000007,-0.620574951171875,7.683016967773438,4.201516723632813
15.5,0.12919921875,7.333401489257813,4.711434936523438
15.509999999999993,0.4427764892578125,7.555911254882813,6.366799926757813
15.52000000000001,0.1256103515625,6.934439086914063,5.670559692382813
15.529999999999973,0.3617279052734375,5.708392333984375,4.223348999023438
15.539999999999964,1.4434722900390626,6.539215087890626,5.435488891601563
15.549999999999956,1.5370819091796877,10.711572265625,6.330014038085938
15.559999999999944,0.4021026611328125,12.33777770996094,6.1357666015625005
15.570000000000164,-0.0279632568359375,8.723788452148439,4.758538818359376
15.580000000000156,0.4655059814453125,5.891574096679688,6.378164672851563
15.590000000000146,0.6769500732421876,5.568875122070313,10.865444946289063
15.600000000000136,-0.63822021484375,6.72972412109375,5.144192504882813
15.610000000000127,-1.8324157714843752,8.037118530273439,-0.5313018798828125
15.621000000000096,0.6802398681640626,8.400790405273439,6.580636596679688
15.631000000000084,1.16339111328125,9.074301147460938,12.331198120117188
15.641000000000076,-0.7346710205078125,8.10126953125,7.697222900390625
15.651000000000067,-0.2214630126953125,8.345462036132814,3.3823577880859377
15.661000000000058,1.0316497802734377,8.815155029296875,6.39476318359375
15.67100000000005,1.0225280761718751,7.966687011718751,6.757388305664063
15.68100000000004,-0.1242645263671875,6.899148559570313,1.840191650390625
15.691000000000033,0.499151611328125,7.318298339843751,2.7246978759765628
15.70100000000005,2.246331787109375,8.103363037109375,6.765164184570313
15.711000000000013,1.5219787597656251,8.338583374023438,6.925915527343751
15.721000000000004,-0.5636016845703126,8.922372436523439,4.238751220703126
15.730999999999996,-0.8907867431640626,9.530685424804688,4.8964111328125
15.740999999999984,-0.2887542724609375,7.772439575195313,6.884643554687501
15.751999999999953,-0.2681182861328125,6.51439208984375,5.951986694335938
15.762000000000144,-0.6042755126953125,6.43125,5.35399169921875
15.772000000000162,-0.7843170166015626,7.065283203125,5.811123657226563
15.782000000000153,-0.649884033203125,7.458413696289063,5.748019409179688
15.792000000000144,0.132489013671875,7.95592041015625,6.7985107421875
15.802000000000136,0.027813720703125,8.232861328125,6.611590576171875
15.812000000000126,0.60352783203125,8.4996337890625,6.170458984375
15.822000000000116,1.3055999755859375,8.30523681640625,6.687405395507813
15.832000000000107,1.1221191406250002,8.215365600585939,5.503079223632813
15.842000000000098,0.6809875488281251,7.534228515625,3.6322326660156254
15.85200000000009,0.7684661865234376,7.401739501953125,4.189703369140625
15.86200000000008,0.7083526611328126,7.212875366210938,6.500485229492188
15.872000000000073,0.478216552734375,6.653012084960938,5.47900390625
15.88200000000009,0.46595458984375,5.7110839843750005,3.691299438476563
15.893000000000027,0.72076416015625,6.820791625976563,5.39287109375
15.90300000000002,-1.062005615234375,11.314352416992188,7.0165344238281255
15.912999999999982,-1.2149810791015625,12.3468994140625,6.228329467773438
15.923000000000002,0.378326416015625,9.11976013183594,5.139706420898438
15.932999999999993,0.3668121337890625,5.8097778320312505,7.517929077148438
15.942999999999984,0.4149627685546875,5.640652465820313,10.629776000976562
15.952999999999976,-0.8743377685546876,6.249264526367188,6.053372192382813
15.962999999999964,-1.2469818115234377,7.151416015625,0.33795166015625
15.972999999999956,1.1909057617187502,8.575000000000001,4.4818969726562505
15.982999999999947,1.7476287841796876,9.695175170898438,9.616818237304688
15.993000000000166,-0.80570068359375,9.146676635742187,7.366897583007813
16.003000000000156,-0.9465637207031252,8.224188232421875,5.3750762939453125
16.013000000000147,1.6266540527343751,7.728924560546876,6.754397583007813
16.02300000000014,0.74588623046875,7.681521606445313,6.586468505859376
16.03300000000013,-1.4256774902343752,7.650567626953125,3.583334350585938
16.044000000000096,-1.6613464355468752,7.949340820312501,2.8081390380859377
16.054000000000087,0.4652069091796875,7.939022827148438,5.724392700195313
16.064000000000078,1.2229064941406251,7.770346069335938,6.415249633789063
16.07400000000007,0.2583984375,8.516830444335938,4.583581542968751
16.08400000000006,-0.0393280029296875,8.483334350585938,5.065835571289063
16.094000000000023,1.0962493896484375,8.336489868164064,5.767907714843751
16.104000000000042,1.597943115234375,6.999188232421876,6.386837768554688
16.114000000000033,0.8421875000000001,7.000085449218751,5.062844848632813
16.124000000000024,0.322100830078125,6.917691040039063,5.849853515625
16.134000000000015,0.4294677734375,7.515237426757813,7.445404052734376
16.144000000000005,0.2684173583984375,7.765411376953126,6.696527099609376
16.153999999999996,-0.0318511962890625,7.942611694335938,5.490817260742188
16.164999999999964,-0.5259185791015626,8.462698364257813,5.656951904296875
16.174999999999955,-0.705511474609375,8.728125,6.313565063476563
16.184999999999945,-0.4843475341796875,8.018576049804688,5.306439208984376
16.195000000000164,-0.4278228759765625,7.350299072265625,4.19658203125
16.205000000000155,0.1392181396484375,7.482638549804688,5.352346801757813
16.215000000000146,0.2432952880859375,7.701260375976563,6.383248901367188
16.225000000000136,-0.078955078125,6.728228759765625,5.254998779296876
16.235000000000127,0.3219512939453125,5.725289916992188,4.029400634765626
16.24500000000012,1.385003662109375,6.919186401367188,5.528201293945313
16.25500000000011,1.437042236328125,11.147171020507812,7.065582275390626
16.2650000000001,-0.1096099853515625,12.114370727539065,6.127990722656251
16.275000000000063,0.248828125,8.129830932617189,4.43883056640625
16.285000000000082,0.9069366455078126,5.67459716796875,7.141845703125001
16.295000000000073,0.19918212890625,6.217263793945313,10.44659423828125
16.30600000000004,-1.4371917724609375,7.243978881835938,3.9295104980468754
16.315000000000055,-1.5308013916015626,7.249960327148438,-0.541021728515625
16.32600000000005,1.182830810546875,8.227029418945314,8.258132934570312
16.336000000000013,1.1315399169921876,8.918634033203126,12.693524169921876
16.346000000000004,-0.9060394287109376,8.31361083984375,5.869143676757813
16.355999999999995,-0.0148040771484375,8.8465576171875,2.9636566162109377
16.365999999999985,1.5768585205078127,8.834295654296875,7.974163818359376
16.376999999999953,0.9263763427734376,7.802047729492188,6.304144287109375
16.385999999999967,-0.3739898681640625,6.328219604492188,1.3941253662109376
16.395999999999958,0.9425262451171876,7.599127197265625,3.3540954589843754
16.40599999999995,2.356689453125,8.0641845703125,7.872628784179688
16.416000000000167,0.5462554931640625,8.606103515625001,5.364758300781251
16.42600000000016,-0.6290985107421876,9.408963012695311,3.376824951171875
16.43600000000015,-0.490777587890625,9.546087646484375,6.309677124023438
16.44600000000014,-0.7316802978515625,7.145135498046876,6.879409790039063
16.457000000000107,-0.52935791015625,6.066082763671876,5.18411865234375
16.4670000000001,-0.451300048828125,6.644638061523438,5.815609741210938
16.47700000000009,-0.7113433837890626,7.452731323242188,6.1910949707031255
16.48700000000008,-0.3249420166015625,7.456619262695313,4.8213439941406255
16.49700000000007,0.3058013916015625,7.985229492187501,6.403436279296876
16.50700000000009,0.5653961181640625,8.144335937500001,8.275030517578125
16.517000000000053,0.393878173828125,8.287442016601563,6.369491577148438
16.527000000000044,1.0226776123046877,8.269049072265625,5.486032104492188
16.537000000000035,1.36197509765625,8.469277954101564,5.518182373046876
16.547000000000025,0.688763427734375,7.5701171875,4.002035522460938
16.557000000000016,0.478216552734375,7.266708374023438,3.7802734375
16.567000000000007,0.399560546875,7.270297241210938,6.257937622070313
16.576999999999998,0.341839599609375,7.396057128906251,6.519775390625001
16.58699999999999,0.1758544921875,6.256442260742188,3.951641845703125
16.597999999999956,0.3132781982421875,5.826974487304688,4.6034698486328125
