time,ax,ay,az
0.0,-0.8830108642578126,8.134317016601564,5.5904083251953125
0.0099999999999909,-1.1101562500000002,7.960406494140625,5.853741455078126
0.0200000000000102,-1.1037261962890623,7.9828369140625,5.354739379882813
0.0300000000000011,-1.37991943359375,7.958312988281251,4.937384033203125
0.039999999999992,-0.7346710205078125,8.022912597656251,5.423526000976563
0.0500000000000113,-0.1478912353515625,7.939321899414063,5.835348510742188
0.0600000000000022,0.0186920166015625,8.076895141601563,5.715420532226563
0.0699999999999931,0.459674072265625,7.774981689453125,6.189151000976563
0.0800000000000125,1.1506805419921875,7.8240295410156255,6.26376953125
0.0900000000000034,1.0189392089843752,7.588360595703126,5.538519287109375
0.0999999999999943,0.9203948974609376,6.949093627929688,4.57999267578125
0.1100000000000136,0.572723388671875,6.910961914062501,3.389236450195313
0.1200000000000045,-0.1257598876953125,10.524652099609376,3.720309448242188
0.1300000000000025,0.61907958984375,8.508306884765625,8.241235351562501
0.1400000000000147,0.590667724609375,6.580636596679688,5.508761596679688
0.1500000000000056,-0.695343017578125,8.081381225585938,6.822137451171876
0.1599999999999966,0.009271240234375,7.851394653320313,13.715155029296875
0.1700000000000159,-1.427920532226563,8.023062133789063,5.586370849609375
0.1800000000000068,-2.02950439453125,7.655651855468751,-0.9027496337890626
0.1899999999999977,-1.221710205078125,9.40103759765625,6.014044189453125
0.1999999999999886,-1.1494842529296876,7.85423583984375,10.304684448242188
0.2100000000000079,-2.490374755859375,6.336294555664063,3.5170898437500004
0.2199999999999988,-0.8387481689453126,7.360018920898438,2.444915771484375
0.2299999999999897,1.8294250488281247,10.041949462890626,7.835095214843751
0.2400000000000091,2.0718231201171875,10.027593994140624,5.841180419921876
0.25,-0.43485107421875,8.290582275390626,0.27215576171875
0.2599999999999909,0.4149627685546875,8.137008666992188,1.8633697509765623
0.2700000000000102,3.735562133789063,6.864605712890626,10.9879150390625
0.2800000000000011,1.71248779296875,5.573361206054688,8.718405151367188
0.289999999999992,0.347222900390625,6.644488525390625,3.245233154296875
0.3000000000000113,-1.1446990966796875,8.790481567382812,5.2792236328125
0.3100000000000023,0.1517791748046875,8.972467041015626,8.649468994140626
0.3199999999999932,-1.1701202392578125,8.1838134765625,5.627044677734375
0.3300000000000125,-1.66463623046875,7.498040771484375,4.4101196289062505
0.3400000000000034,-1.3694519042968751,8.056109619140626,7.032086181640626
0.3489999999999895,-0.8943756103515625,7.863507080078126,7.350299072265625
0.3600000000000136,-1.2764404296875,7.871582031250001,2.888888549804688
0.3700000000000045,-1.3384979248046875,8.326919555664062,1.9086791992187504
0.3800000000000025,-0.00059814453125,8.280563354492188,6.602767944335938
0.38900000000001,0.3784759521484375,7.496994018554688,7.399795532226563
0.3990000000000009,0.7355682373046876,4.958468627929688,4.62784423828125
0.4089999999999918,1.6010833740234376,6.020175170898438,3.737356567382813
0.4190000000000111,1.8155181884765623,10.245468139648438,7.95950927734375
0.429000000000002,0.6732116699218751,10.6409912109375,8.9482421875
0.4389999999999929,-0.1305450439453125,10.0404541015625,1.8442291259765624
0.4490000000000123,-0.332568359375,7.896554565429688,6.154757690429688
0.4590000000000032,0.5628540039062501,6.341229248046876,12.90556640625
0.4689999999999941,-1.3058990478515626,5.100079345703126,6.004772949218751
0.4790000000000134,-1.6194763183593752,7.013394165039063,-0.286212158203125
0.4890000000000043,0.6619964599609376,9.710128784179688,5.134173583984375
0.4990000000000023,-0.61728515625,10.953521728515623,7.583425903320313
0.5090000000000146,-2.2234527587890627,8.48587646484375,4.2351623535156255
0.5190000000000055,-0.2355194091796875,7.664773559570313,4.997348022460938
0.5289999999999964,1.18851318359375,7.321737670898438,10.403826904296876
0.5390000000000157,0.8390472412109375,7.279718017578125,7.829113769531251
0.5490000000000066,-1.0898193359375,8.358023071289063,0.7508209228515625
0.5589999999999975,-0.6781463623046875,8.405126953125,-0.0040374755859375
0.5690000000000168,2.101580810546875,8.233609008789063,7.973416137695313
0.5790000000000077,1.0552764892578126,6.519326782226563,7.089358520507813
0.5889999999999986,0.4972076416015625,6.815856933593751,4.185516357421875
0.5989999999999895,0.34154052734375,8.194131469726564,6.738546752929688
0.6090000000000089,0.6198272705078125,9.056356811523438,7.999884033203125
0.6189999999999998,-0.3620269775390625,8.97635498046875,4.9230285644531255
0.6289999999999907,-1.6155883789062502,7.68436279296875,4.649078369140625
0.63900000000001,-0.863720703125,6.658993530273438,7.855731201171875
0.6490000000000009,-0.7759429931640626,6.839782714843751,7.521368408203125
0.6589999999999918,-0.569134521484375,7.230221557617188,4.561300659179688
0.6690000000000111,-0.451898193359375,8.422024536132813,3.422283935546876
0.679000000000002,-0.51978759765625,9.3513916015625,4.531094360351563
0.6890000000000001,-0.1341339111328125,8.979495239257814,5.78824462890625
0.6990000000000123,0.2259490966796875,7.831207275390626,6.099429321289063
0.7089999999999961,0.3357086181640625,7.229473876953126,6.252554321289063
0.7190000000000012,0.8551971435546876,5.706149291992188,6.5739074707031255
0.7290000000000134,0.4027008056640625,2.8676544189453126,3.730776977539063
0.7390000000000043,-0.203070068359375,5.6801300048828125,1.1749053955078126
0.7490000000000023,0.9003570556640625,14.194119262695311,6.510354614257813
0.7590000000000146,0.1798919677734375,15.237881469726563,8.849697875976563
0.7690000000000055,0.2002288818359375,11.484225463867189,3.5601562500000004
0.7789999999999964,1.929464721679688,4.7552490234375,12.341516113281251
0.7890000000000157,0.5459564208984375,3.4945098876953127,16.00814208984375
0.7990000000000066,-1.58089599609375,4.914654541015626,4.388436889648438
0.8089999999999975,-1.77589111328125,5.989669799804688,-0.4628143310546875
0.8190000000000168,-3.130538940429688,9.596331787109376,0.200079345703125
0.8290000000000077,-2.0540283203125003,11.478842163085938,0.039178466796875
0.838000000000001,1.07666015625,9.85263671875,1.4347991943359375
0.8489999999999895,0.4245330810546875,7.378112792968751,15.026437377929687
0.8580000000000041,2.084982299804688,7.9705749511718755,12.397891235351564
0.8689999999999998,1.170867919921875,9.2006591796875,8.91534423828125
0.8789999999999907,-0.6160888671875,7.715167236328125,0.32598876953125
0.8880000000000052,-1.7841156005859375,6.473867797851563,-0.0073272705078125
0.8990000000000009,0.8181121826171875,7.377664184570313,0.207855224609375
0.9080000000000156,1.9252777099609373,6.998141479492188,4.553225708007813
0.9180000000000064,0.7224090576171875,4.372885131835938,10.230364990234376
0.9279999999999972,-0.6567626953125001,9.27542724609375,6.8798583984375
0.9380000000000166,-1.0533325195312502,11.434878540039064,10.193429565429687
0.9480000000000076,0.1478912353515625,9.068469238281253,7.02042236328125
0.9579999999999984,-1.4023498535156251,7.35,3.5662872314453127
0.9679999999999892,-0.8957214355468751,6.605908203125001,7.598379516601563
0.9780000000000086,0.3440826416015625,6.744827270507813,6.950140380859375
0.9879999999999995,-0.6821838378906251,6.702957153320313,1.4152099609375002
0.9979999999999905,-0.8743377685546876,8.103512573242188,0.599041748046875
1.0080000000000098,0.787457275390625,9.237145996093751,6.380108642578126
1.018000000000001,0.7826721191406251,9.32208251953125,7.462600708007813
1.0279999999999916,0.195892333984375,8.520419311523439,6.462652587890625
1.038000000000011,0.4185516357421875,8.098428344726564,7.349850463867188
1.0480000000000018,0.7476806640625,7.42357177734375,8.084521484375001
1.0579999999999998,0.8526550292968751,6.055017089843751,6.021820068359375
1.068000000000012,0.24224853515625,3.041864013671875,2.7408477783203127
1.077999999999996,-0.194097900390625,4.723696899414063,-0.0823944091796875
1.088000000000001,-0.9670501708984376,11.784194946289062,4.592254638671875
1.0980000000000132,-0.7017730712890625,13.698257446289064,9.785345458984375
1.108000000000004,-1.8759307861328127,12.623989868164063,2.8390930175781253
1.118000000000002,-0.3099884033203125,8.072558593750001,10.536764526367188
1.1280000000000143,0.9739288330078124,5.045199584960938,17.88796081542969
1.1380000000000052,-1.027313232421875,3.916351318359376,7.330410766601563
1.147999999999996,-1.33206787109375,5.170809936523438,-0.494366455078125
1.1580000000000157,-0.372344970703125,8.372378540039064,0.9036468505859376
1.1680000000000064,2.340838623046875,11.9497314453125,1.023126220703125
1.1779999999999973,0.1502838134765625,9.925759887695314,2.729034423828125
1.1880000000000166,0.2453887939453125,7.657745361328126,7.552471923828126
1.1980000000000075,0.2848663330078125,8.034127807617189,11.857168579101565
1.2079999999999984,1.5502410888671876,8.3465087890625,11.35083923339844
1.217999999999989,-0.5265167236328125,9.202902221679688,1.230682373046875
1.2280000000000086,-2.4061859130859378,7.322634887695313,-0.5516387939453126
1.2379999999999995,-0.4538421630859375,6.893017578125001,0.1694244384765625
1.2479999999999905,1.999447631835937,7.676885986328125,7.650717163085938
1.2580000000000098,0.66214599609375,3.422283935546876,11.075991821289064
1.268000000000001,-0.9362457275390624,8.579635620117188,-1.5372314453125002
1.2779999999999916,-1.1010345458984376,9.48462829589844,16.038796997070314
1.288000000000011,0.9036468505859376,9.662725830078124,8.128335571289064
1.2980000000000018,-1.02821044921875,7.591351318359376,2.2991180419921875
1.3079999999999998,-0.235369873046875,7.977603149414063,5.528201293945313
1.318000000000012,0.1541717529296875,7.158444213867188,9.186602783203126
1.327999999999996,-0.15491943359375,7.114779663085938,2.6624908447265625
1.338000000000001,-0.8390472412109375,7.002926635742188,-0.254510498046875
1.3480000000000132,0.5962005615234376,8.972317504882813,5.1835205078125
1.358000000000004,0.7880554199218751,8.887081909179688,9.203948974609377
1.368000000000002,-0.4079345703125,8.402285766601564,5.4259185791015625
1.3780000000000143,-0.0322998046875,7.633969116210938,5.936135864257813
1.3880000000000052,0.346026611328125,5.180978393554688,8.125942993164063
1.3969999999999914,-0.2966796875,3.430807495117188,3.7378051757812494
1.4080000000000157,-0.0671417236328125,9.077590942382812,1.1464935302734376
1.4180000000000064,-0.060711669921875,13.59806823730469,7.964144897460938
1.4279999999999973,-0.4317108154296875,12.353479003906251,5.1775390625
1.4370000000000118,1.3334136962890626,8.327667236328125,4.487878417968751
1.4469999999999956,1.85364990234375,4.7385009765625,16.338018798828127
1.4570000000000007,-0.714483642578125,5.343524169921875,12.49464111328125
1.467000000000013,-2.132833862304688,6.776678466796875,0.356793212890625
1.477000000000004,-2.354147338867188,7.591650390625,-0.2093505859375
1.487000000000002,-1.089968872070313,11.251846313476562,1.2058593750000002
1.497000000000014,0.7110443115234375,9.528292846679689,5.528948974609375
1.507000000000005,0.1155914306640625,6.288891601562501,9.807028198242188
1.516999999999996,0.25660400390625,7.929302978515626,1.5216796875
1.5270000000000152,2.222555541992188,8.919232177734376,15.495681762695314
1.537000000000006,-0.2570526123046875,9.563433837890626,2.595947265625
1.546999999999997,-2.1008331298828127,7.653109741210938,-0.11065673828125
1.5570000000000164,-0.401654052734375,6.840380859375,0.3072967529296875
1.5670000000000073,2.092758178710937,7.935733032226563,3.913360595703125
1.5769999999999982,0.92174072265625,4.523019409179688,14.386572265625
1.586999999999989,0.322698974609375,7.3942626953125,-0.420196533203125
1.5970000000000084,-1.4898284912109376,10.12598876953125,10.553512573242188
1.606999999999999,0.6273040771484375,9.613827514648438,8.670852661132812
1.6169999999999902,-0.8767303466796875,7.7537475585937505,3.3856475830078128
1.6270000000000095,-0.7629333496093751,6.760827636718751,6.499887084960938
1.6370000000000005,-0.185723876953125,7.002328491210938,9.237145996093751
1.6469999999999914,0.2352203369140625,7.615725708007813,4.0008392333984375
1.657000000000011,-0.6838287353515625,7.885488891601563,0.254510498046875
1.6670000000000016,-0.697735595703125,8.991458129882814,4.272396850585938
1.6769999999999925,0.5105163574218751,8.737844848632813,7.7537475585937505
1.6870000000000118,0.6640899658203125,7.913003540039063,6.424520874023438
1.6969999999999956,-0.0052337646484375,7.580136108398438,6.309677124023438
1.7070000000000007,0.5097686767578126,7.636361694335938,7.38828125
1.717000000000013,1.080996704101563,5.975912475585938,5.6527648925781255
1.727000000000004,0.72674560546875,2.7095947265625,1.6496826171875
1.737000000000002,-0.5819946289062501,7.814160156250001,-0.1622467041015625
1.747000000000014,-0.9722839355468752,14.034115600585938,7.94754638671875
1.757000000000005,-0.599639892578125,13.817736816406253,10.860809326171877
1.766999999999996,-0.9087310791015626,10.631271362304688,3.0441070556640626
1.7770000000000152,1.2522155761718752,4.1188232421875,14.542239379882814
1.787000000000006,0.29249267578125,3.641354370117188,16.022647094726565
1.796999999999997,-1.23636474609375,4.3731842041015625,3.070425415039063
1.8070000000000164,-2.2087982177734378,6.2302734375,-0.356793212890625
1.8170000000000075,-0.9075347900390626,12.02689208984375,2.388092041015625
1.8269999999999984,2.094403076171876,12.655841064453126,0.295184326171875
1.836999999999989,-1.2881042480468752,8.878707885742188,-2.277883911132813
1.8470000000000084,-1.4017517089843752,6.744229125976563,5.454479980468751
1.8569999999999995,1.4838470458984376,6.203506469726563,22.300024414062506
1.8669999999999904,2.468841552734375,8.217758178710938,5.8655548095703125
1.877000000000009,-0.4251312255859375,9.987368774414064,3.3316650390625004
1.8870000000000005,-2.5923583984375003,6.42227783203125,-0.7104461669921875
1.896999999999992,-1.2229064941406251,6.1022705078125,-2.2279388427734377
1.907000000000011,1.4769683837890626,6.717312622070313,1.2119903564453125
1.9170000000000016,3.61458740234375,8.4900634765625,12.948333740234377
1.9269999999999925,-0.1149932861328125,6.368743896484376,11.560638427734377
1.936000000000007,-0.2815765380859375,12.136950683593753,8.189495849609376
1.945999999999998,0.0417205810546875,8.530587768554689,6.348406982421875
1.9559999999999889,-1.4084808349609377,7.069021606445313,0.6237152099609375
1.966000000000008,-1.6176818847656251,6.190945434570313,9.439019775390626
1.977000000000004,0.0865814208984375,7.171752929687501,7.451235961914063
1.9870000000000017,-0.654669189453125,6.762173461914063,1.4392852783203125
1.996000000000009,-0.69803466796875,8.712722778320312,0.09630126953125
2.006,0.399560546875,9.889123535156251,5.669064331054688
2.015999999999991,0.7301849365234375,8.988168334960939,10.453024291992188
2.0260000000000105,0.2693145751953125,7.684661865234376,5.141351318359376
2.0360000000000014,0.7674194335937501,6.819296264648438,7.150070190429688
2.0459999999999923,0.470440673828125,4.174749755859375,6.695928955078125
2.056000000000012,0.114544677734375,3.7572448730468753,1.4312103271484375
2.0660000000000025,-0.62625732421875,10.325918579101565,0.2343231201171875
2.0760000000000005,0.2444915771484375,13.605694580078126,8.605355834960939
2.0860000000000127,0.012261962890625,12.89539794921875,5.3701416015625005
2.096000000000004,1.655215454101563,7.902685546875,8.80887451171875
2.1060000000000016,0.9987518310546876,5.0176849365234375,17.380734252929688
2.116000000000014,-0.6204254150390626,4.4359893798828125,10.087258911132814
2.1260000000000048,-1.8428833007812504,6.354537963867188,-0.381915283203125
2.135999999999996,-2.505029296875,8.184710693359376,0.200677490234375
2.146000000000015,-2.2047607421875,10.630374145507814,0.4581787109375
2.156000000000006,0.5405731201171875,9.168658447265626,4.842877197265626
2.165999999999997,0.12261962890625,7.619165039062499,7.338784790039063
2.176000000000016,1.4108734130859375,7.185360717773438,9.8370849609375
2.186000000000007,1.28900146484375,9.560144042968751,10.76480712890625
2.195999999999998,-0.70999755859375,9.342269897460938,2.404391479492188
2.205999999999989,-1.3373016357421876,8.043399047851564,-0.0107666015625
2.216000000000008,0.2666229248046875,6.726882934570313,0.0518890380859375
2.225999999999999,2.380465698242188,7.939022827148438,6.530242919921876
2.23599999999999,0.745587158203125,3.374581909179688,10.606448364257814
2.2460000000000093,0.232379150390625,8.144784545898439,4.057363891601563
2.256,-1.4976043701171875,9.467581176757813,9.14966735839844
2.265999999999991,0.7484283447265625,10.321731567382812,7.993603515625001
2.2760000000000105,-1.0624542236328125,8.157644653320313,4.79173583984375
2.2860000000000014,-1.7033660888671875,7.270297241210938,6.173748779296876
2.2959999999999923,-0.2495758056640625,7.017730712890626,7.430450439453126
2.306000000000012,0.43724365234375,7.117172241210938,3.8940704345703128
2.3160000000000025,-0.6830810546875,7.287942504882813,1.5886718750000002
2.3260000000000005,-0.7158294677734376,8.596832275390625,3.979754638671875
2.3360000000000127,0.8151214599609375,9.097927856445311,6.896456909179688
2.346000000000004,0.5426666259765626,8.417388916015625,7.015188598632813
2.3560000000000016,-0.012261962890625,8.001678466796875,6.411660766601563
2.366000000000014,0.7998687744140626,7.834945678710938,7.094143676757813
2.3760000000000048,1.0174438476562502,6.1477294921875005,6.875970458984376
2.385999999999996,-0.1323394775390625,2.8884399414062503,3.1617919921875
2.396000000000015,-1.1300445556640626,5.660839843750001,-0.1471435546875
2.406000000000006,-0.3668121337890625,12.951174926757814,5.219708251953126
2.415999999999997,-0.5172454833984376,14.4607421875,9.616668701171877
2.426000000000016,-2.362371826171876,11.078533935546876,3.4047882080078127
2.436000000000007,1.0140045166015623,5.777029418945313,12.738983154296877
2.445999999999998,0.94267578125,4.147982788085938,17.07986755371094
2.455999999999989,-1.0309020996093752,4.201815795898438,5.09619140625
2.4649999999999963,-0.7672698974609375,6.087765502929688,-0.3309234619140625
2.475999999999999,0.5698822021484375,10.756582641601565,1.7473297119140627
2.48599999999999,2.2970245361328128,11.836532592773438,0.1625457763671875
2.4950000000000045,-0.430364990234375,8.834893798828126,-2.0392242431640626
2.5050000000000026,-0.9008056640625,7.607351684570313,9.074002075195311
2.515000000000015,2.7347167968750004,6.8942138671875,18.77949523925781
2.5250000000000057,1.27344970703125,9.393560791015624,6.085522460937501
2.5349999999999966,-0.8408416748046875,9.119012451171876,0.4035980224609375
2.545000000000016,-2.4775146484375004,7.809375,0.067889404296875
2.555000000000007,-1.2879547119140626,6.291732788085938,-1.17415771484375
2.5649999999999977,1.2257476806640626,6.900045776367188,16.243362426757812
2.5749999999999886,-0.2124908447265625,4.672854614257813,5.239297485351563
2.585000000000008,-1.5578674316406251,9.184808349609376,-1.6863189697265626
2.594999999999999,0.3093902587890625,9.816897583007814,15.819577026367188
2.6049999999999898,0.7636810302734376,9.4518798828125,5.496051025390625
2.615000000000009,-0.4484588623046875,7.360916137695313,3.3778717041015627
2.625,-0.48629150390625,6.728527832031251,8.114727783203126
2.634999999999991,0.5550781250000001,7.147528076171875,7.875918579101563
2.6450000000000102,0.409429931640625,7.144537353515625,1.9417266845703127
2.655000000000001,-0.1610504150390625,8.080484008789064,0.354400634765625
2.664999999999992,0.2142852783203125,9.251651000976564,6.581234741210938
2.675000000000012,0.0139068603515625,8.896054077148438,7.940966796875
2.6850000000000023,-0.174359130859375,7.96309814453125,5.716766357421875
2.6950000000000003,-0.8843566894531251,7.230520629882813,6.426614379882813
2.7050000000000125,-0.63104248046875,4.8871398925781255,6.845465087890625
2.7149999999999963,-0.452496337890625,4.251760864257813,3.050985717773438
2.7250000000000014,-0.1957427978515625,9.6719970703125,2.6345275878906254
2.7350000000000136,-0.1733123779296875,13.024896240234376,7.726382446289063
2.7450000000000045,-0.1257598876953125,11.75653076171875,3.8693969726562494
2.7550000000000026,1.3842559814453126,7.847805786132813,7.0856201171875
2.765000000000015,2.1199737548828126,4.42088623046875,16.594174194335938
2.7750000000000057,-0.112750244140625,5.164080810546875,10.020864868164065
2.7849999999999966,-1.2891510009765623,7.033282470703125,-0.3207550048828125
2.795000000000016,-1.3873962402343751,8.992205810546876,0.6687255859375001
2.805000000000007,0.0958526611328125,11.57349853515625,0.6174346923828126
2.8149999999999977,0.620574951171875,8.682965087890626,11.973806762695313
2.8249999999999886,-0.524273681640625,6.753948974609376,3.5209777832031253
2.835000000000008,0.1819854736328125,8.027697753906251,6.031988525390625
2.844999999999999,1.1913543701171876,8.317947387695312,13.179666137695314
2.8549999999999898,-1.1375213623046876,9.547433471679687,2.3822601318359378
2.865000000000009,-2.3203521728515626,8.02650146484375,-0.3754852294921875
2.875,-0.1232177734375,6.9994873046875,0.22430419921875
2.884999999999991,1.6800384521484375,8.12220458984375,5.997296142578126
2.8950000000000102,0.5455078125,4.1623382568359375,13.367633056640626
2.905000000000001,-0.716278076171875,8.198318481445312,-0.476422119140625
2.914999999999992,-0.554779052734375,9.780709838867187,9.839776611328126
2.925000000000012,1.40384521484375,9.294717407226564,7.701409912109375
2.9350000000000023,-0.3345123291015625,7.83031005859375,3.5330902099609376
2.9450000000000003,-0.7131378173828126,6.23326416015625,7.239791870117188
2.9550000000000125,0.4427764892578125,6.973617553710938,9.389224243164064
2.9649999999999963,0.1679290771484375,7.632772827148438,4.107757568359375
2.9750000000000014,-0.6308929443359376,8.454324340820314,0.2295379638671875
2.9850000000000136,-0.6613983154296875,9.240884399414064,3.9627075195312496
2.994,0.4221405029296875,8.697320556640626,8.211328125000001
3.0050000000000026,-0.0856842041015625,7.493704223632813,6.444558715820313
3.015000000000015,-0.4379913330078125,7.361215209960938,6.190646362304688
3.0250000000000057,0.1734619140625,7.976257324218751,7.603164672851563
3.033999999999992,0.0136077880859375,7.897003173828126,5.680279541015626
3.044000000000011,0.24404296875,5.7664123535156255,3.809283447265625
3.054000000000002,0.5459564208984375,3.091061401367188,2.691650390625
3.064,-0.1734619140625,6.964944458007813,2.298370361328125
3.0749999999999886,-0.0324493408203125,13.51133728027344,8.114578247070312
3.083999999999996,-0.4448699951171875,13.912542724609375,7.766607666015625
3.094000000000001,-1.4860900878906251,10.94903564453125,2.9467590332031253
3.1040000000000134,1.308291625976563,5.833853149414063,13.790969848632814
3.1140000000000043,0.4029998779296875,3.868948364257813,15.46726989746094
3.1240000000000023,-1.4534912109375,4.36705322265625,3.3256835937500004
3.1340000000000146,-1.208551025390625,5.275634765625,-0.3055023193359375
3.144000000000005,0.3117828369140625,11.378054809570314,2.1092071533203125
3.1539999999999964,1.36077880859375,11.901580810546877,-0.2950347900390625
3.164000000000016,-1.2852630615234375,9.568966674804688,0.8557952880859375
3.1740000000000066,-0.6732116699218751,5.953930664062501,15.867877197265626
3.183999999999997,1.7787322998046875,7.865600585937501,9.700857543945313
3.194000000000017,1.5520355224609377,8.810519409179689,9.247613525390626
3.204000000000008,-1.724002075195313,8.951681518554688,-0.3563446044921875
3.213999999999998,-2.393624877929688,6.712826538085938,-0.4777679443359375
3.223999999999989,0.3165679931640625,7.4307495117187505,0.4493560791015625
3.234000000000009,2.845822143554688,7.523611450195313,11.099468994140626
3.244,0.9346008300781252,3.45906982421875,6.964794921875001
3.2550000000000026,-1.296478271484375,9.951779174804688,5.764767456054688
3.26400000000001,-0.0614593505859375,10.31021728515625,11.663818359375
3.274000000000001,0.2274444580078125,8.972467041015626,4.808633422851563
3.283999999999992,-0.4699920654296875,7.351345825195313,3.2642242431640627
3.294000000000011,-0.9920227050781252,6.881204223632813,8.620458984375
3.304000000000002,-0.22669677734375,7.175790405273438,7.236651611328125
3.314,-0.4511505126953125,6.704602050781251,1.1448486328125
3.3240000000000123,-0.4652069091796875,8.389724731445312,0.497955322265625
3.333999999999996,0.36187744140625,9.200808715820314,7.5877624511718755
3.344000000000001,0.047552490234375,8.876913452148438,7.498489379882813
3.3540000000000134,-0.198284912109375,8.126840209960939,5.7125793457031255
3.3640000000000043,0.4598236083984375,7.561294555664063,7.925564575195313
3.3740000000000023,0.321502685546875,6.308181762695313,7.062591552734376
3.3840000000000146,0.038580322265625,3.2551025390625004,3.182427978515625
3.394000000000005,-0.3874481201171875,6.074456787109376,1.093109130859375
3.4039999999999964,0.153424072265625,12.830050659179689,6.307583618164063
3.414000000000016,0.706707763671875,12.752441406250002,6.159542846679688
3.4240000000000066,0.4756744384765625,10.673141479492188,1.6830291748046875
3.433999999999997,1.4560333251953126,6.2045532226562505,14.895742797851565
3.444000000000017,0.61728515625,4.53154296875,16.859451293945312
3.454000000000008,-1.3625732421875,6.1620849609375,2.627349853515625
3.463999999999998,-2.0538787841796875,6.867446899414063,-0.7093994140625001
3.473999999999989,-2.62047119140625,10.249356079101563,0.2627349853515625
3.484000000000009,-0.327484130859375,10.159036254882814,5.5806884765625
3.494,-0.4098785400390625,6.822586059570313,8.300601196289064
3.5039999999999907,-0.3180633544921875,7.829562377929688,0.3216522216796875
3.51400000000001,2.202218627929688,8.192636108398439,14.826507568359377
3.524000000000001,0.1084136962890625,9.459207153320314,6.430950927734376
3.533999999999992,-1.1197265625,8.845062255859375,-0.0728240966796875
3.544000000000011,-1.2392059326171876,7.604959106445313,0.329278564453125
3.555000000000007,1.75675048828125,7.200314331054688,1.15980224609375
3.5630000000000166,2.1965362548828127,6.904083251953126,13.048223876953124
3.5740000000000123,0.4329071044921875,3.5438568115234377,4.644442749023438
3.5829999999999984,-0.76981201171875,10.145428466796876,5.356982421875
3.5929999999999893,0.4134674072265625,9.449935913085938,10.339227294921876
3.6030000000000086,-0.447711181640625,8.991009521484376,4.953384399414063
3.613,-1.4174530029296877,6.973468017578125,4.743435668945313
3.6229999999999913,-0.5719757080078125,7.190444946289063,8.830557250976563
3.6330000000000098,-0.08673095703125,7.192687988281251,6.929055786132813
3.6430000000000007,-0.42288818359375,7.801300048828126,1.3516571044921877
3.653999999999997,-1.137969970703125,8.5259521484375,0.9052917480468752
3.663000000000011,-0.191107177734375,8.9494384765625,6.92471923828125
3.673000000000002,0.9945648193359377,8.121755981445313,7.211080932617188
3.683,0.2881561279296875,7.592547607421875,5.709738159179688
3.693000000000012,0.3385498046875,7.834197998046876,7.146481323242188
3.702999999999996,1.1144927978515626,7.85543212890625,8.117718505859376
3.713000000000001,0.6608001708984376,5.959313964843751,4.907327270507813
3.723000000000013,0.1303955078125,2.9232818603515627,1.795779418945313
3.733000000000004,-0.23746337890625,5.8905273437500005,1.612896728515625
3.743000000000002,-0.091217041015625,14.106790161132814,7.614828491210938
3.753999999999991,-1.0228271484375,14.338421630859376,7.593295288085938
3.763000000000005,-2.0353363037109378,11.11173095703125,0.9153106689453124
3.772999999999996,0.0901702880859375,6.085971069335938,15.055148315429689
3.783000000000016,0.6450988769531251,4.109103393554688,17.778350830078125
3.7930000000000064,-0.8952728271484376,3.95732421875,3.7651702880859377
3.802999999999997,-1.5731201171875002,4.434793090820313,-0.904095458984375
3.8130000000000166,-0.2220611572265625,11.462991333007814,2.3674560546875
3.823000000000008,2.662191772460938,12.181512451171876,0.7645782470703125
3.8329999999999984,-0.29129638671875,8.876016235351564,-1.8454254150390623
3.842999999999989,-1.0533325195312502,7.459759521484376,7.515087890625001
3.854000000000013,3.0499389648437503,7.352691650390626,20.410186767578125
3.863,1.6647857666015626,9.14921875,5.97606201171875
3.8729999999999913,-0.8915344238281251,8.907568359375,0.506329345703125
3.8830000000000098,-2.40513916015625,7.1406494140625005,0.0692352294921875
3.8930000000000007,-1.5639984130859377,7.100424194335938,-1.4985015869140623
3.902999999999992,2.2557525634765625,6.652862548828126,10.537960815429688
3.913000000000011,0.9045440673828126,4.5376739501953125,10.87112731933594
3.923000000000002,-2.032345581054688,8.474810791015626,-3.397161865234376
3.933,-0.6657348632812501,10.412649536132813,17.911737060546876
3.943000000000012,1.0137054443359377,9.017626953125,5.289392089843751
3.954000000000008,-1.016845703125,7.766607666015625,2.5069732666015625
3.963000000000001,-0.3551483154296875,7.009805297851563,8.086166381835938
3.973000000000013,0.4098785400390625,7.350448608398438,7.298858642578126
3.983000000000004,-0.18243408203125,6.520822143554688,2.0133544921875
3.993000000000002,-0.4263275146484375,7.909863281250001,0.6087615966796875
4.003000000000014,0.7285400390625001,9.356475830078123,5.9036865234375
4.013000000000005,0.6944458007812501,8.839678955078126,8.327667236328125
4.022999999999996,-0.1849761962890625,8.300003051757812,5.883349609375
4.033000000000016,-0.1792938232421875,7.559051513671876,6.92711181640625
4.043000000000006,0.3529052734375,7.0868164062500005,8.253347778320313
4.054000000000002,-0.396868896484375,3.250167846679688,4.9604125976562505
4.063000000000017,-0.8717956542968751,3.9175476074218754,0.0198883056640625
4.073000000000008,-1.9644561767578128,11.415289306640624,0.988134765625
4.082000000000001,1.50074462890625,14.957501220703126,10.7941162109375
4.092999999999989,-0.8214019775390625,12.941006469726563,2.4802062988281253
4.103000000000009,1.517791748046875,6.797613525390625,10.702600097656251
4.113,2.445065307617188,4.688555908203125,19.56874694824219
4.122000000000014,0.040972900390625,3.434844970703125,9.142788696289063
4.132000000000005,-1.69454345703125,5.00108642578125,-1.65506591796875
4.141999999999996,-2.9536376953125,8.771490478515625,1.230682373046875
4.155000000000001,-0.5773590087890625,12.522903442382814,0.7403533935546875
4.162000000000006,2.01634521484375,9.180322265625,0.6482391357421875
4.171999999999997,0.05203857421875,7.1693603515625,-0.0886749267578125
4.182000000000016,0.5120117187500001,8.253198242187501,20.03320617675781
4.192000000000007,2.005728149414063,9.122152709960938,12.6172607421875
4.201999999999998,-1.0428649902343752,9.8945068359375,1.6114013671875
4.211999999999989,-2.264425659179688,6.65555419921875,0.2367156982421875
4.222000000000008,-1.48040771484375,6.159991455078125,-1.20406494140625
4.231999999999999,1.2356170654296876,7.047787475585938,1.239505004882813
4.24199999999999,1.0086212158203125,6.719854736328125,14.642578125000002
4.2520000000000095,0.69923095703125,5.155706787109375,4.529150390625
4.2620000000000005,-1.4711364746093751,11.706436157226562,8.935083007812501
4.271999999999991,0.6464447021484375,9.64747314453125,10.5859619140625
4.282000000000011,-0.73511962890625,8.003024291992189,2.7291839599609378
4.292000000000002,-0.7428955078125,7.025207519531251,6.398800659179688
4.3019999999999925,1.0588653564453123,6.931896972656251,8.340078735351563
4.312000000000012,0.3180633544921875,6.832604980468751,3.1224639892578128
4.321999999999996,-0.7283905029296875,7.530639648437501,0.1380218505859375
4.332000000000001,-0.6003875732421875,9.07265625,4.3263793945312505
4.342000000000013,0.5884246826171875,9.022412109375,7.691241455078125
4.352000000000004,0.48868408203125,8.315853881835938,6.7243408203125
4.362000000000002,-0.530255126953125,8.00556640625,6.672750854492188
4.372000000000014,-0.01375732421875,7.97745361328125,8.026202392578126
4.382000000000005,0.6400146484375,6.982888793945313,7.214669799804688
4.391999999999996,0.3192596435546875,4.058261108398438,3.913360595703125
4.402000000000015,-0.2157806396484375,3.028106689453125,0.5576202392578126
4.412000000000006,-1.161895751953125,10.344610595703124,0.41331787109375
4.421999999999997,0.5384796142578125,14.433227539062502,11.037710571289065
4.432000000000016,-1.0563232421875002,13.123889160156253,4.709341430664063
4.442000000000007,-1.0524353027343751,9.079534912109375,5.061648559570313
4.451999999999998,1.5816436767578126,5.156005859375,19.62392578125
4.461999999999989,-0.11185302734375,3.6779907226562494,13.24052734375
4.472000000000008,-1.1639892578125002,3.7917877197265626,-0.41630859375
4.481999999999999,-1.9230346679687504,6.692489624023438,0.6151916503906251
4.49199999999999,1.43255615234375,13.125384521484376,2.4381866455078125
4.5020000000000095,1.8267333984375,10.61392517089844,-0.304754638671875
4.5120000000000005,-1.5886718750000002,8.164224243164064,-1.9444183349609376
4.521999999999991,-1.21842041015625,8.255291748046876,12.538604736328129
4.532000000000011,3.0888183593750003,7.342971801757813,20.00135498046875
4.542000000000002,0.804205322265625,9.070413208007814,1.463809204101563
4.5519999999999925,-1.9589233398437504,8.772686767578126,1.1518768310546876
4.562000000000012,-2.212237548828125,6.754547119140626,-0.6406127929687501
4.571999999999996,0.1487884521484375,6.676788330078126,-0.325390625
4.582000000000001,3.0219757080078127,6.750210571289063,14.75906677246094
4.591000000000008,-0.0179443359375,5.009011840820313,5.251858520507813
4.600999999999999,-1.4002563476562502,10.27432861328125,3.688906860351562
4.612000000000002,0.7983734130859376,10.070510864257812,13.937814331054687
4.621000000000009,0.40614013671875,8.585617065429688,2.6260040283203128
4.631,-0.7044647216796875,7.163528442382813,4.76422119140625
4.640999999999991,-0.761138916015625,6.82542724609375,9.733157348632814
4.652000000000015,-0.010467529296875,7.035525512695313,5.421731567382813
4.661000000000001,-0.3744384765625,6.877166748046876,0.447113037109375
4.670999999999992,-0.7104461669921875,8.825323486328125,0.7871582031250001
4.681000000000012,0.2495758056640625,9.343765258789062,8.911904907226564
4.6910000000000025,-0.144451904296875,8.707339477539064,6.816754150390626
4.7010000000000005,-0.05203857421875,7.821038818359375,6.072064208984376
4.711000000000013,0.26378173828125,7.717410278320313,8.10186767578125
4.721000000000004,0.4948150634765625,6.636712646484376,7.228726196289063
4.731000000000002,0.1751068115234375,3.213082885742188,3.54580078125
4.741000000000014,-0.3709991455078125,3.916500854492188,0.6380706787109376
4.751000000000005,-0.45279541015625,12.661373901367188,3.8388916015625
4.760999999999996,1.3426849365234377,14.702990722656253,8.6695068359375
4.771000000000015,0.2237060546875,12.205886840820312,2.0782531738281254
4.781000000000006,0.68427734375,6.510055541992188,10.803387451171876
4.790999999999997,1.79981689453125,4.5566650390625005,19.491137695312503
4.801000000000016,-0.272454833984375,4.275387573242188,8.149270629882814
4.811000000000007,-1.7811248779296875,5.582333374023438,-1.6007843017578127
4.820999999999998,-3.0007415771484376,9.007608032226564,0.91934814453125
4.830999999999989,-2.1694702148437504,11.883935546875,0.09510498046875
4.841000000000008,-0.02691650390625,8.938522338867188,1.0546783447265626
4.850999999999999,0.4221405029296875,6.981692504882813,13.55679626464844
4.86099999999999,0.5647979736328126,8.076296997070314,7.275531005859375
4.871000000000009,1.7290863037109376,9.692034912109376,12.908258056640626
4.881,-0.8411407470703126,8.781359863281251,1.5747650146484375
4.890999999999991,-2.035635375976563,7.32188720703125,0.136676025390625
4.9010000000000105,0.6317901611328125,7.0377685546875,0.2109954833984375
4.911000000000001,2.1114501953125,7.133770751953126,1.8506591796875
4.920999999999992,1.9767181396484377,6.680526733398438,9.57913513183594
4.931000000000012,0.3790740966796875,4.180880737304688,8.293423461914063
4.9410000000000025,-0.8534027099609376,12.276467895507814,10.330554199218753
4.9510000000000005,0.0669921875,9.640444946289064,8.04803466796875
4.961000000000013,-1.4784637451171876,7.697671508789063,2.764324951171876
4.971000000000004,-1.528558349609375,6.902139282226563,6.988571166992188
4.981000000000002,0.2292388916015625,7.0593017578125,8.782855224609376
4.991000000000014,-0.6841278076171875,6.977655029296876,2.6671264648437503
5.001000000000005,-1.2178222656250002,7.757186889648438,0.0019439697265625
5.010999999999996,-0.07357177734375,9.208584594726563,5.033087158203125
5.021000000000015,0.7378112792968751,8.925662231445314,7.925564575195313
5.031000000000006,0.593060302734375,8.016033935546876,5.846115112304688
5.040999999999997,0.4414306640625,7.988220214843751,6.954925537109376
5.051000000000016,0.8635711669921876,7.904779052734375,8.484979248046876
5.061000000000007,0.9287689208984377,7.223193359375,6.1552062988281255
5.070999999999998,0.73392333984375,4.333856201171876,3.7452819824218753
5.080999999999989,0.0095703125,3.677392578125,1.314273071289063
5.091000000000008,-1.0817443847656252,9.321185302734376,2.513104248046876
5.100000000000001,0.130096435546875,13.538552856445314,9.230267333984376
5.11099999999999,-1.5738677978515627,13.156488037109376,3.724945068359376
5.121000000000009,-2.3148193359375,9.272286987304687,6.656002807617188
5.130000000000003,0.902001953125,5.6576995849609375,18.578070068359377
5.140000000000015,-0.7974761962890625,4.538421630859375,12.0885009765625
5.150000000000006,-1.3247406005859377,4.4778594970703125,-0.1275543212890625
5.159999999999997,-0.5221801757812501,6.564785766601563,0.9849945068359376
5.170000000000016,1.54739990234375,11.67981872558594,1.4989501953125002
5.180000000000007,1.2415985107421876,9.96912536621094,-0.7077545166015625
5.189999999999998,-0.1763031005859375,8.122354125976564,3.20784912109375
5.199999999999989,1.20406494140625,7.844216918945313,13.917178344726564
5.210000000000008,1.8348083496093752,8.620608520507814,14.03187255859375
5.219999999999999,1.1312408447265625,9.917834472656253,3.2579437255859376
5.22999999999999,-1.7974243164062502,8.542102050781251,-0.127703857421875
5.240000000000009,-2.138815307617188,6.316555786132813,-1.01624755859375
5.25,0.4783660888671875,6.641946411132813,3.430657958984375
5.259999999999991,1.6209716796875002,5.195034790039063,15.71250915527344
5.27000000000001,-1.4482574462890625,5.716616821289063,-3.75216064453125
5.281000000000006,-1.676150512695313,9.896002197265624,13.256826782226565
5.289999999999992,1.0020416259765623,10.167559814453126,9.593490600585938
5.300000000000011,-0.46116943359375,8.695974731445313,3.916201782226562
5.310000000000002,-0.9338531494140626,7.456619262695313,6.2628723144531255
5.32,-0.186322021484375,7.089508056640626,8.565579223632813
5.3300000000000125,0.5194885253906251,7.341775512695313,3.958969116210938
5.339999999999996,0.252716064453125,6.760678100585938,1.1201751708984375
5.350000000000001,0.0275146484375,8.234057617187501,3.5224731445312503
5.360000000000014,0.325390625,8.888726806640626,6.172103881835938
5.3700000000000045,0.2881561279296875,8.8345947265625,5.992062377929688
5.380000000000003,-0.06519775390625,8.066427612304688,7.016683959960938
5.390000000000015,-0.0357391357421875,6.795669555664063,7.446749877929688
5.400000000000006,-0.1777984619140625,3.888388061523438,4.62425537109375
5.409999999999997,-0.04246826171875,4.841381835937501,2.573516845703125
5.420000000000016,-0.4257293701171875,12.79969482421875,6.016735839843751
5.430000000000007,-0.7512695312500001,13.88816833496094,7.562939453125001
5.439999999999998,-0.054730224609375,10.535418701171876,0.7517181396484376
5.449999999999989,1.9073333740234373,5.586819458007813,11.615518188476564
5.460000000000008,1.2380096435546877,3.749917602539063,19.28821716308594
5.469999999999999,-0.6821838378906251,4.572216796875001,5.5316406250000005
5.47999999999999,-2.35968017578125,6.904232788085938,-1.588372802734375
5.490000000000009,-2.586077880859375,11.293865966796876,2.0129058837890628
5.5,1.678692626953125,12.351684570312502,1.1590545654296875
5.509999999999991,0.309539794921875,7.978350830078125,-0.68009033203125
5.52000000000001,-0.815869140625,6.123654174804688,16.118350219726565
5.530000000000001,1.4252288818359375,7.581332397460938,7.943359375000001
5.539999999999992,1.090118408203125,9.279165649414065,10.577587890625
5.550000000000011,-1.4742767333984377,9.431692504882813,-0.293389892578125
5.560000000000002,-2.0588134765625004,7.392617797851563,0.37025146484375
5.57,0.1323394775390625,6.896456909179688,-0.5160491943359375
5.5800000000000125,2.063897705078125,7.776776123046876,7.012048339843751
5.589999999999996,0.9404327392578126,4.644741821289063,13.064822387695314
5.600000000000001,-0.392083740234375,8.321984863281251,-0.2432952880859375
5.610000000000014,-0.8620758056640626,11.186798095703123,12.618606567382814
5.6200000000000045,0.844281005859375,8.676834106445312,6.597683715820313
5.628999999999991,-0.7167266845703125,6.668713378906251,3.6337280273437504
5.640000000000015,-0.9036468505859376,6.109747314453125,7.984033203125
5.649000000000001,0.5199371337890626,7.271044921875,8.598178100585939
5.658999999999992,0.0952545166015625,7.720849609375,2.356539916992188
5.670000000000016,-1.07666015625,8.665917968750001,0.075665283203125
5.679000000000002,-0.42886962890625,9.759027099609376,4.4086242675781255
5.689,0.9606201171875,8.508157348632814,9.91005859375
5.699000000000012,-0.43724365234375,7.203305053710938,6.415100097656251
5.708999999999996,-0.3554473876953125,7.479348754882813,5.704953002929688
5.719000000000001,0.7110443115234375,7.775131225585938,7.454376220703126
5.729000000000013,0.6470428466796876,6.876119995117188,5.411712646484375
5.739000000000004,0.1407135009765625,3.714328002929688,1.6903564453125002
5.749000000000002,0.171966552734375,5.332907104492188,1.1985321044921875
5.759000000000015,-0.2585479736328125,12.482379150390626,7.36734619140625
5.7690000000000055,-0.0442626953125,13.868280029296876,9.667959594726565
5.778999999999996,-1.1511291503906251,11.311660766601562,1.2383087158203123
5.789000000000016,-0.3853546142578125,6.752603149414063,10.75164794921875
5.799000000000007,0.6585571289062501,4.284210205078125,18.625323486328128
5.8089999999999975,-1.0035369873046875,4.304248046875,6.148477172851563
5.819000000000017,-1.5140533447265625,4.9384307861328125,-1.1017822265625
5.829000000000008,-0.4912261962890625,9.973312377929688,2.166329956054688
5.838999999999999,2.015447998046876,12.721038818359377,0.8504119873046876
5.8489999999999895,-0.7428955078125,9.29322204589844,-0.9884338378906252
5.859000000000009,-1.1550170898437502,6.954925537109376,10.274478149414064
5.869,1.74837646484375,7.651763916015626,13.439260864257813
5.878999999999991,1.714581298828125,8.246469116210939,10.596878051757812
5.88900000000001,-0.7053619384765626,8.940017700195312,1.2230560302734377
5.899000000000001,-2.43743896484375,7.532583618164063,-0.5745178222656251
5.908999999999992,-0.494366455078125,7.00487060546875,-0.3911865234375
5.919000000000011,2.364614868164063,7.978649902343751,6.569869995117188
5.929000000000002,1.152774047851563,4.07755126953125,10.902978515625
5.939,-0.403448486328125,8.665917968750001,2.2047607421875
5.949000000000012,-0.8873474121093751,10.018173217773438,11.971414184570314
5.958999999999996,0.7986724853515625,9.473114013671877,6.198721313476563
5.969000000000001,-0.9800598144531252,7.232464599609376,3.3013092041015626
5.979000000000013,-0.75067138671875,6.874923706054688,7.479498291015625
5.989000000000004,-0.4278228759765625,6.910961914062501,9.004617309570314
5.999000000000002,0.0118133544921875,7.199118041992188,2.8555419921875003
6.009000000000015,-0.6616973876953125,7.795318603515626,0.1541717529296875
6.0190000000000055,0.1302459716796875,9.626089477539065,5.087667846679688
6.028999999999996,0.477020263671875,8.962896728515625,8.265460205078126
6.039000000000016,-0.363970947265625,7.976257324218751,6.150869750976563
6.049000000000007,-0.139068603515625,7.5129943847656255,6.018978881835938
6.0589999999999975,1.0898193359375,7.634567260742188,8.175439453125001
6.069000000000017,0.347222900390625,6.88284912109375,6.243881225585938
6.079000000000008,-0.89661865234375,3.4551818847656253,2.5015899658203127
6.088999999999999,-0.8517578125,4.040017700195313,0.3156707763671875
6.0989999999999895,0.4079345703125,12.359759521484376,5.68297119140625
6.109000000000009,0.7131378173828126,14.985614013671876,9.173892211914064
6.119,-1.0771087646484376,12.572998046875002,1.7577972412109375
6.128999999999991,1.011761474609375,6.618917846679688,10.61826171875
6.13900000000001,2.6002838134765627,4.580441284179688,19.479174804687503
6.149000000000001,0.23148193359375,3.114987182617188,8.434585571289062
6.158999999999992,-1.5910644531250002,4.466494750976563,-1.9530914306640623
6.169000000000011,-3.265719604492188,9.695623779296875,1.161297607421875
6.177999999999997,-1.1704193115234376,12.865789794921875,1.048098754882813
6.189,1.38470458984375,9.50750732421875,0.3410919189453125
6.199000000000012,-0.377130126953125,7.227081298828126,6.464596557617188
6.208999999999996,1.0823425292968751,7.54080810546875,14.893649291992189
6.217999999999989,1.44033203125,9.057553100585938,11.97889099121094
6.228000000000009,-0.7689147949218751,9.202902221679688,1.7600402832031252
6.238,-2.2053588867187504,7.098480224609376,0.075665283203125
6.247999999999991,-0.2432952880859375,6.871932983398438,-0.15791015625
6.25800000000001,1.627252197265625,7.204351806640625,0.5534332275390625
6.2690000000000055,0.1981353759765625,6.972421264648438,11.626284790039064
6.277999999999992,0.9654052734375,4.726239013671876,6.8224365234375
6.288000000000011,-1.0911651611328126,11.350689697265626,10.7438720703125
6.298000000000002,0.9380401611328124,10.22049560546875,7.637258911132813
6.308,-0.7363159179687501,8.052520751953125,3.630288696289063
6.318000000000012,-1.450799560546875,6.520523071289063,6.988720703125001
6.327999999999996,0.6054718017578126,6.664376831054688,8.334844970703125
6.338000000000001,0.426776123046875,7.158294677734376,3.181231689453125
6.348000000000013,-0.7053619384765626,7.610641479492188,0.667828369140625
6.358000000000004,-0.8557952880859375,9.182415771484376,3.832461547851562
6.368000000000002,0.950750732421875,9.142938232421876,7.418487548828126
6.378000000000014,0.4272247314453125,8.242282104492189,7.136312866210938
6.388000000000005,-0.7914947509765625,7.72384033203125,6.769500732421876
6.397999999999996,0.5959014892578125,7.726382446289063,7.796066284179688
6.408000000000016,1.092510986328125,6.597534179687501,6.293826293945313
6.418000000000006,0.5393768310546876,3.387741088867188,2.892626953125
6.427999999999997,-0.0946563720703125,5.216567993164063,0.490777587890625
6.438000000000017,-0.756353759765625,12.309963989257811,6.135916137695313
6.448000000000008,-0.0294586181640625,13.096823120117188,8.81485595703125
6.457999999999998,-1.4673980712890626,11.290426635742188,0.6790435791015625
6.467999999999989,-0.66932373046875,7.217361450195313,12.373068237304688
6.478000000000009,0.3973175048828125,5.254101562500001,18.311447143554688
6.488,-1.282421875,5.515640258789063,5.270999145507813
6.497999999999991,-1.167279052734375,4.630685424804688,-0.8255889892578125
6.50800000000001,0.5342926025390625,9.248062133789062,1.597943115234375
6.518000000000001,1.49954833984375,11.486917114257814,0.2770904541015625
6.527999999999992,-0.59814453125,8.779565429687501,4.147833251953125
6.538000000000011,-0.0545806884765625,7.413552856445313,8.592196655273439
6.548000000000002,0.72913818359375,8.460903930664063,11.656790161132813
6.558,1.9012023925781247,8.674890136718751,10.0392578125
6.568000000000012,-0.6954925537109375,9.319241333007811,0.441729736328125
6.577999999999996,-2.2757904052734377,7.682717895507813,-0.5375823974609375
6.588000000000001,0.4756744384765625,7.083825683593751,0.407037353515625
6.598000000000013,1.9246795654296875,7.015786743164063,15.047073364257814
6.608000000000004,0.215032958984375,3.8364990234375,2.763278198242188
6.618000000000002,-1.4630615234375002,9.314904785156251,2.7958770751953126
6.628000000000014,0.1206756591796875,9.7007080078125,12.58017578125
6.638000000000005,0.42886962890625,9.197967529296877,5.421282958984375
6.647999999999996,-0.293988037109375,7.786795043945313,4.799362182617188
6.658000000000016,-1.5300537109375,7.073358154296876,9.1552001953125
6.668000000000006,-0.5456573486328126,7.379458618164063,6.774136352539063
6.677999999999997,0.0240753173828125,7.15799560546875,1.693646240234375
6.688000000000017,0.4164581298828125,7.892218017578125,1.7326751708984376
6.696999999999996,-0.07716064453125,8.625842285156251,5.577398681640625
6.707000000000001,0.472235107421875,8.6802734375,6.319396972656251
6.717999999999989,0.1837799072265625,8.1838134765625,6.539215087890626
6.727000000000004,-0.1244140625,7.951583862304688,7.40921630859375
6.737000000000002,0.4783660888671875,6.759930419921876,6.6815734863281255
6.747999999999991,0.318511962890625,4.052578735351563,4.0247650146484375
6.757000000000005,-0.6622955322265626,4.526010131835938,1.8913330078125
6.768000000000001,-0.5468536376953126,12.326412963867188,5.295672607421875
6.777000000000015,0.316119384765625,14.248849487304687,7.872030639648438
6.787000000000006,0.0162994384765625,11.391213989257814,1.7383575439453127
6.796999999999997,1.2568511962890625,5.8785644531250005,11.196517944335938
6.807000000000016,1.5957000732421875,4.350903320312501,19.00050964355469
6.817000000000007,-0.270660400390625,4.048989868164063,7.053469848632813
6.826999999999998,-2.0787017822265628,6.176889038085938,-1.5737182617187502
6.836999999999989,-3.229830932617188,10.102511596679689,1.36556396484375
6.847000000000008,-0.6642395019531251,12.230709838867188,0.302362060546875
6.856999999999999,1.5472503662109376,8.900988769531251,0.576611328125
6.86699999999999,-0.5374328613281251,6.6576477050781255,13.776614379882814
6.8770000000000095,1.21842041015625,7.739093017578125,9.405075073242188
6.8870000000000005,1.220513916015625,9.397897338867187,10.825518798828126
6.896999999999991,-1.0175933837890625,9.4805908203125,0.6362762451171875
6.907000000000011,-2.09530029296875,7.056011962890626,0.2332763671875
6.917000000000002,0.547003173828125,6.707592773437501,0.2572021484375
6.9269999999999925,1.867855834960937,7.240390014648438,4.028353881835938
6.937000000000012,0.6939971923828125,4.980899047851563,14.204885864257813
6.946999999999996,0.3835601806640625,7.935733032226563,0.4175048828125
6.957000000000001,-0.974676513671875,11.439065551757814,12.924856567382813
6.967000000000013,0.0369354248046875,8.538214111328125,5.6781860351562505
6.977000000000004,-0.5289093017578126,7.55516357421875,3.4586212158203127
6.987000000000002,-1.142755126953125,6.0950927734375,8.724984741210939
6.997000000000014,0.289501953125,7.049581909179688,8.972467041015626
7.007000000000005,-0.63941650390625,7.495797729492188,1.909426879882813
7.016999999999996,-0.8522064208984376,8.289535522460938,0.099591064453125
7.027000000000015,-0.266473388671875,9.696520996093753,3.21383056640625
7.037000000000006,1.1400634765625002,8.602066040039062,9.971667480468753
7.046999999999997,0.311334228515625,7.654156494140626,5.609997558593751
7.057000000000016,0.0118133544921875,7.59105224609375,7.043002319335938
7.067000000000007,0.3265869140625,8.084222412109376,7.921377563476563
7.076999999999998,0.7463348388671875,7.102966308593751,5.13267822265625
7.086999999999989,0.9206939697265626,3.8785186767578126,2.5003936767578128
7.097000000000008,0.6305938720703126,4.136468505859376,1.4413787841796877
7.106999999999999,-0.6356781005859375,11.269342041015626,5.2105865478515625
7.11699999999999,-0.1963409423828125,13.6867431640625,9.486721801757811
7.1270000000000095,-1.0466033935546877,12.426751708984376,2.32857666015625
7.1370000000000005,-1.1417083740234375,7.9930053710937505,9.371279907226564
7.146999999999991,0.27454833984375,5.108602905273438,18.548013305664064
7.157000000000011,-1.15142822265625,4.106710815429688,8.526849365234376
7.167000000000002,-1.4017517089843752,4.558309936523438,-1.05093994140625
7.1769999999999925,-1.6423553466796876,8.051922607421876,1.25191650390625
7.187000000000012,1.5059783935546875,12.5466796875,1.5758117675781251
7.196999999999996,-0.2190704345703125,9.963592529296877,-0.8765808105468751
7.207000000000001,-0.9984527587890626,7.648773193359376,7.643539428710938
7.217000000000013,1.6454956054687502,7.558901977539063,13.60419921875
7.227000000000004,2.242742919921876,8.192037963867188,11.595928955078126
7.23599999999999,0.2226593017578125,9.1456298828125,1.8787719726562504
7.247000000000014,-2.134329223632813,7.890274047851563,-0.27215576171875
7.256,-0.3052032470703125,7.242034912109376,0.00897216796875
7.266999999999996,2.2621826171875004,7.266409301757813,5.193838500976563
7.27600000000001,1.2113922119140623,4.338192749023438,10.594934082031251
7.286000000000001,-0.4149627685546875,6.880007934570313,3.6947387695312495
7.295999999999992,-1.75435791015625,10.695422363281253,10.17847595214844
7.306000000000012,0.3198577880859375,9.6050048828125,7.5040222167968755
7.316000000000002,-0.6480895996093751,8.386434936523438,2.415158081054688
7.326,-1.0830902099609376,6.901690673828125,7.734457397460938
7.336000000000013,-0.4658050537109375,7.1227050781250005,9.39505615234375
7.346000000000004,-0.9365447998046876,6.699966430664063,3.107809448242188
7.356000000000002,-0.509918212890625,7.4202819824218755,0.0596649169921875
7.366000000000014,0.9099273681640626,8.864950561523438,4.3701934814453125
7.376000000000005,0.7061096191406251,9.33404541015625,7.74776611328125
7.385999999999996,0.1329376220703125,8.262020874023438,5.602520751953126
7.396000000000015,0.37384033203125,7.981192016601563,6.782510375976563
7.406000000000006,0.7412506103515626,7.796066284179688,8.646029663085939
7.415999999999997,0.5495452880859375,6.343023681640625,5.927761840820313
7.426000000000016,-0.117236328125,2.958123779296875,2.449850463867188
7.436000000000007,-0.7816253662109376,4.907177734375001,1.1264556884765626
7.445999999999998,-0.262286376953125,13.048822021484376,5.977557373046875
7.455999999999989,0.6089111328125001,14.045181274414064,7.140200805664063
7.466000000000008,-0.61549072265625,11.88453369140625,1.1237640380859375
7.475999999999999,1.078155517578125,6.540560913085938,14.654092407226564
7.48599999999999,1.8035552978515623,4.497448730468751,18.60678100585937
7.496000000000009,-0.554180908203125,4.195086669921875,5.007965087890625
7.506,-1.9619140625,5.6931396484375005,-1.48638916015625
7.515999999999991,-3.224896240234376,9.97525634765625,0.986639404296875
7.52600000000001,-1.7337219238281252,11.089151000976564,0.2118927001953125
7.536000000000001,0.332867431640625,8.266506958007813,2.3610260009765627
7.546999999999997,0.9197967529296877,7.259231567382813,10.976699829101562
7.556000000000012,1.3277313232421877,8.399743652343751,11.1984619140625
7.566000000000002,1.0358367919921876,9.746914672851563,11.009298706054688
7.576,-0.9782653808593752,8.476156616210938,0.3911865234375
7.586000000000013,-1.681085205078125,7.3703369140625,0.30086669921875
7.596000000000004,1.1279510498046876,7.165771484375001,0.237164306640625
7.606000000000002,1.8412384033203129,7.422525024414063,3.801806640625
7.616000000000014,0.90260009765625,4.692144775390625,9.397299194335938
7.626000000000005,0.3386993408203125,5.6083526611328125,7.808926391601563
7.635999999999996,-1.26627197265625,12.034518432617189,9.203350830078126
7.646000000000015,0.2310333251953125,9.330307006835938,7.128985595703125
7.656000000000006,-1.6281494140625,7.725933837890626,3.1957366943359378
7.665999999999997,-1.024322509765625,7.007113647460938,8.07435302734375
7.676000000000016,0.552984619140625,6.967337036132813,8.017977905273439
7.686000000000007,-0.67889404296875,7.121957397460938,1.6837768554687502
7.695999999999998,-1.1281005859375002,7.9930053710937505,0.0671417236328125
7.705999999999989,0.444122314453125,9.009552001953123,6.282910156250001
7.716000000000008,0.8541503906250001,8.768350219726564,7.20943603515625
7.725999999999999,0.5070770263671875,8.050726318359375,5.7421875
7.735000000000014,0.4355987548828125,8.026950073242189,7.433441162109376
7.746000000000009,0.6563140869140626,7.865600585937501,8.679226684570313
7.756,0.72196044921875,6.582730102539063,5.6943359375
7.765000000000015,0.31402587890625,3.2121856689453128,2.678192138671875
7.775000000000006,-0.035589599609375,4.331463623046876,1.0793518066406251
7.784999999999997,-1.0981933593750002,12.018218994140623,5.178286743164063
7.795999999999992,-0.3072967529296875,14.5863525390625,8.801397705078125
7.806000000000012,-2.0348876953125004,12.290823364257813,1.3696014404296877
7.814999999999998,-1.2765899658203126,7.714120483398438,10.651907348632813
7.824999999999989,1.1086608886718752,4.768856811523438,19.423248291015625
7.835000000000008,-0.5172454833984376,3.9911193847656254,7.722045898437501
7.846000000000004,-1.136474609375,3.5215759277343754,-1.32967529296875
7.85499999999999,-0.7375122070312501,9.094488525390624,2.039971923828125
7.865000000000009,2.2469299316406253,12.29112243652344,1.367657470703125
7.875,0.7125396728515625,9.773681640625,-1.2700103759765626
7.884999999999991,-0.90618896484375,7.904180908203125,4.47471923828125
7.89500000000001,1.65028076171875,7.45347900390625,18.94921875
7.905000000000001,1.920941162109375,9.187799072265626,10.503717041015626
7.914999999999992,0.414215087890625,9.343914794921876,1.447509765625
7.925000000000011,-2.1666290283203127,7.7537475585937505,0.274249267578125
7.935000000000002,-2.074365234375,6.322238159179688,-1.5765594482421876
7.945999999999998,0.8215515136718751,6.230572509765626,1.612298583984375
7.9550000000000125,1.996157836914063,6.339733886718751,18.94607849121094
7.964999999999996,-1.7555541992187502,6.1122894287109375,-3.5505859375
7.975000000000001,-1.4630615234375002,11.085562133789065,13.967272949218753
7.985000000000014,1.3120300292968752,9.478945922851564,9.842617797851563
7.995000000000003,-0.116339111328125,8.032183837890626,2.441326904296876
8.005000000000003,-1.22559814453125,6.94864501953125,6.709835815429688
8.015000000000015,0.37862548828125,7.043301391601563,9.1886962890625
8.025000000000006,0.2026214599609375,6.890625000000001,3.3671051025390626
8.034999999999997,-0.6326873779296875,7.160537719726563,-0.1084136962890625
8.045999999999992,-0.10347900390625,9.108694458007813,2.589816284179688
8.055000000000007,1.5846343994140626,9.3011474609375,8.922821044921875
8.064999999999998,-0.148040771484375,8.510549926757813,6.350350952148438
8.074999999999989,-0.4535430908203125,7.622454833984375,6.699069213867188
8.085000000000008,0.10048828125,7.108200073242188,8.070016479492189
8.094999999999999,-0.3979156494140625,3.623410034179688,5.17454833984375
8.10499999999999,-0.7781860351562501,4.151571655273438,0.6539215087890625
8.115000000000009,-0.5220306396484375,11.92984313964844,5.101873779296875
8.125,0.1170867919921875,14.82486267089844,7.990463256835938
8.134999999999991,-0.9808074951171876,11.395401000976562,0.8984130859375
8.146000000000015,2.2783325195312503,6.649124145507813,10.513137817382812
8.155000000000001,2.0111114501953127,4.542309570312501,20.419607543945315
8.164999999999992,-0.283221435546875,3.2299804687500004,8.0833251953125
8.175000000000011,-1.7811248779296875,5.168118286132813,-2.15989990234375
8.185000000000002,-2.942123413085937,11.025897216796876,1.77828369140625
8.195,1.0199859619140623,12.537408447265626,1.0518371582031252
8.205000000000013,1.100885009765625,8.458212280273438,-0.1891632080078125
8.214999999999996,-0.5190399169921875,7.042105102539063,7.376766967773438
8.225000000000001,1.549493408203125,7.123303222656251,15.857858276367187
8.235000000000014,0.37623291015625,9.700259399414064,10.553363037109376
8.245000000000005,-1.3588348388671876,9.279464721679688,0.9063385009765624
8.255000000000003,-2.331866455078125,7.433441162109376,0.0985443115234375
8.265000000000015,-0.2660247802734375,6.651068115234375,-0.280828857421875
8.275000000000006,1.908978271484375,7.334597778320313,1.3773773193359375
8.284999999999997,0.768316650390625,6.958364868164063,14.717346191406252
8.295000000000016,1.057220458984375,5.319897460937501,3.9757171630859376
8.305000000000007,-2.1265533447265628,11.143731689453126,10.990457153320314
8.314999999999998,1.089968872070313,9.497637939453126,6.537121582031251
8.324000000000012,-0.496160888671875,7.192538452148438,3.6338775634765614
8.333999999999996,-0.8208038330078126,6.549682617187501,8.236898803710938
8.347000000000008,0.7206146240234376,6.730172729492188,8.271441650390626
8.35499999999999,0.5674896240234375,7.744625854492188,2.560357666015625
8.364000000000004,-0.9595733642578126,8.491708374023439,0.6942962646484375
8.374000000000002,-1.11494140625,9.302941894531251,4.984637451171875
8.384000000000015,0.8037567138671876,8.61627197265625,7.2052490234375
8.394000000000005,0.419000244140625,7.650418090820313,6.875073242187501
8.403999999999996,-0.593658447265625,7.501181030273438,6.835446166992188
8.414000000000016,0.384906005859375,7.854983520507813,7.237249755859375
8.424000000000007,0.4350006103515625,7.596435546875001,5.995352172851563
8.433999999999997,-0.13458251953125,4.753903198242188,3.961212158203125
8.445999999999998,-0.11962890625,2.998199462890625,1.0965484619140626
8.454000000000008,0.101983642578125,9.364700317382812,2.869598388671875
8.463999999999999,0.164190673828125,14.499472045898438,10.465435791015626
8.47399999999999,-1.1481384277343751,13.46946716308594,4.512551879882813
8.484000000000009,-1.242495727539063,9.36514892578125,3.879714965820313
8.494,1.1743072509765626,5.225390625,19.18668212890625
8.50399999999999,0.0985443115234375,3.610549926757813,13.256228637695314
8.51400000000001,-1.185223388671875,3.707150268554688,-0.4725341796875
8.524000000000001,-1.9847930908203129,6.533233642578126,0.5145538330078125
8.533999999999992,1.3070953369140623,12.72373046875,2.6792388916015626
8.544000000000011,1.884454345703125,11.043392944335938,0.0183929443359375
8.554000000000002,-1.163690185546875,7.9900146484375005,-1.41700439453125
8.564,-0.6368743896484376,8.351443481445314,11.924160766601563
8.574000000000012,2.868701171875,7.648324584960938,20.96601257324219
8.583999999999996,0.2021728515625,8.557354736328126,1.0522857666015626
8.594000000000001,-1.6271026611328123,8.524157714843751,0.4403839111328125
8.604000000000013,-1.5930084228515626,7.015936279296875,-0.5860321044921876
8.614000000000004,0.1003387451171875,6.770697021484375,-0.8469726562500001
8.624000000000002,1.8243408203125,7.311718750000001,14.515472412109377
8.634000000000015,0.5710784912109376,3.9082763671875,5.26666259765625
8.644000000000005,-1.940231323242188,10.72278747558594,7.172799682617188
8.653999999999996,0.5653961181640625,9.967031860351565,11.29775390625
8.664000000000016,0.9902282714843752,8.7053955078125,2.8618225097656254
8.674000000000007,-1.1381195068359375,7.381253051757813,5.851947021484375
8.683999999999997,-0.4366455078125,6.921728515625,8.774331665039064
8.694000000000017,0.3117828369140625,7.085321044921876,4.224694824218751
8.704000000000008,-0.149237060546875,6.9396728515625,0.9209930419921876
8.713999999999999,-0.6403137207031251,8.39794921875,3.5830352783203128
8.72399999999999,0.3476715087890625,9.086413574218753,6.560150146484376
8.734000000000009,0.1975372314453125,8.881997680664064,6.323733520507813
8.744,-0.6436035156250001,8.162579345703126,6.9387756347656255
8.75399999999999,0.3599334716796875,7.697222900390625,7.989117431640626
8.76400000000001,0.1626953125,5.639456176757813,6.699218750000001
8.774000000000001,-0.8043548583984376,2.85015869140625,2.698080444335938
8.783999999999992,-1.080548095703125,6.240591430664063,0.9802093505859376
8.794000000000011,0.8851043701171876,14.326907348632814,7.014590454101563
8.802999999999997,-0.042767333984375,14.113818359375,5.723345947265625
8.813000000000017,0.0518890380859375,10.226177978515626,1.5728210449218751
8.823000000000008,2.5116088867187503,5.429208374023438,16.788421630859375
8.833999999999996,1.4343505859375,4.140505981445313,17.444137573242188
8.84299999999999,-0.8339630126953126,3.4483032226562504,2.3532501220703126
8.85499999999999,-2.2831176757812504,6.3319580078125,-1.199578857421875
8.863,-2.9346466064453125,11.867486572265626,1.5352874755859376
8.87299999999999,1.007275390625,11.266351318359376,0.8190093994140626
8.88300000000001,0.410028076171875,7.940368652343751,0.2029205322265625
8.893,0.280828857421875,6.9567199707031255,14.334234619140624
8.902999999999992,1.2924407958984376,8.522363281250001,13.675228881835938
8.913000000000011,0.171368408203125,10.016827392578126,6.858773803710938
8.923000000000002,-1.6333831787109376,8.168560791015626,-0.0530853271484375
8.933,-2.16109619140625,6.847857666015625,-0.006280517578125
8.943000000000012,0.73990478515625,7.058853149414063,0.226397705078125
8.952999999999996,1.6284484863281252,7.070816040039063,5.2816162109375
8.963000000000001,0.4103271484375,4.290341186523438,12.350039672851564
8.973000000000013,0.14176025390625,9.4135986328125,1.097894287109375
8.983000000000004,0.1634429931640625,11.019317626953123,14.088098144531251
8.993000000000002,0.16448974609375,8.398846435546876,4.857830810546876
9.003000000000014,-1.3096374511718751,6.930999755859376,3.696234130859376
9.013000000000003,-0.3171661376953125,6.602917480468751,10.1289794921875
9.022999999999996,0.6077148437500001,6.966738891601563,7.361962890625
9.033000000000015,-0.626556396484375,7.36734619140625,0.476123046875
9.043000000000006,-1.263580322265625,8.753097534179688,0.1626953125
9.052999999999995,-0.263482666015625,9.513937377929688,6.49345703125
9.063000000000017,0.700726318359375,8.303591918945314,8.474511718750001
9.073000000000008,-0.000299072265625,7.549630737304688,5.402590942382813
9.082999999999998,-0.1670318603515625,8.023211669921876,7.455572509765625
9.09299999999999,0.8429351806640626,7.825973510742188,8.062838745117189
9.103000000000009,1.0053314208984376,5.432199096679688,4.339389038085938
9.113,0.2495758056640625,2.6234619140625,0.778485107421875
9.12299999999999,-0.5640502929687501,8.033828735351562,1.3444793701171875
9.13300000000001,0.1341339111328125,14.335879516601564,10.099969482421876
9.143,-0.6996795654296876,13.308865356445311,6.920382690429688
9.152999999999992,-1.475772094726563,10.2222900390625,0.8380004882812501
9.163000000000013,0.7262969970703126,5.533734130859376,17.708666992187503
9.173000000000002,0.3913360595703125,3.87178955078125,16.31424255371094
9.183,-1.059613037109375,3.4601165771484377,1.4004058837890625
9.193000000000012,-2.100982666015625,5.42935791015625,-0.4284210205078125
9.202999999999996,-0.2863616943359375,12.602008056640626,2.6103027343750003
9.213,2.518487548828125,11.862701416015623,0.8255889892578125
9.223000000000011,-0.8333648681640625,8.566326904296876,-1.9529418945312504
9.233000000000004,-2.4196441650390628,7.752102661132813,4.578497314453125
9.243000000000002,3.2869537353515628,7.874423217773438,26.15835571289063
9.253000000000014,1.370947265625,8.282208251953126,3.601577758789063
9.263000000000003,-1.3026092529296875,8.600122070312501,0.6060699462890625
9.272999999999996,-2.150927734375,7.149172973632813,0.1966400146484375
9.283000000000015,-0.397467041015625,6.720153808593751,-1.3301239013671875
9.293000000000006,2.2888000488281253,6.6232543945312505,8.186355590820312
9.302999999999995,1.3758819580078123,5.019479370117188,10.7199462890625
9.313000000000017,-1.60721435546875,9.886880493164064,-0.8493652343750001
9.323000000000008,0.7233062744140626,10.230364990234376,17.18514099121094
9.332999999999998,0.258099365234375,8.368191528320313,4.267611694335938
9.342000000000011,-0.849066162109375,7.107751464843751,2.5392730712890628
9.353000000000009,-1.109857177734375,6.863110351562501,10.314105224609376
9.363,-0.226995849609375,7.070965576171876,7.123153686523438
9.37299999999999,-0.2908477783203125,6.842773437500001,0.69324951171875
9.382000000000003,-0.9103759765625,8.19697265625,0.1158905029296875
9.391999999999996,0.331072998046875,9.815103149414064,5.8416290283203125
9.402000000000015,0.46715087890625,8.807379150390625,9.36514892578125
9.412000000000006,-0.0725250244140625,7.92601318359375,4.796670532226563
9.421999999999995,0.20635986328125,7.921527099609375,7.704998779296876
9.432000000000016,0.87269287109375,7.458563232421875,8.258731079101564
9.442000000000007,0.3174652099609375,4.889233398437501,4.273892211914063
9.451999999999998,-0.3321197509765625,2.6798370361328128,1.173858642578125
9.461999999999987,-1.5463531494140623,7.99898681640625,1.194793701171875
9.472000000000008,0.9805084228515626,15.04154052734375,8.722891235351563
9.482,0.4664031982421875,14.337374877929689,5.43533935546875
9.49199999999999,-0.313427734375,9.286343383789063,5.039816284179688
9.50200000000001,2.137319946289063,5.352346801757813,17.492437744140627
9.512,1.2658233642578125,3.9447631835937504,14.75443115234375
9.521999999999991,-0.7505218505859376,3.0411163330078126,0.8420379638671875
9.53200000000001,-2.4779632568359378,6.737350463867188,-0.8933288574218751
9.542000000000002,-3.5335388183593754,11.826065063476562,1.2786834716796875
9.551999999999992,-0.3135772705078125,11.084515380859376,0.7165771484375001
9.562000000000012,0.8732910156250001,8.424267578125,2.5229736328125
9.571999999999996,0.39298095703125,7.296316528320313,13.236788940429689
9.582,1.5865783691406252,8.556158447265625,13.1244873046875
9.592000000000011,0.36068115234375,9.125442504882812,7.150967407226563
9.602000000000004,-1.508670043945313,7.9331909179687505,0.077459716796875
9.612000000000002,-1.6736083984375,6.872531127929688,-0.0478515625
9.622000000000014,0.954937744140625,7.164724731445313,0.0689361572265625
9.632000000000003,2.197134399414063,7.125845336914063,6.1166259765625
9.641999999999996,1.198681640625,4.766314697265625,7.233959960937501
9.652000000000015,-0.6933990478515626,9.030636596679688,9.631024169921876
9.662000000000006,-0.157012939453125,11.014382934570314,10.842266845703126
9.671999999999995,-0.7659240722656251,8.933139038085939,4.85513916015625
9.682000000000016,-1.4985015869140623,6.778173828125,3.98125
9.692000000000007,0.066094970703125,6.860717773437501,8.908166503906251
9.701999999999998,-0.011962890625,6.742434692382813,6.875073242187501
9.711999999999987,-0.6646881103515625,7.252203369140625,0.765325927734375
9.722000000000008,-1.29498291015625,8.220748901367188,-0.0820953369140625
9.732,0.8369537353515626,9.641790771484375,8.336489868164064
9.74199999999999,0.7708587646484376,8.624047851562501,7.673446655273438
9.75200000000001,0.1547698974609375,7.8967041015625,5.472573852539063
9.762,0.1691253662109375,8.027398681640626,7.754046630859375
9.771999999999991,0.9525451660156252,7.703503417968751,8.055661010742188
9.78200000000001,0.9017028808593752,4.966693115234375,4.501187133789063
9.792000000000002,0.2797821044921875,2.35130615234375,1.0890716552734376
9.801999999999992,-0.7853637695312501,7.474862670898438,1.0044342041015626
9.812000000000012,-0.47672119140625,14.4798828125,8.59952392578125
9.821999999999996,-0.9290679931640624,13.871420288085938,7.034628295898438
9.832,-2.02352294921875,10.774676513671876,2.48828125
9.842000000000011,0.6252105712890625,5.923275756835938,16.888311767578127
9.852000000000004,0.5401245117187501,4.266116333007813,16.090686035156253
9.862000000000002,-0.8456268310546876,3.363665771484375,2.1872650146484376
9.872000000000014,-1.6480377197265623,4.580740356445313,-0.7352691650390626
9.881,-0.0755157470703125,11.928945922851565,2.9026458740234378
9.890999999999991,2.094403076171876,11.31629638671875,0.747381591796875
9.902000000000015,0.02093505859375,8.902633666992188,-1.6161865234375
9.911,-1.5613067626953123,8.300302124023439,5.201315307617188
9.920999999999992,3.296524047851563,7.850198364257813,23.54880065917969
9.931000000000012,1.4670989990234375,8.998635864257814,5.881854248046875
9.941000000000004,-1.225,8.513092041015625,-0.6987823486328125
9.951,-1.955783081054688,7.061843872070313,0.391485595703125
9.961000000000013,-1.2254486083984375,6.7219482421875005,-1.5252685546875
9.971000000000004,2.1729095458984378,6.4826904296875005,11.232107543945313
9.981000000000002,0.75904541015625,4.1092529296875,8.964242553710939
9.991000000000014,-2.086477661132813,9.60306091308594,-1.202569580078125
10.001000000000005,0.0671417236328125,10.524951171875,17.113812255859376
10.010999999999996,0.421990966796875,8.777023315429688,5.478106689453125
10.021000000000017,-0.7478302001953125,7.704998779296876,2.895468139648438
10.031000000000006,-0.206658935546875,7.227679443359375,7.939321899414063
10.040999999999997,-0.0500946044921875,7.101919555664063,7.209286499023438
10.051000000000016,-0.0399261474609375,6.451287841796876,1.2537109375000002
10.061000000000009,-0.437841796875,7.53123779296875,0.0653472900390625
10.070999999999998,0.868206787109375,9.327316284179688,6.9671875000000005
10.080999999999989,0.2773895263671875,9.15101318359375,8.25858154296875
10.091000000000008,-0.2585479736328125,8.410809326171876,5.353094482421875
10.101,-0.1472930908203125,7.70230712890625,7.139752197265626
10.11099999999999,-0.0465057373046875,4.857083129882813,7.701708984375
10.12100000000001,-0.20157470703125,3.173904418945313,2.885150146484375
10.131,-0.6114532470703126,8.9135498046875,2.2034149169921875
10.140999999999991,-0.09510498046875,13.897589111328124,7.930947875976563
10.15100000000001,-0.6790435791015625,12.913043212890626,3.0650421142578126
10.161,1.2946838378906251,8.096185302734376,5.4658447265625005
10.170999999999992,2.04744873046875,5.148529052734375,18.01865539550781
10.181000000000012,-0.125909423828125,4.247872924804688,12.722235107421875
10.191000000000004,-1.4002563476562502,5.168716430664063,-0.6539215087890625
10.201,-2.4549346923828126,8.596533203125,0.6760528564453125
10.211000000000013,-0.4233367919921875,11.84146728515625,1.2622344970703123
10.221000000000004,1.1470916748046875,9.45008544921875,1.1656341552734375
10.231000000000002,0.325390625,6.429605102539063,12.112725830078126
10.241000000000014,0.86072998046875,7.979696655273438,4.9743194580078125
10.251000000000005,0.8821136474609376,8.554064941406251,13.679266357421875
10.260999999999996,-0.6029296875000001,9.595135498046876,3.3192535400390626
10.271000000000017,-2.004232788085938,8.143887329101563,-0.2660247802734375
10.281000000000006,-0.6839782714843751,7.179678344726563,-0.1164886474609375
10.290999999999997,1.4080322265625,7.246371459960938,1.2288879394531251
10.301000000000016,0.672314453125,6.182122802734376,15.833334350585938
10.311000000000009,0.8553466796875001,5.594595336914063,1.8886413574218752
10.320999999999998,-2.5041320800781253,10.373770141601565,8.277572631835938
10.330999999999989,0.9571807861328124,9.497039794921877,8.186505126953126
10.341000000000008,0.0127105712890625,8.18560791015625,4.4778594970703125
10.351,-1.256103515625,6.255844116210938,6.983786010742188
10.36099999999999,0.4720855712890625,6.9253173828125005,8.774630737304689
10.37100000000001,0.892431640625,7.131527709960938,5.199969482421875
10.381,-0.6033782958984375,8.467483520507812,0.5866302490234375
10.390999999999991,-0.9242828369140624,9.084918212890626,2.2736968994140625
10.40100000000001,1.0413696289062502,9.098974609375,7.296615600585938
10.411,0.0444122314453125,7.582977294921876,7.730718994140625
10.420999999999992,-0.5603118896484376,7.263418579101563,6.411810302734375
10.430000000000009,0.1383209228515625,7.756439208984376,6.626693725585938
10.439999999999998,0.3828125,6.969281005859376,6.552822875976563
10.449999999999989,-0.3055023193359375,4.197628784179688,3.060107421875
10.460000000000008,-0.5004974365234376,5.449246215820313,0.0958526611328125
10.47,-0.093011474609375,11.948236083984376,6.515438842773438
10.47999999999999,-0.3002685546875,13.319781494140626,10.095184326171877
10.490000000000007,-1.87099609375,10.916436767578126,2.3124267578125
10.5,-0.0459075927734375,6.485232543945313,10.563980102539062
10.509999999999993,1.1070159912109376,5.046395874023438,17.139382934570314
10.52000000000001,-0.5909667968750001,4.8856445312500005,6.5739074707031255
10.53,-0.486590576171875,5.344720458984376,-0.6742584228515626
10.539999999999992,0.533245849609375,10.112380981445312,1.75675048828125
10.550000000000011,2.05821533203125,11.670248413085938,0.675604248046875
10.560000000000002,-0.1804901123046875,9.2365478515625,0.9326568603515626
10.57,0.15791015625,6.347659301757813,6.807034301757813
10.580000000000013,1.3389465332031252,8.442062377929688,16.290765380859376
10.589999999999996,0.8593841552734376,8.916839599609375,7.666119384765626
10.6,-0.3135772705078125,9.572854614257814,1.7911437988281251
10.610000000000014,-2.3969146728515627,7.21123046875,-0.54132080078125
10.620000000000005,-1.89791259765625,6.606506347656251,-1.8633697509765623
10.630000000000004,1.4167053222656252,6.882699584960938,18.13050842285156
10.640000000000017,-0.5256195068359375,3.805395507812501,5.929705810546875
10.650000000000006,-0.9692932128906252,8.982934570312501,-4.190151977539063
10.659999999999997,0.63104248046875,11.466580200195311,13.989404296875
10.670000000000016,0.3672607421875,8.340078735351563,8.176486206054689
10.680000000000009,0.6904083251953126,7.517031860351563,2.9895263671875
10.689999999999998,-0.6156402587890626,6.833203125000001,8.573056030273438
10.699999999999989,0.0825439453125,7.205697631835938,8.369387817382814
10.710000000000008,0.5685363769531251,7.318896484375,2.183078002929688
10.72,-0.4269256591796875,8.023211669921876,0.39298095703125
10.72999999999999,-0.1912567138671875,9.166265869140624,5.5006866455078125
10.740000000000007,0.293389892578125,8.741732788085939,8.149270629882814
10.75,-0.4164581298828125,7.940667724609375,5.743682861328125
10.759999999999993,-1.1007354736328123,7.575051879882813,6.531140136718751
10.77000000000001,-0.1541717529296875,6.97855224609375,7.522714233398438
10.78,-0.215032958984375,3.7998626708984378,4.746426391601563
10.789999999999992,-0.9302642822265624,4.673452758789063,0.8184112548828125
10.800000000000011,-0.418701171875,11.951824951171876,4.988226318359375
10.810000000000002,1.4765197753906252,14.685046386718753,8.230917358398438
10.82,-0.3841583251953125,11.425607299804687,2.16588134765625
10.830000000000013,1.7395538330078126,5.771945190429688,11.048477172851562
10.839999999999996,1.93140869140625,4.60870361328125,17.419613647460938
10.85,-0.006878662109375,3.706851196289063,7.7522521972656255
10.860000000000014,-1.6484863281250002,5.519229125976563,-1.6082611083984375
10.870000000000005,-2.525216674804688,11.06851501464844,1.661196899414063
10.880000000000004,0.732427978515625,12.490603637695314,0.6922027587890626
10.890000000000017,0.5897705078125001,8.61866455078125,0.7497741699218751
10.900000000000006,-0.7020721435546875,6.170608520507813,13.123590087890626
10.909999999999997,0.747381591796875,7.816552734375,9.979742431640624
10.920000000000016,0.411224365234375,9.313409423828126,10.074996948242188
10.930000000000009,-1.254608154296875,8.880502319335939,1.222607421875
10.939999999999998,-2.2771362304687504,7.45347900390625,-0.0705810546875
10.949999999999989,-0.1096099853515625,7.214370727539063,0.12501220703125
10.960000000000008,2.023672485351563,7.409365844726563,4.627096557617188
10.97,0.6646881103515625,4.8068389892578125,14.05460205078125
10.979000000000012,0.475225830078125,7.6939331054687505,0.3225494384765625
10.989000000000004,-0.6996795654296876,10.949185180664063,11.716604614257813
10.999000000000002,0.9932189941406252,9.087609863281251,7.120910644531251
11.009000000000016,-0.771307373046875,7.531088256835938,2.9814514160156254
11.019000000000004,-0.236865234375,6.109149169921875,7.457815551757813
11.028999999999996,0.332867431640625,6.734359741210938,9.826019287109377
11.039000000000016,-0.314923095703125,7.269998168945313,3.4677429199218754
11.049000000000008,-1.2481781005859376,8.493801879882813,-0.0059814453125
11.058999999999996,-0.8732910156250001,9.754541015625,2.098440551757813
11.069000000000017,0.9308624267578126,9.03497314453125,10.01099548339844
11.079000000000008,-0.0898712158203125,7.462899780273438,6.1088500976562505
11.089,-0.42169189453125,7.212426757812499,6.345416259765625
11.09899999999999,0.01614990234375,7.748364257812501,8.216561889648439
11.109000000000009,0.8574401855468751,7.098928833007813,5.9922119140625005
11.119,0.7150817871093751,3.5858764648437504,2.011709594726563
11.12899999999999,-0.1377227783203125,4.397409057617188,0.1416107177734375
11.13900000000001,-0.0330474853515625,12.376058959960938,5.3366455078125
11.149,0.6362762451171875,14.4715087890625,11.290127563476563
11.158999999999992,-1.1017822265625,12.06741638183594,2.379119873046875
11.169000000000011,-0.9673492431640626,7.45108642578125,8.065829467773439
11.179000000000002,1.0047332763671877,4.710089111328125,19.750283813476564
11.189,-0.4670013427734375,3.395217895507813,9.144583129882813
11.199000000000012,-1.3788726806640623,3.5948486328125004,-1.6164855957031252
11.208999999999996,-2.5482452392578128,8.903680419921876,1.7002258300781252
11.219,1.6635894775390627,13.517019653320313,2.0994873046875
11.229000000000012,1.5002960205078126,10.090997314453126,-0.2343231201171875
11.239000000000004,-2.3040527343750004,7.497293090820313,0.2041168212890625
11.249000000000002,0.5655456542968751,7.394113159179688,20.12143249511719
11.259000000000016,2.9146087646484378,8.213272094726562,12.9282958984375
11.269000000000004,-0.1945465087890625,8.850595092773439,0.4050933837890625
11.278999999999996,-2.103076171875,7.909564208984375,1.03658447265625
11.289000000000016,-1.370050048828125,6.643142700195313,-0.9948638916015624
11.299000000000008,1.2921417236328123,6.82901611328125,0.902001953125
11.308999999999996,2.873187255859375,7.310372924804688,15.709368896484376
11.319000000000017,0.7484283447265625,5.237054443359376,2.495309448242188
11.329000000000008,-2.14913330078125,11.545236206054687,10.38064880371094
11.339,0.524273681640625,9.366943359375,9.7581298828125
11.34899999999999,-0.6316406250000001,7.8120666503906255,1.8292755126953129
11.359000000000009,-0.5703308105468751,6.724191284179688,6.2135253906250005
11.369,-0.8357574462890626,6.718359375,10.696319580078123
11.37899999999999,-0.5416198730468751,6.883148193359376,4.122113037109376
11.38900000000001,-0.7210632324218751,7.235903930664063,-0.1410125732421875
11.399,-0.667828369140625,9.566424560546876,0.8190093994140626
11.408999999999992,1.4673980712890626,9.372177124023438,11.251846313476562
11.419000000000011,-0.1112548828125,8.547335815429689,5.517584228515625
11.429000000000002,0.140264892578125,7.406375122070313,6.184963989257813
11.439,0.7155303955078125,7.673297119140625,8.823977661132814
11.449000000000012,0.4003082275390625,6.471774291992188,6.693087768554688
11.458999999999996,-0.0004486083984375,3.056817626953125,2.053729248046875
11.46799999999999,-0.9945648193359377,5.318850708007813,-0.40972900390625
11.479000000000012,-0.064599609375,12.452471923828126,7.376617431640626
11.488,1.0564727783203125,14.232998657226563,7.578042602539063
11.49799999999999,-0.8871978759765625,11.846701049804688,1.2377105712890626
11.50800000000001,1.12391357421875,6.318948364257813,13.998376464843751
11.518,1.6082611083984375,4.861419677734375,17.974542236328126
11.527999999999992,-0.3318206787109375,3.8311157226562496,5.338589477539063
11.538000000000013,-1.7649749755859376,5.230325317382813,-1.5047821044921876
11.548000000000002,-3.0732666015625,10.53870849609375,1.090118408203125
11.558,-0.9582275390625,11.012588500976562,0.814373779296875
11.568000000000012,0.953741455078125,8.975906372070312,2.732772827148437
11.577999999999996,0.52457275390625,7.115826416015626,9.68216552734375
11.588,1.3917327880859376,8.127737426757813,11.884234619140626
11.598000000000011,0.56943359375,9.360513305664064,10.079931640625
11.608000000000004,-0.945965576171875,8.775378417968751,0.676800537109375
11.618000000000002,-1.648187255859375,7.142593383789063,0.0222808837890625
11.628000000000014,0.8439819335937501,7.523461914062499,0.308343505859375
11.638000000000003,1.717572021484375,7.284204101562499,5.1213134765625
11.647999999999996,0.3704010009765625,3.9984466552734377,11.282052612304687
11.658000000000015,0.1422088623046875,7.70828857421875,5.09619140625
11.668000000000006,-1.3020111083984376,10.484127807617188,9.676632690429688
11.677999999999995,0.3793731689453125,9.62354736328125,6.821240234375001
11.688000000000017,-1.48758544921875,7.720700073242188,3.365011596679688
11.698000000000008,-0.5627044677734375,7.14005126953125,7.609744262695313
11.707999999999998,0.4592254638671875,6.855484008789063,8.406173706054688
11.71799999999999,-0.3034088134765625,7.010253906250001,2.100982666015625
11.728000000000009,-1.063201904296875,7.8763671875,0.0602630615234375
11.738,0.5462554931640625,9.159835815429688,6.134121704101563
11.74799999999999,0.6806884765625001,8.92252197265625,7.535574340820313
11.75800000000001,0.1733123779296875,8.151214599609375,5.328121948242188
11.768,0.2672210693359375,7.814309692382813,7.280316162109376
11.777999999999992,0.4526458740234375,7.867843627929688,8.759078979492188
11.788000000000013,0.734222412109375,5.719158935546876,5.8797607421875
11.798000000000002,0.5834899902343751,2.7227539062500004,1.612298583984375
11.808,-0.3384002685546875,6.4527832031250005,0.6320892333984376
11.818000000000012,-0.5993408203125,13.648013305664064,7.830758666992188
11.827999999999996,-0.5447601318359375,14.07239685058594,7.123004150390625
11.838,-1.7195159912109377,10.866641235351564,0.1807891845703125
11.85,-0.1628448486328125,6.436184692382813,15.74256591796875
11.858000000000004,0.5401245117187501,4.60032958984375,18.353765869140627
11.868000000000002,-0.8489166259765626,3.2748413085937504,4.048989868164063
11.878000000000014,-1.4979034423828126,4.188656616210938,-1.496707153320313
11.888000000000003,-0.4711883544921875,11.73499755859375,2.991171264648438
11.897999999999996,1.9166046142578128,11.87197265625,0.9124694824218752
11.908000000000015,-0.1984344482421875,9.183163452148438,-1.329376220703125
11.918000000000006,-1.7238525390625,7.8629089355468755,4.609002685546876
11.927999999999995,3.003732299804688,7.126293945312501,22.4364013671875
11.938000000000017,1.5065765380859375,8.548980712890625,6.63402099609375
11.948000000000008,-0.7822235107421875,8.848052978515625,0.4053924560546875
11.957999999999998,-2.304351806640625,8.112783813476563,0.4529449462890625
11.96799999999999,-0.7008758544921876,6.854885864257813,-0.9033477783203124
11.978000000000009,1.9894287109375,6.708340454101563,6.465194702148438
11.988,1.2670196533203126,4.461859130859375,12.056201171875
11.99799999999999,-1.1551666259765625,8.872128295898438,0.7708587646484376
12.00800000000001,-1.3395446777343751,9.92725524902344,13.309463500976564
12.016999999999996,1.310235595703125,9.44290771484375,5.538369750976563
12.027000000000015,-0.5191894531250001,7.659091186523438,3.4915191650390627
12.037000000000006,-1.107913208007813,6.729873657226563,8.192037963867188
12.048000000000002,0.2845672607421875,7.003225708007813,8.289086914062501
12.057000000000016,-0.129498291015625,6.860269165039063,2.3519042968750004
12.067000000000007,-0.87867431640625,8.0294921875,0.2585479736328125
12.076999999999998,0.6539215087890625,9.153256225585938,5.646334838867188
12.086999999999987,0.382513427734375,9.312213134765626,7.510601806640626
12.097000000000008,-0.3084930419921875,7.937826538085938,6.27872314453125
12.107,0.1870697021484375,7.677185058593751,6.645834350585938
12.11699999999999,0.3129791259765625,7.076498413085938,7.766458129882813
12.12700000000001,0.1837799072265625,3.905435180664063,5.217764282226563
12.138000000000003,-0.490179443359375,3.78087158203125,1.1233154296875
12.146999999999991,-0.8239440917968751,11.109039306640623,3.446359252929688
12.15700000000001,0.820355224609375,14.315393066406251,8.453128051757814
12.167000000000002,0.035589599609375,12.40955505371094,2.1624420166015628
12.176999999999992,0.9793121337890626,7.6475769042968755,9.096282958984377
12.187000000000012,1.8759307861328127,5.015591430664063,19.138980102539065
12.196999999999996,-0.115142822265625,4.135122680664063,9.358270263671876
12.207,-1.523175048828125,4.892672729492188,-1.7057586669921876
12.217000000000011,-2.927020263671875,9.2927734375,1.0137054443359377
12.227000000000004,-2.256500244140625,11.426205444335938,0.2441925048828125
12.238,0.8489166259765626,8.840127563476564,4.030895996093751
12.247000000000014,0.6560150146484376,6.947448730468751,8.257833862304688
12.257000000000003,0.7358673095703125,8.25260009765625,9.370382690429688
12.266999999999996,1.1506805419921875,8.9925048828125,13.510888671875
12.277000000000015,-0.85654296875,9.468927001953126,1.49715576171875
12.287000000000006,-1.7660217285156252,7.156500244140625,0.057421875
12.296999999999995,0.311932373046875,7.6685119628906255,0.30445556640625
12.307000000000016,1.57850341796875,6.947448730468751,1.8651641845703129
12.317000000000007,1.0742675781250002,5.79063720703125,11.402728271484376
12.326999999999998,0.6338836669921876,5.398104858398438,5.1802307128906255
12.338,-1.3041046142578123,10.83359375,9.437225341796877
12.347000000000008,0.5523864746093751,9.790878295898438,8.352041625976563
12.357,-1.017144775390625,7.951583862304688,3.85205078125
12.36699999999999,-1.0771087646484376,6.932644653320313,6.752752685546875
12.37700000000001,0.5269653320312501,7.302597045898438,8.483334350585938
12.387,0.139666748046875,6.98094482421875,3.487930297851563
12.396999999999991,-0.950750732421875,7.823281860351563,0.395672607421875
12.40700000000001,-1.0343414306640626,8.644534301757814,4.493112182617188
12.417000000000002,1.0376312255859377,8.847903442382814,7.370785522460938
12.426999999999992,0.318511962890625,8.202655029296876,6.0304931640625
12.438000000000017,-0.140264892578125,7.888629150390625,6.66751708984375
12.446999999999996,0.6129486083984376,8.3345458984375,7.778720092773438
12.457,0.61309814453125,7.504769897460938,6.868344116210938
12.467000000000011,0.31282958984375,4.984637451171875,4.61468505859375
12.477000000000004,0.00418701171875,2.581442260742188,1.9364929199218752
12.487000000000002,-0.423785400390625,6.681274414062501,2.110104370117188
12.497000000000014,-0.1591064453125,14.248400878906253,7.870684814453125
12.507000000000003,-1.14664306640625,14.512033081054687,5.765515136718751
12.516999999999996,-1.964157104492188,11.185900878906253,1.5468017578125002
12.527000000000015,0.5166473388671875,6.4372314453125,17.011828613281253
12.538000000000013,0.4978057861328125,4.453335571289063,17.142074584960938
12.546999999999995,-0.5656951904296875,2.9874328613281254,2.683126831054688
12.556000000000012,-1.341189575195313,3.9441650390625,-1.1482879638671877
12.567000000000007,0.302960205078125,11.704193115234377,2.7058563232421875
12.576,2.0064758300781254,11.729763793945311,0.8151214599609375
12.586000000000013,0.468048095703125,9.087161254882814,-1.0498931884765623
12.597000000000008,-1.879220581054688,8.098428344726564,3.6561584472656254
12.606000000000002,2.8015594482421875,7.162033081054688,24.66299438476563
12.616000000000014,1.4596221923828123,9.03018798828125,7.05631103515625
12.626000000000005,-1.4343505859375,8.405575561523438,-1.3963684082031251
12.638000000000003,-1.52706298828125,8.189047241210938,0.9351989746093752
12.646000000000017,-1.5628021240234375,6.713424682617188,-1.854248046875
12.656000000000006,1.122418212890625,6.3481079101562505,5.866751098632813
12.665999999999997,1.3184600830078126,3.853247070312501,13.607489013671875
12.676000000000016,-1.6538696289062502,9.261520385742188,1.2999176025390626
12.686000000000009,-0.41092529296875,10.201803588867188,14.527435302734377
12.695999999999998,1.1304931640625,9.280810546875,5.1507720947265625
12.705999999999989,-0.408831787109375,7.890573120117188,3.4154052734375004
12.716000000000008,-0.8886932373046875,7.622903442382813,7.452282714843751
12.726,0.6216217041015626,7.03477783203125,7.080535888671876
12.73599999999999,0.160003662109375,6.453979492187501,1.87578125
12.74600000000001,-0.629547119140625,7.3978515625,1.328179931640625
12.756,0.576910400390625,9.0571044921875,5.6931396484375005
12.765999999999991,0.26856689453125,9.217556762695311,7.068124389648438
12.77600000000001,-0.677099609375,8.337237548828126,6.628488159179688
12.786,-0.13338623046875,7.430450439453126,6.920233154296875
12.795999999999992,-0.1123016357421875,4.166226196289063,6.364108276367188
12.806000000000012,-0.6246124267578126,3.0831359863281254,3.3491607666015626
12.817000000000007,-0.2068084716796875,11.03935546875,3.818405151367188
12.826,-0.4598236083984375,14.924603271484376,7.785000610351563
12.836000000000013,-0.6963897705078126,12.58974609375,1.7163757324218751
12.846000000000004,1.7136840820312502,7.423721313476563,6.300704956054688
12.856000000000002,2.77120361328125,4.630087280273438,20.443234252929688
12.866000000000014,0.1137969970703125,2.9620117187500004,10.581774902343753
12.876000000000005,-1.4213409423828125,4.059457397460938,-2.058514404296876
12.885999999999996,-3.3056457519531253,9.679025268554687,0.9721343994140624
12.896000000000017,-0.7932891845703126,13.363146972656253,2.1110015869140626
12.906000000000006,1.20107421875,9.0618896484375,-0.3840087890625
12.915999999999997,0.5477508544921875,7.424319458007813,11.765203857421875
12.926000000000016,1.083837890625,7.2148193359375,9.184060668945314
12.936000000000009,1.2888519287109377,9.066525268554688,12.94190368652344
12.945999999999998,-0.9305633544921876,9.824673461914063,2.656808471679688
12.955999999999989,-2.1744049072265628,7.467385864257813,0.3312225341796875
12.966000000000008,-2.0124572753906254,6.510354614257813,-1.4632110595703125
12.976,0.682781982421875,7.003674316406251,0.2672210693359375
12.98599999999999,2.7546051025390628,7.872030639648438,15.745257568359376
12.99600000000001,0.091217041015625,4.7983154296875,4.399801635742188
13.006,-1.393975830078125,11.959600830078124,5.044750976562501
13.015999999999991,0.6326873779296875,8.861062622070314,12.344656372070313
13.02600000000001,-0.339447021484375,7.809823608398438,1.9228851318359377
13.036,-0.6649871826171876,5.690896606445313,6.785650634765625
13.045999999999992,0.7898498535156251,6.846511840820313,10.37481689453125
13.055000000000009,0.251220703125,7.062442016601563,4.8502044677734375
13.064999999999998,-0.8643188476562501,8.070166015625,0.1667327880859375
13.074999999999989,-1.5140533447265625,9.701605224609375,0.322998046875
13.085000000000008,1.3639190673828123,9.519171142578124,9.573452758789063
13.095,0.5540313720703125,7.66103515625,8.087811279296876
13.10499999999999,-0.8181121826171875,7.081582641601563,5.168417358398438
13.115000000000007,0.018841552734375,7.795169067382813,7.750906372070313
13.125,0.8578887939453126,7.330709838867188,6.617572021484375
13.134999999999993,0.4170562744140625,3.922930908203125,2.3626708984375
13.146000000000017,-0.0022430419921875,3.2385040283203126,0.10467529296875
13.155,-0.6570617675781251,12.082669067382811,5.712728881835938
13.164999999999992,0.102880859375,15.366632080078126,11.197415161132811
13.175000000000011,-0.9485076904296876,12.350189208984377,2.4657012939453127
13.185000000000002,-0.17166748046875,7.476507568359375,6.277825927734376
13.195,1.2505706787109376,4.806390380859376,20.70596923828125
13.205000000000013,-0.1626953125,3.416452026367188,10.412350463867188
13.214999999999996,-1.1381195068359375,2.911618041992188,-1.6155883789062502
13.225,-2.828326416015625,8.301199340820313,1.4525939941406252
13.235000000000014,0.5640502929687501,13.888766479492189,1.95234375
13.245000000000005,1.8185089111328123,10.46693115234375,0.1416107177734375
13.255000000000004,-1.461865234375,7.65684814453125,-1.843182373046875
13.265000000000017,-1.4566314697265623,8.053717041015625,13.197610473632814
13.275000000000006,3.401199340820313,7.866796875,20.45744018554688
13.284999999999997,0.6871185302734375,9.000878906250001,0.0157012939453125
13.295000000000016,-2.273995971679688,8.01214599609375,1.2764404296875
13.305000000000009,-1.8475189208984373,5.90966796875,-1.4521453857421875
13.314999999999998,0.89063720703125,7.204202270507813,0.4311126708984375
13.324999999999989,4.113888549804688,7.3828979492187505,18.7901123046875
13.335000000000008,-0.7391571044921875,5.187109375,0.19439697265625
13.345,-0.9766204833984377,11.768045043945314,5.769403076171876
13.35499999999999,1.2223083496093752,9.221295166015626,13.99583435058594
13.365000000000007,0.352606201171875,8.006762695312501,2.111151123046876
13.375,-1.9088287353515627,6.840829467773438,4.966094970703125
13.384999999999993,-1.1312408447265625,6.977655029296876,9.92142333984375
13.39500000000001,0.043963623046875,7.157846069335938,4.369595336914063
13.405,-0.8447296142578126,6.992010498046875,0.0442626953125
13.414999999999992,-0.75904541015625,9.047384643554688,1.4929687500000002
13.425000000000011,0.8463745117187501,9.415093994140626,10.249356079101563
13.435000000000002,-0.107965087890625,8.401986694335939,6.801651000976563
13.445,-0.1446014404296875,7.6598388671875,5.3332061767578125
13.455000000000013,0.7569519042968751,6.6083007812500005,7.858871459960938
13.464999999999996,0.8511596679687501,3.50572509765625,5.371487426757813
13.475,-0.069085693359375,4.6273956298828125,0.9975555419921877
13.485000000000014,-0.200677490234375,12.981082153320314,4.502981567382813
13.495000000000005,0.3354095458984375,13.741473388671876,7.946350097656251
13.505000000000004,-0.0797027587890625,11.019915771484376,1.0993896484375
13.515000000000017,1.73701171875,6.530691528320313,12.415087890625
13.525000000000006,1.15621337890625,4.6972290039062505,19.02503356933594
13.534999999999997,-0.686370849609375,4.70201416015625,5.6662231445312505
13.545000000000016,-1.9348480224609377,5.634222412109375,-1.46964111328125
13.555000000000009,-3.039620971679688,10.733255004882814,1.2387573242187502
13.564999999999998,-1.4377899169921875,10.42984619140625,0.2235565185546875
13.574999999999989,0.6464447021484375,8.570962524414064,6.506167602539063
13.585000000000008,-0.0916656494140625,6.004473876953125,7.245623779296875
13.595,1.9348480224609377,8.490811157226563,11.317941284179687
13.604000000000012,0.8059997558593751,10.103109741210938,10.064529418945312
13.615000000000007,-1.2013732910156252,8.660385131835938,0.2738006591796875
13.624000000000002,-1.753759765625,7.722943115234376,0.3222503662109375
13.634000000000016,0.8601318359375001,7.177883911132813,0.0895721435546875
13.64500000000001,2.584283447265625,8.03726806640625,8.277572631835938
13.653999999999996,0.3943267822265625,3.006124877929688,9.268698120117188
13.664000000000016,-0.043963623046875,8.547784423828126,4.446606445312501
13.674000000000008,-1.1823822021484376,10.520016479492188,9.649716186523438
13.683999999999996,0.7343719482421875,9.300399780273438,6.698770141601563
13.694000000000017,-1.4431732177734375,7.1421447753906255,3.9897735595703128
13.704000000000008,-1.0854827880859377,6.854736328125001,8.632720947265625
13.714,0.5012451171875001,7.109695434570313,8.33155517578125
13.72399999999999,-0.397467041015625,7.326672363281251,1.8150695800781247
13.734000000000009,-1.3455261230468751,8.34112548828125,0.082244873046875
13.744,0.5301055908203125,9.3155029296875,5.6203155517578125
13.75399999999999,0.724951171875,8.517279052734375,7.910162353515625
13.76400000000001,-0.01614990234375,7.450787353515626,6.394165039062501
13.774,0.289202880859375,7.72025146484375,6.679330444335938
13.783999999999992,1.078005981445313,7.587612915039063,7.622753906250001
13.794000000000011,1.329226684570313,4.829269409179688,4.733865356445313
13.804000000000002,0.60950927734375,2.9872833251953126,0.5613586425781251
13.814,-0.4406829833984375,10.607644653320314,2.3076416015625
13.824000000000012,-0.587677001953125,14.97978210449219,11.008551025390624
13.833999999999996,-0.5281616210937501,12.646868896484376,4.674349975585938
13.844,-0.696240234375,7.615576171875,3.4290130615234378
13.854000000000012,0.1840789794921875,4.7734924316406255,19.620336914062506
13.864000000000004,-0.6605010986328126,4.1219635009765625,13.143777465820314
13.874000000000002,-1.3373016357421876,3.789694213867188,-0.9778167724609376
13.884000000000016,-2.6418548583984376,7.412506103515626,1.0469024658203123
13.894000000000004,-1.0614074707031251,12.906314086914064,1.396966552734375
13.903999999999996,2.1217681884765627,10.948287963867188,0.7189697265625
13.914000000000016,-1.4207427978515623,8.04444580078125,-1.6544677734375002
13.924000000000008,-0.321502685546875,7.23037109375,17.801678466796876
13.933999999999996,3.390582275390625,8.299853515625001,14.681008911132814
13.944000000000017,0.5154510498046876,9.2030517578125,3.7138793945312494
13.954000000000008,-2.141806030273438,7.904629516601563,0.4409820556640625
13.964,-0.8955718994140626,6.746621704101563,-0.7170257568359375
13.97399999999999,1.4258270263671875,6.884793090820313,0.53055419921875
13.984000000000009,3.208297729492188,8.475259399414064,10.786041259765623
13.994,0.9764709472656252,3.705206298828125,4.3532958984375005
14.00399999999999,-1.9535400390625,11.569760131835938,11.603555297851564
14.01400000000001,-0.495562744140625,9.835140991210938,7.776028442382813
14.024,0.6018829345703125,8.126242065429688,3.5888671875000004
14.033999999999992,-1.9133148193359373,6.094943237304688,5.886639404296876
14.044000000000011,-1.0519866943359375,6.498092651367188,10.22632751464844
14.054000000000002,0.1281524658203125,7.288391113281251,5.636016845703125
14.064,-0.4077850341796875,7.796066284179688,0.249127197265625
14.074000000000012,-0.8469726562500001,9.127685546875,0.5271148681640625
14.083999999999996,1.1950927734375,9.554162597656251,8.88184814453125
14.094,0.37982177734375,8.377761840820312,7.421328735351563
14.104000000000012,-0.2528656005859375,7.130929565429688,6.209786987304688
14.114000000000004,0.899609375,7.435235595703125,7.0748535156250005
14.124000000000002,1.0742675781250002,7.036422729492188,6.899597167968751
14.134000000000016,-0.3037078857421875,3.9299591064453128,3.148333740234375
14.144000000000004,-0.8858520507812501,3.732122802734376,-0.040972900390625
14.153999999999996,-0.4580291748046875,12.311608886718751,3.988876342773438
14.163000000000013,1.1345306396484376,15.937710571289063,10.877557373046876
14.174000000000008,-1.0157989501953126,12.250747680664064,3.0005920410156253
14.183,0.6313415527343751,5.48199462890625,9.344662475585938
14.194000000000017,1.9346984863281247,4.589862060546875,19.17307434082032
14.202999999999996,0.260491943359375,3.2594390869140626,9.218603515625
14.214,-1.4596221923828123,3.921435546875,-2.095001220703125
14.223000000000011,-3.4728271484375,10.474108886718753,1.81656494140625
14.233000000000004,-3.071771240234375,12.438565063476563,-0.6972869873046875
14.243000000000002,1.4126678466796876,9.533676147460938,1.0666412353515626
14.253000000000014,1.3864990234375,7.413253784179688,3.197381591796875
14.263000000000003,1.3298248291015626,7.484283447265626,18.585247802734376
14.272999999999996,1.762432861328125,8.438323974609375,11.133563232421876
14.283000000000015,-0.8934783935546876,9.149966430664064,2.0963470458984377
14.293000000000006,-2.0929077148437503,7.285848999023438,0.5680877685546876
14.302999999999995,-0.7707092285156251,6.353341674804688,-0.7550079345703126
14.313000000000017,1.8786224365234376,7.255343627929688,1.0226776123046877
14.323000000000008,1.6118499755859377,8.020071411132813,10.327114868164063
14.333999999999996,0.4844970703125,4.93887939453125,8.389425659179688
14.34299999999999,-1.801760864257813,11.994143676757814,9.489712524414063
14.353000000000009,-0.1637420654296875,9.80059814453125,7.0987792968750005
14.363,-0.474627685546875,7.711727905273438,3.318804931640625
14.37299999999999,-1.2173736572265623,5.649923706054688,6.554916381835938
14.38300000000001,0.42288818359375,6.309826660156251,10.024154663085938
14.393,0.370849609375,6.978253173828126,4.971478271484376
14.402999999999992,-0.9087310791015626,8.351593017578125,0.165985107421875
14.413000000000013,-0.7602416992187501,9.69891357421875,0.533843994140625
14.423000000000002,1.6834777832031251,9.692633056640624,10.036566162109375
14.433,0.5027404785156251,7.923919677734376,7.034927368164063
14.443000000000012,-0.4424774169921875,7.041207885742188,6.04185791015625
14.452999999999996,0.3264373779296875,7.494900512695313,7.871731567382813
14.463,0.7177734375,7.596286010742188,6.761126708984375
14.473000000000011,-0.0426177978515625,5.916845703125,3.189157104492188
14.483000000000004,-0.1377227783203125,3.830218505859375,1.371096801757813
14.493000000000002,-0.2142852783203125,7.514041137695313,3.0445556640625
14.503000000000014,0.0943572998046875,12.715206909179688,9.059048461914063
14.513000000000003,-1.0587158203125,12.380545043945313,6.708489990234376
14.522999999999996,-1.9441192626953123,10.363003540039063,2.863916015625
14.533000000000015,0.2953338623046875,6.792379760742188,15.02165222167969
14.543000000000006,0.572125244140625,4.612591552734376,14.539846801757813
14.552999999999995,-0.935797119140625,4.729977416992188,2.17186279296875
14.563000000000017,-1.4415283203125,5.50113525390625,-0.1359283447265625
14.573000000000008,0.9820037841796876,11.073599243164065,1.5756622314453126
14.582999999999998,1.7033660888671875,10.943801879882812,0.8104858398437501
14.59299999999999,0.6338836669921876,8.137606811523439,4.587619018554688
14.603000000000009,0.0823944091796875,8.309872436523438,9.995593261718753
14.613,0.8507110595703126,7.730569458007813,13.56412353515625
14.62299999999999,0.9682464599609376,8.518475341796876,7.023562622070313
14.63300000000001,-1.4291168212890626,8.994598388671875,-0.325689697265625
14.643,-2.3412872314453126,7.346112060546876,-0.6759033203125
14.652999999999992,-0.00897216796875,7.0628906250000005,1.185671997070313
14.662000000000006,1.9985504150390627,6.084625244140625,16.857656860351565
14.673000000000002,-1.057220458984375,5.2953735351562505,-1.6417572021484377
14.683,-1.2960296630859376,9.536367797851565,9.135461425781251
14.693000000000012,1.0537811279296876,10.002023315429687,10.211373901367187
14.701999999999998,0.0677398681640625,9.075946044921876,4.1666748046875
14.711999999999987,-0.4173553466796875,7.472769165039063,4.438232421875
14.722000000000008,-0.2836700439453125,6.474017333984375,9.391766357421876
14.732,0.312530517578125,6.914700317382813,7.437179565429688
14.74199999999999,0.1586578369140625,7.051675415039063,1.9915222167968751
14.75200000000001,-0.6276031494140626,8.428005981445313,0.6533233642578126
14.762,0.6622955322265626,9.438421630859375,6.362612915039063
14.771999999999991,0.2654266357421875,8.885137939453125,7.102966308593751
14.78200000000001,-0.6104064941406251,7.850646972656251,5.625399780273438
14.792000000000002,-0.7161285400390626,6.716116333007813,7.261624145507813
14.801999999999992,-0.281427001953125,4.19957275390625,6.436932373046876
14.812000000000012,-0.7215118408203125,5.165576171875,2.2406494140625
14.821999999999996,0.0849365234375,11.455215454101562,5.287747192382813
14.832,-0.1203765869140625,13.860803222656251,7.179678344726563
14.842000000000011,-1.0768096923828123,10.610784912109375,0.9718353271484376
14.852000000000004,2.290145874023437,5.780917358398438,10.767947387695314
14.862000000000002,1.974923706054688,4.369894409179688,17.880783081054688
14.872000000000014,-0.31522216796875,4.121066284179688,7.134368896484376
14.882000000000003,-1.8035552978515623,6.030792236328125,-1.6692718505859376
14.891999999999996,-2.0679351806640627,11.98980712890625,2.087973022460938
14.902000000000015,1.839593505859375,11.85821533203125,0.8634216308593751
14.912000000000006,0.3488677978515625,8.829211425781251,3.7557495117187503
14.921999999999995,0.2172760009765625,4.793081665039063,11.127133178710938
14.932000000000016,0.8314208984375001,9.006411743164064,9.870281982421876
14.942000000000007,-0.3108856201171875,8.337387084960938,9.426010131835938
14.951999999999998,-1.5490447998046877,9.148919677734376,0.466851806640625
14.961999999999987,-2.1729095458984378,7.451535034179688,-0.3207550048828125
14.972000000000008,0.1410125732421875,7.973715209960938,0.427972412109375
14.982,2.1857696533203126,7.703204345703125,10.374069213867188
14.99199999999999,0.8716461181640626,3.998745727539063,9.357373046875
15.00200000000001,-1.9616149902343751,9.548629760742188,2.933001708984375
15.012,-0.2684173583984375,9.754541015625,9.161032104492188
15.021999999999991,1.175653076171875,8.952279663085939,4.835699462890625
15.03200000000001,-0.287109375,7.3470092773437505,4.168618774414063
15.042000000000002,-0.23865966796875,5.8247314453125005,8.4589599609375
15.051999999999992,0.846075439453125,6.558654785156251,8.800949096679688
15.062000000000012,-0.018243408203125,7.515536499023438,4.402194213867188
15.071999999999996,-0.9821533203125,9.391018676757811,1.1092590332031251
15.082,-0.4954132080078125,9.52530212402344,4.4340454101562505
15.092000000000011,0.29967041015625,8.903231811523439,7.0763488769531255
15.102000000000004,-0.221014404296875,7.356729125976563,6.883895874023438
15.112000000000002,-0.203369140625,6.905429077148438,6.128289794921876
15.122000000000014,-0.0435150146484375,7.4651428222656255,6.392819213867188
15.132000000000003,0.4858428955078125,6.578842163085938,5.9742675781250005
15.141999999999996,0.3458770751953125,3.981997680664063,2.79393310546875
15.152000000000015,-0.1112548828125,5.960809326171876,1.594354248046875
15.162000000000006,0.029010009765625,13.07768249511719,7.740887451171876
15.171999999999995,0.16807861328125,14.035610961914063,8.742779541015626
15.182000000000016,-0.9413299560546876,10.517922973632814,0.8314208984375001
15.191000000000004,-0.1149932861328125,5.972174072265625,11.417831420898438
15.201,0.4047943115234375,4.721453857421875,17.470306396484375
15.211000000000013,-1.035986328125,4.549337768554688,5.16796875
15.221000000000004,-1.37393798828125,4.766763305664063,-0.7686157226562501
15.231000000000002,-0.2875579833984375,10.111184692382814,1.9693908691406248
15.241000000000014,1.8937255859375,12.688589477539065,0.3799713134765625
15.251000000000005,-1.245486450195313,9.455020141601564,0.5163482666015625
15.260999999999996,-0.7086517333984376,6.195281982421876,13.111178588867189
15.271000000000017,1.25849609375,7.889227294921875,11.958404541015623
15.281000000000006,1.341339111328125,9.164022827148438,9.091796875
15.290999999999997,-0.7944854736328125,8.36923828125,0.5495452880859375
15.301000000000016,-2.29149169921875,7.259381103515626,-0.428271484375
15.311000000000009,-0.068487548828125,7.0688720703125005,0.34632568359375
15.320999999999998,2.9211883544921875,8.204898071289064,10.844659423828126
15.332,0.7617370605468751,3.3759277343750003,6.827221679687501
15.341000000000008,-1.5819427490234377,9.651959228515626,2.7628295898437503
15.351,0.4562347412109375,9.733905029296876,12.836929321289064
15.36099999999999,1.0217803955078126,9.498385620117189,5.553622436523438
15.37100000000001,-0.9102264404296876,7.1541076660156255,3.647634887695313
15.381,-1.3214508056640626,6.8610168457031255,7.601370239257813
15.390999999999991,0.04964599609375,7.277474975585938,7.829861450195313
15.40100000000001,-0.44202880859375,7.018927001953125,2.7143798828125
15.411,-0.9042449951171876,7.851095581054688,0.9353485107421876
15.420999999999992,0.217425537109375,9.220547485351563,5.5331359863281255
15.431000000000012,0.2319305419921875,9.05291748046875,7.330560302734375
15.441000000000004,-0.43126220703125,8.036370849609376,6.457867431640626
15.451,0.2516693115234375,7.526303100585938,6.581085205078126
15.461000000000013,0.5501434326171876,6.133523559570313,6.794473266601563
15.471000000000004,0.1864715576171875,2.650677490234376,4.461260986328125
15.481000000000002,-0.6352294921875,5.669812011718751,1.0642486572265626
15.491000000000014,0.456982421875,15.140682983398438,6.177935791015625
15.501000000000005,0.3416900634765625,14.462088012695313,6.986477661132813
15.510999999999996,-0.0562255859375,9.898992919921875,0.6634918212890626
15.521000000000017,2.25380859375,5.342327880859376,15.179861450195313
15.531000000000006,1.29378662109375,4.141403198242188,18.952807617187503
15.540999999999997,-0.6021820068359376,3.4538360595703126,3.487481689453125
15.551000000000016,-1.9743255615234376,5.163482666015625,-1.6961883544921876
15.561000000000009,-3.763525390625,12.492996215820314,1.9989990234375
15.570999999999998,-1.8890899658203129,11.458804321289064,-0.57720947265625
15.580999999999989,1.0687347412109376,8.000930786132812,1.466650390625
15.591000000000008,0.616986083984375,7.389477539062501,13.926300048828129
15.601,2.07735595703125,7.758831787109376,12.45022888183594
15.61099999999999,0.78297119140625,9.68096923828125,9.512741088867188
15.62100000000001,-1.5406707763671876,8.319293212890626,0.4284210205078125
15.631,-2.1534698486328128,7.089956665039063,0.1754058837890625
15.640999999999991,0.5172454833984376,6.935037231445313,-0.1879669189453125
15.65100000000001,2.1738067626953126,7.04075927734375,2.0958984375000003
15.661,1.7232543945312502,7.144387817382813,10.585662841796877
15.670999999999992,0.8326171875,6.859820556640625,8.63421630859375
15.681000000000012,-2.087374877929688,11.426803588867188,11.177825927734377
15.691000000000004,0.5837890625000001,8.80169677734375,6.296218872070313
15.701,-1.4022003173828126,6.803445434570313,2.339044189453125
15.711000000000013,-1.1106048583984376,6.121411132812501,8.864053344726564
15.72,0.5090209960937501,7.0927978515625005,8.593243408203126
15.72999999999999,-0.1176849365234375,7.682119750976563,1.9052398681640623
15.741000000000014,-1.413116455078125,8.498138427734375,-0.031103515625
15.75,-0.1137969970703125,9.729119873046876,3.556417846679688
15.759999999999993,1.519586181640625,8.455072021484376,10.719198608398438
15.77000000000001,0.2109954833984375,7.485330200195313,5.692840576171875
15.78,-0.1514801025390625,7.447946166992188,6.38040771484375
15.789999999999992,1.01026611328125,7.781112670898438,7.754644775390625
15.800000000000011,0.8100372314453126,5.970529174804688,4.606759643554688
15.810000000000002,0.2930908203125,3.109603881835938,1.2103454589843752
15.82,-0.6836791992187501,7.955770874023438,1.347021484375
15.830000000000013,-0.12860107421875,13.467224121093752,10.152606201171876
15.839999999999996,-0.5323486328125,12.43766784667969,6.376071166992188
15.85,-1.9889801025390623,10.089053344726564,2.098739624023437
15.860000000000014,0.1894622802734375,5.820394897460938,16.780645751953127
15.870000000000005,-0.0222808837890625,4.9107666015625,14.596221923828129
15.880000000000004,-1.1859710693359375,4.808483886718751,1.21363525390625
15.890000000000017,-1.3120300292968752,5.541360473632813,0.1248626708984375
15.900000000000006,1.1327362060546875,11.517572021484376,1.8962677001953123
15.909999999999997,0.9603210449218752,10.942755126953124,-0.7343719482421875
15.920000000000016,-1.0706787109375,8.4158935546875,4.352548217773438
15.930000000000009,0.97796630859375,7.451535034179688,11.906216430664063
15.939999999999998,2.0724212646484377,8.626889038085938,12.8397705078125
15.949999999999989,0.90499267578125,8.785247802734375,7.136312866210938
15.960000000000008,-1.6378692626953126,8.410809326171876,-0.0976470947265625
15.97,-2.2342193603515628,6.735256958007813,-0.799420166015625
15.97999999999999,0.5625549316406251,7.348355102539063,0.8435333251953125
15.990000000000007,2.818157958984376,7.042254638671875,16.851077270507815
16.0,-0.2364166259765625,4.866354370117188,1.16339111328125
16.00999999999999,-2.208200073242188,10.449136352539064,2.292987060546875
16.02000000000001,0.1772003173828125,8.930596923828126,14.930584716796876
16.03,0.4831512451171875,8.973214721679689,3.924276733398438
16.039999999999992,-1.1266052246093752,7.025207519531251,3.9758666992187504
16.05000000000001,-0.5161987304687501,6.923672485351563,9.687100219726563
16.060000000000002,0.0904693603515625,7.291531372070313,6.998291015625001
16.07,-0.2764923095703125,6.8894287109375005,1.1246612548828123
16.07999999999999,-0.769512939453125,8.481539916992189,0.265875244140625
16.089999999999975,1.103875732421875,9.506759643554688,6.898849487304688
16.100000000000016,0.7445404052734376,8.500231933593751,8.570364379882813
16.110000000000014,-0.4047943115234375,7.675241088867188,4.6239562988281255
16.120000000000005,0.014654541015625,7.151715087890626,7.336392211914063
16.130000000000003,0.085235595703125,4.356884765625001,6.735556030273438
16.139999999999986,-0.3784759521484375,4.2894439697265625,1.655215454101563
16.149999999999977,-0.2977264404296875,11.193228149414065,3.7318237304687503
16.160000000000025,0.0575714111328125,14.309561157226565,8.528195190429688
16.170000000000016,-0.8991607666015625,11.5705078125,2.1092071533203125
16.180000000000007,1.6689727783203123,6.554916381835938,9.15579833984375
16.189999999999998,1.7847137451171875,4.631433105468751,18.50240478515625
16.19999999999999,-0.30565185546875,4.070223999023438,8.803640747070313
16.20999999999998,-1.6114013671875,5.3118225097656255,-1.5418670654296875
16.219,-2.9168518066406253,10.562783813476564,1.414910888671875
16.230000000000018,-0.413916015625,11.462991333007814,0.8928802490234375
16.24000000000001,1.31173095703125,9.0690673828125,0.91456298828125
16.25,0.4586273193359375,6.162832641601563,12.512286376953126
16.25999999999999,1.7984710693359376,8.272637939453126,9.534872436523438
16.269000000000005,0.6536224365234375,9.151162719726564,11.25408935546875
16.278999999999996,-1.014752197265625,8.979943847656251,1.2528137207031251
16.288999999999987,-2.053729248046875,7.573556518554688,-0.1709197998046875
16.298999999999978,-0.06639404296875,7.563687133789063,-0.06519775390625
16.309000000000026,1.7123382568359375,7.235305786132813,4.946057128906251
16.319000000000017,0.44202880859375,4.4801025390625,12.509893798828124
16.32999999999999,-0.1849761962890625,7.843020629882813,4.038372802734376
16.339,-2.422186279296876,10.448089599609377,7.971920776367188
16.34899999999999,0.6401641845703125,9.395803833007813,6.79013671875
16.35899999999998,0.1410125732421875,7.757785034179688,4.189703369140625
16.369000000000028,-0.8895904541015626,6.012399291992188,8.146429443359375
16.37900000000002,0.8312713623046876,6.48807373046875,9.398645019531251
16.38900000000001,0.3470733642578125,7.318746948242188,3.7228515625
16.399,-1.0445098876953125,8.710778808593751,0.2298370361328125
16.408999999999992,0.3114837646484375,9.59364013671875,3.749319458007813
16.418999999999983,1.01624755859375,9.102413940429688,7.5743041992187505
16.430000000000007,-0.1173858642578125,7.413253784179688,7.144387817382813
16.43900000000002,-0.2660247802734375,6.985580444335938,6.645086669921875
16.449000000000012,0.194696044921875,7.572659301757813,6.856231689453126
16.458999999999996,0.669921875,5.628988647460938,5.715719604492188
16.469,0.3158203125,4.1608428955078125,1.3746856689453126
16.478999999999992,-0.68009033203125,8.586215209960939,1.6879638671875
16.488999999999976,-0.3349609375,13.637246704101564,9.464590454101565
16.499000000000024,-0.887646484375,12.066818237304688,6.545196533203126
16.509000000000015,-1.0823425292968751,8.625991821289062,3.9837921142578128
16.519000000000005,0.4993011474609375,5.3192993164062505,15.845147705078126
16.531000000000006,-0.1329376220703125,5.1268463134765625,13.255181884765626
16.538999999999987,-1.1590545654296875,5.35997314453125,1.1704193115234376
16.548999999999978,-1.242495727539063,6.894363403320313,0.48031005859375
16.559000000000026,1.6988800048828123,11.514880371093753,1.397564697265625
16.569000000000017,1.1094085693359377,10.666412353515623,-0.547003173828125
16.579000000000008,-1.310235595703125,7.90029296875,5.1093505859375
16.589,0.8074951171875001,6.93668212890625,14.322271728515624
16.59899999999999,1.4234344482421877,8.647973632812501,9.773233032226564
16.60899999999998,0.8661132812500001,9.331503295898438,6.134121704101563
16.619000000000028,-1.8769775390625,8.385537719726564,-0.5508911132812501
16.630000000000003,-2.279379272460938,6.929055786132813,-1.0772583007812502
