time,ax,ay,az
0.0,0.39656982421875,4.9921142578125,2.380465698242188
0.0109999999999956,1.0113128662109376,11.019467163085938,6.271395874023438
0.0210000000000007,0.5084228515625,13.39783935546875,7.1573974609375
0.0309999999999988,-0.2663238525390625,13.285836791992187,5.215371704101563
0.0409999999999968,1.7560028076171876,8.229122924804688,12.261514282226564
0.0509999999999948,1.6161865234375,6.195880126953125,13.785885620117188
0.0609999999999999,-0.409429931640625,3.2419433593750004,4.081140136718751
0.0709999999999979,-1.6486358642578127,4.236508178710938,-0.5147033691406251
0.0809999999999959,-2.7389038085937503,8.192337036132812,-0.2295379638671875
0.0909999999999939,-2.86212158203125,10.827163696289062,5.14105224609375
0.100999999999999,-0.6081634521484376,9.710427856445314,7.784103393554688
0.1109999999999971,0.2301361083984375,9.634762573242188,6.947747802734376
0.1209999999999951,0.7385589599609376,8.496493530273439,12.95386657714844
0.1310000000000002,-0.3401947021484375,6.887484741210938,7.676736450195313
0.1419999999999959,-1.0029388427734376,6.177188110351563,0.4263275146484375
0.1509999999999962,-0.0593658447265625,6.7147705078125,3.581838989257813
0.161999999999999,1.3989105224609375,7.133023071289063,6.764117431640625
0.171999999999997,0.5151519775390625,6.727032470703126,4.22349853515625
0.181999999999995,-0.1592559814453125,8.102764892578126,3.581689453125
0.1920000000000001,1.7367126464843752,10.822528076171876,7.368692016601563
0.2019999999999981,1.8203033447265624,10.1313720703125,7.445254516601563
0.2119999999999962,1.3986114501953126,7.954425048828125,4.58836669921875
0.2219999999999942,1.045556640625,7.078591918945313,4.755398559570313
0.2319999999999993,0.228192138671875,6.791632080078125,6.9985900878906255
0.2419999999999973,-0.0665435791015625,6.384445190429688,5.33245849609375
0.2519999999999953,-0.7828216552734376,6.734060668945313,3.732720947265625
0.2620000000000004,-0.9419281005859376,8.165719604492189,5.427264404296875
0.2719999999999984,-1.1040252685546876,8.713320922851564,7.676437377929688
0.2819999999999965,-1.6993286132812502,8.55167236328125,7.66881103515625
0.2929999999999992,-0.5570220947265625,8.424118041992188,6.411062622070313
0.3029999999999972,0.8691040039062501,8.133120727539064,5.571417236328125
0.3129999999999953,1.295880126953125,7.083377075195313,5.544500732421875
0.3230000000000004,1.0611083984375,4.053475952148438,4.9478515625
0.3329999999999984,0.77698974609375,3.0937530517578127,3.5749603271484376
0.3429999999999964,-0.1290496826171875,7.108050537109375,3.505874633789063
0.3529999999999944,-0.7101470947265626,13.668649291992187,5.140005493164063
0.3629999999999995,0.3769805908203125,14.361001586914064,6.251956176757813
0.3729999999999975,2.2497711181640625,11.188742065429688,7.368991088867188
0.3829999999999955,2.422784423828125,7.0987792968750005,10.796957397460938
0.3930000000000007,1.6389160156250002,4.787698364257813,9.992752075195312
0.4029999999999987,-0.048150634765625,3.293084716796875,3.3228424072265628
0.4129999999999967,-2.313473510742188,6.038568115234376,0.8725433349609376
0.4229999999999947,-3.044406127929688,9.294717407226564,1.3956207275390626
0.4339999999999975,-2.691949462890625,10.066473388671875,5.919686889648438
0.4439999999999955,0.5013946533203125,8.873025512695314,10.395303344726564
0.4540000000000006,-0.166583251953125,8.223739624023438,9.21082763671875
0.4639999999999986,1.24354248046875,8.561392211914063,9.379055786132811
0.4739999999999966,0.422589111328125,7.641744995117188,5.311972045898438
0.4839999999999946,-0.7375122070312501,6.437829589843751,1.7545074462890626
0.4939999999999998,0.328082275390625,6.70340576171875,3.153717041015625
0.5039999999999978,2.175750732421875,7.374673461914063,6.23326416015625
0.5139999999999958,1.8532012939453129,7.530041503906251,5.565884399414063
0.5239999999999938,0.6193786621093751,9.346905517578126,3.838442993164063
0.5339999999999989,0.0466552734375,11.196966552734375,5.665924072265625
0.5439999999999969,-0.3043060302734375,10.02191162109375,7.441366577148438
0.5559999999999974,-0.4053924560546875,7.055712890625,4.929757690429688
0.5640000000000001,-0.1855743408203125,5.992361450195313,4.637863159179688
0.5749999999999957,0.20875244140625,6.312667846679688,7.127639770507813
0.5839999999999961,-0.5884246826171875,6.692788696289063,6.055914306640625
0.5949999999999989,-2.0277099609375,7.053619384765626,3.851751708984376
0.6059999999999945,-1.6356262207031251,8.251104736328125,4.7331176757812505
0.6149999999999949,2.071524047851563,9.04200134277344,8.318844604492188
0.625,2.0182891845703126,8.368939208984376,8.053567504882814
0.634999999999998,1.0310516357421875,7.700662231445313,6.358425903320313
0.644999999999996,0.8568420410156251,7.583575439453125,4.848410034179688
0.6559999999999988,1.110903930664063,5.265615844726563,4.494458007812501
0.6649999999999991,0.7834197998046876,4.203311157226563,3.500640869140625
0.6749999999999972,-0.191705322265625,7.936929321289063,3.224746704101563
0.6849999999999952,-0.9465637207031252,12.000872802734376,5.141500854492188
0.6950000000000003,-0.1338348388671875,12.854574584960938,5.228530883789063
0.7049999999999983,0.2062103271484375,10.758526611328126,7.312316894531251
0.7149999999999963,1.1310913085937502,6.429006958007813,11.609237670898438
0.7249999999999943,0.267669677734375,4.975216674804688,8.363406372070314
0.7349999999999994,-1.1031280517578126,4.5387207031250005,3.971978759765625
0.7459999999999951,-1.838546752929688,6.299508666992188,3.08822021484375
0.7560000000000002,-1.3226470947265625,8.679376220703126,3.598287963867188
0.7659999999999982,0.2241546630859375,9.536068725585938,5.767758178710938
0.7759999999999962,1.184326171875,8.83160400390625,9.364700317382812
0.7859999999999943,0.8720947265625001,8.605355834960939,9.915890502929688
0.7959999999999994,0.542816162109375,8.493203735351564,5.320944213867188
0.8059999999999974,-0.6238647460937501,8.548980712890625,2.778680419921875
0.8159999999999954,0.400457763671875,7.61497802734375,4.680331420898438
0.8260000000000005,0.6854736328125001,6.816006469726563,5.221353149414063
0.8359999999999985,0.1745086669921875,6.333004760742188,4.5351318359375
0.8459999999999965,0.13817138671875,7.642791748046876,6.455325317382813
0.8559999999999945,-0.8873474121093751,8.9374755859375,7.435086059570313
0.8659999999999997,-1.2188690185546875,9.620407104492188,5.2337646484375
0.8769999999999953,-0.2226593017578125,9.2532958984375,4.999142456054688
0.8870000000000005,0.011663818359375,8.03248291015625,6.810623168945313
0.8969999999999985,-0.0085235595703125,6.610992431640626,6.092251586914063
0.9069999999999964,0.1146942138671875,6.592599487304688,4.823736572265625
0.9169999999999944,0.5553771972656251,7.150518798828125,5.179483032226563
0.9269999999999996,0.5884246826171875,7.468881225585938,4.817156982421875
0.9369999999999976,1.050042724609375,7.882199096679688,4.469635009765625
0.9469999999999956,1.7201141357421876,8.631076049804689,5.905780029296875
0.9570000000000008,1.232177734375,8.398846435546876,7.233212280273438
0.9669999999999987,0.5498443603515626,8.154653930664063,6.587066650390626
0.9769999999999968,0.2806793212890625,7.80997314453125,5.838339233398438
0.9869999999999948,0.0542816162109375,6.607254028320313,5.598034667968751
0.997,-0.1591064453125,5.516986083984375,5.428460693359376
1.006999999999998,-0.7910461425781251,6.4916625976562505,4.752108764648438
1.018000000000001,-1.7779846191406252,9.0642822265625,4.009512329101563
1.0279999999999987,-2.9496002197265625,10.420724487304687,4.242041015625
1.0379999999999967,-0.331072998046875,10.849594116210938,6.023165893554688
1.0479999999999947,0.226397705078125,8.728424072265625,7.934237670898438
1.0579999999999998,1.1484375,6.233563232421876,8.796612548828126
1.0679999999999978,1.4706878662109375,5.43533935546875,7.2626708984375
1.077999999999996,0.685772705078125,6.629534912109375,4.4753173828125
1.087999999999994,-0.2280426025390625,8.381051635742189,3.3467681884765628
1.097999999999999,0.6350799560546876,8.3931640625,5.418292236328125
1.107999999999997,2.4860382080078125,8.421875,7.399047851562501
1.117999999999995,2.022177124023438,7.979995727539063,7.901638793945313
1.128,0.39776611328125,8.5654296875,6.935784912109376
1.137999999999998,-0.2172760009765625,9.044842529296876,4.80369873046875
1.147999999999996,-0.8288787841796875,8.625991821289062,3.75814208984375
1.158999999999999,-0.7270446777343751,7.326971435546875,4.2635742187500005
1.168999999999997,-0.12501220703125,6.882101440429688,5.983538818359375
1.178999999999995,0.0668426513671875,7.102517700195313,6.993804931640626
1.189,-0.8608795166015626,7.780215454101563,6.171356201171876
1.198999999999998,-0.5501434326171876,8.911157226562501,5.30853271484375
1.208999999999996,0.2423980712890625,9.485525512695313,5.522518920898438
1.218999999999994,0.4562347412109375,8.673245239257813,5.327972412109375
1.2289999999999992,0.91336669921875,7.461105346679688,5.447003173828126
1.2389999999999972,0.7811767578125001,6.7219482421875005,6.31162109375
1.2489999999999952,0.8336639404296876,6.8044921875,5.701364135742188
1.259999999999998,0.5897705078125001,7.305737304687501,4.64459228515625
1.2689999999999984,0.25540771484375,8.040408325195314,4.927813720703125
1.2789999999999964,0.00059814453125,8.291928100585938,5.8456665039062505
1.2889999999999944,-0.2621368408203125,8.107400512695314,6.528298950195313
1.2989999999999997,-0.439337158203125,7.986575317382813,7.063787841796875
1.3089999999999975,-0.7406524658203125,7.886236572265625,6.53592529296875
1.3200000000000005,-0.5957519531250001,7.6460815429687505,5.498892211914063
1.3299999999999983,-0.2047149658203125,7.058853149414063,5.19010009765625
1.3399999999999963,-0.1194793701171875,5.525210571289063,4.979403686523438
1.3499999999999943,0.1697235107421875,5.51309814453125,4.4026428222656255
1.3599999999999994,-0.09271240234375,8.414996337890626,4.38739013671875
1.3699999999999974,0.1033294677734375,11.929544067382814,4.9145050048828125
1.3799999999999957,1.1174835205078126,11.420373535156251,5.985333251953126
1.3900000000000006,1.4820526123046875,8.972915649414062,7.104611206054688
1.3999999999999986,1.3806671142578126,6.6456848144531255,9.314904785156251
1.4099999999999966,0.9924713134765626,5.27862548828125,8.198318481445312
1.4199999999999946,-0.3434844970703125,5.9996887207031255,2.8784210205078127
1.4299999999999995,-0.5097686767578126,7.799655151367188,1.6299438476562502
1.4399999999999975,0.8333648681640625,8.87347412109375,5.908322143554688
1.4499999999999955,0.2026214599609375,8.462997436523438,8.3106201171875
1.4609999999999983,-0.2675201416015625,8.051324462890626,8.383145141601563
1.4709999999999963,-1.0077239990234377,8.288787841796875,8.318994140625001
1.4809999999999943,-1.2033172607421876,9.035870361328126,5.859722900390626
1.4909999999999997,-0.4127197265625,8.65455322265625,3.27364501953125
1.5009999999999977,-0.8514587402343751,7.475909423828125,3.265719604492188
1.5109999999999957,0.3001190185546875,6.797015380859375,5.899948120117188
1.5210000000000008,1.0753143310546875,6.627890014648438,7.010253906250001
1.5309999999999988,0.5921630859375,7.386187744140625,5.558706665039063
1.5409999999999968,0.2699127197265625,8.998187255859376,5.137911987304688
1.5509999999999948,0.671417236328125,9.926358032226563,5.920285034179688
1.561,0.7325775146484376,8.868389892578126,5.453134155273438
1.570999999999998,0.399261474609375,7.261923217773438,5.469134521484375
1.580999999999996,0.31881103515625,6.7757812500000005,6.818399047851563
1.590999999999994,0.1030303955078125,7.110592651367188,6.268405151367188
1.6019999999999968,-0.3366058349609375,7.183267211914063,4.437185668945313
1.6119999999999948,-0.28232421875,7.79801025390625,4.2939300537109375
1.622,-0.0447113037109375,8.407669067382812,5.594146728515625
1.631999999999998,-0.12261962890625,8.294619750976564,6.32059326171875
1.641999999999996,-0.3431854248046875,7.830459594726563,6.362164306640626
1.651999999999994,0.0118133544921875,7.914797973632813,6.514990234375
1.661999999999999,0.450701904296875,7.825973510742188,6.411810302734375
1.671999999999997,0.177349853515625,7.536322021484375,5.673849487304688
1.681999999999995,-0.0548797607421875,7.085171508789063,5.237054443359376
1.6920000000000002,-0.0046356201171875,5.911911010742188,5.151220703125
1.7019999999999982,0.028411865234375,6.0121002197265625,4.876821899414063
1.7119999999999962,-0.5477508544921875,7.514788818359375,4.195684814453125
1.7219999999999942,-0.5894714355468751,10.575344848632811,3.974371337890626
1.731999999999999,0.0179443359375,11.51831970214844,5.983239746093751
1.742999999999995,0.868206787109375,10.253543090820314,7.293325805664063
1.753,1.094903564453125,6.960308837890626,8.4589599609375
1.762999999999998,1.045556640625,5.569772338867188,8.432940673828126
1.772999999999996,0.562255859375,5.755047607421876,6.101821899414063
1.782999999999994,-0.388494873046875,7.2411376953125,2.701220703125
1.7929999999999993,-0.0488983154296875,8.335443115234376,3.7258422851562494
1.8029999999999973,1.53603515625,9.016729736328124,7.95113525390625
1.8129999999999955,0.0611602783203125,8.647525024414064,8.320489501953126
1.8230000000000004,-0.5064788818359376,8.688348388671876,5.702560424804688
1.8329999999999984,0.5836395263671875,8.96259765625,5.5739593505859375
1.8429999999999964,0.07177734375,8.41409912109375,5.7519073486328125
1.8529999999999944,-0.368756103515625,7.005169677734376,4.1618896484375005
1.8629999999999995,0.3413909912109375,6.696228027343751,4.0845794677734375
1.8739999999999952,0.8895904541015626,7.1908935546875,6.5783935546875005
1.8840000000000003,0.4652069091796875,7.733560180664063,6.7309204101562505
1.8939999999999984,-0.0423187255859375,8.50262451171875,5.0375732421875
1.9039999999999964,0.37264404296875,9.376214599609376,5.7936279296875
1.9139999999999944,0.514404296875,9.107199096679688,6.402239990234375
1.924,0.1697235107421875,7.8512451171875,5.101126098632813
1.9339999999999973,-0.14056396484375,6.882998657226563,5.394216918945313
1.9439999999999955,-0.29727783203125,6.811968994140625,6.125897216796876
1.9540000000000008,-0.1416107177734375,6.897952270507813,4.913607788085938
1.9639999999999984,-0.17166748046875,7.458712768554688,4.436737060546875
1.9739999999999969,-0.4275238037109375,8.193533325195313,5.998791503906251
1.9839999999999949,-0.4246826171875,8.5546630859375,6.627291870117188
1.994,-0.1281524658203125,8.362957763671876,6.4037353515625
2.003999999999998,0.1221710205078125,8.039959716796876,6.836492919921875
2.013999999999996,0.40015869140625,7.725335693359375,6.494204711914063
2.023999999999994,0.41571044921875,7.339981079101563,5.216867065429688
2.0349999999999966,0.43006591796875,7.293475341796875,5.088265991210938
2.0449999999999946,0.6519775390625,6.494503784179688,5.1443420410156255
2.055,0.8913848876953125,5.489022827148438,4.226788330078126
2.0649999999999977,0.6548187255859376,6.4079223632812505,4.329669189453125
2.074999999999996,-0.2262481689453125,9.689791870117189,4.7829132080078125
2.085000000000001,-0.4224395751953125,12.582119750976563,5.589810180664063
2.094999999999999,1.071875,11.770437622070313,6.295471191406251
2.104999999999997,1.2418975830078125,8.15570068359375,7.676736450195313
2.114999999999995,1.2879547119140626,5.388833618164063,9.46668395996094
2.125,0.328082275390625,4.710687255859376,7.968630981445313
2.134999999999998,-1.8309204101562504,5.72125244140625,2.9228332519531253
2.144999999999996,-2.08931884765625,7.790234375000001,0.7917938232421876
2.1569999999999965,-0.279632568359375,9.763064575195314,5.5814361572265625
2.164999999999999,0.10946044921875,9.145779418945311,9.522311401367189
2.175999999999995,-0.884954833984375,7.958462524414063,9.318792724609375
2.186,0.295782470703125,8.546139526367188,6.678283691406251
2.195999999999998,0.7412506103515626,9.011196899414063,5.481845092773438
2.205999999999996,-0.1327880859375,7.885638427734375,3.868649291992188
2.215999999999994,-0.435150146484375,7.086068725585938,2.881710815429688
2.225999999999999,0.9440216064453124,6.869091796875001,5.026806640625001
2.235999999999997,1.5596618652343752,6.877914428710938,6.757687377929688
2.245999999999995,0.00059814453125,7.48697509765625,6.177337646484376
2.256999999999998,-0.511114501953125,9.166116333007814,5.631979370117188
2.2659999999999982,-0.0225799560546875,10.222738647460938,6.171356201171876
2.275999999999996,0.26378173828125,8.7891357421875,5.88394775390625
2.2859999999999943,0.0411224365234375,6.925616455078125,5.2768310546875
2.296,-0.0251220703125,6.563290405273438,6.28470458984375
2.3059999999999974,-0.00478515625,6.902587890625001,6.401641845703126
2.3159999999999954,-0.06639404296875,7.121658325195313,4.210488891601563
2.326999999999998,0.33316650390625,8.063436889648438,3.700421142578125
2.336999999999996,0.7899993896484375,8.914447021484376,5.830563354492188
2.346999999999994,0.38101806640625,8.623898315429688,6.920980834960938
2.357999999999997,0.1422088623046875,7.722793579101563,6.533981323242188
2.3669999999999973,0.6117523193359375,7.683316040039063,6.706396484375
2.376999999999996,0.6512298583984375,7.528994750976563,6.658694458007813
2.3870000000000005,-0.2615386962890625,7.220651245117188,5.182473754882813
2.3969999999999985,-0.424383544921875,7.132125854492188,4.657601928710938
2.4069999999999965,-0.07117919921875,6.370388793945313,5.598483276367188
2.4169999999999945,-0.1392181396484375,6.319845581054688,5.339486694335938
2.427,-0.6750061035156251,7.173995971679688,4.140954589843751
2.4369999999999976,-0.42049560546875,10.553363037109376,4.260134887695313
2.446999999999996,-0.146246337890625,11.635256958007814,6.429605102539063
2.4579999999999984,-0.0551788330078125,9.617864990234375,6.425418090820313
2.4679999999999964,0.92652587890625,6.665573120117188,8.251553344726563
2.4779999999999944,1.5303527832031252,5.696728515625001,10.325320434570314
2.4879999999999995,0.2193695068359375,6.359622192382813,5.587118530273438
2.4979999999999976,-1.161895751953125,7.157247924804688,0.38759765625
2.507999999999996,0.527862548828125,8.600122070312501,3.844873046875
2.5180000000000007,2.044906616210937,9.328961181640626,7.915844726562501
2.5279999999999987,0.3372039794921875,8.277273559570313,7.168164062500001
2.5379999999999967,-0.302362060546875,7.9947998046875,6.200515747070313
2.5479999999999947,0.9244323730468752,9.097479248046875,8.000930786132812
2.558,0.2732025146484375,8.642889404296875,6.122158813476563
2.567999999999998,-0.8273834228515625,7.207342529296875,2.3400909423828127
2.577999999999996,-0.06998291015625,6.879110717773438,4.281069946289063
2.587999999999994,0.7956817626953125,7.201660156250001,7.666567993164063
2.597999999999999,0.2400054931640625,7.150967407226563,5.893817138671875
2.6089999999999947,-0.2376129150390625,8.165420532226562,4.043157958984375
2.619,0.188714599609375,9.641641235351564,6.293826293945313
2.628999999999998,0.3958221435546875,9.619659423828123,6.699069213867188
2.638999999999996,-0.183331298828125,7.943060302734375,4.6124420166015625
2.648999999999994,-0.4424774169921875,7.2139221191406255,4.976113891601563
2.658999999999999,0.2540618896484375,6.881503295898438,6.913952636718751
2.668999999999997,0.3672607421875,6.581234741210938,5.817254638671876
2.678999999999995,-0.03289794921875,7.073059082031251,4.37901611328125
2.689,0.2483795166015625,8.292227172851563,5.369393920898438
2.698999999999998,0.219219970703125,8.813809204101563,6.264965820312501
2.710000000000001,-0.2005279541015625,8.208337402343751,6.520523071289063
2.718999999999994,-0.1440032958984375,7.7911315917968755,6.932495117187501
2.728999999999999,0.4059906005859375,7.690194702148438,6.746920776367188
2.738999999999997,0.48270263671875,7.453778076171876,5.54779052734375
2.7489999999999952,0.1227691650390625,6.278125,4.6214141845703125
2.759999999999998,0.5145538330078125,5.1746978759765625,4.446307373046875
2.769999999999996,0.3994110107421875,6.429904174804688,4.68466796875
2.779999999999994,-0.334063720703125,10.014883422851565,4.8277740478515625
2.789999999999999,-0.3841583251953125,12.350039672851564,5.038021850585938
2.799999999999997,0.667828369140625,10.799200439453124,5.865704345703126
2.809999999999995,2.433700561523437,8.058801269531251,7.832852172851563
2.8200000000000003,1.3974151611328125,5.747570800781251,9.443206787109377
2.8299999999999983,0.2645294189453125,5.487377929687501,6.240740966796875
2.8399999999999963,-1.54141845703125,6.881204223632813,1.9828491210937504
2.8499999999999943,-1.57252197265625,8.221197509765625,2.7629791259765626
2.8599999999999994,-0.2764923095703125,8.368341064453126,7.396505737304688
2.869999999999997,-0.484796142578125,7.900143432617188,9.194976806640623
2.8799999999999955,-0.95224609375,7.773336791992188,8.646478271484376
2.890000000000001,0.184527587890625,8.83160400390625,6.881802368164063
2.8999999999999986,0.1975372314453125,9.375616455078124,5.024862670898438
2.9109999999999943,-0.7061096191406251,8.374920654296876,3.0207794189453128
2.921,-0.1176849365234375,7.112985229492188,3.4644531250000004
2.9309999999999974,1.0878753662109375,6.493307495117188,6.090756225585938
2.9409999999999954,1.1743072509765626,6.715518188476563,6.731817626953125
2.9510000000000005,0.2313323974609375,7.887881469726563,5.401095581054688
2.9609999999999985,-0.0179443359375,9.670651245117188,5.319448852539063
2.9709999999999965,0.3967193603515625,10.042697143554689,6.191244506835938
2.9809999999999945,0.6059204101562501,8.419482421875001,5.695681762695313
2.991,0.27454833984375,6.760827636718751,5.577548217773438
3.0009999999999977,0.1502838134765625,6.690396118164063,6.837539672851563
3.010999999999996,-0.0955535888671875,7.0419555664062505,6.0330352783203125
3.021000000000001,-0.4643096923828125,7.213473510742188,3.649130249023438
3.030999999999999,-0.0480010986328125,8.069418334960938,4.354641723632813
3.040999999999997,0.2115936279296875,8.760723876953126,6.5275512695312505
3.052,-0.100189208984375,8.346957397460939,6.447848510742188
3.0619999999999976,0.2308837890625,7.7770751953125,6.156552124023438
3.071999999999996,0.8529541015625001,7.774383544921876,7.102069091796875
3.0820000000000007,0.52457275390625,7.546490478515626,6.366351318359375
3.0919999999999987,-0.194097900390625,6.955822753906251,4.690350341796876
3.1019999999999968,-0.1614990234375,5.88035888671875,4.841830444335938
3.1119999999999948,0.3847564697265625,5.9969970703125,5.7369537353515625
3.122,-0.0994415283203125,7.632025146484375,4.437933349609375
3.131999999999998,-0.708502197265625,10.60450439453125,3.712832641601562
3.141999999999996,0.3659149169921875,11.60684509277344,5.7399444580078125
3.151999999999994,0.1302459716796875,9.804187011718753,7.174295043945313
3.161999999999999,0.8534027099609376,7.168313598632813,8.105307006835938
3.171999999999997,1.009368896484375,5.483489990234375,8.859716796875
3.183,-0.32359619140625,5.9193878173828125,5.850750732421876
3.192999999999998,-0.9601715087890624,7.391421508789063,2.207452392578125
3.202999999999996,0.439935302734375,8.592495727539063,3.311328125
3.212999999999994,1.6927490234375002,8.569766235351564,7.3105224609375
3.222999999999999,0.4212432861328125,7.9230224609375,8.577243041992189
3.232999999999997,-0.3410919189453125,8.145980834960938,7.116275024414063
3.242999999999995,0.0509918212890625,8.904278564453126,6.501980590820313
3.253,0.59515380859375,9.071310424804688,5.335897827148438
3.262999999999998,-0.37742919921875,7.728775024414063,3.2479248046875004
3.2749999999999986,0.1173858642578125,6.833801269531251,3.892724609375
3.282999999999994,0.7807281494140625,6.766061401367188,7.167266845703126
3.293,0.475225830078125,7.202108764648438,6.770697021484375
3.303999999999995,-0.1619476318359375,8.285348510742189,4.509112548828125
3.312999999999996,-0.108563232421875,9.722988891601563,5.39346923828125
3.3230000000000004,0.0985443115234375,9.671847534179689,6.487026977539063
3.3329999999999984,0.08314208984375,8.029940795898439,5.2016143798828125
3.343999999999994,0.0725250244140625,6.986477661132813,5.341580200195313
3.353999999999999,-0.0085235595703125,6.9088684082031255,6.586618041992188
3.363999999999997,-0.0611602783203125,6.673199462890626,5.546893310546875
3.375,0.06759033203125,7.134817504882813,4.473971557617188
3.3840000000000003,0.121124267578125,8.271142578125001,5.35159912109375
3.3939999999999984,0.262286376953125,8.657693481445314,6.019577026367188
3.4039999999999964,0.086431884765625,8.094989013671876,6.468783569335938
3.4139999999999944,-0.112152099609375,7.999884033203125,7.200912475585938
3.4239999999999995,0.3952239990234375,7.808627319335938,6.627441406250001
3.433999999999997,0.4293182373046875,7.479049682617188,5.269204711914063
3.4439999999999955,0.15850830078125,6.521569824218751,5.119818115234375
3.4540000000000006,0.404046630859375,5.081686401367188,4.858279418945313
3.463999999999998,0.4963104248046875,5.785552978515625,4.3485107421875
3.4749999999999943,-0.21951904296875,9.580630493164064,4.498495483398438
3.4839999999999947,-0.6255096435546875,13.2106201171875,4.8904296875
3.494999999999997,0.7104461669921875,11.585012817382813,5.33843994140625
3.5049999999999955,1.4057891845703123,7.910311889648438,7.951434326171875
3.515000000000001,1.302459716796875,5.257540893554688,10.792770385742188
3.5249999999999986,0.2761932373046875,4.958020019531251,7.713223266601563
3.5349999999999966,-1.81177978515625,6.139654541015625,1.4442199707031251
3.5449999999999946,-1.629345703125,8.52296142578125,1.0627532958984376
3.555,0.56165771484375,9.2485107421875,6.358126831054688
3.5649999999999977,0.8705993652343751,8.05521240234375,9.004766845703125
3.574999999999996,-0.0563751220703125,7.451834106445313,9.175537109375
3.585000000000001,-0.63702392578125,8.3273681640625,8.069717407226562
3.594999999999999,0.127105712890625,9.611285400390626,5.557211303710938
3.6059999999999945,-0.7038665771484376,8.731863403320313,2.8992065429687504
3.614999999999995,-0.1819854736328125,7.566976928710938,2.4983001708984376
3.6259999999999977,0.9398345947265626,6.493008422851563,5.6756439208984375
3.635999999999996,0.9902282714843752,6.258087158203126,7.277474975585938
3.646000000000001,0.1591064453125,7.318447875976563,5.732617187500001
3.655999999999999,-0.3844573974609375,9.556256103515626,4.985983276367188
3.665999999999997,0.41331787109375,10.582821655273438,5.987277221679688
3.675999999999995,0.389093017578125,8.92132568359375,5.980398559570313
3.686,0.170770263671875,6.755145263671875,5.726336669921875
3.695999999999998,0.2998199462890625,6.389230346679688,6.584524536132813
3.705999999999996,0.2295379638671875,6.849203491210938,6.419436645507813
3.715999999999994,-0.1030303955078125,7.201660156250001,4.191497802734375
3.725999999999999,-0.0797027587890625,8.092446899414064,3.3926757812500004
3.735999999999997,0.413018798828125,8.882296752929689,5.651568603515625
3.745999999999995,0.28890380859375,8.4302490234375,7.236053466796876
3.756,-0.0231781005859375,7.767056274414063,6.579440307617188
3.7659999999999982,0.5426666259765626,7.742831420898438,6.406127929687501
3.776999999999994,0.6403137207031251,7.718008422851563,6.658544921875
3.786999999999999,-0.0861328125,7.3948608398437505,5.4483489990234375
3.796999999999997,-0.3470733642578125,7.285549926757813,4.379763793945313
3.806999999999995,-0.1574615478515625,6.4438110351562505,5.180081176757813
3.817,0.150732421875,5.54300537109375,5.8322082519531255
3.827999999999996,-0.6597534179687501,6.3798095703125,4.902841186523438
3.836999999999996,-1.2622344970703123,10.26700134277344,4.183123779296875
3.846999999999994,0.1254608154296875,12.806124877929689,5.511154174804688
3.8569999999999993,0.32957763671875,10.744470214843751,6.01793212890625
3.866999999999997,0.7541107177734375,6.964495849609375,7.793075561523438
3.8769999999999953,1.6393646240234376,5.2355590820312505,10.326068115234376
3.887000000000001,0.8544494628906251,5.23675537109375,7.52525634765625
3.897,-0.8568420410156251,6.705947875976563,1.83450927734375
3.906999999999997,-0.7629333496093751,8.563784790039064,2.005279541015625
3.9169999999999945,1.953839111328125,9.551470947265626,7.397552490234376
3.927999999999997,2.1560119628906254,8.8058837890625,8.35308837890625
3.9369999999999976,-0.311932373046875,7.937228393554688,6.274237060546875
3.948,-0.2794830322265625,8.672647094726564,6.704901123046875
3.9579999999999984,0.3823638916015625,9.066375732421877,6.78056640625
3.967999999999997,-0.9260772705078124,7.625894165039063,3.2072509765625004
3.9779999999999935,-0.6702209472656251,6.857278442382813,2.3794189453125
3.988,0.871197509765625,6.879409790039063,6.726135253906251
3.9979999999999976,0.6727630615234376,7.048983764648438,7.705148315429688
4.007999999999996,-0.2827728271484375,7.818795776367188,4.938580322265626
4.018000000000001,0.0432159423828125,9.5308349609375,5.146734619140625
4.027999999999999,0.705810546875,10.065576171875,6.820492553710938
4.037999999999997,0.4529449462890625,8.357424926757814,5.368197631835938
4.047999999999995,0.079852294921875,6.856082153320313,4.484738159179688
4.058,0.1327880859375,6.6262451171875005,6.644937133789063
4.067999999999998,0.1649383544921875,6.5200744628906255,6.464297485351563
4.077999999999996,-0.18961181640625,7.0823303222656255,3.9562774658203126
4.088999999999999,-0.051739501953125,8.269049072265625,4.703359985351563
4.098999999999997,-0.048748779296875,9.00147705078125,6.6935363769531255
4.108999999999995,-0.371746826171875,8.3465087890625,6.842175292968751
4.119,-0.2954833984375,7.837039184570313,6.742733764648438
4.128999999999998,0.228192138671875,7.677932739257813,6.9567199707031255
4.138999999999996,0.4653564453125,7.3350463867187505,5.6751953125000005
4.148999999999994,0.290399169921875,5.8319091796875,4.230377197265625
4.158999999999999,0.8380004882812501,4.85513916015625,4.131832885742188
4.168999999999997,0.6724639892578126,6.688601684570313,4.651919555664063
4.178999999999995,-0.362774658203125,11.49439392089844,4.819100952148438
4.189,-0.341241455078125,12.978240966796877,5.250811767578125
4.199999999999996,1.42059326171875,10.333544921875,6.100775146484375
4.210000000000001,2.1995269775390627,7.079489135742188,9.144882202148438
4.219999999999999,1.436892700195313,5.296121215820313,10.007855224609376
4.229999999999997,-0.1146942138671875,4.917495727539063,5.192642211914063
4.239999999999995,-2.1720123291015625,6.578692626953125,0.9247314453125
4.25,-1.8926788330078128,8.814407348632812,2.2708557128906253
4.259999999999998,0.3013153076171875,9.220547485351563,8.041604614257814
4.269999999999996,-0.4038970947265625,7.75015869140625,9.506460571289065
4.279999999999994,-0.8239440917968751,7.706643676757813,8.759378051757814
4.289999999999999,-0.05263671875,9.0547119140625,6.918289184570313
4.299999999999997,0.36187744140625,9.460104370117188,4.782614135742188
4.309999999999995,-0.8574401855468751,8.029791259765625,2.485888671875
4.32,-0.10347900390625,7.031787109375,3.450546264648438
4.329999999999998,1.5215301513671875,6.196029663085938,6.547140502929688
4.339999999999996,1.41700439453125,6.658395385742188,6.808978271484375
4.350999999999999,-0.0777587890625,8.124148559570314,5.226138305664063
4.360999999999997,-0.20576171875,10.232757568359377,5.1877075195312505
4.370999999999995,0.5467041015625,10.173541259765626,6.115280151367188
4.381,0.5673400878906251,8.006613159179688,5.906826782226563
4.390999999999998,-0.0411224365234375,6.411959838867188,6.001782226562501
4.400999999999996,-0.15791015625,6.627590942382813,6.6875549316406255
4.410999999999994,-0.1440032958984375,7.013693237304688,5.593099975585938
4.420999999999999,-0.1218719482421875,7.443310546875001,3.523370361328125
4.430999999999997,0.0234771728515625,8.337088012695313,4.299163818359375
4.440999999999995,0.0764129638671875,8.792874145507813,6.625347900390626
4.4510000000000005,-0.0107666015625,8.254693603515626,6.954776000976563
4.460999999999999,0.4018035888671875,7.738046264648438,6.379510498046876
4.4709999999999965,0.9248809814453126,7.811618041992188,6.4782043457031255
4.4809999999999945,0.5997894287109375,7.548135375976563,6.195431518554688
4.491,-0.102581787109375,7.2767272949218755,4.878765869140626
4.501999999999995,-0.3581390380859375,6.195132446289063,4.519131469726563
4.5120000000000005,0.1949951171875,5.375823974609375,5.201016235351563
4.521999999999999,0.117535400390625,6.460858154296876,5.596090698242188
4.5319999999999965,-0.4942169189453125,10.004864501953126,4.435391235351563
4.5419999999999945,-0.49287109375,12.506304931640626,4.7073974609375
4.552,0.11663818359375,11.001821899414065,6.926513671875001
4.561999999999998,0.6171356201171876,7.633221435546876,8.375967407226563
4.571999999999996,0.834112548828125,5.2624755859375005,8.70718994140625
4.582000000000001,0.4529449462890625,5.378216552734376,6.523663330078126
4.591999999999999,-0.575115966796875,7.000683593750001,2.931805419921876
4.601999999999997,-0.321502685546875,8.385687255859375,2.4224853515625
4.611999999999995,1.5191375732421877,8.893362426757813,6.031988525390625
4.6229999999999976,1.42657470703125,8.651263427734376,8.934036254882812
4.631999999999998,0.023028564453125,8.240338134765626,7.976257324218751
4.641999999999996,-0.5072265625000001,8.552270507812501,6.270947265625001
4.652999999999999,0.053533935546875,8.839678955078126,5.557809448242188
4.662999999999997,0.0634033203125,7.96309814453125,4.2042083740234375
4.672999999999995,-0.44202880859375,6.851745605468751,3.247625732421876
4.683,0.5401245117187501,6.739743041992188,5.355786132812501
4.692999999999998,0.521881103515625,7.172201538085938,7.325027465820313
4.702999999999996,-0.006878662109375,8.00137939453125,5.774188232421875
4.712999999999994,0.064599609375,9.386981201171876,4.765567016601563
4.722999999999999,0.2618377685546875,9.900787353515623,6.229376220703125
4.732999999999997,0.3384002685546875,8.487969970703126,6.021969604492188
4.742999999999995,0.0713287353515625,6.732565307617188,4.96280517578125
4.753,-0.007476806640625,6.395211791992188,6.2195068359375005
4.762999999999998,0.0979461669921875,6.63760986328125,6.541009521484376
4.772999999999996,-0.140264892578125,7.313662719726563,4.323089599609375
4.783999999999999,-0.1040771484375,8.292974853515625,4.281069946289063
4.793999999999997,0.0729736328125,8.838482666015626,6.341976928710938
4.803999999999995,-0.1137969970703125,8.478549194335939,7.031637573242188
4.814,-0.1523773193359375,7.811169433593751,6.760379028320313
4.823999999999998,0.1867706298828125,7.675839233398438,6.533383178710938
4.833999999999996,0.524273681640625,7.434936523437501,5.8202453613281255
4.843999999999994,0.464459228515625,6.749612426757813,4.727435302734375
4.853999999999999,0.7499237060546875,5.062545776367188,4.284359741210938
4.863999999999997,1.0193878173828126,5.328869628906251,4.284509277343751
4.873999999999995,0.060113525390625,9.32327880859375,4.734912109375
4.884,-0.3680084228515625,13.037008666992188,5.371487426757813
4.893999999999998,0.5117126464843751,12.053509521484376,5.28759765625
4.903999999999996,1.892529296875,8.362658691406251,7.295269775390626
4.913999999999994,1.6124481201171876,5.672653198242188,10.333694458007812
4.924,0.2761932373046875,5.167071533203125,7.955770874023438
4.934999999999995,-1.990176391601563,5.84686279296875,2.572021484375
4.945,-1.8886413574218752,7.599426269531251,1.46724853515625
4.954999999999998,-0.8314208984375001,9.439019775390626,5.9611083984375
4.964999999999996,-0.6356781005859375,8.307330322265626,9.677529907226564
4.975999999999999,-0.8085418701171876,7.536172485351563,9.268997192382812
4.984999999999999,-0.43365478515625,8.415145874023438,6.7398925781250005
4.994999999999997,0.51859130859375,9.397149658203126,5.316009521484375
5.004999999999996,-0.4930206298828125,8.772537231445312,3.65047607421875
5.015000000000001,0.0895721435546875,7.2985595703125,2.804400634765625
5.024999999999999,1.155764770507813,6.536224365234376,4.679135131835938
5.034999999999997,1.89791259765625,6.67947998046875,6.994253540039063
5.044999999999995,0.6854736328125001,7.420880126953126,6.62803955078125
5.055,-0.491973876953125,9.28021240234375,4.698724365234376
5.064999999999998,0.10706787109375,10.375265502929688,5.588912963867188
5.0760000000000005,0.361279296875,8.841622924804689,6.697723388671876
5.085999999999999,0.11424560546875,6.737051391601563,5.79063720703125
5.0959999999999965,-0.09031982421875,6.544149780273438,5.9413696289062505
5.1059999999999945,-0.098394775390625,7.2139221191406255,6.425567626953126
5.116,-0.5232269287109376,7.271792602539063,4.48428955078125
5.125999999999998,-0.045159912109375,7.760476684570313,3.556716918945313
5.135999999999996,0.4732818603515625,8.696572875976564,5.8023010253906255
5.146000000000001,0.20755615234375,8.550177001953125,7.0832275390625
5.155999999999999,0.433355712890625,7.847805786132813,6.308779907226563
5.165999999999997,0.9266754150390626,7.735952758789063,6.406277465820313
5.175999999999995,0.9166564941406252,7.68675537109375,6.708489990234376
5.186,0.1745086669921875,7.352243041992188,5.337692260742188
5.195999999999998,-0.2480804443359375,6.352145385742188,4.609002685546876
5.205999999999996,0.100787353515625,5.6412506103515625,5.1835205078125
5.216999999999999,0.1096099853515625,6.384295654296875,5.359524536132813
5.226999999999997,-0.8166168212890625,9.121405029296875,4.3069396972656255
5.236999999999995,-0.7265960693359376,11.897244262695311,4.455578613281251
5.247,-0.2415008544921875,11.396597290039065,6.366052246093751
5.256999999999998,0.49287109375,8.420977783203126,8.049530029296875
5.266999999999996,1.21124267578125,5.700765991210938,8.883792114257814
5.276999999999994,0.3090911865234375,5.109051513671876,7.489218139648438
5.286999999999999,-0.8858520507812501,6.611141967773438,3.631484985351563
5.296999999999997,-0.76383056640625,8.137158203125,2.191152954101563
5.306999999999995,1.2990203857421876,8.791827392578126,4.985086059570313
5.317,2.0571685791015626,8.558700561523438,8.222094726562501
5.326999999999998,0.59036865234375,8.062091064453126,8.652459716796876
5.336999999999996,-0.1218719482421875,8.681021118164063,6.801651000976563
5.346999999999994,0.4942169189453125,9.018374633789064,5.6382598876953125
5.356999999999999,-0.182733154296875,8.398846435546876,3.99739990234375
5.367999999999995,-0.5695831298828126,7.066329956054688,3.380563354492188
5.378,0.448309326171875,6.584674072265625,5.0973876953125
5.387999999999998,0.453692626953125,6.730471801757813,6.932196044921875
5.397999999999996,-0.0204864501953125,7.83389892578125,5.918041992187501
5.407999999999994,-0.10706787109375,9.186602783203126,5.178436279296875
5.417999999999999,0.116339111328125,9.976153564453126,6.106906127929688
5.427999999999997,0.27215576171875,8.946746826171875,6.054119873046876
5.437999999999995,0.1816864013671875,7.356130981445313,5.2973175048828125
5.448,0.0279632568359375,6.610244750976563,6.0808868408203125
5.457999999999998,0.065496826171875,6.533233642578126,6.046643066406251
5.467999999999996,-0.0610107421875,6.830361938476563,4.766912841796875
5.477999999999994,0.1126007080078125,7.929452514648438,4.516140747070313
5.488,0.083441162109375,8.737545776367188,5.525808715820313
5.4979999999999976,0.084637451171875,8.542102050781251,6.465194702148438
5.507999999999996,-0.0871795654296875,8.146429443359375,7.227828979492188
5.518000000000001,0.13458251953125,7.752401733398438,7.1526123046875005
5.528999999999996,0.447412109375,7.239492797851563,5.819796752929688
5.538999999999994,0.594854736328125,5.827423095703125,4.808782958984375
5.549,0.6555664062500001,4.921234130859375,4.355987548828125
5.5589999999999975,0.217425537109375,6.804043579101563,4.136468505859376
5.568999999999996,-0.5443115234375,11.218798828125,4.583581542968751
5.579000000000001,0.023028564453125,12.794909667968753,5.041909790039063
5.588999999999999,1.442425537109375,10.170999145507814,6.261526489257813
5.598999999999997,1.6736083984375,7.222595214843751,9.033328247070314
5.608999999999995,1.0862304687500002,5.421881103515625,9.804336547851562
5.619999999999997,-0.98095703125,5.176043701171875,5.445507812500001
5.628999999999998,-1.992718505859375,6.830511474609375,0.6597534179687501
5.638999999999996,-0.6691741943359375,8.911904907226564,3.388937377929688
5.649999999999999,0.345428466796875,8.756088256835938,7.8249267578125
5.659999999999997,-0.4498046875,7.553219604492188,9.6528564453125
5.669999999999995,-0.7898498535156251,7.621707153320313,8.810968017578126
5.68,0.189013671875,9.084918212890626,6.606057739257813
5.689999999999998,-0.134283447265625,9.511096191406253,4.138711547851563
5.699999999999996,-0.9688446044921876,8.207888793945314,2.5835357666015626
5.710000000000001,0.667828369140625,7.1645751953125005,3.88973388671875
5.719999999999999,1.6568603515625002,6.1851135253906255,6.404632568359376
5.729999999999997,0.9633117675781252,6.624151611328125,6.64957275390625
5.739999999999995,-0.175555419921875,8.096932983398439,5.483489990234375
5.75,-0.0405242919921875,10.159185791015624,5.322439575195313
5.759999999999998,0.5668914794921875,10.017724609375,6.01195068359375
5.769999999999996,0.270361328125,8.041455078125,5.744580078125001
5.779999999999994,0.0542816162109375,6.449792480468751,6.192141723632813
5.789999999999999,-0.04844970703125,6.674993896484375,6.785052490234375
5.800999999999995,-0.185125732421875,7.126742553710938,5.349505615234375
5.811,-0.030804443359375,7.452282714843751,3.534735107421876
5.820999999999998,0.13876953125,8.309722900390625,4.478756713867188
5.830999999999996,0.1774993896484375,8.737695312500001,6.509457397460938
5.840999999999994,0.044561767578125,8.202355957031251,6.790286254882813
5.850999999999999,0.363671875,7.786495971679688,6.464596557617188
5.860999999999997,0.8839080810546875,7.832104492187501,6.672003173828125
5.870999999999995,0.4605712890625,7.546490478515626,6.091204833984375
5.881,-0.122320556640625,7.25010986328125,5.102322387695313
5.890999999999998,-0.198284912109375,6.527999877929688,5.063592529296876
5.900999999999996,0.0408233642578125,5.430105590820313,5.1238555908203125
5.910999999999994,0.01854248046875,5.864508056640625,4.763323974609375
5.920999999999999,-0.4127197265625,9.83633728027344,4.29766845703125
5.930999999999997,-0.436346435546875,12.718048095703129,5.323336791992188
5.942,-0.2583984375,11.133114624023438,5.639904785156251
5.9510000000000005,0.44681396484375,7.991061401367188,7.779617309570313
5.961999999999996,1.3696014404296877,5.445657348632813,10.958905029296876
5.971999999999994,0.593359375,5.278176879882813,7.498190307617188
5.981999999999999,-1.1147918701171875,6.412857055664063,1.6662811279296876
5.991999999999997,-0.2567535400390625,8.311068725585939,2.0365325927734377
6.001999999999995,1.630841064453125,9.2317626953125,6.427212524414063
6.0120000000000005,1.4530426025390626,8.378509521484375,7.851095581054688
6.021999999999999,-0.055926513671875,8.00018310546875,7.047488403320313
6.0319999999999965,0.2600433349609375,8.663674926757814,7.825674438476563
6.0419999999999945,0.6359771728515625,9.180621337890626,6.637759399414063
6.052,-0.5046844482421875,8.007211303710939,2.87109375
6.061999999999998,-0.6093597412109375,7.066030883789063,2.624658203125
6.071999999999996,0.623565673828125,6.879409790039063,6.509906005859375
6.082000000000001,0.670819091796875,6.694732666015626,7.181771850585938
6.093999999999994,-0.298773193359375,7.374972534179688,4.890728759765626
6.102999999999994,-0.11424560546875,9.355877685546876,5.646334838867188
6.113,0.321502685546875,10.2127197265625,7.026852416992188
6.1229999999999976,-0.0788055419921875,8.75982666015625,5.160491943359375
6.132999999999996,-0.1870697021484375,7.2865966796875,4.476065063476563
6.143000000000001,0.20516357421875,7.027301025390625,6.757388305664063
6.152999999999999,0.09510498046875,6.447100830078125,6.408520507812501
6.162999999999997,-0.112451171875,6.4796997070312505,4.148281860351563
6.172999999999995,0.38939208984375,7.928106689453125,4.738949584960938
6.183,0.5788543701171875,8.999533081054688,6.2374511718750005
6.193999999999996,-0.078057861328125,8.551223754882812,6.049932861328125
6.202999999999996,-0.2678192138671875,8.066577148437501,6.593347167968751
6.213999999999999,0.4677490234375,7.909115600585938,7.45946044921875
6.222999999999999,0.4595245361328125,7.224090576171876,6.345864868164063
6.232999999999997,0.27454833984375,6.108700561523438,4.560104370117188
6.244,0.79373779296875,4.788446044921876,4.0317932128906255
6.253999999999998,0.6652862548828126,5.943463134765626,4.3642120361328125
6.263999999999996,-0.491973876953125,10.460650634765626,4.993011474609375
6.273999999999994,-0.5447601318359375,13.119851684570314,4.698275756835938
6.283999999999999,0.68427734375,11.163470458984376,5.1428466796875005
6.293999999999997,2.2741455078125004,7.73580322265625,9.060842895507813
6.303999999999995,1.4798095703125,5.603268432617188,10.879949951171875
6.314,-0.7811767578125001,5.090359497070313,6.407473754882813
6.323999999999998,-2.0377288818359376,6.09808349609375,1.1769989013671875
6.333999999999996,-1.2568511962890625,8.349050903320313,2.9053375244140627
6.343999999999994,-0.2570526123046875,9.152658081054687,6.292330932617188
6.353999999999999,-0.4424774169921875,7.795916748046875,8.628533935546876
6.363999999999997,-0.572723388671875,7.630828857421876,9.5786865234375
6.373999999999995,0.37982177734375,8.896652221679688,7.282260131835938
6.384,0.0405242919921875,9.397747802734376,4.332360839843751
6.394999999999996,-0.7663726806640626,8.606253051757813,3.086874389648438
6.404999999999994,0.69205322265625,7.458563232421875,3.9517913818359376
6.414999999999999,1.0507904052734376,6.212478637695313,5.3432250976562505
6.424999999999997,1.3265350341796875,6.311920166015626,6.401791381835938
6.434999999999995,0.0291595458984375,7.801898193359375,6.395809936523438
6.445,-0.694744873046875,9.598126220703126,5.2988128662109375
6.454999999999998,0.232080078125,10.274627685546877,5.002880859375001
6.464999999999996,0.4945159912109375,8.667413330078126,6.379061889648438
6.474999999999994,0.295184326171875,6.726434326171876,6.621908569335938
6.484999999999999,-0.1009368896484375,6.494802856445313,5.907723999023438
6.494999999999997,-0.13936767578125,7.109246826171876,5.732168579101563
6.504999999999996,0.171966552734375,7.484881591796875,4.53692626953125
6.515000000000001,0.2657257080078125,7.834347534179688,3.845919799804688
6.524999999999999,0.1843780517578125,8.581130981445312,5.707345581054688
6.534999999999997,0.1437042236328125,8.4158935546875,7.369290161132813
6.545999999999999,0.4116729736328125,7.941265869140626,6.606057739257813
6.555999999999997,0.7328765869140625,7.833151245117188,6.046942138671875
6.565999999999995,0.5505920410156251,7.692288208007813,6.370089721679688
6.5760000000000005,-0.015252685546875,7.445703125,5.613885498046876
6.585999999999999,-0.3536529541015625,6.6591430664062505,4.6658264160156255
6.5959999999999965,-0.134283447265625,5.512200927734376,4.840933227539063
6.6059999999999945,0.1435546875,5.515341186523438,5.343075561523438
6.616,-0.36785888671875,8.689993286132813,4.430606079101563
6.625999999999998,-0.5866302490234375,12.474453735351563,4.64578857421875
6.635999999999996,-0.0474029541015625,12.111080932617188,5.861965942382813
6.646000000000001,0.5156005859375,8.919232177734376,7.363009643554688
6.655999999999999,1.3355072021484375,5.7338134765625,9.737344360351564
6.665999999999997,0.8617767333984375,4.745828247070313,8.514736938476563
6.677,-0.591864013671875,5.906228637695313,3.8682006835937504
6.686999999999998,-1.12271728515625,7.971322631835938,1.5604095458984375
6.696999999999996,0.9962097167968752,9.084918212890626,4.714724731445313
6.707000000000001,1.9496520996093751,8.978747558593751,7.686306762695313
6.716999999999999,0.3650177001953125,8.212374877929689,8.129681396484376
6.726999999999997,-0.386102294921875,8.405426025390625,7.296914672851563
6.736999999999995,-0.33017578125,8.833697509765626,6.638955688476563
6.747,0.1423583984375,8.4637451171875,4.267611694335938
6.756999999999998,-0.6543701171875,7.239642333984375,2.7851104736328125
6.766999999999996,0.41630859375,6.792379760742188,4.824932861328126
6.776999999999994,0.8803192138671876,6.751107788085938,7.18192138671875
6.786999999999999,0.17764892578125,7.34102783203125,6.046942138671875
6.796999999999997,0.011962890625,8.886932373046875,5.108901977539063
6.806999999999995,0.3075958251953125,10.163522338867187,6.329116821289063
6.817999999999998,0.3464752197265625,9.309222412109376,5.895761108398438
6.827999999999996,0.1000396728515625,7.502676391601563,4.559506225585938
6.837999999999994,-0.026318359375,6.8954101562500005,5.935537719726563
6.847999999999999,0.0037384033203125,6.240292358398438,6.996197509765626
6.857999999999997,-0.26019287109375,6.489868164062501,4.864859008789063
6.867999999999995,-0.11424560546875,7.660137939453126,4.160693359375
6.878,0.31402587890625,8.981738281250001,5.800357055664063
6.887999999999998,-0.1188812255859375,8.74906005859375,6.387734985351563
6.897999999999996,-0.26258544921875,8.183364868164062,6.549832153320313
6.907999999999994,0.4457672119140625,7.792178344726563,7.301251220703126
6.917999999999999,0.578106689453125,7.53243408203125,6.576599121093751
6.927999999999997,0.2708099365234375,7.088012695312501,4.888934326171875
6.937999999999995,0.355596923828125,6.58916015625,4.415802001953125
6.948,1.0113128662109376,5.140304565429688,4.74029541015625
6.958999999999996,0.9601715087890624,5.853143310546876,4.517486572265625
6.968999999999994,-0.3677093505859375,9.9256103515625,4.727435302734375
6.978999999999999,-0.4720855712890625,13.074990844726564,5.343075561523438
6.988999999999997,0.8336639404296876,11.615966796875,5.5126495361328125
6.998999999999995,0.9918731689453124,7.983734130859376,8.395706176757812
7.009,0.8839080810546875,5.108004760742188,10.563531494140626
7.018999999999998,-0.101385498046875,5.384945678710938,6.181674194335938
7.028999999999996,-1.7118896484375,6.219058227539063,2.5148986816406254
7.038999999999994,-2.071075439453125,7.80758056640625,2.0658416748046875
7.049,0.2438934326171875,8.980242919921876,5.669064331054688
7.0589999999999975,0.5289093017578126,8.578289794921876,8.42008056640625
7.068999999999996,-0.6437530517578125,7.862460327148438,9.82572021484375
7.079000000000001,-0.149835205078125,8.547335815429689,7.559051513671876
7.088999999999999,0.437841796875,9.192135620117188,5.084976196289063
7.098999999999997,-0.5319000244140626,8.431744384765626,3.501388549804688
7.109999999999999,0.32718505859375,7.43673095703125,3.3596282958984376
7.119999999999997,1.1185302734375,6.521569824218751,4.73431396484375
7.129999999999996,1.1518768310546876,6.4037353515625,6.516784667968751
7.140000000000001,0.308941650390625,7.510452270507813,6.4423156738281255
7.149999999999999,-0.7189697265625,9.349447631835938,5.379263305664063
7.159999999999997,0.0602630615234375,10.302740478515624,5.532986450195313
7.169999999999995,0.4364959716796875,9.000579833984375,6.343322753906251
7.18,0.2103973388671875,6.990814208984376,6.022268676757813
7.189999999999998,-0.035589599609375,6.538616943359376,5.76910400390625
7.199999999999996,-0.1371246337890625,6.879409790039063,6.080288696289063
7.210000000000001,-0.052935791015625,7.083975219726563,4.822988891601563
7.219999999999999,0.2839691162109375,7.81595458984375,3.7431884765625
7.229999999999997,0.43485107421875,8.795416259765625,5.381356811523438
7.239999999999995,0.3521575927734375,8.710479736328125,7.033432006835938
7.25,0.3757843017578125,7.96549072265625,6.785351562500001
7.260999999999996,0.6805389404296875,7.7268310546875005,6.444259643554688
7.271000000000001,0.57720947265625,7.5010314941406255,6.449642944335938
7.280999999999999,-0.048150634765625,7.3215881347656255,5.518032836914063
7.290999999999997,-0.487188720703125,5.943911743164063,4.575656127929688
7.300999999999995,-0.266473388671875,5.3761230468750005,5.0890136718750005
7.311,-0.465057373046875,6.2972656250000005,4.959515380859376
7.320999999999998,-0.49825439453125,10.399191284179688,3.623110961914063
7.330999999999996,-0.4227386474609375,12.725674438476563,5.132528686523438
7.340999999999994,-0.4717864990234375,11.199060058593751,6.369940185546875
7.350999999999999,0.9275726318359376,7.758981323242188,8.450735473632813
7.360999999999997,1.8599304199218751,5.123406982421876,10.622897338867189
7.370999999999995,0.744390869140625,4.878167724609376,7.272540283203125
7.381,-0.9290679931640624,6.588113403320313,1.7930877685546875
7.390999999999998,-0.3650177001953125,8.394210815429688,2.2772857666015627
7.401999999999994,1.609906005859375,9.120806884765626,6.498092651367188
7.411999999999999,1.7691619873046875,8.497091674804688,7.687054443359376
7.421999999999997,-0.1954437255859375,8.111288452148438,7.157098388671876
7.431999999999995,0.0560760498046875,8.851043701171875,7.96309814453125
7.442,0.3865509033203125,9.111087036132814,6.505868530273438
7.451999999999998,-0.8495147705078125,7.978948974609375,2.3127258300781253
7.461999999999996,-0.369354248046875,7.207043457031251,2.5041320800781253
7.471999999999994,0.6252105712890625,6.881802368164063,6.734509277343751
7.481999999999999,0.1299468994140625,6.5484863281250005,6.893615722656251
7.491999999999997,-0.04246826171875,7.396804809570313,4.705303955078126
7.501999999999995,0.37982177734375,9.537115478515624,5.992959594726563
7.512,0.48150634765625,10.12464294433594,7.080386352539063
7.5219999999999985,0.109759521484375,8.636160278320313,5.11712646484375
7.5319999999999965,0.02093505859375,7.173098754882813,4.95682373046875
7.541999999999994,0.325390625,6.672302246093751,6.983636474609376
7.552999999999997,0.1502838134765625,6.252703857421875,6.070718383789063
7.562999999999995,-0.2941375732421875,6.854736328125001,3.885696411132813
7.573,-0.0037384033203125,8.318844604492188,4.6093017578125
7.582999999999998,0.2325286865234375,8.9482421875,6.196179199218751
7.592999999999996,-0.2516693115234375,8.512045288085938,6.455474853515626
7.602999999999994,-0.2729034423828125,8.03427734375,6.930401611328126
7.612999999999999,0.270062255859375,7.847506713867188,7.127340698242188
7.622999999999997,0.4936187744140625,7.123751831054688,6.085372924804688
7.632999999999996,0.3240447998046875,5.669363403320313,4.568179321289063
7.643000000000001,0.5959014892578125,4.590908813476563,4.013998413085938
7.652999999999999,0.4029998779296875,6.61009521484375,4.763323974609375
7.662999999999997,-0.648687744140625,12.071005249023438,5.031591796875
7.672999999999995,-0.4897308349609375,12.68544921875,4.677938842773438
7.683,1.4703887939453126,10.062136840820314,5.624652099609375
7.695,2.575311279296875,7.427908325195313,9.768597412109376
7.704000000000001,1.3396942138671877,5.619866943359376,9.853384399414065
7.713999999999999,-0.4254302978515625,5.020825195312501,4.1608428955078125
7.723999999999997,-2.111300659179688,6.826922607421875,1.4781646728515625
7.733999999999995,-1.226495361328125,8.961999511718751,4.21153564453125
7.744,-0.1036285400390625,8.584719848632814,7.267755126953125
7.753999999999998,-0.6545196533203126,7.404132080078125,8.75025634765625
7.763999999999996,-0.5827423095703126,7.944705200195313,8.986972045898439
7.773999999999994,0.4984039306640625,9.301296997070311,6.690545654296876
7.783999999999999,-0.091815185546875,9.347653198242188,3.9386322021484377
7.794999999999995,-0.7292877197265626,8.218505859375,2.8556915283203126
7.803999999999995,0.3600830078125,7.079489135742188,4.4744201660156255
7.814999999999998,1.3666107177734377,6.004473876953125,6.072811889648438
7.823999999999998,0.9295166015625,6.435885620117188,6.101971435546876
7.833999999999996,0.0662445068359375,8.2208984375,5.735906982421875
7.844999999999999,0.0677398681640625,10.088455200195312,5.5465942382812505
7.854999999999997,0.15491943359375,9.844711303710938,5.638558959960938
7.864999999999995,0.8306732177734376,8.293423461914063,5.873330688476563
7.875,0.2213134765625,6.731817626953125,6.664077758789063
7.884999999999998,-0.1604522705078125,6.776678466796875,6.369491577148438
7.894999999999996,-0.416009521484375,6.816156005859376,5.200119018554688
7.904999999999994,-0.10467529296875,7.342971801757813,3.921136474609375
7.914999999999999,0.0910675048828125,8.14373779296875,4.759136962890626
7.924999999999997,-0.04246826171875,8.639898681640625,6.266610717773438
7.934999999999995,-0.1419097900390625,8.246768188476564,6.552822875976563
7.945,0.5280120849609375,8.035922241210939,6.675292968750001
7.954999999999998,0.8275329589843751,8.002725219726564,6.695928955078125
7.965999999999994,0.324493408203125,7.485180664062501,5.893966674804688
7.974999999999994,0.0683380126953125,7.2632690429687505,5.1323791503906255
7.985999999999997,-0.0797027587890625,5.989071655273438,5.278326416015625
7.995999999999995,0.161199951171875,5.192044067382813,5.177389526367188
8.006,-0.019439697265625,6.399249267578125,4.8442230224609375
8.015999999999998,-0.42109375,10.700357055664064,4.48668212890625
8.025999999999996,-0.5319000244140626,12.552511596679688,4.832858276367188
8.035999999999994,-0.3010162353515625,10.926007080078126,5.62076416015625
8.046,0.7786346435546876,7.396505737304688,8.811267089843751
8.055999999999997,1.215728759765625,5.2449798583984375,10.330105590820311
8.065999999999995,0.266473388671875,5.055816650390625,6.414950561523438
8.076,-0.9630126953125,6.851446533203125,1.85604248046875
8.085999999999999,-0.43724365234375,8.776126098632814,2.5697784423828125
8.095999999999997,1.442724609375,9.111236572265623,6.301901245117188
8.105999999999995,1.5156982421875,8.210580444335939,7.905078125
8.116,-0.0312530517578125,7.9451538085937505,7.983135986328126
8.126999999999995,0.4015045166015625,8.731863403320313,7.780364990234376
8.137,0.6643890380859375,9.153555297851565,5.549884033203125
8.146999999999998,-0.6069671630859376,8.231365966796876,2.732473754882813
8.156999999999996,-0.233575439453125,7.231417846679688,3.154464721679688
8.166999999999994,0.6392669677734375,6.619366455078126,6.202310180664063
8.177,0.5508911132812501,6.4109130859375005,6.940869140625001
8.186999999999998,-0.0725250244140625,7.64249267578125,5.337243652343751
8.196999999999996,-0.24224853515625,9.56373291015625,5.489321899414063
8.207,0.262884521484375,10.2007568359375,6.304443359375001
8.216999999999999,0.13697509765625,8.663076782226563,5.458218383789063
8.226999999999997,-0.2077056884765625,7.1310791015625,5.324832153320313
8.236999999999995,-0.0438140869140625,6.565682983398438,6.577496337890626
8.247999999999998,0.1287506103515625,6.371286010742188,6.156103515625
8.256999999999998,-0.0399261474609375,6.906326293945313,4.5581604003906255
8.266999999999996,0.04486083984375,8.328863525390625,4.314865112304688
8.277999999999999,0.3718963623046875,8.8968017578125,5.756692504882813
8.287999999999997,-0.032000732421875,8.489016723632814,6.92711181640625
8.297999999999995,-0.1673309326171875,7.966836547851563,7.155453491210938
8.308,0.3959716796875,7.755841064453126,6.677087402343751
8.317999999999998,0.5695831298828126,7.310372924804688,6.038568115234376
8.327999999999996,0.2738006591796875,6.58975830078125,5.039666748046876
8.337999999999994,0.6868194580078125,5.1074066162109375,4.308135986328125
8.347999999999999,0.7273437500000001,5.6502227783203125,4.586123657226563
8.357999999999997,-0.2663238525390625,9.512741088867188,5.254400634765625
8.367999999999995,-0.6711181640625,12.775918579101564,4.900299072265625
8.378,0.1347320556640625,11.143283081054689,4.6990234375
8.387999999999998,2.4686920166015627,8.556008911132814,7.3006530761718755
8.397999999999996,1.9016510009765624,6.076699829101563,10.649066162109376
8.407999999999994,0.4762725830078125,5.333505249023438,7.026104736328126
8.418999999999997,-1.5077728271484376,6.139654541015625,2.703463745117188
8.428999999999995,-2.2865570068359378,7.83150634765625,1.7609375
8.439,-0.5688354492187501,8.827267456054688,6.5006347656250005
8.448999999999998,-0.8064483642578125,7.828366088867188,8.478250122070314
8.458999999999996,-0.9661529541015624,7.4875732421875005,8.702105712890626
8.468999999999994,0.2537628173828125,8.803341674804688,7.6119873046875
8.479,0.7315307617187501,9.551919555664064,5.661138916015625
8.488999999999997,-0.5016937255859375,8.897100830078125,3.3176086425781253
8.498999999999995,-0.4083831787109375,7.670755004882813,3.057565307617188
8.509,1.102978515625,6.607254028320313,5.34561767578125
8.518999999999998,1.5224273681640623,6.2015625000000005,6.469232177734376
8.528999999999996,0.3210540771484375,7.201361083984375,5.734561157226563
8.538999999999994,-0.208154296875,9.21142578125,5.256195068359375
8.549,0.2755950927734375,10.200158691406251,5.7948242187500005
8.559999999999995,0.50782470703125,8.950634765625,6.093148803710938
8.57,0.220416259765625,7.19029541015625,6.199319458007813
8.579999999999998,0.06041259765625,6.735556030273438,6.63162841796875
8.589999999999996,-0.104376220703125,6.881652832031251,6.08133544921875
8.599999999999994,-0.2260986328125,7.078591918945313,4.203311157226563
8.61,0.031103515625,7.884890747070313,3.898556518554688
8.619999999999997,0.24703369140625,8.550625610351563,5.68536376953125
8.629999999999995,-0.1440032958984375,8.452828979492189,6.531140136718751
8.64,0.2026214599609375,7.999734497070313,6.564636230468751
8.649999999999999,0.8079437255859375,7.974761962890626,6.832604980468751
8.659999999999997,0.5580688476562501,7.733410644531251,6.404483032226563
8.669999999999995,-0.0231781005859375,7.354635620117188,5.233914184570313
8.680999999999997,-0.3745880126953125,6.190197753906251,4.883102416992188
8.689999999999998,-0.13218994140625,4.984637451171875,5.403488159179688
8.701,0.1460968017578125,6.251358032226563,5.164529418945313
8.710999999999999,-0.4921234130859375,10.546932983398438,4.41849365234375
8.720999999999997,-0.8528045654296875,12.56985778808594,5.216867065429688
8.730999999999995,0.535040283203125,10.89161376953125,6.014193725585938
8.741,0.9730316162109376,7.649819946289063,7.828216552734376
8.750999999999998,1.0714263916015625,5.246774291992188,9.598873901367188
8.760999999999996,0.4747772216796875,4.816259765625,6.592599487304688
8.771,-1.1907562255859376,6.688003540039063,2.003485107421876
8.780999999999999,-1.079949951171875,8.828164672851564,2.2443878173828127
8.790999999999997,1.6483367919921876,9.231463623046876,6.555664062500001
8.800999999999995,2.13896484375,8.164523315429689,8.543896484375
8.812999999999995,0.1155914306640625,7.721597290039063,8.113980102539063
8.820999999999998,0.0279632568359375,8.692236328125,7.571762084960938
8.832,0.6075653076171875,9.283502197265626,6.193637084960938
8.841999999999999,-0.6901092529296875,8.2603759765625,2.67550048828125
8.851999999999997,-0.594854736328125,7.166220092773438,2.0428131103515628
8.861999999999995,1.0498931884765623,6.709237670898438,6.337640380859376
8.872,0.346923828125,6.586318969726563,7.747915649414063
8.881999999999998,-0.2678192138671875,7.693035888671876,4.9394775390625005
8.891999999999996,0.064300537109375,9.666015625,4.885943603515625
8.901999999999994,0.3569427490234375,10.4041259765625,6.752902221679688
8.912999999999997,0.2887542724609375,8.559896850585938,5.707794189453125
8.921999999999997,-0.0094207763671875,6.8909240722656255,4.900747680664063
8.931999999999995,0.041571044921875,6.527999877929688,6.767556762695313
8.942,0.15133056640625,6.494802856445313,6.386090087890626
8.951999999999998,-0.070281982421875,6.962850952148438,4.1095520019531255
8.961999999999996,0.0083740234375,8.43323974609375,4.1977783203125005
8.971999999999994,0.2738006591796875,9.022561645507814,5.823834228515626
8.982,0.0611602783203125,8.276824951171875,6.843670654296876
8.991999999999997,-0.19320068359375,7.672698974609376,7.518228149414063
9.003,0.0913665771484375,7.637258911132813,7.201809692382813
9.012999999999998,0.41690673828125,7.466189575195313,5.765814208984375
9.022999999999996,0.149237060546875,7.375122070312501,4.72952880859375
9.032999999999994,0.1075164794921875,6.167318725585938,4.2516113281250005
9.043,0.6231170654296876,4.9290100097656255,4.1443939208984375
9.052999999999995,0.5034881591796876,7.026852416992188,5.623455810546876
9.062999999999995,-0.5389282226562501,12.068911743164064,6.208291625976563
9.073,-0.515899658203125,12.425106811523438,4.752407836914063
9.082999999999998,1.042117309570313,9.203948974609377,5.489022827148438
9.092999999999996,2.352203369140625,6.867147827148438,9.626089477539065
9.102999999999994,1.0702301025390626,5.300607299804688,9.01343994140625
9.113,-0.8656646728515626,5.695083618164063,2.9048889160156253
9.122999999999998,-2.2605377197265626,7.831057739257813,1.1243621826171877
9.134,-0.237164306640625,9.309072875976565,5.8012542724609375
9.143999999999998,0.3650177001953125,7.984780883789063,8.377313232421876
9.153999999999996,-0.4221405029296875,7.013244628906251,8.813360595703125
9.163999999999994,0.0061309814453125,8.164373779296875,8.332751464843751
9.174,0.68128662109375,9.522610473632811,6.268255615234375
9.183999999999996,-0.4813568115234375,9.07744140625,3.5510345458984376
9.193999999999996,-0.6174346923828126,7.953826904296876,2.464205932617188
9.204,0.6613983154296875,6.947149658203125,4.779324340820313
9.214,0.8821136474609376,6.2434326171875005,6.995449829101563
9.223999999999997,0.4068878173828125,6.953878784179688,6.029446411132813
9.233999999999996,-0.393280029296875,8.736648559570312,4.931552124023438
9.244,0.0883758544921875,10.24920654296875,5.552874755859375
9.253999999999998,0.2824737548828125,9.444253540039064,6.08970947265625
9.263999999999996,0.1736114501953125,7.2617736816406255,5.987127685546875
9.273999999999994,0.2989227294921875,6.624600219726563,6.339584350585938
9.284,0.450701904296875,6.818847656250001,6.6908447265625
9.294999999999996,0.1278533935546875,7.110293579101563,4.8617187500000005
9.305,-0.08792724609375,7.752401733398438,3.536529541015625
9.314999999999998,0.377728271484375,8.61328125,5.1298370361328125
9.324999999999996,0.2878570556640625,8.505914306640626,6.855783081054688
9.335,-0.0817962646484375,7.89012451171875,6.471923828125001
9.345,0.331072998046875,7.905975341796876,6.332107543945313
9.354999999999997,0.6290985107421876,7.768402099609376,6.822885131835938
9.366,-0.0441131591796875,7.532583618164063,5.70330810546875
9.375,-0.34393310546875,7.374224853515625,4.469784545898438
9.384999999999998,-0.158209228515625,6.618917846679688,5.204006958007813
9.394999999999996,0.2331268310546875,5.427713012695313,5.750561523437501
9.404999999999994,-0.3392974853515625,5.910565185546876,5.207894897460938
9.415,-1.1853729248046876,9.949237060546876,4.689154052734375
9.424999999999995,-0.7044647216796875,12.67587890625,5.4251708984375
9.436,0.234173583984375,11.18291015625,5.557958984375
9.445999999999998,1.5276611328125,7.916592407226563,7.163079833984376
9.455999999999996,1.4766693115234375,5.587417602539063,9.786093139648438
9.465999999999994,0.602630615234375,4.681826782226563,7.709036254882813
9.476,-0.66214599609375,5.971426391601563,2.3119781494140628
9.485999999999995,-1.0795013427734377,8.755938720703126,1.8759307861328127
9.495999999999997,1.538427734375,9.43572998046875,6.685760498046876
9.506,2.4177001953125004,8.508306884765625,8.369985961914063
9.515999999999998,0.2905487060546875,7.760177612304688,7.672698974609376
9.525999999999996,-0.19798583984375,8.649768066406251,7.086517333984376
9.535999999999994,-0.271258544921875,9.104806518554687,6.519476318359375
9.546,-0.670819091796875,8.29267578125,3.0787994384765627
9.556999999999997,-0.5896209716796875,7.128985595703125,2.0958984375000003
9.567,0.68726806640625,6.796417236328126,6.1190185546875
9.576999999999998,0.545208740234375,6.69981689453125,7.657147216796876
9.586999999999996,-0.0225799560546875,7.619165039062499,5.33843994140625
9.596999999999994,0.2382110595703125,9.509152221679688,5.037722778320313
9.607,0.5767608642578126,10.38663024902344,6.436035156250001
9.616999999999996,0.5330963134765625,8.57679443359375,5.5869689941406255
9.626999999999995,0.058319091796875,6.943710327148438,4.895364379882813
9.637,0.197088623046875,6.551925659179688,6.853390502929688
9.646999999999998,0.07177734375,6.511550903320313,6.220703125000001
9.656999999999996,-0.3557464599609375,6.872381591796875,4.0542236328125005
9.666999999999994,-0.0216827392578125,8.331405639648438,4.430307006835938
9.677,0.049346923828125,8.982186889648439,6.11961669921875
9.686999999999998,-0.213836669921875,8.278918457031251,6.603216552734375
9.696999999999996,-0.1484893798828125,7.839581298828126,7.111041259765625
9.707,-0.07357177734375,7.686306762695313,7.365252685546875
9.717999999999996,0.166583251953125,7.454525756835938,5.940023803710938
9.727999999999994,0.19320068359375,7.093844604492188,4.5581604003906255
9.738,0.5970977783203125,5.79901123046875,4.377072143554688
9.747999999999998,1.128997802734375,5.108901977539063,4.405633544921876
9.757999999999996,0.6578094482421876,7.396505737304688,4.64459228515625
9.768,-0.5553771972656251,12.195269775390626,5.164379882812501
9.778,-0.148040771484375,12.624588012695314,5.511004638671875
9.787999999999997,1.34761962890625,9.865496826171876,6.216366577148438
9.797999999999996,2.265621948242188,6.752005004882813,9.460104370117188
9.808,1.1201751708984375,5.2864013671875005,9.387429809570314
9.817999999999998,-1.365264892578125,5.0280029296875,4.760183715820313
9.827999999999996,-2.059112548828125,6.511550903320313,1.05093994140625
9.837999999999994,-1.146792602539063,9.058599853515624,4.02969970703125
9.848,-0.42886962890625,9.249407958984376,7.8973022460937505
9.857999999999995,-0.80390625,7.602117919921875,9.446646118164065
9.869,-0.4693939208984375,8.05042724609375,8.243328857421876
9.878999999999998,0.8882446289062501,9.141293334960938,6.307135009765625
9.888999999999996,-0.087628173828125,9.127835083007811,4.159497070312501
9.898999999999994,-0.472833251953125,7.895956420898438,2.6155364990234378
9.909,0.5169464111328126,6.833352661132813,3.909323120117188
9.918999999999995,1.7871063232421875,6.4049316406250005,6.111093139648438
9.928999999999997,1.0874267578125,6.73570556640625,6.73271484375
9.939,-0.4364959716796875,8.435931396484376,5.666073608398438
9.948999999999998,-0.357989501953125,10.101763916015626,5.662335205078126
9.958999999999996,0.3117828369140625,9.82691650390625,6.194534301757813
9.968999999999994,0.19559326171875,7.731765747070313,5.796469116210938
9.979,-0.07357177734375,6.596188354492188,5.930902099609376
9.988999999999995,-0.0897216796875,6.6908447265625,6.651068115234375
9.998999999999995,-0.1404144287109375,6.967636108398438,5.107855224609375
10.009,0.0091217041015625,7.5617431640625,3.447256469726563
10.019999999999996,0.5067779541015626,8.551223754882812,4.80369873046875
10.029999999999994,0.4209442138671875,8.838183593750001,6.687106323242188
10.04,0.229388427734375,8.163027954101564,6.60770263671875
10.049999999999995,0.7823730468750001,7.833001708984375,6.53831787109375
10.059999999999995,0.819158935546875,7.650418090820313,6.922476196289063
10.07,0.106768798828125,7.159341430664063,5.881704711914063
10.079999999999998,-0.4789642333984375,6.041409301757813,4.282116699218751
10.089999999999996,-0.1326385498046875,5.1859130859375,4.6116943359375
10.099999999999994,-0.2328277587890625,6.332257080078126,5.345767211914063
10.11,-1.008770751953125,10.688394165039064,4.392025756835938
10.119999999999996,-0.496759033203125,12.37919921875,5.092901611328125
10.129999999999995,0.2406036376953125,10.840921020507814,6.578991699218751
10.14,0.59156494140625,7.657745361328126,8.796313476562501
10.15,1.140362548828125,5.308682250976563,8.808425903320312
10.160999999999994,0.4508514404296875,5.00048828125,5.37193603515625
10.171,-0.5737701416015626,6.946850585937501,2.69464111328125
10.180999999999996,-0.084039306640625,8.63541259765625,3.458322143554688
10.190999999999995,1.5059783935546875,8.869137573242188,6.273190307617188
10.201,1.900454711914063,8.109494018554688,8.5020263671875
10.211,0.1757049560546875,8.270394897460939,8.642889404296875
10.220999999999997,-0.30325927734375,8.975457763671876,6.946850585937501
10.230999999999996,0.05921630859375,8.97635498046875,4.865606689453125
10.241,-0.4629638671875,7.831805419921875,2.93150634765625
10.250999999999998,-0.093310546875,6.956271362304688,3.432601928710938
10.260999999999996,0.5187408447265626,6.616973876953126,6.368295288085938
10.271,-0.00897216796875,6.916195678710938,6.803146362304688
10.281,-0.3069976806640625,8.104559326171875,5.296270751953125
10.290999999999997,0.30924072265625,9.957760620117188,5.414404296875
10.302,0.363372802734375,10.015631103515624,6.290237426757813
10.311999999999998,0.1158905029296875,8.216860961914064,5.403637695312501
10.321999999999996,0.215032958984375,6.673648071289063,5.4718261718750005
10.332,0.4137664794921875,6.3525939941406255,6.805538940429688
10.342,0.180938720703125,6.381903076171875,5.8491058349609375
10.351999999999997,-0.1236663818359375,7.318746948242188,3.949847412109375
10.361999999999997,0.0396270751953125,8.683712768554688,4.510458374023438
10.372,0.2002288818359375,8.917587280273438,6.136215209960938
10.381999999999998,-0.1975372314453125,8.272937011718751,7.009805297851563
10.391999999999996,-0.2319305419921875,7.796813964843751,7.422824096679688
10.401999999999994,-0.01854248046875,7.6335205078125,6.7354064941406255
10.412,0.2540618896484375,7.302597045898438,5.400946044921875
10.421999999999995,0.2223602294921875,7.047488403320313,4.695135498046875
10.433,0.23447265625,5.1787353515625005,4.266415405273438
10.442999999999998,0.5659942626953125,5.1717071533203125,4.248171997070313
10.452999999999996,0.0083740234375,9.094039916992188,5.220455932617188
10.462999999999994,-0.4481597900390625,13.361651611328126,5.83250732421875
10.473,0.331671142578125,11.691632080078126,5.4618072509765625
10.482999999999995,1.872042846679688,8.60670166015625,7.123901367187501
10.492999999999997,1.6748046875000002,5.6920928955078125,10.333544921875
10.503,0.7645782470703125,4.9324493408203125,6.960458374023438
10.515,-1.2870574951171876,5.5929504394531255,2.263079833984375
10.522999999999996,-2.086776733398437,8.123849487304689,1.2058593750000002
10.532999999999994,0.3518585205078125,9.4518798828125,6.161337280273438
10.543,0.5411712646484376,8.20594482421875,9.144732666015626
10.552999999999995,-0.61907958984375,7.35179443359375,9.780410766601562
10.562999999999995,-0.5830413818359376,8.322882080078125,7.628436279296875
10.573,0.4490570068359375,9.524554443359376,5.486630249023438
10.583999999999996,-0.5938079833984375,8.73829345703125,3.2326721191406254
10.592999999999996,-0.369354248046875,7.527050781250001,2.578451538085938
10.604,0.751568603515625,6.420184326171875,5.1791839599609375
10.614999999999997,1.07666015625,6.441268920898438,7.027899169921875
10.623999999999995,0.3605316162109375,7.365701293945313,6.256442260742188
10.634,-0.211444091796875,9.425411987304688,4.988674926757813
10.643999999999998,0.4868896484375,10.543643188476564,5.643792724609376
10.653999999999996,0.6874176025390626,8.98712158203125,6.130831909179688
10.663999999999994,0.2678192138671875,6.741238403320313,5.827572631835938
10.674,0.2032196044921875,6.374127197265626,6.440072631835938
10.683999999999996,-0.0145050048828125,7.088012695312501,6.331808471679688
10.693999999999996,-0.2456878662109375,7.442413330078126,4.1708618164062505
10.704,-0.051141357421875,7.841375732421875,3.617279052734376
10.714999999999996,0.0387298583984375,8.596981811523438,5.961557006835938
10.723999999999997,-0.145648193359375,8.470175170898438,7.234857177734375
10.735,-0.0988433837890625,7.846160888671876,6.2577880859375
10.744999999999996,0.4649078369140625,7.731018066406251,6.082681274414063
10.754999999999995,0.8178131103515626,7.754345703125001,6.808230590820313
10.765,0.1227691650390625,7.410711669921875,5.688504028320313
10.775,-0.357989501953125,6.980795288085938,4.405184936523438
10.784999999999997,-0.1114044189453125,5.677288818359376,4.892822265625
10.794999999999996,0.245538330078125,5.482443237304688,5.513995361328125
10.805,-0.642706298828125,7.540060424804688,4.888186645507813
10.814999999999998,-0.916058349609375,11.986367797851564,4.326229858398438
10.824999999999996,0.0055328369140625,12.555801391601564,5.710635375976563
10.835,0.6685760498046875,9.619659423828123,7.067974853515626
10.845,1.262982177734375,6.344967651367188,9.232809448242188
10.854999999999997,1.167279052734375,5.0949951171875005,9.05276794433594
10.864999999999997,-0.1993316650390625,5.304644775390625,4.523767089843751
10.875,-1.1614471435546876,7.447946166992188,1.1464935302734376
10.885999999999996,0.392083740234375,9.00028076171875,4.650723266601563
10.896,2.387493896484376,9.099423217773438,7.451983642578125
10.906,1.1831298828125,8.00736083984375,8.028445434570314
10.915999999999997,-0.0602630615234375,8.287142944335939,7.257736206054688
10.925999999999997,0.1299468994140625,8.98233642578125,7.228427124023438
10.936,-0.2097991943359375,8.7101806640625,4.668667602539063
10.945999999999998,-0.9510498046875,7.27164306640625,2.379867553710937
10.955999999999996,0.1876678466796875,6.722994995117188,4.5016357421875
10.965999999999994,0.6343322753906251,6.795819091796876,7.359271240234375
10.976,0.1751068115234375,7.216464233398438,6.1477294921875005
10.985999999999995,-0.18363037109375,8.576644897460938,4.8521484375
10.995999999999997,0.2400054931640625,10.132418823242189,6.255694580078125
11.006,0.5873779296875,9.5954345703125,6.186608886718751
11.016999999999996,0.2089019775390625,7.678530883789063,4.648779296875
11.025999999999996,0.055328369140625,6.759780883789063,5.794973754882813
11.037,0.2361175537109375,6.562094116210938,6.8714843750000005
11.046999999999995,0.05921630859375,6.590505981445313,4.920785522460938
11.056999999999997,0.03409423828125,7.378561401367188,4.288546752929688
11.067,0.154620361328125,8.615823364257814,5.690896606445313
11.076999999999998,-0.0399261474609375,8.830856323242188,6.246871948242188
11.086999999999996,-0.3192596435546875,8.258432006835939,6.664227294921876
11.096999999999994,-0.1951446533203125,7.982986450195313,7.066329956054688
11.107,0.0399261474609375,7.479348754882813,6.374127197265626
11.116999999999996,0.3300262451171875,6.856979370117188,5.055368041992188
11.126999999999995,0.4568328857421875,5.416647338867188,4.657901000976563
11.137,0.8845062255859376,5.235858154296875,4.3402862548828125
11.146999999999998,0.2259490966796875,7.8967041015625,4.4848876953125005
11.156999999999996,-0.471636962890625,12.209924316406251,5.068975830078125
11.166999999999994,0.3267364501953125,12.235494995117188,5.460012817382813
11.177999999999995,1.8270324707031247,9.360662841796875,6.736154174804688
11.187999999999995,1.5707275390625002,6.406127929687501,9.560891723632814
11.198,0.9972564697265626,5.614932250976563,8.35548095703125
11.207999999999998,-1.2727020263671875,5.3900299072265625,4.2744903564453125
11.217999999999996,-2.0179901123046875,7.175640869140626,1.0501922607421876
11.227999999999994,-0.6485382080078126,9.045889282226565,4.362567138671875
11.238,-0.3638214111328125,8.49066162109375,8.482736206054689
11.247999999999998,-0.6132476806640625,7.506713867187501,9.7007080078125
11.257999999999996,-0.509320068359375,8.031137084960939,8.044744873046875
11.268,0.45279541015625,9.276025390625,5.720056152343751
11.278,-0.064300537109375,9.241931152343753,4.090859985351563
11.287999999999997,-0.30804443359375,7.830609130859376,3.0625
11.297999999999996,0.6304443359375,6.653161621093751,4.191647338867188
11.308,1.4653045654296877,6.429605102539063,6.415399169921876
11.318999999999996,0.9335540771484376,7.107302856445313,6.973468017578125
11.329,-0.160302734375,8.683712768554688,5.2475219726562505
11.339,0.045758056640625,10.20718688964844,4.909719848632813
11.348999999999997,0.9168060302734377,9.608444213867188,6.373977661132813
11.358999999999996,0.253314208984375,7.439273071289063,6.222946166992188
11.369,-0.189013671875,6.471325683593751,5.6517181396484375
11.378999999999998,-0.08433837890625,7.034329223632813,6.303845214843751
11.388999999999996,-0.382513427734375,7.289288330078126,5.436685180664063
11.398999999999994,-0.479412841796875,7.423870849609376,3.6361206054687503
11.409,0.0596649169921875,8.260824584960938,4.849905395507813
11.418999999999995,0.0973480224609375,8.7341064453125,7.117620849609375
11.428999999999997,0.091217041015625,8.062091064453126,6.691741943359376
11.439,0.609808349609375,7.6804748535156255,5.925668334960938
11.448999999999998,1.0119110107421876,7.850347900390625,6.740042114257813
11.458999999999996,0.5979949951171876,7.497592163085938,6.26676025390625
11.47,0.0731231689453125,7.255044555664063,4.618124389648438
11.479999999999997,0.0782073974609375,6.181674194335938,4.91734619140625
11.489999999999997,0.4257293701171875,6.0046234130859375,5.568127441406251
11.5,-0.1350311279296875,6.919784545898438,4.817306518554688
11.509999999999998,-0.6065185546875,9.821084594726564,3.829171752929688
11.519999999999996,-0.1227691650390625,11.695669555664065,5.576651000976563
11.529999999999994,0.02392578125,10.729666137695313,6.620712280273438
11.54,0.4041961669921875,7.967733764648438,7.6478759765625
11.549999999999995,1.225,5.895162963867188,9.129779052734376
11.559999999999995,0.4200469970703125,5.478555297851563,7.4421142578125
11.57,-1.6626922607421877,6.378912353515625,2.950946044921875
11.579999999999998,-0.7873077392578126,8.027249145507813,2.399456787109376
11.589999999999996,1.2392059326171876,8.887680053710938,6.308929443359376
11.599999999999994,1.2024200439453123,8.617767333984375,7.625744628906251
11.610999999999995,-0.1320404052734375,8.052520751953125,7.080685424804688
11.620999999999997,0.6045745849609375,8.620907592773438,7.262371826171876
11.631999999999998,0.959722900390625,9.01104736328125,6.342276000976563
11.640999999999998,-0.381915283203125,8.067025756835939,3.622064208984375
11.650999999999996,-0.28890380859375,6.899298095703125,3.497799682617188
11.660999999999994,0.6494354248046875,6.945355224609376,6.07236328125
11.671,0.7744476318359376,7.024908447265625,6.495700073242188
11.680999999999996,-0.003289794921875,7.763168334960938,5.042507934570313
11.690999999999995,-0.317315673828125,9.071759033203126,6.106158447265625
11.701,0.0491973876953125,9.634463500976564,6.921429443359376
11.711,0.1807891845703125,8.665469360351564,5.296719360351563
11.720999999999997,0.0103179931640625,7.391122436523438,5.022021484375
11.732,-0.2130889892578125,7.273437500000001,6.138607788085938
11.741,-0.10706787109375,7.194332885742188,5.532388305664063
11.751999999999995,0.122320556640625,6.942514038085938,4.414306640625
11.762,0.1592559814453125,7.465890502929688,5.207147216796876
11.771999999999998,0.3862518310546875,8.26875,6.354537963867188
11.781999999999996,0.217724609375,8.492904663085938,6.268704223632813
11.791999999999994,0.026318359375,8.142990112304688,6.405978393554688
11.802,0.4164581298828125,7.980294799804688,6.61368408203125
11.811999999999998,0.4338043212890625,7.508956909179688,6.031689453125001
11.821999999999996,0.37862548828125,6.493157958984376,5.3477111816406255
11.832,0.5927612304687501,4.994207763671875,4.553076171875
11.842,0.6536224365234375,6.114083862304688,4.324435424804688
11.851999999999997,-0.10347900390625,9.816149902343753,5.46524658203125
11.861999999999997,-0.5390777587890625,12.376358032226564,4.961907958984376
11.872,0.229388427734375,10.44898681640625,4.728482055664063
11.881999999999998,2.035186767578125,8.059848022460939,8.076745605468751
11.891999999999996,1.51510009765625,6.081634521484375,10.519866943359377
11.903,-0.687567138671875,5.3432250976562505,6.840530395507813
11.912999999999997,-1.787255859375,6.350650024414063,1.619775390625
11.922999999999996,-1.226495361328125,8.508157348632814,3.390133666992188
11.933,-0.2595947265625,9.067572021484375,6.127990722656251
11.942999999999998,-0.497357177734375,7.650717163085938,7.593743896484375
11.952999999999996,-0.4993011474609375,7.647277832031251,8.815005493164064
11.962999999999994,0.591864013671875,8.788088989257814,7.77647705078125
11.973,0.25062255859375,9.084469604492188,4.9589172363281255
11.982999999999995,-0.343035888671875,8.49903564453125,3.2103912353515627
11.992999999999997,0.2806793212890625,7.628585815429688,3.994558715820313
12.003,0.8860015869140626,6.634170532226563,5.725588989257813
12.012999999999998,0.9736297607421877,6.4288574218750005,6.2577880859375
12.022999999999996,0.059814453125,7.563238525390625,6.0988311767578125
12.034,-0.36546630859375,9.284997558593751,5.611642456054688
12.043999999999995,0.21353759765625,9.938320922851563,5.445956420898438
12.053999999999997,0.2835205078125,8.663375854492188,5.90069580078125
12.064,0.0538330078125,7.25908203125,5.915200805664063
12.073999999999998,0.0035888671875,6.96658935546875,6.01434326171875
12.083999999999996,0.0124114990234375,7.041506958007813,6.030792236328125
12.093999999999994,-0.0396270751953125,7.178781127929688,4.766912841796875
12.104,0.2074066162109375,7.84586181640625,4.141104125976563
12.113999999999995,0.389990234375,8.521166992187501,5.759085083007813
12.123999999999995,0.2205657958984375,8.330059814453126,6.860269165039063
12.134,0.3481201171875,7.86380615234375,6.419735717773438
12.143999999999998,0.75067138671875,7.806982421875,6.38040771484375
12.153999999999996,0.6271545410156251,7.702157592773438,6.449493408203126
12.163999999999994,-0.073870849609375,7.163827514648438,5.290289306640625
12.174,-0.362774658203125,5.846115112304688,4.3772216796875005
12.183999999999996,0.06041259765625,5.424273681640625,5.075405883789063
12.195,-0.117236328125,7.13048095703125,5.303598022460938
12.204999999999998,-0.560760498046875,10.982083129882811,4.455130004882813
12.214999999999996,-0.4960113525390625,12.125286865234376,4.978356933593751
12.224999999999994,-0.167181396484375,10.311712646484375,6.535028076171876
12.235,1.048098754882813,7.249362182617188,9.24537048339844
12.244999999999996,1.3271331787109375,5.495004272460938,8.909811401367188
12.254999999999995,-0.11484375,5.187557983398438,5.477059936523438
12.265,-0.6896606445312501,7.083078002929688,2.493963623046876
12.275,-0.1327880859375,8.583673095703126,3.855789184570313
12.284999999999997,1.496258544921875,8.82681884765625,6.411511230468751
12.294999999999996,1.232476806640625,8.366546630859375,7.668661499023438
12.305,0.024224853515625,8.364154052734376,7.797860717773438
12.314999999999998,0.1508819580078125,8.875717163085938,7.230969238281251
12.324999999999996,0.20755615234375,8.716012573242189,4.961758422851563
12.335,-0.527264404296875,7.648025512695313,3.01644287109375
12.345999999999997,-0.048150634765625,6.858773803710938,4.157254028320313
12.355999999999996,0.5238250732421875,6.846511840820313,6.396258544921875
12.366,0.2217620849609375,6.88284912109375,6.236105346679688
12.375999999999998,-0.12979736328125,8.122354125976564,5.280569458007813
12.385999999999996,0.1736114501953125,9.7234375,6.238049316406251
12.396,0.2938385009765625,9.823776245117188,6.3720336914062505
12.406,-0.0162994384765625,8.246170043945312,4.94486083984375
12.415999999999997,0.1338348388671875,7.260427856445313,5.273541259765626
12.425999999999997,0.2911468505859375,6.531887817382813,6.699667358398438
12.436,-0.016448974609375,6.340182495117188,5.564688110351563
12.445999999999998,-0.0620574951171875,6.916494750976563,4.40533447265625
12.455999999999996,0.319110107421875,8.46494140625,5.222698974609376
12.465999999999994,0.2014251708984375,8.930447387695313,6.202908325195313
12.476999999999997,-0.2687164306640625,8.500531005859376,6.4079223632812505
12.486999999999997,-0.1033294677734375,8.053268432617188,6.882998657226563
12.497,0.4233367919921875,7.649072265625,6.933242797851563
12.506999999999998,0.447412109375,6.702359008789063,5.6382598876953125
12.516999999999996,0.4493560791015625,5.246624755859376,4.382754516601563
12.526999999999994,0.6380706787109376,5.643942260742188,4.381109619140625
12.537,-0.0031402587890625,8.100970458984376,4.654461669921876
12.546999999999995,-0.4406829833984375,11.6434814453125,4.5342346191406255
12.556999999999997,-0.0539825439453125,11.859561157226564,5.214474487304688
12.567,1.6896087646484377,9.872674560546876,7.144985961914063
12.576999999999998,1.8019104003906248,6.426763916015625,9.65704345703125
12.586999999999996,0.7931396484375001,5.27862548828125,8.556906127929688
12.596999999999994,-1.2418975830078125,5.520425415039063,4.68406982421875
12.607,-1.801312255859375,7.153808593750001,1.213037109375
12.616999999999996,-0.7141845703125,8.767153930664064,3.3811614990234378
12.628,-0.01256103515625,8.825772094726563,7.918685913085938
12.637999999999998,-0.5184417724609376,7.766607666015625,9.433187866210938
12.647999999999996,-0.2510711669921875,8.180224609375001,7.614379882812501
12.657999999999994,0.7597930908203125,9.196173095703124,6.2613769531250005
12.668,0.3366058349609375,9.298455810546876,4.8333068847656255
12.677999999999995,-0.4018035888671875,7.643090820312499,3.374432373046876
12.687999999999995,-0.0198883056640625,6.671704101562501,4.04644775390625
12.698,1.2359161376953125,6.62265625,6.237750244140625
12.707999999999998,0.9006561279296875,7.066180419921875,6.436782836914063
12.717999999999996,-0.253912353515625,8.26575927734375,5.2135772705078125
12.727999999999994,-0.1078155517578125,9.717306518554688,5.602520751953126
12.738999999999995,0.470440673828125,9.620556640625,6.386239624023438
12.748999999999995,0.231182861328125,7.925863647460938,5.874526977539063
12.757999999999996,-0.1371246337890625,6.676339721679688,5.909368896484375
12.768,-0.0844879150390625,6.909616088867188,6.429156494140625
12.778999999999996,-0.2548095703125,7.207192993164063,5.3421783447265625
12.788999999999994,0.07596435546875,7.577444458007813,3.9015472412109378
12.799,0.26019287109375,8.2316650390625,4.746426391601563
12.808999999999996,0.0865814208984375,8.709133911132813,6.289190673828125
12.818999999999996,0.322698974609375,8.221945190429688,6.6609375
12.829,0.5498443603515626,7.654306030273438,6.337490844726563
12.839,0.6027801513671875,7.175790405273438,6.328219604492188
12.848999999999997,0.170770263671875,5.62076416015625,6.004772949218751
12.858999999999996,-0.0300567626953125,5.330813598632813,5.404086303710938
12.869,-0.3381011962890625,7.78245849609375,4.478756713867188
12.878999999999998,-0.6231170654296876,11.335287475585938,4.043008422851563
12.888999999999996,0.1160400390625,10.87232360839844,5.278924560546876
12.898999999999994,0.1789947509765625,9.388775634765626,6.67349853515625
12.909999999999997,0.6136962890625001,7.361813354492188,8.631524658203126
12.919999999999996,0.439337158203125,5.628689575195313,8.250057983398438
12.93,-0.0162994384765625,6.130831909179688,4.304547119140626
12.939999999999998,-0.1377227783203125,7.640847778320313,3.2778320312500004
12.949999999999996,0.4897308349609375,8.711376953125,4.8246337890625
12.96,1.439434814453125,8.223141479492188,6.619366455078126
12.97,0.5203857421875,7.611389160156251,8.003771972656251
12.979999999999997,0.322100830078125,8.297760009765625,7.585968017578126
12.989999999999997,0.5259185791015626,8.969476318359376,6.372631835937501
13.0,-0.1664337158203125,8.714068603515626,4.458120727539063
13.009999999999998,-0.178546142578125,7.820141601562501,3.605764770507813
13.019999999999996,0.3964202880859375,6.903485107421876,5.1595947265625
13.029999999999994,0.11544189453125,6.770697021484375,6.537121582031251
13.04,-0.194696044921875,7.447796630859376,5.794525146484375
13.050999999999997,0.0393280029296875,8.676535034179688,5.1739501953125
13.061,0.2118927001953125,9.594985961914062,5.758038330078126
13.070999999999998,0.2836700439453125,8.976504516601564,5.714822387695313
13.080999999999996,0.0447113037109375,7.799505615234375,5.37432861328125
13.090999999999994,0.0049346923828125,7.089358520507813,6.331808471679688
13.101,0.1810882568359375,6.951785278320313,6.2808166503906255
13.110999999999995,0.0811981201171875,6.881054687500001,4.93529052734375
13.120999999999997,0.137872314453125,7.555462646484376,4.9828430175781255
13.131,0.194696044921875,8.314208984375,5.851647949218751
13.140999999999998,0.0402252197265625,8.374322509765626,5.899050903320313
13.150999999999996,-0.051739501953125,8.127587890625001,6.131130981445313
13.160999999999994,0.031402587890625,8.078240966796876,6.64957275390625
13.171,0.1327880859375,7.790533447265625,6.164776611328126
13.180999999999996,0.06160888671875,7.340579223632813,5.548388671875
13.190999999999995,0.26378173828125,6.82542724609375,5.451788330078125
13.201999999999998,0.65018310546875,5.555267333984375,4.947702026367188
13.211999999999996,0.7792327880859375,5.6636810302734375,4.869345092773438
13.221999999999994,-0.0354400634765625,8.341723632812501,5.156155395507813
13.232999999999995,-0.5628540039062501,12.187643432617188,4.9593658447265625
13.241999999999996,-0.268865966796875,11.79825134277344,4.789044189453126
13.251999999999995,1.603326416015625,9.144583129882813,6.425866699218751
13.262,2.088421630859376,6.055166625976563,9.485525512695313
13.271999999999998,0.7349700927734375,5.117575073242188,8.5379150390625
13.281999999999996,-1.5574188232421875,5.819348144531251,4.2924346923828125
13.291999999999994,-1.846173095703125,7.848553466796876,1.8363037109375
13.302,-0.3576904296875,9.310269165039063,4.636517333984376
13.311999999999998,0.252716064453125,8.58756103515625,8.534326171875001
13.321999999999996,-0.4418792724609375,7.599127197265625,9.476553344726565
13.332999999999998,-0.015850830078125,8.039511108398438,7.179827880859375
13.342999999999996,0.40255126953125,8.964840698242188,5.040264892578126
13.352999999999994,-0.1556671142578125,8.907418823242189,4.0232696533203125
13.363,-0.1538726806640625,8.079885864257813,3.2479248046875004
13.372999999999998,0.2483795166015625,6.7147705078125,4.591357421875
13.382999999999996,1.1165863037109376,6.368743896484376,6.757687377929688
13.393,0.7176239013671876,7.171603393554688,7.123004150390625
13.403,-0.27933349609375,8.834744262695313,5.313916015625001
13.412999999999997,-0.0997406005859375,9.932489013671876,4.8365966796875
13.422999999999996,0.4209442138671875,9.239837646484377,6.0484375
13.433999999999996,0.42528076171875,7.401889038085938,6.10526123046875
13.442999999999998,0.0937591552734375,6.5858703613281255,5.7601318359375
13.452999999999996,0.0569732666015625,6.9866271972656255,6.214422607421875
13.462999999999994,0.015252685546875,7.298110961914063,5.240643310546876
13.473,0.104376220703125,7.788290405273438,3.85205078125
13.482999999999995,0.226995849609375,8.319442749023438,5.345767211914063
13.493000000000002,0.173162841796875,8.455670166015626,7.087564086914063
13.503999999999998,0.117535400390625,7.921975708007813,6.647329711914063
13.514000000000005,0.4290191650390625,7.913452148437501,6.172552490234375
13.523999999999994,0.5295074462890625,7.8868347167968755,6.319546508789063
13.534,0.060711669921875,7.450787353515626,5.400347900390625
13.544000000000004,-0.1712188720703125,7.260427856445313,4.819400024414063
13.553999999999997,0.0004486083984375,6.369491577148438,5.615081787109375
13.564,0.173760986328125,5.596539306640626,5.524313354492188
13.573999999999993,-0.260491943359375,6.727481079101563,4.9245239257812505
13.583999999999996,-1.16578369140625,9.56373291015625,4.517486572265625
13.594,-0.3983642578125,11.7655029296875,5.08123779296875
13.603999999999992,0.3409423828125,10.994644165039062,5.83250732421875
13.613999999999995,0.4269256591796875,8.339031982421876,7.377215576171875
13.624999999999991,1.2910949707031252,5.92222900390625,9.366195678710938
13.634999999999998,0.92891845703125,5.634072875976563,7.956668090820313
13.645000000000003,-0.2429962158203125,6.554318237304688,3.567034912109375
13.654999999999994,-0.8107849121093751,7.915097045898438,2.0157470703125
13.665,1.1592041015625,8.898446655273439,5.8670501708984375
13.675000000000004,1.9400817871093752,8.906970214843751,7.841824340820313
13.684999999999995,0.0079254150390625,7.926162719726563,6.944158935546875
13.695,0.100189208984375,8.321536254882814,6.788043212890625
13.704999999999991,0.570928955078125,8.845510864257813,6.901242065429688
13.714999999999996,-0.4577301025390625,8.151663208007813,4.0975891113281255
13.725,-0.6099578857421876,7.067376708984376,2.8395416259765627
13.734999999999992,0.17406005859375,7.0225158691406255,5.438629150390625
13.744999999999996,0.5432647705078125,7.123004150390625,6.839633178710938
13.755000000000004,0.0354400634765625,7.558453369140626,5.463452148437501
13.764999999999992,-0.16688232421875,8.879605102539063,5.541061401367188
13.775,0.258099365234375,9.750503540039062,6.622955322265626
13.785999999999994,0.2896514892578125,8.897250366210939,5.518182373046876
13.796,-0.0901702880859375,7.457516479492188,4.883102416992188
13.80599999999999,0.0509918212890625,6.698620605468751,6.4850830078125
13.815999999999995,0.3010162353515625,6.50841064453125,6.2568908691406255
13.826,0.151629638671875,6.8834472656250005,4.536776733398438
13.835999999999991,0.2032196044921875,7.986126708984376,4.883251953125001
13.845999999999997,0.0701324462890625,8.909063720703125,5.823236083984376
13.856000000000002,-0.192901611328125,8.615524291992188,6.147879028320313
13.865999999999993,-0.088824462890625,8.014688110351564,6.854287719726563
13.875999999999998,0.317913818359375,7.629034423828125,7.195080566406251
13.886000000000005,0.6703704833984375,6.222198486328126,5.668017578125
13.895999999999994,0.9583770751953126,4.514047241210938,4.0830841064453125
13.906,0.5106658935546875,5.679830932617188,4.332510375976563
13.916999999999994,-0.646893310546875,10.76181640625,4.892822265625
13.927,-0.923834228515625,13.2321533203125,4.4195404052734375
13.93699999999999,0.6836791992187501,10.605999755859376,4.950543212890626
13.946999999999996,2.8195037841796875,7.578491210937501,8.833547973632813
13.957,2.070477294921876,5.7843566894531255,11.323922729492187
13.966999999999992,0.1353302001953125,4.912710571289063,6.658245849609376
13.976999999999997,-2.3113800048828126,6.235955810546876,1.160400390625
13.987000000000002,-2.301809692382813,8.590103149414062,0.990826416015625
13.996999999999993,-0.262884521484375,9.450833129882811,7.76212158203125
14.006999999999998,0.6276031494140626,8.199215698242188,8.543597412109376
14.017000000000005,-0.8326171875,7.220053100585938,9.254940795898438
14.026999999999994,-0.8350097656250001,8.38897705078125,7.4361328125
14.037,0.12860107421875,9.526947021484377,5.0964904785156255
14.047000000000004,-0.75784912109375,8.621804809570314,2.818307495117188
14.058,-0.07357177734375,7.6072021484375005,3.3466186523437504
14.06799999999999,1.6882629394531252,6.345565795898438,5.9652954101562505
14.077999999999996,1.299169921875,6.193487548828125,6.763967895507813
14.088,0.1543212890625,7.513442993164063,5.851947021484375
14.097999999999992,-0.5479003906250001,9.970172119140626,4.982992553710938
14.107999999999995,0.161798095703125,10.294665527343753,5.479452514648438
14.118000000000002,0.8282806396484376,8.489166259765625,5.935238647460938
14.127999999999991,0.2561553955078125,6.797912597656251,5.974566650390625
14.137999999999998,-0.1643402099609375,6.77518310546875,6.448446655273438
14.148000000000003,-0.1128997802734375,6.896755981445313,6.009259033203126
14.157999999999994,0.1407135009765625,7.110443115234376,4.223797607421876
14.168,0.264080810546875,8.0294921875,4.29766845703125
14.178000000000004,0.245538330078125,8.700460815429688,6.069522094726563
14.187999999999995,-0.091815185546875,8.250955200195314,6.7985107421875
14.198,0.377728271484375,7.7746826171875005,6.8140625
14.207999999999991,0.9226379394531252,7.984780883789063,6.515887451171875
14.219,0.465057373046875,7.683316040039063,5.8217407226562505
14.228999999999992,-0.334661865234375,7.099826049804688,5.017834472656251
14.238999999999995,-0.4296173095703125,5.4852844238281255,4.550534057617188
14.249000000000002,0.1407135009765625,4.9503936767578125,4.799810791015625
14.258999999999991,0.1514801025390625,7.598828125000001,5.071966552734375
14.268999999999998,-0.5725738525390626,12.271832275390626,4.995404052734376
14.279000000000003,-0.11544189453125,12.287683105468751,5.551828002929688
14.288999999999994,0.4963104248046875,9.532330322265626,6.9432617187500005
14.299,1.143951416015625,6.469381713867188,9.61023864746094
14.30899999999999,0.8593841552734376,5.071817016601563,8.228375244140626
14.318999999999996,-0.5130584716796875,5.666821289062501,3.454733276367188
14.329,-0.9281707763671876,7.794869995117188,1.9810546875
14.338999999999992,0.5157501220703126,8.715563964843751,5.3312622070312505
14.350999999999992,1.722955322265625,8.738442993164064,7.225585937500001
14.359999999999992,0.5147033691406251,8.037417602539064,8.427557373046875
14.369999999999996,-0.4170562744140625,8.535073852539064,8.003472900390626
14.380000000000004,-0.672314453125,8.890371704101563,6.451736450195313
14.389999999999992,0.0435150146484375,8.392117309570313,4.192395019531251
14.4,-0.2833709716796875,7.266708374023438,2.942721557617188
14.410000000000004,0.6784454345703126,6.778921508789063,4.708444213867188
14.419999999999996,0.905889892578125,6.769500732421876,6.801052856445313
14.43,0.2504730224609375,7.4771057128906255,6.069223022460938
14.43999999999999,-0.0055328369140625,8.97635498046875,5.103817749023438
14.451,0.3351104736328125,10.254290771484376,5.800357055664063
14.46,0.2854644775390625,9.41285095214844,6.042306518554688
14.469999999999992,-0.08194580078125,7.51329345703125,5.122659301757813
14.479999999999997,-0.0300567626953125,6.6645263671875,5.655307006835938
14.490000000000002,0.149237060546875,6.084027099609376,6.766510009765626
14.500999999999998,-0.1640411376953125,6.554019165039063,5.352795410156251
14.511000000000005,-0.1837799072265625,7.782009887695313,4.049288940429688
14.520999999999994,0.1568634033203125,9.024356079101564,5.094097900390626
14.531,0.0249725341796875,8.657394409179688,6.732864379882813
14.541000000000004,-0.1622467041015625,8.197720336914063,7.150817871093751
14.550999999999997,0.229388427734375,7.737149047851563,6.977206420898438
14.561,0.478216552734375,7.507611083984376,6.282611083984375
14.57099999999999,0.419598388671875,6.832904052734375,5.189501953125
14.580999999999996,0.539227294921875,5.572763061523438,3.986334228515626
14.591,0.7786346435546876,4.979254150390625,3.74498291015625
14.600999999999992,0.3877471923828125,7.07066650390625,4.6273956298828125
14.610999999999995,-0.775494384765625,12.207830810546875,4.961907958984376
14.621000000000002,-0.2883056640625,13.811007690429689,5.98443603515625
14.630999999999991,1.6794403076171875,10.649664306640624,7.410861206054688
14.640999999999998,1.8339111328125,6.160140991210938,9.413299560546877
14.651999999999994,1.1333343505859377,4.535729980468751,9.769793701171876
14.662,-0.8276824951171876,4.424923706054688,5.092453002929688
14.672000000000004,-2.3568389892578128,6.606356811523438,0.2896514892578125
14.681999999999997,-2.18203125,8.491708374023439,1.4359954833984376
14.692,0.680389404296875,10.119110107421877,8.742779541015626
14.701999999999993,0.8451782226562501,8.615374755859376,9.894955444335938
14.711999999999996,-0.9024505615234376,7.752401733398438,8.97156982421875
14.722,-0.0916656494140625,9.143087768554688,6.186608886718751
14.731999999999992,0.430963134765625,8.887231445312501,4.721752929687501
14.741999999999996,-0.6063690185546875,7.497293090820313,2.720062255859375
14.752000000000002,0.1380218505859375,6.832455444335938,3.199325561523438
14.761999999999992,1.7356658935546876,6.487176513671876,5.9276123046875
14.771999999999998,0.95164794921875,6.634170532226563,6.637310791015626
14.782000000000004,-0.313427734375,8.147476196289062,5.654110717773438
14.793,-0.2035186767578125,10.361358642578123,5.742935180664063
14.803000000000004,0.4056915283203125,10.147671508789063,6.470578002929688
14.812999999999995,0.338250732421875,7.706344604492188,5.859124755859376
14.823,0.0895721435546875,6.376370239257813,5.907574462890626
14.832999999999991,0.0255706787109375,6.767407226562501,6.810025024414063
14.842999999999996,-0.2809783935546875,6.880755615234375,5.232867431640625
14.853000000000002,-0.1646392822265625,7.416094970703125,3.15999755859375
14.862999999999992,0.474627685546875,8.521166992187501,4.629339599609375
14.872999999999998,0.1975372314453125,9.178826904296876,6.631927490234376
14.883000000000004,-0.1434051513671875,8.254992675781251,6.5499816894531255
14.892999999999994,0.3772796630859375,7.829412841796875,6.390725708007813
14.904000000000003,0.8028594970703126,7.629782104492188,6.955374145507813
14.913000000000004,0.1490875244140625,6.7339111328125005,5.997894287109375
14.922999999999996,-0.3736907958984375,5.068228149414063,4.0273071289062505
14.933,-0.2633331298828125,4.911663818359376,4.329968261718751
14.943999999999996,-1.5219787597656251,8.054913330078126,5.003179931640625
14.954,-1.343133544921875,12.070706176757811,4.6538635253906255
14.963999999999992,-0.2334259033203125,12.422564697265626,5.920733642578125
14.973999999999997,1.1121002197265626,10.131521606445313,7.773486328125
14.984000000000002,1.39786376953125,6.39775390625,9.749905395507811
14.993999999999993,1.7262451171875002,4.672854614257813,7.32547607421875
15.003999999999998,-0.109161376953125,5.036077880859375,3.886444091796875
15.014000000000005,-0.736614990234375,7.255194091796875,2.1930969238281253
15.023999999999994,0.463262939453125,9.177331542968751,4.771099853515626
15.034,2.3052490234375003,8.8944091796875,7.177435302734375
15.044000000000004,1.5221282958984377,8.299853515625001,8.325424194335938
15.053999999999997,-0.1179840087890625,8.784350585937501,7.654156494140626
15.064,-0.22669677734375,9.085366821289064,6.73331298828125
15.073999999999993,-0.5157501220703126,8.345761108398438,4.448251342773438
15.083999999999996,-0.7110443115234375,7.120462036132813,2.57261962890625
15.094999999999992,0.299969482421875,6.594842529296876,4.671060180664063
15.104999999999997,0.4729827880859375,6.805838012695313,7.128536987304688
15.115000000000002,0.0010467529296875,7.419085693359375,6.180178833007813
15.124999999999991,0.0880767822265625,8.893661499023438,5.138510131835938
15.134999999999998,0.9005065917968751,10.214065551757812,6.081185913085938
15.145000000000003,0.57122802734375,9.4159912109375,6.129635620117188
15.154999999999994,0.1638916015625,7.527499389648438,5.022470092773438
15.165,0.201275634765625,6.779968261718751,5.8271240234375
15.175000000000004,0.2956329345703125,6.573309326171875,6.345565795898438
15.184999999999995,-0.005084228515625,6.6875549316406255,4.539019775390625
15.195,-0.1849761962890625,7.438076782226563,4.488476562500001
15.204999999999991,-0.2211639404296875,8.577093505859375,5.851947021484375
15.214999999999996,-0.1878173828125,8.601916503906251,6.386239624023438
15.225999999999992,-0.2229583740234375,8.319442749023438,6.687255859375001
15.235999999999995,0.0761138916015625,8.228076171875001,6.823782348632813
15.246000000000002,-0.133685302734375,7.633819580078126,6.275881958007813
15.255999999999991,-0.53653564453125,7.085321044921876,5.568276977539063
15.265999999999998,0.060711669921875,7.0951904296875,5.259634399414063
15.276000000000003,0.484197998046875,6.158197021484376,4.5077667236328125
15.285999999999994,0.6509307861328125,5.046694946289063,3.765618896484375
15.296,0.75067138671875,6.517532348632813,4.937533569335938
15.30599999999999,-0.181536865234375,11.327362060546877,5.7474212646484375
15.315999999999995,-0.4071868896484375,13.61003112792969,6.228927612304688
15.326,1.484295654296875,10.762115478515623,6.497793579101563
15.335999999999991,2.3399414062500004,7.154705810546876,8.035772705078125
15.345999999999997,1.447509765625,4.8527465820312505,9.51468505859375
15.356000000000002,-0.7704101562500001,4.612890625,5.567678833007813
15.365999999999993,-1.9964569091796875,6.232666015625001,0.29608154296875
15.377000000000002,-1.307843017578125,8.772387695312501,2.9265716552734378
15.386999999999992,0.311932373046875,10.107894897460938,7.99180908203125
15.396999999999998,-0.7001281738281251,8.139700317382813,10.16068115234375
15.407000000000004,-0.8548980712890626,7.543649291992188,8.5666259765625
15.416999999999994,0.286810302734375,8.836688232421876,6.513793945312501
15.427,0.2627349853515625,8.8896240234375,4.8485595703125
15.43699999999999,-0.4821044921875,7.510153198242188,2.733969116210938
15.446999999999996,0.3792236328125,6.8176513671875005,3.2509155273437504
15.457,1.46246337890625,6.71177978515625,6.349154663085938
15.466999999999992,1.2788330078125,7.109695434570313,6.736901855468751
15.476999999999997,0.153125,8.343817138671875,5.560650634765626
15.487000000000002,0.0782073974609375,10.187298583984376,5.660690307617188
15.496999999999993,0.6593048095703126,10.022360229492188,6.451885986328126
15.506999999999998,0.326287841796875,7.79202880859375,5.475115966796875
15.517000000000005,-0.1232177734375,6.460110473632813,5.204605102539063
15.528,0.025421142578125,6.764865112304688,6.497344970703126
15.538000000000004,-0.2839691162109375,7.020123291015626,5.7065979003906255
15.547999999999996,-0.726446533203125,7.086367797851563,3.77548828125
15.558,-0.12261962890625,8.44400634765625,4.783511352539063
15.56799999999999,0.0847869873046875,9.009851074218751,7.048834228515625
15.577999999999996,-0.2328277587890625,8.47989501953125,6.5559631347656255
15.588,0.2989227294921875,7.720999145507813,6.106756591796875
15.597999999999992,1.1011840820312502,7.716064453125001,6.795968627929688
15.607999999999995,0.72913818359375,7.207791137695313,6.147430419921876
15.618000000000002,-0.1449005126953125,6.572860717773438,4.479953002929688
15.627999999999991,-0.3548492431640625,5.253802490234375,4.28271484375
15.637999999999998,0.262884521484375,5.432049560546876,5.024114990234375
15.648000000000003,-0.05203857421875,8.544644165039063,4.537374877929688
15.657999999999994,-0.474029541015625,12.15908203125,4.665228271484375
15.669000000000004,-0.154022216796875,12.497930908203124,6.2284790039062505
15.678999999999997,0.078057861328125,9.563583374023438,8.396902465820313
15.689,1.227392578125,6.4079223632812505,9.337783813476562
15.698999999999993,0.8200561523437501,4.69842529296875,7.614828491210938
15.708999999999996,-0.2954833984375,5.1503234863281255,3.928463745117188
15.719,-0.98753662109375,7.619912719726563,1.858135986328125
15.728999999999992,0.1063201904296875,8.809771728515626,4.397857666015625
15.738999999999995,2.142404174804688,9.051272583007814,7.121658325195313
15.749000000000002,1.0648468017578123,8.449240112304688,8.599972534179688
15.758999999999991,-0.078955078125,8.578289794921876,8.070465087890625
15.768999999999998,-0.0408233642578125,8.790182495117188,6.534280395507813
15.779000000000003,0.279931640625,8.174243164062501,4.5626464843750005
15.788999999999994,-0.256304931640625,7.037469482421876,2.9047393798828125
15.799,0.343634033203125,6.779818725585938,4.118075561523438
15.80899999999999,0.506329345703125,6.881802368164063,6.798809814453126
15.82,-0.019140625,7.339382934570313,6.601870727539063
15.829999999999991,-0.2583984375,9.083273315429688,4.919140625000001
15.839999999999996,0.2764923095703125,10.16651306152344,6.021221923828126
15.85,0.2292388916015625,9.26824951171875,6.725686645507813
15.859999999999992,-0.4287200927734375,7.384094238281251,5.098135375976563
15.869999999999996,-0.014654541015625,6.880905151367188,5.262326049804688
15.880000000000004,0.2947357177734375,6.609197998046875,6.594244384765625
15.889999999999992,-0.0375335693359375,6.525756835937501,5.1954833984375
15.9,0.153424072265625,7.367645263671876,4.161441040039063
15.910000000000004,0.5220306396484375,8.874371337890626,5.487527465820313
15.919999999999996,0.29488525390625,8.961849975585938,6.531439208984375
15.93,-0.1278533935546875,8.2795166015625,6.326126098632813
15.93999999999999,0.0402252197265625,7.939022827148438,6.700714111328126
15.951999999999993,0.3348114013671875,7.351046752929688,6.776678466796875
15.960999999999991,0.485394287109375,6.278573608398438,5.247372436523438
15.970999999999997,0.7137359619140625,4.851400756835938,3.670962524414063
15.981000000000002,0.714483642578125,5.771795654296875,3.67978515625
15.990999999999993,-0.4140655517578125,9.625341796875,4.990020751953125
16.000999999999998,-0.5417694091796875,12.961642456054689,5.6397552490234375
16.011000000000003,1.0424163818359375,11.332595825195312,6.165225219726563
16.020999999999994,2.015447998046876,8.109344482421875,7.677185058593751
16.031,1.1515777587890623,5.681924438476563,10.451229858398438
16.041000000000004,-0.4699920654296875,5.1392578125,7.350747680664063
16.052,-1.8415374755859373,6.085073852539063,1.2806274414062502
16.061,-1.4754730224609376,7.690045166015626,1.753759765625
16.07099999999999,0.0418701171875,9.723736572265626,6.392221069335938
16.080999999999996,-0.4366455078125,8.279367065429689,9.696820068359376
16.091,-0.7813262939453126,7.594192504882813,9.229818725585938
16.100999999999992,-0.2758941650390625,8.531784057617188,6.627441406250001
16.112000000000002,0.5208343505859375,9.394757080078126,4.879812622070313
16.121999999999993,0.1401153564453125,8.330957031250001,3.649429321289063
16.131999999999998,0.0877777099609375,7.009805297851563,3.545950317382813
16.142000000000003,0.625958251953125,6.270648193359375,5.660989379882813
16.151999999999994,1.5592132568359376,6.958065795898438,6.737799072265625
16.162,0.2498748779296875,7.91405029296875,6.199468994140625
16.172000000000004,-0.6639404296875,9.655697631835938,4.8342041015625
16.181999999999995,0.1604522705078125,10.12464294433594,5.721551513671876
16.192,0.5514892578125,8.463446044921875,6.4635498046875
16.20199999999999,0.1021331787109375,6.603515625000001,5.656951904296875
16.211999999999996,-0.0327484130859375,6.725985717773438,5.690597534179688
16.222,0.0155517578125,7.419085693359375,5.962454223632813
16.231999999999992,-0.402850341796875,7.293624877929688,4.629788208007813
16.243000000000002,0.0264678955078125,7.729074096679688,4.003530883789063
16.252999999999993,0.5330963134765625,8.675039672851563,6.0233154296875
16.262999999999998,0.2136871337890625,8.503372192382812,7.281063842773438
16.273000000000003,0.3031097412109375,7.843319702148438,6.258535766601563
16.282999999999994,0.9694427490234376,7.654006958007813,5.984286499023438
16.293,0.94686279296875,7.662081909179688,6.389678955078126
16.303000000000004,0.13876953125,7.249960327148438,5.6771392822265625
16.312999999999995,-0.2543609619140625,6.728527832031251,4.715472412109375
16.323,0.0892730712890625,5.729776000976563,4.919140625000001
16.33299999999999,0.4278228759765625,6.176290893554688,5.040863037109375
16.342999999999996,-0.4535430908203125,8.463595581054689,4.427764892578125
16.353,-0.7258483886718751,11.67981872558594,4.73551025390625
16.362999999999992,-0.2803802490234375,11.494094848632812,6.386538696289063
16.372999999999998,0.389990234375,9.206790161132814,7.359570312500001
16.383000000000003,1.175653076171875,6.422576904296876,8.867343139648439
16.394,0.77998046875,5.314663696289063,8.061343383789064
16.404000000000003,-1.0756134033203126,5.754150390625,4.3054443359375005
16.413999999999994,-1.0702301025390626,7.648922729492188,2.154367065429688
16.424,0.5621063232421876,8.684011840820313,5.1129394531250005
16.43399999999999,1.7730499267578126,8.982635498046875,7.526153564453126
16.443999999999996,0.2833709716796875,8.409613037109375,7.994351196289063
16.454,-0.234173583984375,8.409014892578126,7.210034179687501
16.46399999999999,0.7004272460937501,8.848352050781251,6.222348022460938
16.473999999999997,0.32718505859375,8.172149658203125,4.40892333984375
16.484,-0.6160888671875,7.101470947265626,3.4315551757812504
16.493999999999993,0.255706787109375,6.725686645507813,5.0161895751953125
16.503999999999998,0.599639892578125,7.043600463867188,6.535626220703126
16.514000000000003,0.140863037109375,7.668063354492188,5.822189331054688
16.523999999999994,-0.2534637451171875,8.860015869140625,5.568426513671875
16.535000000000004,-0.0865814208984375,9.822280883789062,6.30863037109375
16.544999999999995,0.177349853515625,9.065628051757812,5.792132568359375
16.555,0.2337249755859375,7.601071166992188,4.996002197265625
16.56499999999999,-0.0097198486328125,6.865802001953125,5.893218994140625
16.574999999999996,0.0107666015625,6.5963378906250005,6.186907958984375
16.585,0.2361175537109375,6.680825805664063,4.981048583984375
16.59499999999999,0.257501220703125,7.564285278320313,4.814913940429688
16.604999999999997,0.3096893310546875,8.6575439453125,5.5705200195312505
16.615000000000002,0.258099365234375,8.681021118164063,6.08612060546875
16.624999999999993,0.007177734375,8.326321411132813,6.772341918945313
16.634999999999998,0.2093505859375,7.904031372070313,7.0524230957031255
16.645000000000003,0.4451690673828125,7.386486816406251,6.004922485351563
16.654999999999994,0.3792236328125,6.539663696289063,5.215371704101563
16.665,0.641510009765625,4.867999267578125,4.41490478515625
16.675000000000004,0.8688049316406251,4.816558837890625,3.4333496093750004
16.686,-0.3551483154296875,9.55535888671875,4.14813232421875
16.69599999999999,-1.0492950439453126,13.92899169921875,5.806936645507813
16.705999999999996,0.4735809326171875,12.33314208984375,5.991763305664063
16.716,2.00438232421875,8.181121826171875,7.598678588867188
16.725999999999992,1.77529296875,5.566781616210938,11.476300048828126
16.735999999999997,0.1236663818359375,4.415203857421876,9.015383911132814
16.746000000000002,-1.7009735107421875,5.158847045898438,1.3244415283203126
16.755999999999993,-2.3620727539062503,7.483535766601563,-0.3811676025390625
16.766,-1.7406005859375002,9.757232666015623,3.467892456054688
16.776000000000003,1.5248199462890626,9.60904235839844,11.133413696289065
16.785999999999994,0.4427764892578125,7.468582153320313,9.110189819335938
16.796,-0.69683837890625,7.816851806640625,8.332003784179689
16.80599999999999,0.5625549316406251,9.43079528808594,5.881405639648438
16.817,-0.44801025390625,8.600271606445313,3.3807128906250004
16.82699999999999,-0.6418090820312501,7.168014526367188,2.165133666992188
16.836999999999996,0.964208984375,6.609497070312501,4.733416748046875
16.847,1.5918121337890627,6.544149780273438,7.0180297851562505
16.856999999999992,0.4308135986328125,7.282409667968751,6.166122436523438
16.866999999999997,-0.9615173339843752,9.433786010742187,4.95323486328125
16.877000000000002,0.028411865234375,10.614224243164063,6.173300170898438
16.886999999999993,0.7864105224609376,8.983383178710938,6.945205688476563
16.897,-0.0016448974609375,6.6166748046875,5.543304443359375
16.907000000000004,-0.102880859375,6.2030578613281255,5.896060180664063
16.916999999999994,0.1232177734375,7.054666137695313,6.872830200195313
16.927,-0.0471038818359375,7.485330200195313,4.625750732421875
16.93699999999999,-0.3638214111328125,8.110092163085938,2.804550170898437
16.946999999999996,0.5689849853515625,8.9685791015625,4.97955322265625
16.957,0.6186309814453126,8.862557983398439,7.427758789062499
16.969,-0.0270660400390625,7.743878173828126,6.880007934570313
16.978,0.413018798828125,7.37332763671875,5.7409912109375005
16.987999999999992,1.024322509765625,7.284054565429688,6.619366455078126
16.997999999999998,0.438140869140625,7.447198486328125,6.397604370117188
17.008000000000003,-0.33795166015625,6.370687866210938,4.485934448242188
17.017999999999994,-0.1706207275390625,5.1488281250000005,4.233966064453125
17.028,-0.1052734375,6.072512817382813,5.669363403320313
17.038000000000004,-0.404644775390625,10.03507080078125,4.954730224609375
17.047999999999995,-0.9486572265625,12.507501220703126,4.488626098632813
17.058,-0.3016143798828125,11.24212646484375,5.763571166992188
17.068999999999996,0.5444610595703125,8.407669067382812,8.356826782226562
17.077999999999996,1.3824615478515625,5.63751220703125,9.862506103515626
17.088,0.4661041259765625,4.490719604492188,6.815258789062501
17.097999999999992,-0.6874176025390626,5.916845703125,2.1920501708984377
17.107999999999997,-0.8740386962890626,8.693133544921876,2.654415893554688
17.118999999999993,1.2598419189453125,9.293521118164064,5.948846435546876
17.128999999999998,2.266668701171876,8.514736938476563,7.689895629882813
17.139000000000003,0.8910858154296876,7.903582763671875,8.524157714843751
17.148999999999994,0.2157806396484375,8.73291015625,7.76810302734375
