time,ax,ay,az
0.0,-0.4510009765625,7.613781738281251,5.836843872070313
0.0100000000000477,-0.7288391113281251,7.670156860351563,5.572763061523438
0.0200000000000315,-0.73870849609375,7.720401000976563,5.372982788085938
0.0300000000000366,-0.5979949951171876,7.854833984375,5.442068481445313
0.0410000000000536,-0.4502532958984375,7.865301513671875,5.767608642578125
0.0510000000000445,-0.094207763671875,7.8748718261718755,6.112588500976563
0.0610000000000354,0.31402587890625,7.996893310546875,6.282461547851563
0.0710000000000263,0.5674896240234375,7.927059936523438,6.032437133789063
0.0810000000000172,0.7391571044921875,7.916143798828125,5.562594604492188
0.0910000000000081,1.09281005859375,6.620562744140625,5.556463623046875
0.1010000000000062,1.253411865234375,2.824737548828125,4.081289672851563
0.1110000000000468,0.24224853515625,4.35269775390625,2.25081787109375
0.1210000000000377,0.542218017578125,12.252990722656252,6.096737670898438
0.1310000000000357,0.7137359619140625,14.095275878906252,6.825875854492188
0.1410000000000266,-0.0405242919921875,12.847695922851564,4.106112670898438
0.1510000000000104,2.122515869140625,7.97506103515625,12.032125854492188
0.1610000000000013,1.6164855957031252,6.052774047851563,15.080270385742187
0.1710000000000491,-0.3796722412109375,3.424676513671875,3.940426635742188
0.18100000000004,-1.5776062011718752,3.7564971923828128,-1.4670989990234375
0.191000000000038,-2.43504638671875,8.39794921875,0.5235260009765625
0.2019999999999981,-1.8310699462890627,11.173190307617189,8.334246826171876
0.2120000000000459,-0.296380615234375,8.669805908203125,5.169314575195313
0.2220000000000368,-0.0764129638671875,8.766854858398439,5.779421997070313
0.2320000000000277,0.5034881591796876,9.1121337890625,12.050967407226564
0.2420000000000186,-1.035687255859375,7.169659423828126,8.754742431640626
0.2520000000000095,-1.5334930419921875,6.395510864257813,-0.228790283203125
0.2620000000000004,-0.275445556640625,7.157247924804688,1.863818359375
0.2720000000000482,2.3281280517578127,8.36146240234375,8.779864501953126
0.282000000000032,1.313226318359375,6.487774658203126,6.05621337890625
0.2920000000000371,0.3049041748046875,7.478750610351563,3.1208190917968754
0.302000000000028,1.3393951416015626,10.686151123046876,6.290386962890626
0.3120000000000118,1.7679656982421876,10.4041259765625,7.648773193359376
0.3220000000000027,0.8317199707031251,7.120611572265625,4.579095458984376
0.3320000000000505,-0.100787353515625,6.104214477539063,4.918093872070313
0.3430000000000177,-0.102581787109375,6.569570922851563,7.88773193359375
0.3530000000000015,-0.5839385986328125,6.966140747070313,5.853292846679688
0.3629999999999995,-0.95284423828125,7.0951904296875,3.480303955078125
0.3730000000000473,-0.978863525390625,8.543447875976563,5.2938781738281255
0.3830000000000382,-0.4391876220703125,8.897549438476563,7.54080810546875
0.3930000000000362,-0.2074066162109375,8.337088012695313,7.283905029296876
0.4030000000000271,-0.1686767578125,7.529144287109376,6.429306030273438
0.4130000000000109,0.085833740234375,6.339584350585938,5.524911499023438
0.424000000000035,0.0803009033203125,2.744735717773437,3.889434814453125
0.4330000000000495,-0.2241546630859375,4.16009521484375,2.3865966796875
0.4430000000000405,-0.4981048583984375,13.012634277343752,4.6587982177734375
0.4530000000000385,-0.0994415283203125,15.645965576171877,5.97666015625
0.4630000000000223,1.54500732421875,11.9975830078125,4.809231567382813
0.4740000000000464,3.474472045898438,7.808178710937501,11.058645629882813
0.4840000000000373,2.07735595703125,5.7399444580078125,15.145169067382811
0.4940000000000282,0.5178436279296875,1.940231323242188,6.376071166992188
0.5040000000000191,-2.0523834228515625,4.159347534179688,-2.063897705078125
0.51400000000001,-3.476715087890625,7.88115234375,-0.45399169921875
0.5240000000000009,-2.202218627929688,11.084963989257814,3.744235229492188
0.5340000000000487,2.478411865234375,9.77607421875,13.298846435546876
0.5440000000000396,1.4078826904296875,8.260076904296875,6.372930908203125
0.5540000000000376,0.6488372802734376,9.018673706054688,10.341769409179689
0.5640000000000285,0.74588623046875,8.442361450195314,6.159542846679688
0.5740000000000123,-1.015350341796875,6.20694580078125,0.7734008789062501
0.5840000000000032,-0.4323089599609375,6.7428833007812505,1.7875549316406252
0.5940000000000509,2.160797119140625,8.106204223632814,7.554714965820313
0.6050000000000182,1.4062377929687502,6.792977905273438,6.752902221679688
0.6140000000000327,0.0381317138671875,7.328616333007813,3.752609252929688
0.625,0.1780975341796875,10.831051635742188,5.7892913818359375
0.6350000000000477,1.1086608886718752,10.8611083984375,7.674642944335938
0.6450000000000315,-0.14295654296875,7.259530639648438,5.534481811523438
0.6550000000000367,-0.6104064941406251,5.6262969970703125,5.057461547851563
0.6660000000000537,-0.2142852783203125,6.333004760742188,7.100424194335938
0.6750000000000114,-0.4891326904296875,6.651217651367188,6.0484375
0.6850000000000023,-0.98992919921875,7.108798217773438,3.295477294921876
0.69500000000005,-0.75784912109375,8.788088989257814,4.018634033203125
0.7050000000000409,0.3521575927734375,9.175686645507811,7.272839355468751
0.7150000000000318,0.4498046875,8.133120727539064,8.694180297851563
0.7250000000000227,0.1338348388671875,7.594790649414063,7.079339599609376
0.7350000000000136,0.6787445068359376,8.067474365234375,5.151370239257813
0.7450000000000045,1.182681274414063,7.500732421875001,4.9442626953125
0.7550000000000523,1.1094085693359377,4.932598876953126,5.088565063476563
0.7670000000000528,0.547003173828125,3.5332397460937504,3.7439361572265626
0.7760000000000105,0.0399261474609375,6.929953002929688,3.253158569335938
0.7860000000000014,-0.38699951171875,12.6423828125,4.673153686523438
0.7960000000000491,0.338848876953125,14.736785888671877,4.96519775390625
0.80600000000004,1.9264739990234376,10.811761474609376,7.007861328125
0.816000000000038,1.3088897705078126,6.798959350585938,11.348446655273438
0.8260000000000218,1.6105041503906252,5.295971679687501,11.485720825195314
0.8360000000000127,0.033795166015625,3.541763305664063,5.954977416992188
0.8460000000000036,-2.21492919921875,5.114285278320313,-0.2693145751953125
0.8560000000000514,-2.8378967285156254,8.318096923828126,1.329376220703125
0.8670000000000186,-1.2457855224609375,10.349545288085938,7.221997070312501
0.8760000000000332,0.8683563232421876,9.490460205078126,10.51837158203125
0.8860000000000241,-0.99471435546875,7.666567993164063,7.857077026367188
0.8970000000000482,-0.474029541015625,8.756088256835938,6.596636962890625
0.907000000000032,0.2477813720703125,8.607449340820313,5.041909790039063
0.9170000000000372,-0.1978363037109375,6.9671875000000005,3.141754150390625
0.9260000000000446,0.054132080078125,6.426016235351563,3.141754150390625
0.9370000000000118,1.107913208007813,7.079339599609376,5.4825927734375
0.9470000000000028,1.753460693359375,7.341177368164063,6.613385009765626
0.9570000000000504,0.28172607421875,8.448492431640625,5.860171508789063
0.9670000000000414,-0.7579986572265626,9.9280029296875,5.791983032226563
0.9770000000000324,0.5193389892578125,10.26416015625,6.807931518554688
0.9870000000000232,0.7765411376953125,8.113082885742188,6.525308227539063
0.997000000000014,-0.118133544921875,6.3481079101562505,5.222848510742188
1.007000000000005,-0.4574310302734375,5.975164794921875,5.64349365234375
1.0170000000000528,-0.2507720947265625,6.49345703125,5.825927734375
1.0270000000000437,0.0288604736328125,7.143341064453126,4.114636230468751
1.0370000000000346,0.3473724365234375,8.457315063476564,3.5606048583984378
1.0480000000000018,0.3964202880859375,9.20948181152344,5.930154418945313
1.0580000000000496,0.22071533203125,8.85074462890625,8.035922241210939
1.0680000000000405,0.4248321533203125,7.994351196289063,7.586117553710938
1.0780000000000385,0.6047241210937501,7.68077392578125,6.0352783203125
1.0880000000000225,0.5912658691406251,7.106854248046876,5.802151489257813
1.0980000000000132,-0.142059326171875,6.0774475097656255,5.850003051757813
1.108000000000004,-0.6509307861328125,4.562796020507813,4.7385009765625
1.1180000000000518,-0.5939575195312501,3.984091186523438,2.866009521484376
1.1280000000000427,-1.1838775634765626,9.818991088867188,2.8346069335937503
1.1380000000000337,-0.2009765625,15.02165222167969,6.145785522460938
1.1480000000000246,-0.47552490234375,12.7919189453125,5.96170654296875
1.1580000000000157,0.5310028076171875,8.530886840820314,8.071212768554688
1.1680000000000064,2.816961669921876,5.909518432617188,13.974600219726565
1.178000000000054,1.3992095947265626,4.430905151367188,9.733755493164065
1.1890000000000285,-1.3613769531250002,3.49794921875,0.1643402099609375
1.1990000000000125,-2.32738037109375,6.359771728515626,-0.7128387451171876
1.2090000000000032,-2.0737670898437504,10.437472534179689,3.223251342773438
1.219000000000051,2.627947998046875,10.380349731445314,11.163320922851565
1.2290000000000418,2.400054931640625,8.050277709960938,5.31571044921875
1.2390000000000327,1.4591735839843751,9.108245849609377,8.919232177734376
1.2490000000000236,0.8073455810546876,9.543096923828124,9.355728149414062
1.2590000000000146,-0.6434539794921875,7.363159179687501,3.4512939453125004
1.2690000000000057,-1.4081817626953126,5.7758331298828125,-0.4442718505859375
1.2790000000000532,1.05093994140625,7.358822631835938,5.288345336914063
1.289000000000044,1.0920623779296876,6.956869506835938,9.139199829101564
1.299000000000035,-0.0880767822265625,6.46953125,3.8747802734375
1.309000000000026,-0.3055023193359375,9.535919189453123,4.127944946289063
1.3190000000000168,0.7093994140625001,11.414840698242188,8.26575927734375
1.3290000000000075,0.29608154296875,9.36455078125,7.191192626953126
1.3400000000000318,-0.3961212158203125,6.671853637695313,4.637564086914063
1.3500000000000227,0.2124908447265625,6.114831542968751,6.5380187988281255
1.3600000000000136,0.2213134765625,6.000436401367188,7.156799316406251
1.3700000000000043,-0.3150726318359375,6.481344604492188,3.581539916992188
1.3800000000000523,-0.4945159912109375,7.748962402343751,2.58697509765625
1.3900000000000432,0.1383209228515625,9.452926635742188,5.424273681640625
1.400000000000034,0.356494140625,8.689993286132813,7.60361328125
1.410000000000025,0.4661041259765625,7.107302856445313,7.758233642578125
1.420000000000016,0.7789337158203126,5.625250244140625,7.047488403320313
1.4300000000000068,0.9031982421875,6.188552856445313,5.8474609375
1.4399999999999975,0.18363037109375,8.519372558593751,4.635470581054688
1.4500000000000457,-0.480609130859375,10.679122924804688,3.6751495361328126
1.4600000000000364,0.0695343017578125,10.150662231445311,3.613540649414063
1.4700000000000273,2.0947021484375004,8.317349243164063,5.9443603515625005
1.4800000000000182,1.1016326904296876,6.777426147460938,9.761868286132811
1.4910000000000423,0.0518890380859375,6.598431396484376,8.135214233398438
1.5010000000000332,-1.2078033447265626,7.0105529785156255,4.127645874023438
1.511000000000024,-1.2314300537109375,8.275180053710939,3.1816802978515626
1.521000000000015,-0.389990234375,8.854183959960938,5.8456665039062505
1.531000000000006,-0.27215576171875,7.246371459960938,8.05042724609375
1.5410000000000537,-0.490179443359375,6.8463623046875,7.6819702148437505
1.5510000000000446,-0.3231475830078125,7.638455200195313,6.451885986328126
1.5610000000000357,0.5583679199218751,9.151611328125,5.264569091796876
1.5710000000000264,0.2779876708984375,9.222341918945313,4.122262573242188
1.5810000000000173,0.021533203125,8.207589721679689,4.153515625000001
1.5910000000000082,0.362774658203125,6.94266357421875,6.263619995117188
1.6010000000000062,1.118829345703125,6.814810180664063,7.124050903320313
1.6110000000000468,0.5244232177734376,7.269848632812501,6.378613281250001
1.622000000000014,-0.4394866943359375,8.535372924804689,4.906130981445313
1.632000000000005,-0.2274444580078125,9.301296997070311,4.9945068359375
1.6420000000000528,0.2681182861328125,8.640945434570312,5.49395751953125
1.6520000000000437,0.1033294677734375,7.408468627929688,5.818002319335938
1.6620000000000346,-0.117236328125,7.1017700195312505,6.596487426757813
1.6720000000000257,-0.30206298828125,7.680026245117188,6.519326782226563
1.6820000000000164,-0.099591064453125,8.237048339843751,4.8153625488281255
1.6920000000000073,0.22669677734375,8.087063598632813,4.073812866210938
1.7019999999999982,0.3485687255859375,7.770645141601563,5.277728271484375
1.712000000000046,0.1460968017578125,7.455123901367188,6.555364990234375
1.7220000000000368,0.37802734375,7.310971069335938,6.471624755859375
1.7320000000000275,0.8707489013671875,7.490264892578126,6.127243041992188
1.7420000000000186,1.0226776123046877,8.113082885742188,5.938677978515625
1.7520000000000095,0.5324981689453125,8.253048706054688,5.830563354492188
1.7620000000000005,-0.0782073974609375,7.753897094726563,5.750711059570313
1.7730000000000246,-0.3069976806640625,5.827871704101563,5.743981933593751
1.7830000000000157,0.10706787109375,5.445806884765625,5.429208374023438
1.7930000000000064,-0.283221435546875,6.917242431640625,4.664181518554688
1.803000000000054,-0.8885437011718751,10.43702392578125,3.9114166259765626
1.813000000000045,-0.962713623046875,12.224429321289064,4.629788208007813
1.823000000000036,-0.3162689208984375,9.923815917968753,5.953033447265625
1.8330000000000268,0.8903381347656251,7.098629760742188,8.715264892578126
1.8430000000000173,1.380517578125,5.789889526367188,10.955316162109376
1.853000000000001,0.09510498046875,5.312271118164063,6.7279296875000005
1.8629999999999995,-1.280926513671875,6.467288208007813,1.1595031738281252
1.8730000000000475,-0.409130859375,9.100918579101563,3.043508911132813
1.8840000000000143,2.196237182617188,9.6672119140625,7.062741088867188
1.893000000000036,1.7367126464843752,7.881451416015626,7.816403198242188
1.9040000000000528,0.3050537109375,7.366748046875,6.973617553710938
1.914000000000044,0.66932373046875,8.839828491210938,7.305737304687501
1.924000000000035,0.31641845703125,9.224285888671876,5.617025756835938
1.934000000000026,-0.675604248046875,7.846011352539063,2.5516845703125
1.9440000000000168,-0.454888916015625,7.475909423828125,3.490921020507813
1.954000000000008,0.2447906494140625,7.06827392578125,7.060049438476563
1.9640000000000053,0.4373931884765625,6.550430297851563,6.993655395507813
1.9740000000000464,-0.406439208984375,7.397702026367188,5.264419555664063
1.9840000000000373,-0.2863616943359375,9.625790405273438,5.8426757812500005
1.994000000000028,0.419598388671875,9.9878173828125,5.987127685546875
2.004000000000019,0.18243408203125,8.422323608398438,4.701416015625
2.01400000000001,0.231781005859375,7.156799316406251,5.636166381835938
2.024000000000001,0.42767333984375,6.389080810546876,7.155453491210938
2.0340000000000487,0.3043060302734375,6.223394775390625,5.670559692382813
2.045000000000016,0.1748077392578125,7.048684692382813,4.327725219726563
2.0540000000000376,0.251220703125,8.487371826171875,5.055816650390625
2.0649999999999977,0.158807373046875,8.744873046875,5.97247314453125
2.075000000000045,-0.2283416748046875,8.267852783203125,6.4874755859375
2.0850000000000364,-0.1158905029296875,7.815505981445313,7.324130249023438
2.095000000000028,0.69803466796875,6.411062622070313,6.729275512695313
2.105000000000018,0.7775878906250001,5.009759521484376,4.643994140625001
2.115000000000002,0.1520782470703125,6.187057495117188,4.217068481445313
2.125,-0.6854736328125001,10.29690856933594,4.8322601318359375
2.135000000000048,-0.5084228515625,12.014480590820312,3.814517211914063
2.1450000000000315,0.5360870361328125,9.947741699218753,4.5088134765625005
2.1550000000000367,2.1947418212890626,7.972817993164063,9.155499267578126
2.165000000000028,0.9854431152343752,6.639553833007813,10.839126586914062
2.175000000000012,-0.1484893798828125,5.598184204101563,6.289788818359376
2.1860000000000355,-1.4889312744140626,5.852545166015625,2.3578857421875004
2.1960000000000264,-0.926824951171875,8.361611938476564,2.8570373535156253
2.2060000000000173,0.2881561279296875,9.233108520507812,6.148626708984375
2.216000000000008,-0.1419097900390625,7.675540161132813,8.431893920898439
2.226000000000006,-0.366363525390625,7.09219970703125,8.612084960937501
2.236000000000047,-0.371746826171875,8.495745849609376,6.804043579101563
2.2460000000000377,0.3976165771484375,9.616519165039064,4.804745483398438
2.256000000000036,-0.1658355712890625,8.750555419921875,3.6721588134765626
2.2670000000000528,-0.1769012451171875,7.511798095703125,3.711636352539063
2.2760000000000105,0.5052825927734376,6.558505249023438,5.917144775390625
2.2860000000000014,1.2492248535156252,6.449343872070313,7.165173339843751
2.296000000000049,0.2483795166015625,7.300354003906251,5.944659423828125
2.30600000000004,-0.4305145263671875,9.244921875,4.9586181640625
2.316000000000038,0.225799560546875,9.987518310546877,5.7828613281250005
2.326000000000022,0.7400543212890626,8.635263061523439,5.98802490234375
2.337000000000046,0.021832275390625,7.03836669921875,5.777029418945313
2.347000000000037,-0.256304931640625,6.864007568359376,6.770846557617188
2.357000000000028,-0.4059906005859375,7.404580688476563,6.37083740234375
2.367000000000018,-0.1963409423828125,7.676437377929688,3.800311279296875
2.377000000000009,0.3282318115234375,7.914199829101563,3.633428955078125
2.3870000000000005,0.437841796875,8.272937011718751,6.0233154296875
2.397000000000048,-0.139666748046875,7.924517822265625,6.945654296875
2.407000000000032,0.445318603515625,7.654605102539063,6.180178833007813
2.417000000000037,0.9302642822265624,7.778271484375001,6.469381713867188
2.427000000000028,0.8701507568359376,7.981491088867188,6.626843261718751
2.437000000000012,0.1646392822265625,7.647277832031251,5.430703735351563
2.4470000000000027,-0.1443023681640625,6.546841430664063,5.052377319335938
2.4570000000000505,0.1948455810546875,5.43414306640625,5.687307739257813
2.4680000000000177,0.2295379638671875,6.09927978515625,5.142547607421875
2.478000000000001,-0.4765716552734375,8.694778442382812,4.200469970703125
2.4879999999999995,-0.7170257568359375,11.468374633789065,4.599432373046875
2.498000000000048,-0.5181427001953125,11.579330444335938,5.3062896728515625
2.508000000000038,0.2417999267578125,9.019122314453126,7.106405639648438
2.518000000000036,1.392031860351563,6.480895996093751,9.678128051757811
2.528000000000027,0.6204254150390626,5.2792236328125,8.76221923828125
2.538000000000011,-0.8100372314453126,5.421282958984375,4.043157958984375
2.548000000000002,-1.0922119140625002,7.815505981445313,2.0224761962890625
2.5580000000000496,0.4448699951171875,9.2532958984375,5.018881225585938
2.5680000000000405,1.7921905517578127,8.663375854492188,7.36136474609375
2.5780000000000385,0.5118621826171875,7.497741699218751,7.96309814453125
2.5880000000000223,0.3739898681640625,8.196823120117188,7.632174682617188
2.598000000000013,0.7050628662109375,8.955569458007814,6.200216674804688
2.608000000000004,-0.1973876953125,8.608047485351562,3.5601562500000004
2.618000000000052,-0.3964202880859375,7.832702636718751,2.913262939453125
2.629000000000019,0.184527587890625,7.256539916992188,5.400946044921875
2.63900000000001,0.4062896728515625,6.483886718750001,6.839483642578125
2.649000000000001,0.0958526611328125,6.95701904296875,6.1345703125
2.6590000000000487,-0.094805908203125,8.676535034179688,6.033782958984375
2.66900000000004,0.0949554443359375,9.893011474609375,6.252703857421875
2.6790000000000376,0.05323486328125,9.156246948242188,5.183221435546876
2.6890000000000285,-0.1622467041015625,7.979696655273438,4.795773315429688
2.6990000000000123,0.1679290771484375,7.25369873046875,6.320144653320313
2.709000000000003,0.29368896484375,6.4372314453125,6.277825927734376
2.719000000000051,-0.046356201171875,6.336892700195313,4.754800415039063
2.729000000000042,0.3647186279296875,7.361813354492188,5.0291992187500005
2.7390000000000327,0.5310028076171875,8.677432250976564,5.769552612304688
2.749000000000024,0.02332763671875,8.530288696289062,5.8790130615234375
2.7590000000000146,-0.0871795654296875,8.14373779296875,6.611889648437501
2.7700000000000315,0.2791839599609375,7.9705749511718755,7.489218139648438
2.7800000000000367,0.7146331787109376,6.720751953125,6.564187622070313
2.790000000000028,0.8049530029296875,4.475616455078125,4.6093017578125
2.800000000000012,0.4819549560546875,5.230175781250001,4.111645507812501
2.8100000000000023,-0.394476318359375,9.674539184570314,5.032339477539063
2.82000000000005,-0.8937774658203126,12.514978027343751,3.996353149414063
2.830000000000041,-0.530853271484375,11.19427490234375,3.069528198242188
2.840000000000032,2.6584533691406254,9.161181640625,7.787692260742188
2.8500000000000227,1.8648651123046875,6.715219116210938,12.69068298339844
2.8600000000000136,0.2537628173828125,5.342327880859376,8.053567504882814
2.8700000000000045,-1.526165771484375,4.828671264648438,2.116085815429688
2.8800000000000523,-1.8787719726562504,7.906723022460938,1.9659515380859376
2.8910000000000267,-0.2331268310546875,9.1779296875,5.370440673828125
2.900000000000034,-0.208154296875,8.080035400390626,7.605258178710938
2.9110000000000014,-0.5477508544921875,7.060348510742188,9.27527770996094
2.921000000000049,-0.2911468505859375,7.92362060546875,8.797808837890626
2.93100000000004,0.270660400390625,9.371279907226564,5.2494659423828125
2.941000000000038,-0.8507110595703126,8.890670776367188,2.966049194335937
2.951000000000022,-0.16568603515625,8.22568359375,3.216671752929688
2.9610000000000127,0.8708984375000001,7.27403564453125,4.970132446289063
2.971000000000004,1.6755523681640627,6.246423339843751,6.392819213867188
2.9810000000000514,0.8827117919921875,6.420782470703125,6.800305175781251
2.9910000000000423,-0.469244384765625,8.705545043945314,5.6662231445312505
3.001000000000033,-0.0447113037109375,10.398443603515624,5.0606018066406255
3.011000000000024,0.815869140625,9.437973022460938,5.860769653320313
3.021000000000015,0.2492767333984375,7.533929443359375,6.470278930664063
3.031000000000006,-0.25899658203125,6.713275146484375,6.328369140625001
3.0410000000000537,-0.36068115234375,6.913653564453125,6.137860107421876
3.051000000000045,-0.2428466796875,6.955374145507813,4.947702026367188
3.062000000000012,0.121722412109375,7.457516479492188,3.7352630615234377
3.0720000000000027,0.4690948486328125,8.286395263671876,4.994357299804688
3.0820000000000505,0.203369140625,8.40333251953125,6.955822753906251
3.0920000000000414,0.385205078125,7.899395751953126,6.914251708984375
3.1020000000000323,0.9111236572265624,8.051324462890626,6.289190673828125
3.112000000000023,0.7707092285156251,7.662979125976563,6.452334594726563
3.122000000000014,-0.160601806640625,5.756243896484375,5.728280639648438
3.132000000000005,-0.2130889892578125,4.455728149414063,4.5536743164062505
3.1420000000000528,-0.18482666015625,7.2528015136718755,4.556515502929688
3.152000000000044,-0.5108154296875,11.7200439453125,4.57281494140625
3.1620000000000346,-0.7050628662109375,11.539105224609376,3.590811157226563
3.172000000000025,0.1042266845703125,9.711026000976563,5.994903564453125
3.1820000000000164,1.2541595458984376,7.600323486328126,11.76954040527344
3.1930000000000405,1.2377105712890626,5.9611083984375,10.427304077148438
3.2030000000000385,-0.670819091796875,4.723248291015626,3.111248779296876
3.2130000000000223,-1.406536865234375,6.838885498046875,1.571923828125
3.223000000000013,0.5148529052734375,9.65823974609375,5.57769775390625
3.233000000000004,1.6395141601562502,8.506213378906251,6.5748046875
3.243000000000052,1.277935791015625,7.078741455078125,6.096588134765625
3.2530000000000427,0.6919036865234376,8.1826171875,7.846759033203125
3.2630000000000337,0.8433837890625001,9.56134033203125,8.237646484375
3.273000000000025,-0.287408447265625,8.809472656250001,4.245480346679688
3.285000000000025,-0.8257385253906251,7.640249633789063,1.844528198242188
3.2930000000000064,0.3835601806640625,7.830609130859376,5.286700439453125
3.303000000000054,0.5994903564453126,6.594244384765625,7.788739013671876
3.313000000000045,-0.3090911865234375,6.159542846679688,5.7517578125
3.323000000000036,-0.7285400390625001,7.935134887695313,4.894467163085938
3.333000000000027,0.3593353271484375,10.080380249023438,6.333752441406251
3.344000000000051,0.4400848388671875,9.634762573242188,5.698971557617188
3.354000000000042,-0.4448699951171875,8.035025024414063,4.495355224609376
3.3640000000000327,0.0067291259765625,7.497143554687501,6.0569610595703125
3.374000000000024,0.724951171875,6.682919311523438,7.0975830078125
3.385000000000048,0.38699951171875,6.131430053710938,5.277429199218751
3.394000000000005,0.2157806396484375,6.922027587890626,4.655957031250001
3.404000000000053,0.4675994873046875,8.580981445312501,5.482144165039063
3.414000000000044,0.2069580078125,8.694927978515626,5.967538452148438
3.424000000000035,-0.2971282958984375,8.111138916015626,6.342724609375001
3.434000000000026,-0.171368408203125,7.929751586914063,7.045095825195313
3.444000000000017,0.4505523681640625,7.326522827148438,6.731219482421875
3.454000000000008,0.3772796630859375,5.0782470703125,5.0665832519531255
3.4640000000000057,0.236566162109375,4.817755126953125,4.052130126953125
3.4740000000000464,-0.1000396728515625,8.099325561523438,4.6733032226562505
3.4850000000000136,-0.9455169677734376,12.03870544433594,4.54649658203125
3.4950000000000045,-0.4547393798828125,11.753240966796875,3.7354125976562496
3.5050000000000523,1.957278442382813,9.79521484375,6.516485595703125
3.515000000000043,1.8309204101562504,6.886138916015626,11.563928222656251
3.525000000000034,0.713287353515625,5.860470581054688,8.877810668945314
3.535000000000025,-0.7684661865234376,4.990768432617188,3.45906982421875
3.545000000000016,-1.5951019287109376,7.249063110351563,1.7403015136718751
3.555000000000007,-0.0429168701171875,9.068618774414062,4.782614135742188
3.5649999999999977,0.443524169921875,8.3871826171875,7.725335693359375
3.575000000000045,-0.03887939453125,6.757388305664063,9.34122314453125
3.5850000000000364,-0.8423370361328125,7.721597290039063,8.166766357421876
3.595000000000028,-0.0889739990234375,9.537115478515624,5.402291870117188
3.605000000000018,-0.073870849609375,9.359317016601564,3.4492004394531253
3.615000000000002,-0.2325286865234375,8.037866210937501,3.218765258789063
3.626000000000033,0.28651123046875,7.268801879882813,5.080490112304688
3.636000000000024,1.050640869140625,6.187954711914063,6.764865112304688
3.646000000000015,0.626556396484375,6.483139038085938,6.660189819335938
3.656000000000006,-0.194696044921875,8.425164794921876,5.237203979492188
3.6660000000000537,0.13338623046875,10.11268005371094,5.079891967773438
3.676000000000045,0.711492919921875,9.62220153808594,5.903387451171875
3.686000000000036,0.2428466796875,7.733859252929688,6.127691650390625
3.6960000000000255,0.1362274169921875,6.742135620117188,6.3585754394531255
3.706000000000017,-0.040673828125,6.945803833007813,6.664825439453126
3.716000000000008,-0.2534637451171875,7.049432373046876,5.235858154296875
3.726000000000006,0.1535736083984375,7.4157958984375005,3.662139892578125
3.736000000000047,0.276641845703125,8.155999755859376,4.888485717773438
3.7460000000000377,0.0447113037109375,8.4637451171875,6.562393188476563
3.756000000000036,0.0438140869140625,7.9825378417968755,6.4791015625
3.7670000000000528,0.496759033203125,8.017678833007814,6.473269653320313
3.777000000000044,0.8258880615234375,8.214019775390625,6.714172363281251
3.7870000000000346,0.28770751953125,7.471124267578125,5.781515502929688
3.7970000000000255,-0.090020751953125,7.011151123046876,5.175894165039063
3.807000000000016,-0.136376953125,5.713626098632813,5.867648315429688
3.8170000000000073,-0.0979461669921875,4.947103881835938,5.24034423828125
3.826999999999998,-0.51978759765625,6.054269409179688,3.5870727539062504
3.837000000000046,-0.8021118164062501,10.93826904296875,3.487481689453125
3.847000000000037,-0.697735595703125,13.764053344726564,4.973870849609376
3.857000000000028,-0.0225799560546875,11.369979858398438,6.066979980468751
3.867000000000018,1.206756591796875,7.289437866210938,9.429449462890624
3.8770000000000095,2.3415863037109377,5.990866088867188,12.58974609375
3.887000000000001,0.8074951171875001,4.818203735351563,8.078988647460939
3.897000000000048,-1.789797973632813,4.640255737304688,0.94805908203125
3.908000000000016,-2.3305206298828125,7.531387329101563,0.20037841796875
3.9180000000000064,0.5743682861328125,10.322329711914064,7.068572998046876
3.928000000000054,2.3291748046875003,9.166265869140624,7.307830810546876
3.938000000000045,1.462762451171875,7.779318237304688,6.840829467773438
3.948000000000036,0.805401611328125,8.853884887695314,8.334695434570314
3.958000000000027,1.035986328125,9.578237915039065,6.837689208984376
3.9680000000000177,-0.4684967041015625,8.007659912109375,2.6671264648437503
3.9780000000000015,-0.8148223876953126,6.606356811523438,1.9596710205078127
3.988,0.240155029296875,6.894363403320313,6.0988311767578125
3.9980000000000473,0.8438323974609375,6.428408813476563,7.619464111328125
4.008000000000038,0.011065673828125,6.959262084960938,5.078097534179688
4.018000000000036,-0.474029541015625,9.24671630859375,4.839437866210938
4.028000000000027,0.4308135986328125,10.600466918945314,6.983187866210938
4.038000000000011,0.3907379150390625,8.803790283203126,6.682620239257813
4.049000000000035,-0.3265869140625,6.728826904296875,5.4778076171875005
4.059000000000026,-0.1069183349609375,6.573010253906251,6.17105712890625
4.069000000000017,0.1344329833984375,6.744976806640626,5.979501342773438
4.079000000000008,-0.2403045654296875,6.8355957031250005,4.334005737304688
4.089000000000006,-0.1326385498046875,7.785000610351563,4.321743774414063
4.099000000000046,0.5001983642578125,8.957662963867188,5.885144042968751
4.109000000000037,0.2941375732421875,8.712573242187501,6.868344116210938
4.119000000000028,-0.0958526611328125,8.163476562500001,6.971673583984376
4.129000000000019,0.3901397705078125,7.642791748046876,6.65196533203125
4.13900000000001,0.9621154785156252,5.7338134765625,5.847161865234376
4.149000000000001,0.7985229492187501,3.949847412109375,5.01005859375
4.159000000000049,-0.045159912109375,6.537420654296875,4.618124389648438
4.16900000000004,-0.914862060546875,12.092239379882812,4.361968994140625
4.179000000000038,-1.1714660644531252,12.136053466796875,2.9368896484375
4.1890000000000285,1.6384674072265626,10.084866333007811,4.724444580078125
4.199000000000012,2.9585723876953125,7.750607299804688,10.947988891601565
4.210000000000036,1.0654449462890625,6.207992553710938,12.926052856445311
4.220000000000027,-0.5695831298828126,4.776483154296876,4.2695556640625005
4.230000000000018,-2.1919006347656254,5.8079833984375,0.6919036865234376
4.240000000000002,-1.63233642578125,8.942858886718751,3.5685302734375
4.25,0.5655456542968751,9.069366455078123,6.685610961914063
4.260000000000048,-0.482403564453125,7.718157958984375,7.25908203125
4.270000000000032,-0.613995361328125,7.549032592773438,7.919134521484375
4.280000000000037,0.7911956787109375,8.970822143554688,8.004669189453125
4.290000000000028,0.3473724365234375,9.447842407226563,5.204306030273438
4.300000000000011,-0.9772186279296876,8.17484130859375,2.53194580078125
4.310000000000002,-0.000299072265625,7.66641845703125,3.675897216796875
4.32000000000005,1.5639984130859377,6.724191284179688,6.53592529296875
4.330000000000041,1.08563232421875,5.910565185546876,6.588262939453125
4.340000000000032,-0.4326080322265625,7.174594116210938,5.3776184082031255
4.351000000000006,-0.611602783203125,9.795513916015626,5.5809875488281255
4.361000000000047,0.5013946533203125,10.061538696289062,6.110943603515626
4.371000000000038,0.9592742919921876,8.447744750976563,5.9623046875000005
4.381000000000036,0.0611602783203125,7.267456054687501,6.412857055664063
4.391000000000027,-0.3840087890625,7.07425537109375,6.645834350585938
4.4010000000000105,-0.0689361572265625,6.889727783203125,5.167071533203125
4.411000000000001,0.1673309326171875,6.978253173828126,3.969287109375
4.421000000000049,0.272454833984375,7.718457031250001,4.709341430664063
4.43100000000004,0.01495361328125,8.500381469726562,5.835049438476563
4.441000000000038,0.039776611328125,8.248263549804689,6.4408203125000005
4.451000000000022,0.6252105712890625,7.943807983398438,7.042852783203125
4.461000000000013,0.9506011962890626,8.107550048828125,6.986477661132813
4.471000000000004,0.3672607421875,7.792626953125,6.043502807617188
4.481000000000051,-0.423187255859375,6.778472900390626,5.435488891601563
4.492000000000019,-0.3165679931640625,5.038171386718751,5.224044799804688
4.5020000000000095,0.1012359619140625,4.295425415039063,4.844671630859375
4.5120000000000005,-0.516796875,8.529391479492189,4.4325500488281255
4.522000000000048,-1.1515777587890623,12.900332641601564,4.5615997314453125
4.532000000000032,-0.784466552734375,12.070108032226564,3.653765869140625
4.542000000000037,0.5266662597656251,9.473712158203126,7.132275390625001
4.552000000000028,2.0840850830078126,6.759182739257813,12.980633544921876
4.562000000000012,1.412518310546875,5.298962402343751,9.834991455078123
4.572000000000003,-1.0890716552734376,4.464251708984375,1.9006042480468752
4.5820000000000505,-1.96968994140625,6.912008666992188,0.9090301513671876
4.592000000000041,0.4834503173828125,9.770242309570314,5.67041015625
4.602000000000032,1.9420257568359376,8.709732055664062,6.281265258789063
4.612000000000023,1.5032867431640626,7.652362060546875,6.390426635742188
4.622000000000014,1.3051513671875,8.522811889648438,8.67847900390625
4.633000000000038,0.7496246337890625,9.463543701171876,8.927755737304688
4.643000000000036,-0.461468505859375,8.545092773437501,3.2251953125000004
4.653000000000027,-1.1267547607421875,7.242633056640625,0.7974761962890625
4.663000000000011,0.4179534912109375,7.946200561523438,5.6397552490234375
4.673000000000002,0.493170166015625,6.371286010742188,8.174990844726564
4.68300000000005,-0.3602325439453125,5.9371826171875,5.022320556640626
4.6930000000000405,-0.6231170654296876,8.36624755859375,4.548291015625001
4.703000000000039,0.597845458984375,10.6074951171875,6.969729614257813
4.713000000000022,0.412420654296875,9.551620483398438,6.190646362304688
4.723000000000013,-0.244940185546875,7.549630737304688,4.850054931640625
4.733000000000004,0.292791748046875,6.820343017578126,6.839782714843751
4.743000000000052,0.9260772705078124,6.473867797851563,7.0045715332031255
4.753000000000043,0.1807891845703125,6.29307861328125,4.5177856445312505
4.763000000000034,-0.2050140380859375,7.5138916015625,4.025213623046875
4.774000000000001,0.3300262451171875,8.935232543945313,5.426068115234376
4.784000000000049,0.17884521484375,8.600122070312501,6.214572143554688
4.79400000000004,-0.319110107421875,7.951434326171875,6.989318847656251
4.804000000000038,-0.072076416015625,7.819094848632813,7.615875244140626
4.8140000000000285,0.3874481201171875,7.655950927734375,6.516934204101563
4.824000000000012,0.4786651611328125,5.583978271484376,4.864559936523438
4.834000000000003,0.7108947753906251,4.128991699218751,4.482943725585938
4.844000000000051,-0.119927978515625,7.557556152343751,5.164529418945313
4.854000000000042,-0.625958251953125,11.979638671875,5.0082641601562505
4.864000000000033,-0.5281616210937501,11.203396606445311,2.638265991210938
4.874000000000024,1.9767181396484377,9.997088623046876,4.90478515625
4.886000000000024,2.6750518798828127,7.768402099609376,11.879898071289062
4.8940000000000055,0.8821136474609376,6.4482971191406255,10.847799682617188
4.905000000000037,-0.904095458984375,4.739099121093751,3.151922607421876
4.915000000000028,-2.096795654296875,6.746920776367188,1.8054992675781247
4.925000000000011,-0.48389892578125,9.149069213867188,5.332308959960938
4.935000000000002,-0.083740234375,8.292376708984376,6.486727905273438
4.94500000000005,-0.6911560058593751,7.237100219726563,6.84696044921875
4.955000000000041,-0.6213226318359375,7.9708740234375,8.261572265625
4.965000000000032,0.6163879394531251,9.182415771484376,7.42177734375
4.975000000000023,-0.2332763671875,8.986224365234376,4.083383178710938
4.986000000000047,-0.8496643066406251,8.096633911132812,2.940478515625
4.9950000000000045,0.503338623046875,7.982238769531251,4.8452697753906255
5.005000000000052,1.2078033447265626,6.374575805664063,6.503475952148438
5.015000000000043,0.6956420898437501,6.0479888916015625,5.8416290283203125
5.025000000000034,-0.41451416015625,7.833749389648438,5.489620971679688
5.035000000000025,0.2244537353515625,9.701605224609375,6.0568115234375
5.045000000000016,0.92891845703125,9.606201171875,5.73321533203125
5.05600000000004,0.4870391845703125,8.416940307617189,5.481097412109375
5.066000000000038,0.0883758544921875,7.495050048828125,6.493606567382813
5.076000000000022,-0.0124114990234375,7.052572631835938,6.487924194335938
5.086000000000013,-0.213836669921875,6.493307495117188,5.024264526367188
5.096000000000004,0.0133087158203125,6.948046875,4.586123657226563
5.106000000000051,0.2145843505859375,7.984332275390625,5.220755004882813
5.116000000000042,-0.1341339111328125,8.427407836914064,5.621511840820313
5.126000000000033,-0.0521881103515625,8.14613037109375,6.47611083984375
5.136000000000024,0.4892822265625,8.257833862304688,7.249960327148438
5.146000000000015,0.39058837890625,8.020819091796875,6.606057739257813
5.156000000000006,-0.3751861572265625,6.289938354492188,5.556164550781251
5.166000000000054,-0.0357391357421875,4.289593505859376,5.56334228515625
5.176000000000045,-0.4756744384765625,5.826974487304688,5.167669677734375
5.187000000000012,-0.9230865478515624,11.2247802734375,4.019381713867188
5.197000000000003,-1.107763671875,11.750100708007814,2.793634033203125
5.2070000000000505,0.4007568359375,10.334890747070313,4.228283691406251
5.217000000000041,2.34173583984375,8.098876953125,11.374166870117188
5.227000000000032,1.9071838378906247,5.995352172851563,12.613671875
5.237000000000023,0.04725341796875,4.91495361328125,4.630087280273438
5.247000000000014,-1.6296447753906251,6.443212890625,0.858038330078125
5.257000000000005,-0.271258544921875,9.6289306640625,4.592404174804688
5.267000000000053,1.4300140380859376,8.792276000976564,6.221749877929688
5.277000000000044,1.3367034912109377,7.153659057617188,5.530892944335938
5.287000000000035,0.6960906982421875,7.568621826171875,7.30992431640625
5.2970000000000255,0.5036376953125,9.204547119140626,9.374420166015623
5.307000000000016,-0.57362060546875,9.0929931640625,5.209988403320313
5.317000000000007,-1.208551025390625,8.054614257812501,1.2924407958984376
5.326999999999998,0.5746673583984375,8.482736206054689,4.458569335937501
5.338000000000022,1.2214111328125,6.897802734375,8.194430541992189
5.348000000000013,-0.057122802734375,5.594744873046875,5.8296661376953125
5.358000000000004,-0.5923126220703125,7.130032348632813,4.573712158203126
5.368000000000052,0.7508209228515625,9.674240112304688,6.450241088867188
5.378000000000043,0.7370635986328126,9.849197387695312,5.5304443359375
5.388000000000034,-0.075665283203125,8.471969604492188,4.0183349609375005
5.398000000000025,0.011962890625,7.607052612304688,6.489718627929688
5.408000000000016,0.50782470703125,6.796865844726563,7.930947875976563
5.418000000000006,0.18363037109375,6.226086425781251,5.433245849609375
5.428000000000054,-0.3183624267578125,6.899148559570313,4.2590881347656255
5.4390000000000285,-0.093011474609375,8.36026611328125,5.745028686523438
5.448000000000036,-0.057720947265625,8.492156982421875,6.068026733398438
5.458000000000027,-0.4246826171875,8.038015747070313,5.619717407226563
5.468000000000018,-0.069683837890625,7.802197265625001,6.972720336914063
5.4780000000000015,0.5191894531250001,7.601519775390625,7.363906860351563
5.489000000000033,0.5435638427734375,5.807534790039063,5.3868896484375
5.499000000000024,0.626556396484375,4.913906860351563,4.268359375
5.509000000000015,0.316119384765625,7.911209106445313,5.258737182617188
5.5190000000000055,-0.0560760498046875,11.2869873046875,4.726239013671876
5.529000000000053,-0.4041961669921875,11.085711669921876,2.960665893554688
5.539000000000044,1.94576416015625,9.056805419921876,5.733065795898438
5.549000000000035,1.905987548828125,7.722494506835938,10.437322998046875
5.559000000000026,0.6859222412109376,6.541159057617188,9.569863891601564
5.569000000000017,-0.5540313720703125,5.468685913085938,4.635021972656251
5.579000000000008,-1.80579833984375,7.108648681640625,2.645742797851563
5.589000000000006,-0.7079040527343751,8.906671142578126,4.69364013671875
5.599000000000046,0.034393310546875,8.567971801757814,7.129135131835938
5.609000000000037,-0.388494873046875,7.245773315429688,8.071810913085939
5.619000000000028,-1.031201171875,7.434487915039063,7.0473388671875
5.629000000000019,-0.4194488525390625,9.1815185546875,5.646035766601563
5.640000000000043,0.3297271728515625,9.250454711914063,5.074209594726563
5.650000000000034,-0.0847869873046875,8.141943359375,3.731524658203125
5.660000000000025,-0.046954345703125,7.364056396484376,3.993511962890625
5.670000000000016,1.3814147949218751,6.842474365234375,6.649124145507813
5.680000000000007,1.127801513671875,6.652713012695313,6.831857299804688
5.689999999999998,-0.118133544921875,7.755691528320313,4.772595214843751
5.7000000000000455,0.3198577880859375,9.44111328125,5.239297485351563
5.710000000000036,0.8107849121093751,9.424066162109376,6.610394287109376
5.720000000000027,0.22908935546875,8.021267700195313,5.7294769287109375
5.730000000000018,-0.0722259521484375,7.274185180664063,5.456124877929688
5.740000000000002,-0.2190704345703125,7.027301025390625,6.859371948242188
5.75,-0.294287109375,6.85234375,5.914004516601563
5.760000000000048,-0.0982452392578125,7.126443481445313,4.060055541992188
5.771000000000015,0.1173858642578125,8.187252807617188,4.928411865234375
5.780000000000037,0.1320404052734375,8.254693603515626,6.623403930664063
5.791000000000054,0.0521881103515625,8.076296997070314,6.580337524414063
5.801000000000045,0.455487060546875,8.024707031250001,6.477606201171875
5.811000000000036,0.5776580810546875,8.231964111328125,6.355435180664063
5.821000000000026,0.2878570556640625,7.709185791015625,5.601773071289063
5.831000000000017,-0.280230712890625,6.079391479492188,5.276681518554688
5.841000000000008,0.0698333740234375,4.320846557617188,5.684466552734375
5.851000000000006,0.003289794921875,4.740145874023438,5.1213134765625
5.862000000000023,-1.246533203125,10.438369750976562,4.107757568359375
5.871000000000038,-1.435546875,13.4714111328125,3.836199951171875
5.881000000000036,-0.174957275390625,11.975302124023438,3.8788177490234377
5.892000000000053,1.577456665039063,8.793472290039062,9.532180786132812
5.902000000000044,2.6553131103515626,6.095541381835938,13.423260498046876
5.912000000000035,1.0588653564453123,4.672854614257813,7.615875244140626
5.9220000000000255,-1.8554443359375,4.717864990234375,0.7434936523437501
5.932000000000016,-2.4428222656250003,7.5757995605468755,1.1524749755859376
5.942000000000007,0.5698822021484375,9.92620849609375,7.061544799804688
5.951999999999998,2.002737426757813,8.359368896484376,6.397454833984376
5.962000000000046,2.05462646484375,7.700512695312501,6.356930541992188
5.972000000000037,1.32608642578125,8.700610351562501,9.474908447265626
5.982000000000028,0.13458251953125,9.3119140625,8.134466552734375
5.992000000000019,-0.9509002685546876,8.224935913085938,1.3633209228515626
6.004000000000019,-0.692352294921875,7.472021484375,1.4443695068359377
6.0120000000000005,1.3893402099609375,7.826422119140625,6.585122680664063
6.022000000000048,0.240155029296875,5.927163696289063,7.834197998046876
6.032000000000032,-0.9236846923828126,6.3750244140625005,4.387240600585938
6.042000000000037,0.019439697265625,9.235650634765626,5.553472900390625
6.052000000000028,0.7572509765625001,10.545587158203126,7.0030761718750005
6.063000000000045,-0.1111053466796875,8.784201049804688,5.144940185546876
6.073000000000036,0.07835693359375,7.071713256835938,5.766561889648438
6.083000000000027,0.6462951660156251,6.512448120117188,8.079287719726564
6.093000000000018,0.3578399658203125,6.2841064453125,5.895611572265626
6.104000000000042,-0.131292724609375,6.929205322265625,3.4003021240234377
6.113,-0.0922637939453125,8.501577758789063,4.633526611328126
6.123000000000047,0.0997406005859375,8.867044067382814,5.788543701171875
6.133000000000038,0.0354400634765625,8.132821655273439,5.957369995117188
6.143000000000036,0.024224853515625,7.691540527343751,7.695578002929688
6.153000000000027,0.1902099609375,7.278372192382813,7.94814453125
6.163000000000011,0.57122802734375,5.358926391601563,5.196380615234375
6.173000000000002,0.728240966796875,4.399951171875,3.862368774414063
6.18300000000005,-0.2313323974609375,8.705694580078125,5.423226928710938
6.1930000000000405,-1.0217803955078126,12.219644165039064,4.320547485351563
6.204000000000008,-0.6732116699218751,11.316595458984375,2.268911743164063
6.214000000000006,2.74847412109375,9.290679931640623,6.313415527343751
6.224000000000046,2.6340789794921875,7.470974731445313,12.210821533203124
6.234000000000037,0.3935791015625,5.8595733642578125,10.270739746093753
6.244000000000028,-1.007275390625,4.7495666503906255,1.9169036865234377
6.254000000000019,-1.9894287109375,7.54320068359375,2.312277221679688
6.26400000000001,-0.2172760009765625,9.269744873046877,5.57769775390625
6.274000000000001,-0.02213134765625,8.096035766601563,7.024459838867188
6.284000000000049,-0.6422576904296875,6.642843627929688,8.03248291015625
6.29400000000004,-0.69683837890625,8.021417236328126,8.065530395507814
6.304000000000038,0.42647705078125,9.626239013671876,6.108551025390625
6.3140000000000285,-0.220416259765625,9.199313354492189,3.565838623046876
6.3250000000000455,-0.6616973876953125,7.807431030273438,2.83580322265625
6.334000000000003,0.22310791015625,7.572958374023438,5.45208740234375
6.345000000000027,1.4472106933593751,6.320144653320313,6.797763061523438
6.355000000000018,0.6545196533203126,6.223544311523438,5.97845458984375
6.365000000000002,-0.204864501953125,8.318246459960939,5.152865600585938
6.375,0.36666259765625,10.098922729492188,5.852993774414063
6.385000000000048,0.6433044433593751,9.477301025390624,5.8849945068359375
6.395000000000032,0.497955322265625,7.867993164062501,5.440274047851563
6.405000000000037,0.1386199951171875,7.19627685546875,6.6337219238281255
6.415000000000028,0.068487548828125,6.899746704101563,6.797463989257813
6.425000000000011,-0.4329071044921875,6.572860717773438,4.639508056640626
6.435000000000002,-0.125311279296875,7.239492797851563,4.047943115234375
6.44500000000005,0.4009063720703125,8.3943603515625,5.449993896484376
6.455000000000041,-0.179742431640625,8.413201904296876,6.186907958984375
6.465000000000032,-0.0997406005859375,7.91524658203125,6.530990600585938
6.475000000000023,0.5307037353515626,8.308377075195313,7.082180786132813
6.486000000000047,0.511114501953125,8.060745239257812,6.608599853515625
6.496000000000038,0.02930908203125,7.387533569335938,5.338290405273438
6.506000000000036,-0.2764923095703125,5.58726806640625,5.488424682617188
6.516000000000027,-0.070880126953125,4.760183715820313,5.894564819335938
6.5260000000000105,0.04246826171875,6.161636352539063,4.537225341796876
6.536000000000001,-0.7484283447265625,10.563232421875,3.5123046875000004
6.546000000000049,-0.8264862060546876,12.52439880371094,4.070223999023438
6.557000000000016,0.175555419921875,11.177676391601564,5.537472534179688
6.566000000000038,1.5656433105468752,7.7298217773437505,9.35303649902344
6.576000000000022,1.8828094482421875,6.12021484375,11.477346801757813
6.586000000000013,0.5345916748046875,5.3043457031250005,6.763967895507813
6.596000000000004,-1.17535400390625,5.837890625,1.5521850585937502
6.606000000000051,-0.6999786376953125,8.484530639648439,2.662042236328125
6.616000000000042,0.926824951171875,9.179425048828126,6.298312377929688
6.6270000000000095,1.33924560546875,8.148522949218751,6.815557861328125
6.6370000000000005,-0.4035980224609375,7.635464477539063,7.245474243164063
6.647000000000048,0.3171661376953125,8.8345947265625,8.593692016601564
6.657000000000032,0.278436279296875,9.308175659179687,6.458615112304688
6.667000000000037,-0.7274932861328125,8.350695800781251,2.288351440429688
6.677000000000028,-0.0073272705078125,7.635015869140625,2.709445190429688
6.687000000000012,1.2152801513671876,6.952532958984375,6.278274536132813
6.697000000000003,0.4415802001953125,6.145037841796875,6.601123046875
6.7070000000000505,-0.0357391357421875,6.906924438476563,5.16617431640625
6.717000000000041,0.316119384765625,9.170303344726562,6.115130615234375
6.727000000000032,0.4909271240234375,10.107296752929688,6.453231811523438
6.737000000000023,0.0647491455078125,8.8046875,5.147183227539063
6.747000000000014,-0.119329833984375,7.335195922851563,6.003427124023438
6.757000000000005,0.00418701171875,6.628189086914063,7.180126953125001
6.768000000000036,-0.1643402099609375,6.437979125976563,5.376422119140625
6.778000000000027,-0.4116729736328125,6.8909240722656255,4.333108520507813
6.788000000000011,-0.1547698974609375,8.157943725585938,5.13626708984375
6.798000000000002,0.1562652587890625,8.758779907226563,5.5065185546875
6.80800000000005,0.072076416015625,8.269946289062501,6.229675292968751
6.8180000000000405,0.0737213134765625,7.663278198242188,7.819094848632813
6.828000000000039,0.8022613525390626,6.499288940429688,7.223641967773438
6.838000000000022,1.2070556640625,4.991665649414063,4.8572326660156255
6.848000000000013,0.6009857177734376,6.289041137695313,4.501187133789063
6.858000000000004,-0.4607208251953125,10.826266479492189,4.749267578125
6.868000000000052,-0.739605712890625,11.597872924804689,2.709295654296876
6.878000000000043,0.6305938720703126,9.425411987304688,3.915753173828125
6.888000000000034,2.9810028076171875,7.721298217773438,9.703848266601565
6.898000000000025,0.8021118164062501,6.8969055175781255,12.089248657226562
6.909000000000049,-0.3132781982421875,5.6891021728515625,5.927761840820313
6.91900000000004,-1.9110717773437504,6.7712951660156255,1.896417236328125
6.929000000000038,-1.4319580078125,8.727975463867189,4.018933105468751
6.9390000000000285,-0.0596649169921875,8.893362426757813,6.469232177734376
6.949000000000012,-0.3712982177734375,7.075750732421875,7.620809936523438
6.959000000000003,-0.6296966552734375,6.882998657226563,7.701858520507813
6.969000000000051,-0.2525665283203125,8.749359130859375,6.645236206054688
6.979000000000042,0.4119720458984375,9.78863525390625,4.897308349609375
6.989000000000033,-0.06400146484375,8.821585083007813,3.5321929931640628
6.999000000000024,0.270361328125,7.831805419921875,3.915155029296875
7.009000000000015,1.265972900390625,6.7123779296875,6.208889770507813
7.0190000000000055,0.9972564697265626,6.301004028320313,7.034927368164063
7.029000000000053,-0.1027313232421875,6.981393432617188,5.329617309570313
7.039000000000044,-0.3433349609375,9.227276611328126,4.904635620117188
7.050000000000011,0.3736907958984375,9.826467895507813,5.954827880859376
7.060000000000002,0.325689697265625,8.470324707031251,5.917294311523438
7.07000000000005,-0.0877777099609375,7.407421875000001,6.007315063476563
7.080000000000041,-0.1454986572265625,7.153659057617188,6.874624633789063
7.090000000000032,-0.2462860107421875,6.779071044921875,5.933294677734375
7.100000000000023,0.00478515625,6.912905883789063,4.315762329101563
7.110000000000014,0.5894714355468751,7.814010620117188,4.762725830078125
7.1200000000000045,0.3715972900390625,8.395855712890626,5.671157836914063
7.130000000000052,0.176153564453125,7.993902587890625,6.337640380859376
7.140000000000043,0.6104064941406251,8.127288818359375,7.053619384765626
7.150000000000034,0.59515380859375,8.214617919921876,6.771743774414063
7.160000000000025,0.2392578125,8.03427734375,5.339935302734375
7.170000000000016,-0.250921630859375,6.3406311035156255,5.408721923828125
7.180000000000007,-0.038580322265625,4.108953857421875,5.818600463867188
7.189999999999998,-0.120526123046875,4.149777221679688,4.696481323242188
7.201000000000022,-1.3697509765625,10.56726989746094,4.327725219726563
7.211000000000013,-1.4748748779296876,13.85227966308594,3.8873413085937503
7.221000000000004,-0.4188507080078125,11.882440185546876,3.2256439208984378
7.231000000000051,1.7824707031250002,8.713470458984375,9.900637817382814
7.241000000000042,2.6254058837890626,6.427212524414063,14.493789672851564
7.251000000000033,0.8140747070312501,4.371090698242188,7.455722045898438
7.261000000000024,-1.9288665771484377,4.5279541015625,-0.681884765625
7.271000000000015,-2.47691650390625,7.7196533203125,2.0230743408203127
7.281000000000006,0.4179534912109375,9.686651611328124,6.875521850585938
7.291000000000054,2.040570068359376,8.124148559570314,6.018231201171876
7.301000000000045,2.1726104736328127,7.819992065429688,6.664376831054688
7.3110000000000355,1.0639495849609375,8.946896362304688,10.073501586914062
7.321000000000026,0.413616943359375,9.637603759765623,7.223193359375
7.33200000000005,-1.1400634765625002,8.377911376953126,1.4509490966796876
7.341000000000008,-0.7358673095703125,7.559649658203125,1.861276245117188
7.352000000000032,1.1596527099609375,7.196875,6.8559326171875
7.362000000000023,0.4658050537109375,5.833853149414063,7.454824829101563
7.372000000000014,-0.8679077148437501,6.366650390625001,4.72294921875
7.382000000000005,-0.3671112060546875,9.299502563476564,5.432049560546876
7.392000000000053,0.7717559814453125,10.729217529296877,6.699667358398438
7.402000000000044,0.3689056396484375,9.063684082031251,5.343673706054688
7.412000000000035,0.034991455078125,7.1840148925781255,5.757589721679688
7.4220000000000255,0.48748779296875,6.689199829101563,7.495050048828125
7.432000000000016,0.4490570068359375,6.408071899414063,5.875125122070313
7.442000000000007,-0.136676025390625,6.576898193359376,3.8665557861328126
7.451999999999998,-0.052935791015625,7.933639526367188,4.578497314453125
7.462000000000046,0.1332366943359375,8.900689697265626,5.703009033203125
7.472000000000037,-0.1191802978515625,8.417538452148438,6.147430419921876
7.482000000000028,-0.2277435302734375,7.904928588867188,7.307681274414063
7.493000000000052,0.1481903076171875,7.4062255859375,7.476657104492188
7.503000000000043,0.863720703125,5.5933990478515625,5.6261474609375
7.513000000000034,0.5760131835937501,4.744482421875,4.619918823242188
7.523000000000025,-0.6087615966796875,8.833398437500001,5.194436645507813
7.533000000000015,-0.9917236328125,11.872421264648438,4.128094482421876
7.543000000000006,-0.4305145263671875,10.253543090820314,2.678341674804688
7.553000000000054,2.4177001953125004,8.607897949218751,6.49644775390625
7.563000000000045,2.032943725585937,7.037469482421876,11.57828369140625
7.573000000000036,0.2905487060546875,6.2003662109375,8.757733154296876
7.583000000000027,-1.547100830078125,5.894265747070313,3.158502197265625
7.593000000000018,-1.0374816894531251,8.681320190429688,2.732623291015625
7.605000000000018,0.5109649658203126,9.135162353515623,5.57291259765625
7.612999999999999,-0.21533203125,7.14603271484375,7.0270019531250005
7.624000000000024,-0.7991210937500001,6.889279174804688,7.732962036132813
7.6340000000000146,-0.332867431640625,8.256936645507814,7.483535766601563
7.644000000000005,1.1055206298828126,9.614276123046876,5.535379028320313
7.654000000000053,-0.356494140625,9.319540405273438,3.8201995849609376
7.664000000000044,-1.0259674072265623,8.151065063476564,3.9890258789062494
7.674000000000035,0.6180328369140625,6.975262451171876,5.778823852539063
7.684000000000026,1.0814453125,6.122607421875,6.5918518066406255
7.694000000000017,0.0204864501953125,6.668264770507813,5.725738525390625
7.705000000000041,-0.0865814208984375,8.423818969726563,5.247821044921875
7.714000000000006,0.375335693359375,9.668557739257814,5.554220581054688
7.724000000000046,0.5327972412109375,9.032431030273438,5.45567626953125
7.734000000000037,0.5713775634765625,7.872479248046876,5.924023437500001
7.744000000000028,0.2295379638671875,7.344317626953125,7.010253906250001
7.754000000000019,-0.2594451904296875,7.120462036132813,6.416445922851563
7.76400000000001,-0.15731201171875,7.028945922851563,4.4729248046875005
7.775000000000034,0.3043060302734375,7.535873413085938,4.515542602539063
7.785000000000025,0.2124908447265625,7.984332275390625,5.754299926757813
7.795000000000016,-0.2691650390625,8.035922241210939,5.883798217773438
7.805000000000007,-0.00897216796875,7.943807983398438,6.234161376953126
7.814999999999998,0.52158203125,8.193234252929688,7.078292846679688
7.825000000000045,0.37264404296875,8.177383422851562,6.284854125976563
7.835000000000036,-0.171368408203125,7.485330200195313,5.215969848632813
7.845000000000027,-0.37862548828125,5.700765991210938,5.741738891601563
7.855000000000018,-0.1027313232421875,3.973623657226563,5.816506958007813
7.865000000000002,0.1685272216796875,6.96300048828125,4.394418334960938
7.875,-0.7213623046875001,12.562680053710938,4.2101898193359375
7.885000000000048,-1.368106079101563,12.406863403320314,3.538623046875
7.895000000000031,0.717474365234375,9.86145935058594,5.165277099609376
7.906000000000006,2.0822906494140625,6.906475830078126,11.882290649414063
7.915000000000028,1.51151123046875,5.035778808593751,11.731857299804688
7.926000000000045,-0.4535430908203125,4.454681396484375,3.1982788085937504
7.9360000000000355,-1.725048828125,7.344616699218751,0.759344482421875
7.946000000000026,-0.0073272705078125,9.7988037109375,4.568478393554688
7.956000000000017,1.690655517578125,9.159536743164065,6.629684448242188
7.966000000000008,1.481903076171875,7.205996704101563,6.600076293945313
7.976000000000006,0.1149932861328125,7.790383911132813,8.675189208984376
7.986000000000047,0.1613494873046875,9.126937866210938,8.889175415039062
7.996000000000038,-0.2803802490234375,9.035720825195312,3.901397705078125
8.006000000000036,-1.0744171142578125,7.93558349609375,0.9658538818359376
8.016000000000027,0.7274932861328125,8.177233886718751,4.533038330078125
8.02600000000001,1.0415191650390625,6.362762451171876,7.806683349609376
8.036000000000001,-0.1541717529296875,5.688055419921875,6.035726928710938
8.04600000000005,0.1538726806640625,7.773785400390626,5.355487060546875
8.057000000000016,0.509918212890625,10.332199096679688,6.373678588867188
8.067000000000007,0.35709228515625,10.079183959960938,5.132977294921876
8.076999999999998,-0.151629638671875,8.276376342773439,4.514495849609375
8.087000000000046,0.058917236328125,7.23216552734375,6.848754882812501
8.097000000000037,0.344830322265625,6.3226867675781255,6.991412353515625
8.107000000000028,-0.042169189453125,5.974118041992188,4.917495727539063
8.117000000000019,-0.240753173828125,7.1361633300781255,4.71038818359375
8.12700000000001,0.085235595703125,8.809472656250001,5.232717895507813
8.137,-0.0656463623046875,8.718704223632812,5.534332275390625
8.147000000000048,-0.3541015625,7.974014282226563,7.039413452148438
8.157000000000032,0.0788055419921875,7.71666259765625,8.105456542968751
8.167000000000037,0.5698822021484375,7.812814331054688,6.804641723632813
8.177000000000028,0.4415802001953125,6.692489624023438,4.966094970703125
8.188000000000045,0.6361267089843751,4.469186401367188,4.342230224609375
8.201000000000022,0.7910461425781251,4.983441162109376,4.390231323242188
8.208000000000027,-0.25780029296875,10.750900268554688,5.507415771484375
8.218000000000018,-0.256005859375,13.0957763671875,4.476962280273438
8.228000000000002,0.0862823486328125,10.81131286621094,2.9190948486328128
8.238,2.0679351806640627,8.536569213867189,8.437576293945312
8.248000000000047,1.3218994140625,6.3705383300781255,13.241873168945313
8.258000000000038,0.2501739501953125,4.652966308593751,6.363211059570313
8.268000000000036,-1.5122589111328126,4.8509521484375,0.7288391113281251
8.278000000000027,-1.5200347900390625,8.650515747070314,3.232223510742188
8.288000000000011,0.15611572265625,9.601864624023438,6.32059326171875
8.298000000000002,-0.167181396484375,7.918835449218751,7.192239379882813
8.30800000000005,-0.5719757080078125,7.194033813476563,8.622851562500001
8.31800000000004,-0.21234130859375,8.429052734375,9.061441040039064
8.328000000000038,0.5794525146484375,9.376065063476563,5.7619262695312505
8.338000000000022,-0.8798706054687501,8.604907226562501,2.3658111572265628
8.349000000000046,-0.33436279296875,7.984631347656251,2.4878326416015626
8.359000000000037,0.956732177734375,7.293026733398438,5.741589355468751
8.369000000000028,1.43853759765625,5.714971923828125,6.788192749023438
8.379000000000019,0.173760986328125,6.693087768554688,5.796917724609376
8.38900000000001,-0.06280517578125,9.1719482421875,5.709439086914063
8.399000000000001,0.6443511962890626,10.437472534179689,6.062643432617188
8.409000000000049,0.5326477050781251,9.104357910156253,5.660241699218751
8.41900000000004,-0.0055328369140625,7.4875732421875005,5.874227905273438
8.429000000000038,-0.051739501953125,7.006964111328125,6.737051391601563
8.439000000000028,-0.0794036865234375,6.616525268554688,5.911163330078125
8.449000000000012,-0.22669677734375,6.475213623046876,4.205853271484376
8.459000000000003,0.098394775390625,7.530041503906251,4.481747436523438
8.469000000000051,0.1134979248046875,8.766406250000001,5.672503662109375
8.479000000000042,-0.2352203369140625,8.467184448242188,6.254498291015626
8.490000000000002,0.19320068359375,7.887582397460938,7.005319213867188
8.5,0.8794219970703125,8.147775268554689,7.492208862304688
8.510000000000048,0.6919036865234376,7.757785034179688,6.505120849609376
8.520000000000032,-0.072674560546875,7.192089843750001,5.128491210937501
8.530000000000037,-0.2782867431640625,6.257489013671876,4.996749877929688
8.540000000000028,-0.1134979248046875,4.634274291992188,4.9634033203125005
8.550000000000011,0.094805908203125,5.0580596923828125,4.460513305664063
8.560000000000002,-0.2824737548828125,11.06328125,4.490570068359375
8.57000000000005,-0.9290679931640624,13.919720458984376,4.472775268554688
8.580000000000041,-0.2746978759765625,11.328109741210938,4.389483642578125
8.590000000000032,1.0187896728515626,7.228726196289063,9.836935424804688
8.600000000000023,2.159002685546876,6.140850830078126,12.938912963867187
8.610000000000014,0.6512298583984375,4.5686279296875005,7.111639404296875
8.621000000000038,-1.6209716796875002,5.01304931640625,0.271258544921875
8.631000000000036,-1.418798828125,8.27652587890625,1.919894409179688
8.641000000000027,1.086529541015625,9.868487548828126,6.261825561523438
8.65100000000001,2.083038330078125,8.395556640625001,7.159341430664063
8.661000000000001,0.323895263671875,7.264913940429688,7.591650390625
8.67100000000005,0.5360870361328125,9.022561645507814,9.044393920898438
8.68100000000004,0.9465637207031252,9.778466796875,6.874624633789063
8.691000000000038,-0.8142242431640626,8.211477661132813,1.8793701171875
8.701000000000022,-0.6724639892578126,7.361215209960938,1.783816528320313
8.711000000000013,1.1046234130859376,7.205548095703126,6.68486328125
8.722000000000037,0.6494354248046875,5.75833740234375,7.249362182617188
8.731000000000051,-0.409429931640625,6.601870727539063,4.770501708984376
8.741000000000042,-0.0515899658203125,9.383840942382813,5.679531860351563
8.751000000000033,0.3865509033203125,10.75269470214844,6.81107177734375
8.762,-0.20037841796875,9.109442138671875,5.1930908203125
8.771000000000015,-0.2881561279296875,7.300354003906251,5.54898681640625
8.782000000000032,0.222509765625,6.525607299804688,7.551724243164063
8.792000000000037,0.06041259765625,6.11004638671875,6.0281005859375005
8.802000000000028,-0.1662841796875,6.532186889648438,3.8098815917968754
8.812000000000012,0.180340576171875,8.070315551757814,4.501486206054688
8.822000000000003,0.275445556640625,9.019122314453126,5.6177734375
8.83200000000005,0.01435546875,8.404977416992189,6.250012207031251
8.842000000000041,0.1499847412109375,7.849301147460938,7.624249267578126
8.852000000000032,0.6151916503906251,7.830459594726563,7.886984252929688
8.862000000000023,1.17176513671875,5.751608276367188,5.570968627929688
8.872000000000014,1.1046234130859376,3.904388427734376,3.525164794921875
8.882000000000005,-0.171368408203125,7.159790039062501,4.781118774414063
8.892000000000053,-0.786260986328125,12.492248535156252,5.229428100585938
8.902000000000044,-0.8444305419921876,11.638995361328126,2.343231201171875
8.912000000000035,1.2761413574218752,9.653604125976564,4.703060913085938
8.923000000000002,2.8078399658203126,7.779766845703126,12.687243652343753
8.93300000000005,0.7358673095703125,6.124551391601563,12.027490234375
8.94300000000004,-0.97138671875,4.298565673828126,2.7019683837890627
8.953000000000038,-2.098739624023437,6.758285522460938,1.16578369140625
8.963000000000022,-1.3091888427734375,9.247613525390626,5.115631103515625
8.973000000000013,-0.2465850830078125,8.512643432617189,5.5784454345703125
8.983000000000004,-0.392681884765625,7.336392211914063,6.917092895507813
8.993000000000052,-0.45399169921875,7.741336059570313,9.552966308593753
9.003000000000043,1.1067169189453123,9.210977172851564,7.89072265625
9.013000000000034,-0.1206756591796875,9.125442504882812,3.733618164062501
9.023000000000025,-0.483599853515625,8.543746948242188,2.581591796875
9.033000000000015,0.5027404785156251,7.91524658203125,5.003329467773438
9.043000000000006,1.538427734375,6.131729125976563,6.383547973632813
9.053000000000054,0.6960906982421875,5.698672485351563,5.9687347412109375
9.064000000000028,-0.8350097656250001,7.622903442382813,5.784506225585938
9.074000000000012,-0.356195068359375,9.814056396484377,5.7728424072265625
9.084000000000003,0.5633026123046876,9.92605895996094,5.434292602539063
9.094000000000053,0.143255615234375,8.462249755859375,5.720803833007813
9.104000000000042,-0.16927490234375,7.4445068359375,6.519476318359375
9.114000000000033,-0.0034393310546875,6.962103271484375,6.648675537109376
9.124000000000024,0.0204864501953125,6.5604492187500005,5.4782562255859375
9.134000000000016,0.205462646484375,6.986776733398438,4.272396850585938
9.144000000000004,0.6299957275390625,7.991210937500001,4.599880981445313
9.154000000000051,0.23507080078125,8.527148437500001,5.860919189453125
9.164000000000044,0.0880767822265625,8.172299194335938,6.614880371093751
9.174000000000037,0.7968780517578126,8.050128173828126,6.725537109375001
9.184000000000026,0.917852783203125,8.17783203125,6.662283325195313
9.194000000000017,0.21593017578125,7.650119018554688,6.063241577148438
9.20500000000004,-0.351708984375,6.791482543945313,5.297616577148438
9.215000000000032,-0.2739501953125,4.880709838867188,5.005572509765625
9.225000000000025,0.0360382080078125,3.831863403320313,4.5077667236328125
9.235000000000014,-0.12860107421875,8.359817504882812,4.329968261718751
9.245000000000005,-1.039126586914063,14.180810546875,4.783660888671875
9.255000000000052,-0.9150115966796876,13.099215698242189,3.7424407958984376
9.265000000000043,0.3686065673828125,9.041403198242188,7.5162841796875
9.275000000000034,2.1319366455078126,6.008212280273438,13.737884521484377
9.285000000000023,1.5581665039062502,4.733865356445313,10.566671752929688
9.295000000000016,-1.2457855224609375,3.963006591796875,1.2528137207031251
9.305000000000009,-2.272201538085937,6.928158569335938,-0.1184326171875
9.314999999999998,-0.5486480712890626,9.970770263671875,5.127743530273438
9.325000000000044,2.325735473632813,9.610537719726564,7.143640136718751
9.335000000000036,1.771405029296875,7.610342407226563,7.431198120117188
9.346000000000004,0.1317413330078125,7.990911865234375,9.134564208984376
9.356000000000051,1.1998779296875002,9.637155151367187,8.242282104492189
9.366000000000042,-0.0883758544921875,8.9087646484375,3.421087646484376
9.376000000000031,-1.2333740234375,7.153060913085938,0.7381103515625
9.386000000000024,0.5825927734375,7.606454467773438,4.490570068359375
9.396000000000017,1.045257568359375,6.399099731445313,7.864703369140625
9.406000000000006,-0.0734222412109375,5.840133666992188,5.851199340820313
9.416000000000054,-0.8327667236328126,8.266806030273438,4.753305053710938
9.426000000000045,0.4568328857421875,10.7749755859375,6.699966430664063
9.436000000000035,0.404644775390625,9.964938354492189,6.20096435546875
9.446000000000026,-0.3186614990234375,7.344317626953125,4.991366577148438
9.456000000000016,-0.0079254150390625,6.409567260742188,6.778024291992188
9.466000000000008,0.3102874755859375,6.387734985351563,7.303793334960938
9.476000000000006,-0.182135009765625,6.495550537109375,4.44241943359375
9.486000000000049,-0.0871795654296875,7.605706787109375,3.35618896484375
9.497000000000014,0.561956787109375,9.076544189453124,5.105612182617188
9.507000000000003,0.3061004638671875,8.808126831054688,6.701611328125001
9.517000000000053,-0.088525390625,7.73221435546875,7.345214843750001
9.527000000000044,0.2806793212890625,7.693783569335938,7.598828125000001
9.537000000000036,0.8276824951171876,7.970126342773438,6.310275268554688
9.547000000000024,1.0223785400390626,5.585623168945313,4.533486938476563
9.557000000000016,1.1152404785156251,3.652569580078125,3.674850463867188
9.567000000000007,0.2883056640625,6.282162475585938,4.74149169921875
9.576999999999998,-0.9677978515625,12.464883422851564,5.008114624023438
9.587000000000046,-0.8649169921875001,13.300192260742188,3.4225830078125004
9.597000000000037,1.42298583984375,10.616317749023438,5.493060302734375
9.607000000000028,3.007470703125,7.869039916992188,11.658584594726562
9.61700000000002,1.320254516601563,5.781216430664063,12.191979980468751
9.628000000000045,-0.578704833984375,4.037176513671875,4.83599853515625
9.638000000000034,-2.19578857421875,5.4423675537109375,0.441729736328125
9.648000000000025,-2.6989776611328127,8.449688720703126,1.8801177978515624
9.658000000000015,-0.8438323974609375,9.52066650390625,7.099227905273438
9.668000000000006,-0.021533203125,8.308825683593751,7.958163452148438
9.678000000000054,-0.9055908203125,7.641445922851563,9.521713256835938
9.688000000000043,-0.1232177734375,8.827416992187501,7.853936767578125
9.698000000000036,0.3880462646484375,9.414047241210938,5.078396606445313
9.708000000000029,-0.5969482421875001,7.997491455078125,2.619125366210937
9.718000000000018,-0.219219970703125,7.227081298828126,2.870196533203125
9.728000000000002,1.940380859375,6.8071838378906255,5.481246948242188
9.738,1.7730499267578126,6.115429687500001,6.940869140625001
9.748000000000047,-0.1341339111328125,6.974066162109375,5.4588165283203125
9.758000000000038,-0.7358673095703125,9.955517578125,5.233465576171875
9.769000000000004,0.6440521240234376,10.723385620117188,6.761425781250001
9.779000000000051,0.3805694580078125,8.644384765625,6.429754638671875
9.789000000000044,-0.356195068359375,6.942364501953126,5.626446533203126
9.799000000000037,-0.40255126953125,6.641647338867188,6.817352294921876
9.809000000000026,-0.3231475830078125,6.386090087890626,6.223843383789063
9.819000000000017,-0.056524658203125,6.576599121093751,3.662738037109375
9.829000000000008,0.1583587646484375,7.990164184570313,3.5561187744140628
9.839000000000006,0.6193786621093751,9.1886962890625,5.780169677734375
9.849000000000046,0.3156707763671875,8.5427001953125,7.145135498046876
9.859000000000036,0.7644287109375001,8.050277709960938,7.050180053710938
9.869000000000028,1.1420074462890626,8.147625732421876,6.637310791015626
9.87900000000002,0.612799072265625,7.498788452148438,6.198422241210938
9.88900000000001,-0.1152923583984375,5.18411865234375,5.107107543945313
9.899,-0.249725341796875,3.487930297851563,4.187908935546876
9.909000000000049,-0.85654296875,6.633422851562501,4.318603515625
9.920000000000016,-1.0107147216796877,12.884182739257811,4.760632324218751
9.930000000000009,-0.9870880126953124,12.737936401367188,3.481051635742188
9.939999999999998,0.4263275146484375,10.655496215820314,6.571365356445313
9.950000000000044,1.7841156005859375,7.2267822265625,13.588946533203126
9.960000000000036,1.6363739013671876,5.064190673828126,10.640841674804689
9.970000000000027,-0.738409423828125,3.86580810546875,2.090814208984375
9.980000000000018,-1.7666198730468752,6.820642089843751,0.8003173828125001
9.990000000000002,-0.1972381591796875,9.605453491210938,4.6547607421875
10.0,0.9316101074218752,8.808575439453126,5.830264282226563
10.010000000000048,1.7903961181640626,8.079287719726564,6.447698974609375
10.020000000000032,0.5950042724609376,8.458511352539062,9.622052001953126
10.030000000000037,0.7274932861328125,9.264959716796875,9.294717407226564
10.040000000000028,-0.0512908935546875,8.776873779296876,3.8381439208984376
10.050000000000011,-0.8124298095703125,7.434786987304688,1.3247406005859377
10.061000000000035,0.6361267089843751,7.657595825195313,4.744631958007813
10.071000000000026,0.7053619384765626,6.281863403320313,7.119265747070313
10.081000000000016,-0.3572418212890625,5.938977050781251,5.044302368164063
10.091000000000008,-0.385205078125,8.095437622070314,5.22598876953125
10.101000000000006,0.4155609130859375,10.35193786621094,6.856680297851563
10.111000000000049,0.3605316162109375,10.012789916992189,5.5705200195312505
10.121000000000038,-0.45159912109375,8.208486938476563,4.785006713867188
10.131000000000036,0.020037841796875,6.992459106445313,6.932196044921875
10.141000000000028,0.4912261962890625,6.10167236328125,7.118069458007813
10.15100000000001,-0.063104248046875,5.971575927734375,4.956524658203126
10.161,-0.1368255615234375,7.223641967773438,4.204656982421875
10.17100000000005,0.3865509033203125,8.858670043945313,4.970431518554688
10.18100000000004,0.20875244140625,8.937625122070314,5.778973388671876
10.191000000000038,-0.096600341796875,8.176785278320313,6.850100708007813
10.201000000000022,0.2328277587890625,7.877264404296875,7.707839965820313
10.212000000000046,0.5815460205078126,7.936480712890625,7.0165344238281255
10.223000000000011,0.283819580078125,7.08621826171875,5.047891235351563
10.232000000000028,0.4122711181640625,5.026806640625001,4.2700042724609375
10.24200000000002,0.9954620361328126,4.09788818359375,4.4322509765625
10.25200000000001,0.0653472900390625,7.926312255859376,5.268756103515625
10.262,-0.9126190185546876,12.67288818359375,5.261727905273438
10.272000000000048,-0.8302246093750001,12.359460449218751,3.2643737792968754
10.282000000000032,1.4286682128906252,10.236047363281251,6.210534667968751
10.292000000000035,1.9825500488281247,6.764117431640625,12.381442260742189
10.302000000000028,0.699530029296875,5.216268920898438,9.619210815429687
10.312000000000012,-0.9953125,4.117776489257813,2.3249877929687504
10.324000000000012,-2.0045318603515625,7.135714721679688,1.4566314697265623
10.333000000000029,-0.4583282470703125,9.269744873046877,4.828970336914063
10.343000000000018,0.3566436767578125,9.079086303710938,6.744079589843751
10.353000000000002,-0.2130889892578125,7.526303100585938,8.523858642578126
10.363,-0.0614593505859375,7.986874389648438,9.306231689453126
10.373000000000047,0.9078338623046877,9.110787963867187,6.944158935546875
10.383000000000038,-0.179742431640625,9.097030639648438,3.6826263427734376
10.393000000000036,-0.5797515869140626,8.010501098632814,2.3535491943359377
10.403000000000027,-0.1160400390625,7.407272338867188,4.205404663085938
10.413000000000013,1.0558746337890623,6.057260131835938,6.325228881835938
10.423000000000002,0.386102294921875,6.21292724609375,6.357528686523438
10.43300000000005,-0.600836181640625,8.266357421875,5.670111083984375
10.44300000000004,0.0897216796875,10.239486694335938,5.716168212890626
10.453000000000038,0.6392669677734375,9.959255981445311,6.000286865234376
10.463000000000022,0.411822509765625,7.989865112304688,6.021371459960938
10.473000000000011,0.1969390869140625,6.870138549804688,6.422576904296876
10.483000000000004,0.1739105224609375,6.5873657226562505,6.598431396484376
10.494000000000028,0.137872314453125,6.395809936523438,4.954132080078125
10.50400000000002,0.296380615234375,7.183566284179688,3.8095825195312494
10.515000000000043,0.4062896728515625,8.520419311523439,4.717416381835938
10.524,-0.0333465576171875,8.844464111328126,6.031689453125001
10.534000000000049,-0.01375732421875,7.996295166015625,6.830960083007813
10.54400000000004,0.6066680908203126,8.075399780273438,7.371832275390625
10.554000000000038,0.6519775390625,7.942312622070313,7.016085815429688
10.564000000000028,-0.4032989501953125,6.5275512695312505,5.534332275390625
10.574000000000012,-0.7569519042968751,4.56204833984375,4.6990234375
10.584000000000003,-0.3147735595703125,4.871737670898438,4.685415649414063
10.594000000000053,-0.4317108154296875,9.79521484375,4.387539672851563
10.604000000000042,-0.772802734375,12.846499633789064,3.8030029296875
10.614000000000033,-0.5848358154296875,11.0214111328125,4.086972045898438
10.625,0.6530242919921876,8.491708374023439,9.751849365234376
10.635000000000048,1.8847534179687504,6.462353515625001,12.665411376953124
10.645000000000032,0.9697418212890626,5.011404418945313,6.509756469726563
10.655000000000037,-1.0913146972656251,5.302850341796876,1.0591644287109376
10.665000000000028,-0.0880767822265625,8.660086059570313,3.529800415039063
10.675000000000011,1.7226562500000002,9.278717041015623,6.181674194335938
10.685000000000002,1.8144714355468752,7.594790649414063,5.945556640625
10.69500000000005,0.6533233642578126,7.627239990234376,7.162780761718751
10.70500000000004,0.2044158935546875,9.217257690429689,9.421673583984376
10.715000000000032,-0.0408233642578125,9.52066650390625,6.6277404785156255
10.725000000000025,-0.9334045410156252,8.375518798828125,1.7576477050781252
10.735000000000014,-0.16807861328125,7.716064453125001,2.8613739013671875
10.745000000000005,0.7224090576171875,6.956869506835938,7.242333984375
10.755000000000052,-0.0644500732421875,5.906378173828125,6.382052612304688
10.765000000000043,-0.7529144287109375,6.705349731445313,4.503878784179688
10.77600000000001,0.2708099365234375,9.126638793945313,6.353640747070313
10.787000000000036,0.79373779296875,10.15888671875,6.596636962890625
10.79600000000005,0.2555572509765625,9.03138427734375,4.717864990234375
10.80600000000004,0.2253509521484375,7.721746826171875,5.784506225585938
10.816000000000038,0.5139556884765626,7.0060668945312505,7.22139892578125
10.826000000000022,0.41690673828125,6.214572143554688,5.656802368164063
10.836000000000013,0.1386199951171875,6.380108642578126,4.545748901367188
10.846000000000004,-0.244342041015625,7.787692260742188,5.140304565429688
10.856000000000051,0.02452392578125,8.730517578125001,5.347262573242188
10.866000000000042,-0.2026214599609375,8.471820068359376,5.836544799804688
10.876000000000031,-0.4655059814453125,8.183663940429689,7.239492797851563
10.886000000000024,-0.0913665771484375,8.004968261718751,7.212576293945313
10.896000000000017,0.1806396484375,6.953131103515625,5.800656127929688
10.906000000000006,0.444720458984375,4.479205322265625,4.820596313476563
10.917000000000035,0.504833984375,5.3451690673828125,4.435690307617188
10.927000000000028,-0.1921539306640625,9.946395874023438,5.06688232421875
10.937000000000012,-0.3117828369140625,12.653448486328124,4.188357543945313
10.947000000000005,0.3231475830078125,9.886880493164064,3.8560882568359376
10.95700000000005,2.326632690429688,8.347555541992188,8.430398559570314
10.96700000000004,1.6396636962890627,6.840380859375,12.266299438476564
10.977000000000032,-0.0418701171875,5.085723876953125,6.816305541992188
10.987000000000023,-1.4551361083984375,5.599530029296876,0.562255859375
10.997000000000014,-1.1772979736328126,9.18690185546875,3.6441955566406254
11.007000000000003,0.5791534423828125,9.4135986328125,6.608151245117188
11.017000000000053,-0.1861724853515625,7.0509277343750005,7.338336181640625
11.027000000000044,-0.358587646484375,6.9635986328125,8.2005615234375
11.037000000000036,-0.4873382568359375,8.899942016601564,8.279217529296876
11.048000000000002,0.1789947509765625,9.513040161132814,5.149426269531251
11.05800000000005,-0.7331756591796875,8.679376220703126,2.4381866455078125
11.06800000000004,-0.1849761962890625,8.007659912109375,3.7611328125
11.078000000000038,0.8264862060546876,6.744378662109376,6.830661010742188
11.088000000000022,0.9805084228515626,5.8666015625000005,6.580337524414063
11.098000000000011,0.14654541015625,7.106704711914063,4.997198486328125
11.108000000000004,0.1084136962890625,9.456216430664064,5.435189819335938
11.118000000000052,0.60950927734375,10.08232421875,5.8654052734375
11.128000000000045,0.3696533203125,8.739639282226562,5.268606567382813
11.138000000000034,0.1926025390625,7.30513916015625,6.258236694335938
11.148000000000025,0.2307342529296875,7.035824584960938,7.303643798828125
11.158000000000015,-0.178546142578125,6.792080688476563,5.803646850585938
11.168000000000006,-0.203070068359375,6.925915527343751,4.078897094726563
11.178000000000054,0.225201416015625,7.737298583984375,4.766314697265625
11.188000000000043,0.153125,8.5259521484375,5.802001953125
11.198000000000036,-0.14415283203125,8.082577514648438,5.940921020507813
11.209000000000003,0.17705078125,7.962200927734376,6.612487792968751
11.219000000000053,0.6599029541015625,8.236898803710938,7.232315063476563
11.229000000000042,0.4388885498046875,7.8189453125,6.227581787109376
11.239000000000033,-0.0749176025390625,7.342822265625,5.117724609375
11.249000000000024,-0.1685272216796875,6.602917480468751,5.48558349609375
11.259000000000016,-0.2739501953125,4.766763305664063,5.336944580078125
11.269000000000004,-0.2906982421875,4.348211669921875,4.331314086914063
11.279000000000051,-0.6027801513671875,10.081875610351563,4.489373779296876
11.289000000000044,-0.9127685546875,14.22327880859375,4.937084960937501
11.299000000000037,-0.448907470703125,11.855822753906253,3.803302001953125
11.309000000000026,1.5900177001953126,8.228524780273439,8.464343261718751
11.319000000000017,2.2040130615234377,6.252853393554688,14.052359008789065
11.329000000000008,0.8813659667968751,4.515841674804688,8.092745971679689
11.34200000000004,-1.5858306884765627,4.212881469726563,0.6733612060546875
11.350000000000025,-2.0994873046875,7.702157592773438,0.7292877197265626
11.360000000000014,0.5837890625000001,10.252197265625,6.715518188476563
11.370000000000005,2.061056518554688,8.656796264648438,6.3893798828125
11.380000000000052,1.7307312011718752,7.776327514648438,6.74527587890625
11.390000000000043,0.679791259765625,8.763714599609376,9.7940185546875
11.400000000000034,0.5292083740234376,9.5188720703125,7.960556030273438
11.410000000000023,-0.8874969482421876,8.075250244140626,1.8363037109375
11.420000000000016,-0.9144134521484376,7.157846069335938,1.2019714355468751
11.430000000000009,0.9724334716796876,7.8751708984375,6.273190307617188
11.442000000000007,0.5639007568359375,5.9448089599609375,7.450338745117188
11.450000000000044,-0.4498046875,6.253451538085938,4.717715454101563
11.460000000000036,0.066094970703125,9.056506347656253,5.574407958984375
11.470000000000027,0.9691436767578124,10.7821533203125,7.181771850585938
11.481000000000051,0.18363037109375,9.175985717773438,5.5184814453125
11.490000000000002,-0.3428863525390625,7.105059814453125,5.194137573242188
11.501000000000031,0.28292236328125,6.696826171875,7.38768310546875
11.511000000000024,0.3404937744140625,6.297863769531251,6.452035522460938
11.521000000000017,-0.376531982421875,6.533532714843751,3.7437866210937503
11.531000000000006,-0.1724151611328125,7.896255493164063,3.974969482421875
11.542000000000035,0.345428466796875,9.292623901367188,5.648727416992188
11.551000000000045,-0.028411865234375,8.436380004882814,6.533981323242188
11.561000000000035,-0.29608154296875,7.69632568359375,7.375271606445313
11.571000000000026,0.3231475830078125,7.767355346679688,7.770046997070313
11.581000000000016,0.8486175537109376,7.308129882812499,6.204852294921875
11.591000000000008,0.7926910400390625,4.804446411132813,4.168917846679688
11.601000000000006,0.7941864013671875,4.47830810546875,3.757095336914063
11.611000000000049,-0.1449005126953125,8.697769165039062,4.956674194335938
11.622000000000014,-0.6436035156250001,12.828704833984377,4.28690185546875
11.632000000000003,0.1700225830078125,11.574844360351562,3.5661376953125004
11.642000000000053,2.511907958984376,9.203201293945312,7.88115234375
11.652000000000044,1.8846038818359376,7.392468261718751,12.603652954101564
11.662000000000036,0.07835693359375,5.478854370117188,9.222491455078126
11.672000000000024,-1.274346923828125,4.643395996093751,2.2025177001953127
11.682000000000016,-2.212835693359376,7.1585937500000005,1.603326416015625
11.692000000000007,-0.7325775146484376,8.626589965820314,4.720407104492188
11.701999999999998,-0.2726043701171875,8.943008422851562,6.7428833007812505
11.712000000000046,-0.36785888671875,7.682717895507813,8.419183349609376
11.722000000000037,-0.7092498779296875,8.033380126953126,8.356527709960938
11.732000000000028,0.4625152587890625,9.483880615234376,6.236703491210938
11.74200000000002,0.286212158203125,9.053067016601563,4.451242065429688
11.75200000000001,-0.3470733642578125,7.662380981445313,3.189605712890625
11.762,0.1734619140625,6.790585327148438,4.323538208007813
11.772000000000048,1.5228759765625002,6.482391357421876,6.270050048828126
11.783000000000015,0.7831207275390626,6.552075195312501,6.2099365234375
11.793000000000006,-0.5972473144531251,8.155401611328125,5.107855224609375
11.803000000000054,0.1748077392578125,10.067221069335938,5.9253692626953125
11.813000000000043,0.796429443359375,9.668707275390624,6.794772338867188
11.823000000000036,0.210845947265625,7.892666625976563,5.936734008789063
11.833000000000029,-0.25062255859375,7.104461669921876,5.770599365234375
11.843000000000018,-0.3241943359375,7.056460571289063,6.543252563476563
11.853000000000002,-0.1057220458984375,6.581683349609375,5.052825927734375
11.863,0.13218994140625,6.756939697265626,3.913061523437501
11.874000000000024,0.18363037109375,8.218206787109375,5.170809936523438
11.883000000000038,0.11663818359375,8.790182495117188,6.3720336914062505
11.894000000000004,0.25301513671875,8.270095825195312,6.497195434570313
11.903000000000027,0.6002380371093751,8.28848876953125,6.791482543945313
11.913000000000013,0.8033081054687501,8.232412719726563,6.606954956054688
11.924000000000037,0.0207855224609375,6.966290283203126,5.738150024414063
11.934000000000026,-0.23865966796875,4.816110229492188,5.235708618164063
11.944000000000017,0.0275146484375,3.887939453125,4.805343627929688
11.954000000000008,-0.6660339355468751,7.571762084960938,4.259237670898438
11.964000000000006,-1.0442108154296876,13.002017211914064,4.13018798828125
11.974000000000046,-0.9547882080078126,12.280206298828126,3.587820434570313
11.984000000000036,0.9338531494140626,10.530783081054688,6.968533325195313
11.994000000000028,1.987185668945313,6.930999755859376,13.26026611328125
12.00400000000002,1.726992797851563,5.11712646484375,10.566671752929688
12.01400000000001,-0.7557556152343751,4.126599121093751,2.1993774414062504
12.024,-2.185321044921875,6.721649169921876,0.7602416992187501
12.034000000000049,-0.3273345947265625,9.477151489257814,4.728033447265625
12.04400000000004,1.406985473632813,8.762667846679689,5.977557373046875
12.054000000000038,1.6686737060546877,7.687203979492188,6.917242431640625
12.064999999999998,0.6267059326171875,8.259329223632813,9.091946411132811
12.075000000000044,0.5905181884765626,9.509152221679688,8.788836669921876
12.085000000000036,-0.3385498046875,9.069815063476565,3.586175537109375
12.095000000000027,-1.085931396484375,7.668661499023438,1.12989501953125
12.105000000000018,0.874188232421875,7.608099365234375,5.329168701171875
12.115000000000002,0.8314208984375001,5.948248291015625,7.77169189453125
12.125,-0.2619873046875,6.019427490234375,5.093350219726563
12.135000000000048,0.0088226318359375,8.169009399414064,4.9170471191406255
12.145000000000032,0.523077392578125,10.398892211914063,6.704302978515625
12.155000000000037,0.2809783935546875,9.864898681640623,5.596090698242188
12.165000000000028,0.1033294677734375,8.140298461914064,4.998843383789063
12.175000000000011,0.0916656494140625,7.203155517578126,7.173098754882813
12.185000000000002,0.1766021728515625,6.603665161132813,6.684713745117188
12.19500000000005,-0.069384765625,6.0943450927734375,4.4190917968750005
12.206000000000016,-0.2356689453125,7.08262939453125,4.6583496093750005
12.216000000000008,0.1323394775390625,8.518923950195314,5.490069580078125
12.226000000000006,0.0584686279296875,8.629730224609375,5.275485229492188
12.236000000000049,-0.3004180908203125,8.226730346679688,6.6322265625000005
12.246000000000038,0.1006378173828125,8.129531860351562,7.932443237304688
12.256000000000036,0.4550384521484375,7.969229125976563,6.608599853515625
12.266000000000028,0.512908935546875,6.395062255859376,5.183370971679688
12.27600000000001,0.7621856689453126,4.492962646484376,4.997198486328125
12.286,0.9103759765625,5.0441528320312505,4.526608276367188
12.29600000000005,-0.1963409423828125,10.1026611328125,4.793679809570313
12.30600000000004,-0.7469329833984375,13.150656127929688,3.8222930908203128
12.316000000000038,0.3204559326171875,10.979690551757812,3.785357666015625
12.326000000000022,2.2970245361328128,8.220300292968751,8.770294189453125
12.336000000000013,1.301263427734375,6.48448486328125,13.339071655273438
12.347000000000037,0.0681884765625,5.06090087890625,7.148873901367188
12.357000000000028,-1.7920410156250002,5.357879638671875,1.1473907470703126
12.36700000000002,-1.85245361328125,8.224786376953126,2.0013916015625
12.37700000000001,0.1449005126953125,9.318942260742189,5.9747161865234375
12.387,-0.1918548583984375,8.157196044921875,7.356579589843751
12.397000000000048,-0.5084228515625,7.156350708007813,8.213122558593751
12.407000000000032,-0.249725341796875,8.319143676757813,8.15689697265625
12.417000000000035,0.8030090332031251,9.627734375,5.862564086914063
12.427000000000028,-0.270062255859375,9.122152709960938,3.5674835205078126
12.437000000000012,-0.3698028564453125,7.738793945312499,2.894271850585937
12.447000000000005,0.7393066406250001,6.73570556640625,5.313317871093751
12.45700000000005,1.262384033203125,6.06817626953125,6.8012023925781255
12.46700000000004,0.4490570068359375,6.720004272460938,5.972921752929688
12.477000000000032,-0.6793426513671875,8.650515747070314,5.335000610351563
12.488,-0.07716064453125,10.197467041015626,5.768057250976563
12.498000000000047,0.7790832519531251,9.270941162109375,6.178384399414063
12.508000000000038,0.2666229248046875,7.633221435546876,6.179879760742188
12.518000000000036,-0.3787750244140625,6.994702148437501,6.462353515625001
12.528000000000027,-0.1676300048828125,6.944158935546875,5.986080932617188
12.538000000000013,0.113348388671875,6.846810913085938,4.463504028320313
12.548000000000002,0.3297271728515625,7.289886474609376,4.372286987304688
12.55800000000005,0.2666229248046875,8.354434204101564,5.369393920898438
12.56800000000004,0.0910675048828125,8.451034545898438,6.204254150390626
12.578000000000038,0.4278228759765625,8.017080688476563,6.878662109375001
12.588000000000022,0.731231689453125,8.321536254882814,6.962402343750001
12.598000000000011,0.4711883544921875,7.768701171875,6.142196655273438
12.608000000000004,-0.487786865234375,5.904733276367188,5.448947143554688
12.618000000000052,-0.10347900390625,4.12181396484375,5.229428100585938
12.628000000000045,-0.49586181640625,5.7424865722656255,4.7365570068359375
12.63900000000001,-1.1780456542968751,11.295211791992188,3.905435180664063
12.649,-1.24832763671875,12.766497802734376,3.8850982666015614
12.659000000000049,0.232379150390625,11.052215576171877,5.457022094726563
12.66900000000004,1.344180297851563,7.947994995117188,11.09857177734375
12.679000000000038,1.67301025390625,5.827273559570313,11.419326782226562
12.689000000000028,0.42647705078125,4.281219482421875,4.7111358642578125
12.699000000000012,-1.5319976806640627,5.604464721679688,1.0495941162109377
12.709000000000003,-0.3727935791015625,9.014785766601562,3.529501342773438
12.719000000000053,1.4928192138671876,9.2963623046875,5.974417114257813
12.729000000000042,2.5518341064453125,7.696624755859376,6.973019409179688
12.739000000000033,1.0950531005859376,7.670156860351563,8.508456420898439
12.749000000000024,0.3180633544921875,9.27662353515625,9.063833618164065
12.760000000000048,-0.1638916015625,9.385186767578126,5.367300415039063
12.769000000000004,-0.9903778076171876,8.207888793945314,1.350311279296875
12.780000000000037,-0.2639312744140625,7.646231079101563,3.272149658203125
12.790000000000028,0.4218414306640625,6.54429931640625,7.343270874023438
12.800000000000011,-0.278436279296875,5.739794921875,6.819296264648438
12.810000000000002,-0.4209442138671875,7.233212280273438,4.866055297851563
12.82000000000005,0.6663330078125,9.931890869140624,5.8834991455078125
12.83000000000004,0.7973266601562501,10.49683837890625,6.145635986328125
12.840000000000032,0.146246337890625,8.63660888671875,4.928262329101563
12.850000000000025,0.2100982666015625,7.453030395507813,5.707794189453125
12.860000000000014,0.65736083984375,6.647030639648438,7.116873168945313
12.870000000000005,0.46954345703125,5.955874633789063,5.752056884765626
12.880000000000052,0.000299072265625,6.493905639648438,4.535580444335938
12.890000000000043,0.013458251953125,8.314807128906251,4.897457885742188
12.90100000000001,0.023028564453125,8.98114013671875,5.56334228515625
12.910000000000023,-0.448907470703125,8.2962646484375,6.405679321289063
12.92100000000005,-0.631939697265625,7.924816894531251,7.515386962890625
12.93100000000004,-0.1449005126953125,7.916592407226563,7.228277587890625
12.941000000000038,0.03349609375,6.830661010742188,5.667718505859376
12.951000000000022,0.266473388671875,4.6299377441406255,4.503878784179688
12.961000000000013,0.7164276123046875,5.0341339111328125,4.339688110351563
12.971000000000004,-0.0342437744140625,9.779962158203126,5.0785461425781255
12.981000000000051,-0.1030303955078125,13.111776733398438,4.26776123046875
12.991000000000042,0.6871185302734375,10.75404052734375,3.481948852539063
13.001000000000031,1.6979827880859375,8.043099975585939,8.163476562500001
13.011000000000024,1.466799926757813,6.037820434570313,12.712216186523438
13.021000000000017,0.57362060546875,5.135519409179688,7.895507812500001
13.031000000000006,-1.2372619628906252,5.519528198242188,1.0777069091796876
13.043000000000006,-1.2918426513671877,8.77298583984375,1.4561828613281251
13.051000000000045,0.6939971923828125,10.161428833007813,6.349005126953125
13.062000000000012,-0.43485107421875,7.122555541992188,8.572607421875
13.072000000000005,-0.8013641357421876,6.686508178710938,7.975509643554688
13.08200000000005,-0.3153717041015625,8.389874267578126,7.715316772460938
13.09200000000004,1.1385681152343752,10.076641845703126,6.281863403320313
13.102000000000032,-0.7820739746093751,9.14921875,3.0786499023437504
13.112000000000023,-1.3067962646484377,7.763317871093751,2.090963745117188
13.122000000000014,0.74588623046875,6.719107055664063,6.030044555664063
13.132000000000003,1.6760009765625,6.042904663085938,7.968182373046876
13.143000000000036,0.307147216796875,6.561645507812501,5.572314453125
13.152000000000044,-0.117535400390625,8.859716796875,4.485784912109375
13.162000000000036,0.6859222412109376,10.383340454101564,6.142495727539063
13.172000000000024,0.7861114501953126,9.214865112304688,6.155056762695313
13.182000000000016,0.185723876953125,7.291680908203125,5.479452514648438
13.192000000000007,-0.103778076171875,6.848904418945313,6.7787719726562505
13.201999999999998,-0.124713134765625,7.232614135742188,6.607403564453126
13.213000000000022,-0.0925628662109375,7.032534790039063,4.249517822265625
13.223000000000011,-0.12620849609375,7.448245239257813,3.827377319335938
13.233000000000004,-0.1120025634765625,8.355630493164064,5.800656127929688
13.243000000000052,-0.0898712158203125,8.365350341796876,6.639105224609375
13.253000000000045,-0.1460968017578125,7.775878906250001,6.4468017578125005
13.263000000000034,0.4556365966796875,7.910910034179688,6.759182739257813
13.273000000000025,0.8275329589843751,8.133270263671875,6.485382080078126
13.283000000000015,0.214434814453125,7.575201416015625,5.3868896484375
13.293000000000006,-0.467449951171875,5.7125793457031255,5.0375732421875
13.303000000000054,-0.050543212890625,4.424325561523438,5.057461547851563
13.313000000000043,0.6862213134765626,6.327471923828125,5.0280029296875
13.323000000000036,-0.029010009765625,11.563330078125,4.788446044921876
13.333000000000029,-0.8098876953125,13.000820922851563,3.9818481445312495
13.344000000000053,-0.1090118408203125,10.281805419921875,5.306439208984376
13.354000000000042,1.1755035400390623,7.043301391601563,10.778863525390626
13.364000000000033,1.577456665039063,5.475265502929688,11.45985107421875
13.374000000000024,-0.01734619140625,4.73251953125,4.734463500976563
13.384000000000016,-1.377227783203125,6.574057006835938,0.5281616210937501
13.394000000000004,-0.1758544921875,9.475357055664062,3.714926147460938
13.404000000000051,2.041766357421875,9.332101440429687,6.334350585937501
13.414000000000044,-0.15731201171875,7.113134765625,6.968533325195313
13.424000000000037,-0.4987030029296875,7.669259643554688,8.461502075195312
13.434000000000026,1.066192626953125,9.238043212890624,9.132022094726564
13.444000000000017,0.21473388671875,9.22578125,5.215222167968751
13.454000000000008,-0.6826324462890625,8.111886596679689,1.3838073730468752
13.465000000000032,0.2660247802734375,7.456021118164063,3.9507446289062496
13.474000000000046,0.9849945068359376,6.580487060546876,7.246221923828125
13.485000000000014,0.358587646484375,5.947052001953125,5.937033081054688
13.495000000000005,0.0171966552734375,7.418038940429688,4.896261596679688
13.505000000000052,0.43544921875,9.8729736328125,6.591104125976563
13.515000000000043,0.3997100830078125,10.258926391601562,6.056063842773438
13.525000000000034,-0.1906585693359375,8.695526123046875,4.5272064208984375
13.535000000000023,-0.145947265625,7.369589233398438,6.163430786132813
13.545000000000016,0.07476806640625,6.840231323242188,7.307083129882813
13.555000000000009,-0.2370147705078125,6.0131469726562505,5.316159057617188
13.564999999999998,-0.36187744140625,6.551028442382813,4.417446899414063
13.575000000000044,0.124114990234375,8.132672119140626,5.42218017578125
13.585000000000036,0.2117431640625,8.997888183593751,5.341879272460938
13.595000000000027,-0.2513702392578125,8.387930297851563,5.835797119140626
13.605000000000018,0.02332763671875,8.145382690429688,7.542602539062501
13.615000000000002,0.620574951171875,7.963696289062501,7.366598510742188
13.625,0.5819946289062501,7.37691650390625,5.523266601562501
13.635000000000048,0.423486328125,6.053372192382813,5.026058959960938
13.646000000000017,0.9103759765625,4.9204864501953125,4.855438232421875
13.656000000000006,0.8783752441406251,5.6064086914062505,4.2755371093750005
13.666000000000054,-0.214434814453125,9.642538452148438,4.605114746093751
13.676000000000045,-0.4206451416015625,13.39649353027344,4.705453491210938
13.686000000000035,0.8940765380859376,11.864495849609376,5.051629638671876
13.696000000000026,0.4403839111328125,8.1527099609375,8.879605102539063
13.706000000000016,0.90260009765625,5.199221801757813,11.668753051757813
13.716000000000008,0.39716796875,4.812371826171876,7.573556518554688
13.726000000000006,-1.5209320068359375,5.44132080078125,2.0120086669921875
13.736000000000049,-2.0784027099609377,7.822235107421876,0.786260986328125
13.746000000000038,-0.057421875,9.685305786132814,4.576852416992188
13.756000000000036,0.457281494140625,8.855230712890625,8.348901367187501
13.767000000000053,0.1954437255859375,7.069619750976563,9.860562133789063
13.777000000000044,-0.1224700927734375,7.984182739257813,8.075250244140626
13.787000000000036,0.7248016357421876,9.62115478515625,5.5735107421875005
13.797000000000024,0.2938385009765625,9.165667724609376,3.664382934570313
13.807000000000016,-0.1242645263671875,7.658642578125001,2.77718505859375
13.817000000000007,0.4661041259765625,6.462802124023438,4.892672729492188
13.826999999999998,1.0279113769531252,6.109298706054688,6.672900390625
13.837000000000046,0.3063995361328125,6.673648071289063,6.373977661132813
13.847000000000037,-0.7917938232421876,8.925961303710938,5.310626220703125
13.857000000000028,-0.336456298828125,10.43702392578125,5.739495849609376
13.86700000000002,0.1514801025390625,9.470870971679688,6.348855590820313
13.87700000000001,0.1673309326171875,7.275531005859375,6.423324584960938
13.887,0.02930908203125,6.481494140625,6.62205810546875
13.897000000000048,-0.0494964599609375,6.815856933593751,6.149673461914063
13.907000000000032,0.05802001953125,7.236502075195313,4.505075073242188
13.917000000000035,0.260491943359375,7.895358276367188,3.5471466064453128
13.927000000000028,0.6552673339843751,8.556158447265625,4.705752563476563
13.938000000000043,0.334661865234375,8.611187744140626,6.432894897460938
13.948000000000036,0.2866607666015625,7.913900756835938,7.0225158691406255
13.958000000000029,0.6890625,7.767803955078126,6.555664062500001
13.968000000000018,0.8197570800781251,7.562939453125001,6.567776489257813
13.978000000000002,0.346026611328125,7.501779174804688,6.409866333007813
13.988,-0.416607666015625,6.176889038085938,5.2576904296875
13.998000000000047,-0.4559356689453125,4.805792236328125,4.417446899414063
14.008000000000038,-0.43544921875,5.643045043945313,5.206698608398438
14.018000000000036,-0.6724639892578126,10.116418457031251,5.15062255859375
14.028000000000027,-1.0965484619140626,12.733599853515626,4.012951660156251
14.038000000000013,-0.7591949462890626,11.501870727539064,4.90777587890625
14.048000000000002,0.6455474853515626,8.23345947265625,9.242379760742187
14.05800000000005,1.8032562255859377,6.000885009765625,10.757330322265624
14.069000000000017,0.7678680419921876,4.783511352539063,6.645834350585938
14.079000000000008,-0.646893310546875,5.277429199218751,2.160797119140625
14.089000000000006,-0.6805389404296875,8.4350341796875,2.44342041015625
14.099000000000046,1.4660522460937502,9.566125488281251,5.4733215332031255
14.109000000000036,2.497552490234375,8.327069091796876,7.515835571289063
14.119000000000028,0.530853271484375,7.216015625000001,8.490960693359376
14.12900000000002,0.463861083984375,8.7568359375,8.302096557617189
14.13900000000001,0.5821441650390625,9.398645019531251,6.215618896484376
14.149,-0.8955718994140626,8.4278564453125,2.8129241943359378
14.160000000000023,-1.0712768554687502,7.465591430664063,2.4159057617187503
14.16900000000004,0.3385498046875,6.833651733398438,5.930004882812501
14.179000000000038,0.23507080078125,6.170159912109376,7.37691650390625
14.189000000000028,-0.336456298828125,7.006964111328125,5.46405029296875
14.200000000000044,0.0686370849609375,9.200509643554687,5.407974243164063
14.210000000000036,0.599041748046875,10.395004272460938,6.722097778320313
14.221000000000004,0.1780975341796875,9.138003540039064,5.586819458007813
14.230000000000018,0.122021484375,7.437030029296875,4.870242309570313
14.240000000000002,0.448309326171875,7.0060668945312505,6.660488891601563
14.25,0.3617279052734375,6.466091918945313,6.424520874023438
14.260000000000048,0.118133544921875,6.399697875976563,4.2027130126953125
14.270000000000032,0.2848663330078125,7.658343505859375,4.495205688476563
14.280000000000037,0.437542724609375,8.825772094726563,5.9981933593750005
14.290000000000028,-0.060113525390625,8.574551391601563,6.116177368164063
14.300000000000011,-0.4894317626953125,8.036819458007812,6.66990966796875
14.310000000000002,-0.02093505859375,8.026651000976564,7.476956176757813
14.32000000000005,0.161798095703125,7.391122436523438,6.563888549804688
14.33000000000004,0.3075958251953125,5.453433227539063,4.753753662109375
14.340000000000032,0.7153808593750001,4.326528930664063,3.958969116210938
14.350000000000025,0.2271453857421875,6.9821411132812505,4.3966613769531255
14.361000000000049,-0.5646484375,12.131417846679687,4.972824096679688
14.371000000000038,0.21114501953125,12.748254394531251,3.5990356445312504
14.381000000000036,1.6236633300781251,9.745568847656251,5.493508911132813
14.391000000000028,1.6299438476562502,6.685162353515626,12.302188110351564
14.40100000000001,1.024322509765625,5.654708862304688,11.510095214843751
14.411,-0.9740783691406252,4.87906494140625,3.702963256835938
14.42100000000005,-2.039523315429688,6.664077758789063,-0.2702117919921875
14.43100000000004,-0.7393066406250001,9.213369750976565,4.0302978515625005
14.441000000000038,0.677099609375,9.350942993164065,7.042703247070313
14.451000000000022,-0.433056640625,7.055712890625,8.557504272460939
14.461000000000013,-0.4466644287109375,7.533480834960938,8.376864624023439
14.471000000000004,-0.0025421142578125,9.181369018554689,7.270596313476563
14.482000000000028,0.3626251220703125,9.718951416015626,4.464550781250001
14.49200000000002,-0.721661376953125,8.086166381835938,2.7182678222656254
14.50200000000001,-0.4667022705078125,7.197323608398438,4.263275146484375
14.512,1.5539794921875,6.10107421875,6.944906616210938
14.522000000000048,1.1638397216796876,6.273638916015625,6.446652221679688
14.532000000000032,-0.6527252197265625,7.794570922851563,4.97117919921875
14.542000000000035,-0.0151031494140625,10.013687133789062,5.477059936523438
14.552000000000028,0.7179229736328125,10.143634033203126,6.194683837890626
14.562000000000012,0.47373046875,8.228823852539064,5.625399780273438
14.572000000000005,-0.0294586181640625,6.913504028320313,6.087017822265626
14.58200000000005,-0.2172760009765625,6.888681030273438,6.954776000976563
14.59200000000004,-0.256903076171875,6.852044677734376,5.502630615234375
14.602000000000032,0.0880767822265625,7.005767822265626,3.676495361328125
14.612000000000023,0.4246826171875,7.916592407226563,4.749267578125
14.622000000000014,0.094805908203125,8.581280517578126,6.322387695312501
14.632000000000003,-0.079852294921875,8.2675537109375,6.404034423828126
14.643000000000036,0.5997894287109375,7.9810424804687505,6.695480346679688
14.653000000000027,0.8200561523437501,8.138803100585939,6.91873779296875
14.663000000000013,0.40614013671875,7.685708618164063,5.8486572265625005
14.673000000000002,-0.376531982421875,5.746823120117188,5.14105224609375
14.68300000000005,-0.3488677978515625,4.298117065429688,5.0819854736328125
14.69300000000004,0.327783203125,5.601324462890625,4.47471923828125
14.703000000000038,-0.047552490234375,11.032327270507814,3.993063354492188
14.713000000000022,-0.9820037841796876,13.400979614257814,4.236508178710938
14.723000000000011,-0.4502532958984375,10.959054565429687,5.479153442382813
14.733000000000004,0.7971771240234375,7.564584350585938,10.173391723632813
14.743000000000052,1.80400390625,5.719906616210938,11.851336669921876
14.753000000000045,0.3312225341796875,4.58597412109375,6.111541748046875
14.763000000000034,-1.239654541015625,5.703756713867188,0.9305633544921876
14.773000000000025,-0.7212127685546875,8.89859619140625,2.6825286865234377
14.784000000000049,1.71787109375,9.682913208007813,6.115130615234375
14.79400000000004,1.6725616455078127,7.822085571289063,7.538116455078126
14.804000000000038,-0.7738494873046876,7.4875732421875005,8.238394165039063
14.814000000000028,0.5953033447265625,9.087460327148438,8.360864257812501
14.824000000000012,0.7340728759765626,9.541900634765623,5.803347778320313
14.834000000000003,-0.4916748046875,8.2508056640625,2.152572631835937
14.844000000000053,-0.23746337890625,7.272390747070313,2.6140411376953128
14.854000000000042,0.710296630859375,6.656451416015625,6.534429931640625
14.864000000000033,0.359185791015625,6.149972534179688,7.189697265625001
14.874000000000024,-0.179144287109375,6.976757812500001,5.375225830078126
14.884000000000016,0.0342437744140625,9.577490234375,5.549435424804688
14.894000000000004,0.42767333984375,10.571755981445314,6.499737548828126
14.904000000000051,0.0641510009765625,8.856277465820312,5.5690246582031255
14.914000000000044,-0.3744384765625,7.191940307617188,5.365057373046875
14.924000000000037,0.1592559814453125,6.665124511718751,6.621011352539063
14.934000000000026,0.3046051025390625,6.211132812500001,5.968136596679688
14.944000000000017,-0.22550048828125,6.43424072265625,4.457522583007813
14.95500000000004,-0.0477020263671875,8.013043212890626,4.494308471679688
14.965000000000032,0.433355712890625,9.122003173828126,5.6381103515625
14.975000000000025,0.0823944091796875,8.547933959960938,6.750210571289063
14.985000000000014,-0.1215728759765625,8.000781250000001,7.377664184570313
14.995000000000005,0.494366455078125,7.888928222656251,7.105957031250001
15.005000000000052,0.6356781005859375,7.467385864257813,5.997296142578126
15.015000000000043,0.32957763671875,5.552276611328125,4.77379150390625
15.025000000000034,0.7108947753906251,4.297817993164063,3.749468994140625
15.035000000000023,0.6353790283203126,6.169262695312501,4.2146759033203125
15.045000000000016,-0.7134368896484375,11.786737060546876,5.2674102783203125
15.055000000000009,-0.1798919677734375,13.460195922851565,4.257144165039063
15.066000000000038,1.1799896240234375,10.954119873046876,5.240493774414063
15.076000000000022,0.8991607666015625,7.097283935546876,11.425906372070314
15.086000000000013,1.2287384033203126,5.177987670898438,11.384185791015623
15.096000000000004,-0.3321197509765625,4.535580444335938,4.546047973632813
15.106000000000051,-1.87637939453125,5.716168212890626,0.5588165283203126
15.116000000000042,-1.2081024169921877,8.85074462890625,2.9249267578125
15.126000000000031,0.2376129150390625,9.886431884765626,6.004922485351563
15.136000000000024,-0.1562652587890625,7.924517822265625,8.739041137695313
15.146000000000017,-0.0740203857421875,7.404431152343751,9.835739135742188
15.156000000000006,0.11065673828125,8.698965454101563,7.920480346679688
15.166000000000054,0.372943115234375,9.338531494140623,4.476962280273438
15.176000000000045,-0.36845703125,8.558251953125001,2.421737670898437
15.186000000000035,-0.0022430419921875,7.424169921875,3.357684326171875
15.197000000000005,0.7973266601562501,6.257040405273438,5.8356475830078125
15.20700000000005,1.0283599853515626,6.052923583984375,6.702059936523438
15.21700000000004,-0.020635986328125,7.3464111328125,6.060848999023438
15.227000000000032,-0.4469635009765625,9.83349609375,5.598333740234375
15.237000000000023,0.3518585205078125,10.514633178710938,5.866152954101563
15.247000000000014,0.417803955078125,8.622552490234376,6.019876098632813
15.257000000000003,-0.02811279296875,6.911709594726563,6.043054199218751
15.267000000000053,-0.0617584228515625,6.626693725585938,6.5559631347656255
15.277000000000044,-0.0925628662109375,6.813912963867188,5.796469116210938
15.287000000000036,-0.1137969970703125,6.980047607421875,3.874630737304688
15.299000000000037,0.441729736328125,7.813711547851563,4.124655151367188
15.307000000000016,0.4320098876953125,8.785845947265626,6.208889770507813
15.317000000000007,-0.06041259765625,8.453576660156251,6.7937255859375005
15.326999999999998,0.4296173095703125,7.910910034179688,6.450839233398438
15.337000000000046,1.0323974609375002,8.016781616210938,6.891970825195313
15.348000000000011,0.6279022216796876,7.7537475585937505,6.476559448242188
15.358000000000004,-0.3766815185546875,6.591702270507813,4.888784790039063
15.368000000000052,-0.5570220947265625,4.917645263671876,4.416250610351563
15.378000000000045,-0.2032196044921875,4.94486083984375,4.955926513671876
15.388000000000034,-0.24224853515625,8.26575927734375,4.714276123046876
15.398000000000025,-0.7940368652343751,12.680215454101564,4.23546142578125
15.408000000000015,-0.9718353271484376,12.394152832031253,5.3043457031250005
15.418000000000006,0.021533203125,9.2736328125,8.393463134765625
15.428000000000054,1.5841857910156252,6.40672607421875,10.920773315429688
15.438000000000043,1.302459716796875,4.8632141113281255,8.423818969726563
15.448000000000036,-0.2971282958984375,4.773941040039063,3.1845214843750003
15.458000000000029,-1.080548095703125,7.175790405273438,1.4199951171875
15.468000000000018,0.5283111572265625,9.523507690429687,4.4146057128906255
15.479000000000042,2.66353759765625,9.27408142089844,7.155603027343751
15.489000000000033,1.2701599121093752,7.523611450195313,8.506063842773438
15.499000000000024,-0.1710693359375,8.400790405273439,8.2197021484375
15.509000000000016,0.989630126953125,9.69293212890625,6.947747802734376
15.519000000000004,-0.214434814453125,8.6096923828125,4.015194702148438
15.529000000000051,-1.12391357421875,7.150219726562501,1.998699951171875
15.539000000000044,-0.0016448974609375,6.873727416992188,4.667919921875001
15.549000000000037,0.6178833007812501,6.44022216796875,7.456768798828126
15.559000000000026,-0.354998779296875,6.624600219726563,5.924322509765625
15.569000000000017,-0.2519683837890625,8.527896118164064,4.980599975585938
15.579000000000008,0.5206848144531251,10.520166015625,6.737051391601563
15.589000000000006,0.2905487060546875,9.704595947265624,6.31461181640625
15.599000000000046,-0.1179840087890625,7.658792114257813,4.596591186523438
15.610000000000014,0.356494140625,6.916644287109375,6.009408569335938
15.619000000000028,0.5432647705078125,6.297564697265625,7.117620849609375
15.630000000000052,0.0264678955078125,6.0479888916015625,4.8868408203125
15.640000000000043,0.090618896484375,7.310821533203126,3.849957275390625
15.650000000000034,0.4580291748046875,8.9901123046875,5.459414672851563
15.661,0.05562744140625,8.920877075195314,6.37681884765625
15.670000000000016,-0.4693939208984375,8.143588256835939,6.602169799804688
15.680000000000009,-0.0533843994140625,7.951583862304688,7.344168090820313
15.689999999999998,0.420794677734375,7.362261962890625,6.937579345703125
15.700000000000044,0.5055816650390625,4.871139526367188,4.661938476562501
15.710000000000036,0.6220703125,4.489523315429688,3.183175659179688
15.720000000000027,0.0157012939453125,7.902984619140626,4.630386352539063
15.730000000000018,-0.731231689453125,12.689785766601563,5.166024780273438
15.740000000000002,0.388494873046875,11.951525878906253,3.7653198242187504
15.75,1.6754028320312502,9.297409057617188,7.052871704101563
15.761000000000024,1.4808563232421876,6.812716674804688,12.903921508789065
15.770000000000032,0.7367645263671876,5.367898559570313,9.543844604492188
15.781000000000006,-1.1295959472656252,4.65177001953125,2.1486846923828127
15.791000000000054,-1.8928283691406247,7.163079833984376,1.0338928222656252
15.801000000000045,-0.184527587890625,9.418533325195312,4.713229370117188
15.811000000000035,-0.0360382080078125,8.934335327148439,6.135317993164063
15.821000000000026,-0.7597930908203125,7.202557373046876,8.172149658203125
15.831000000000016,0.0829925537109375,7.92720947265625,9.4423095703125
15.841000000000008,0.8882446289062501,9.534124755859375,6.8729797363281255
15.851000000000006,0.2423980712890625,9.165518188476565,3.599484252929688
15.861000000000049,-0.9782653808593752,7.851544189453126,3.4417236328125003
15.871000000000038,-0.215032958984375,6.634619140625,5.7912353515625
15.881000000000036,1.6324859619140626,6.384445190429688,6.1644775390625
15.891000000000028,0.503338623046875,6.721649169921876,5.460461425781251
15.90100000000001,-0.6447998046875001,8.263815307617188,5.582632446289063
15.912000000000036,0.049346923828125,9.902581787109376,5.881854248046875
15.922000000000024,0.6628936767578125,9.679623413085938,5.755496215820313
15.932000000000016,0.3300262451171875,7.961154174804688,5.895611572265626
15.942000000000007,-0.07177734375,7.018179321289063,6.3226867675781255
15.951999999999998,-0.053533935546875,7.036721801757813,6.354687500000001
15.962000000000046,-0.0115142822265625,7.136611938476563,5.167071533203125
15.972000000000037,0.13817138671875,7.401589965820313,4.051831054687501
15.982000000000028,0.386700439453125,7.928405761718751,4.834353637695313
15.99200000000002,-0.1327880859375,8.360116577148439,6.3286682128906255
16.00200000000001,-0.1389190673828125,8.064782714843751,6.693386840820313
16.012,0.6555664062500001,7.931396484375001,6.30205078125
16.022000000000048,0.8351593017578126,7.920330810546876,6.332705688476563
16.032000000000032,0.4921234130859375,7.714569091796876,6.187506103515625
16.042000000000037,-0.2141357421875,6.537869262695313,5.384197998046876
16.052000000000028,-0.286810302734375,4.616329956054688,4.533636474609375
16.063000000000045,0.23148193359375,5.130734252929688,4.389035034179688
16.073000000000036,0.2086029052734375,9.378756713867189,4.91136474609375
16.083000000000027,-0.7835693359375001,13.3888671875,4.893569946289063
16.093000000000018,-0.738409423828125,11.842214965820313,5.201763916015626
16.103,0.5779571533203125,8.530886840820314,8.489465332031251
16.113,1.4434722900390626,5.723794555664063,11.612078857421876
16.123000000000047,0.8399444580078126,4.6119934082031255,7.629483032226563
16.133000000000038,-0.834112548828125,5.23077392578125,1.72445068359375
16.143000000000036,-1.148736572265625,7.999285888671875,1.5825408935546876
16.153000000000027,1.359283447265625,10.152008056640623,5.26068115234375
16.16300000000001,1.7734985351562502,8.410211181640626,7.718457031250001
16.173000000000002,-0.5479003906250001,7.433740234375,8.688497924804688
16.18300000000005,-0.0898712158203125,8.553167724609375,8.409164428710938
16.194000000000017,1.294384765625,9.568218994140626,6.518130493164063
16.20300000000004,-0.1341339111328125,8.227926635742188,3.3611236572265626
16.214000000000006,-0.96361083984375,7.01085205078125,2.0902160644531254
16.224000000000046,0.6805389404296875,6.924868774414063,5.247970581054688
16.234000000000037,0.7672698974609375,6.514541625976563,7.276278686523438
16.244000000000028,-0.279034423828125,6.914700317382813,5.698822021484375
16.25400000000002,-0.0234771728515625,8.973214721679689,5.2828125
16.26400000000001,0.5537322998046875,10.589849853515624,6.75723876953125
16.274,0.13936767578125,9.377859497070313,6.0150909423828125
16.28400000000005,-0.2370147705078125,7.245922851562501,4.858578491210938
16.29400000000004,0.085235595703125,6.722994995117188,6.239694213867188
16.304000000000038,0.250921630859375,6.252853393554688,6.823333740234376
16.31400000000003,-0.23507080078125,6.292929077148438,4.64818115234375
16.324000000000012,-0.1440032958984375,7.637707519531251,3.937734985351563
16.335000000000036,0.3952239990234375,9.111236572265623,5.416647338867188
16.34400000000005,0.1191802978515625,8.840426635742189,6.593795776367188
16.355000000000018,-0.19080810546875,8.077044677734376,7.03477783203125
16.365000000000002,0.2477813720703125,7.858572387695313,7.144985961914063
16.375,0.6781463623046875,7.5378173828125,6.278573608398438
16.385000000000048,0.9606201171875,5.40782470703125,4.858279418945313
16.39500000000003,0.990826416015625,4.209292602539063,3.501388549804688
16.405000000000037,0.503338623046875,6.488223266601563,3.697280883789063
16.415000000000028,-0.8048034667968751,12.04947204589844,5.05850830078125
16.42500000000001,0.3252410888671875,13.5695068359375,4.865756225585938
16.435000000000002,1.4660522460937502,10.781106567382814,6.281265258789063
16.44500000000005,0.6174346923828126,6.856231689453126,11.684005737304688
16.45500000000004,1.2158782958984375,4.960263061523438,11.540301513671876
16.465000000000032,-0.35948486328125,4.197030639648438,4.45438232421875
16.475000000000023,-1.9465118408203128,5.5560150146484375,-0.079852294921875
16.486000000000047,-2.159750366210938,8.468081665039064,1.2885528564453126
16.496000000000038,0.0572723388671875,10.319039916992187,6.518280029296876
16.506000000000036,0.2839691162109375,8.809472656250001,9.006860351562501
16.516000000000027,-0.0490478515625,7.455722045898438,10.524502563476563
16.52600000000001,-0.2522674560546875,8.36505126953125,8.037118530273439
16.536,0.252716064453125,9.327017211914065,4.761380004882813
16.54600000000005,-0.435150146484375,8.099923706054689,2.5733673095703127
16.55600000000004,0.01734619140625,7.109097290039063,2.9512451171875003
16.566000000000038,1.2885528564453126,6.536672973632813,5.463153076171875
16.576000000000022,1.2191680908203126,6.263919067382813,6.958963012695313
16.586000000000013,-0.098992919921875,7.33983154296875,5.710635375976563
16.596000000000004,-0.93131103515625,10.037463378906253,5.381655883789063
16.60600000000005,0.3455780029296875,10.663272094726564,6.161636352539063
16.616000000000042,0.254510498046875,8.561691284179688,6.242086791992188
16.626000000000033,-0.15013427734375,6.564935302734376,6.005520629882813
16.637,-0.141162109375,6.445904541015626,6.803744506835938
16.647000000000048,-0.1972381591796875,6.832604980468751,6.179879760742188
