time,ax,ay,az
0.0,0.1054229736328125,7.404132080078125,6.399548339843751
0.0099999999999909,0.0040374755859375,7.291381835937501,6.190347290039063
0.0199999999999818,-0.1511810302734375,7.335494995117188,6.5090087890625
0.0299999999999727,-0.246734619140625,7.3574768066406255,6.439923095703126
0.0399999999999636,-0.3165679931640625,7.536022949218751,6.356631469726563
0.0499999999999545,-0.257501220703125,7.477853393554688,6.299807739257813
0.0599999999999454,-0.215032958984375,7.352841186523438,6.15311279296875
0.0699999999999363,-0.1499847412109375,7.357028198242188,6.460858154296876
0.0810000000000243,-0.0483001708984375,7.33983154296875,6.324780273437501
0.0910000000000152,-0.0082244873046875,7.535125732421876,6.572860717773438
0.100999999999999,0.021234130859375,7.453778076171876,6.367248535156251
0.11099999999999,0.078955078125,7.397103881835938,6.306387329101563
0.1209999999999809,0.12740478515625,7.274783325195313,6.243283081054688
0.1309999999999718,0.218621826171875,7.34940185546875,6.253601074218751
0.1409999999999627,0.17705078125,7.506265258789063,6.390875244140625
0.1509999999999536,0.107366943359375,7.574154663085938,6.34093017578125
0.1609999999999445,0.072076416015625,7.439572143554688,6.441268920898438
0.1709999999999354,0.0411224365234375,7.311569213867188,6.276928710937501
0.1809999999999263,-0.0275146484375,7.324429321289063,6.481045532226563
0.1909999999999101,-0.1981353759765625,7.335345458984375,6.196029663085938
0.2019999999999981,-0.4191497802734375,7.579537963867188,6.531289672851563
0.2110000000000127,-0.620574951171875,7.394711303710938,6.31461181640625
0.2219999999999871,-0.8133270263671876,7.4181884765625,6.315509033203125
0.2319999999999709,-0.8613281250000001,7.340280151367188,6.358425903320313
0.2419999999999618,-0.6536224365234375,7.366598510742188,6.17344970703125
0.2519999999999527,-0.394476318359375,7.619165039062499,6.648226928710938
0.2619999999999436,-0.015850830078125,7.366000366210938,6.370089721679688
0.2719999999999345,0.394775390625,7.161734008789063,6.310275268554688
0.2819999999999254,0.6308929443359376,7.253848266601563,6.022866821289063
0.2919999999999163,1.093408203125,7.801150512695313,6.567028808593751
0.3019999999999143,1.1067169189453123,7.435385131835938,6.962850952148438
0.3120000000000118,1.1150909423828126,6.824230957031251,6.18302001953125
0.3220000000000027,1.0905670166015626,7.546640014648438,5.916845703125
0.3319999999999936,0.9999481201171876,7.981640625000001,5.115481567382813
0.3419999999999845,0.5229278564453126,7.401889038085938,6.462951660156251
0.3519999999999754,-0.0243743896484375,6.7028076171875,7.374822998046875
0.3619999999999663,-0.332867431640625,7.129135131835938,7.575201416015625
0.3729999999999336,-0.4544403076171875,7.443759155273438,6.384295654296875
0.3829999999999245,-0.5359375000000001,7.371981811523438,5.52386474609375
0.3929999999999154,-0.3718963623046875,7.469479370117188,5.899798583984375
0.4029999999999063,-0.39656982421875,7.473965454101563,6.334201049804688
0.4130000000000109,-0.5662933349609376,7.507012939453125,6.608450317382813
0.4230000000000018,-0.3081939697265625,7.839431762695313,6.361566162109376
0.4329999999999927,0.1374237060546875,7.887432861328126,6.530392456054688
0.4429999999999836,0.4382904052734375,7.111639404296875,6.372930908203125
0.4529999999999745,0.6412109375,6.773986816406251,6.915298461914063
0.4629999999999654,0.736614990234375,7.325027465820313,6.350650024414063
0.4729999999999563,0.5962005615234376,8.146728515625,5.916098022460938
0.4829999999999401,0.363970947265625,7.964294433593751,5.487677001953125
0.4929999999999452,0.0488983154296875,7.512246704101563,6.2673583984375005
0.5039999999999054,-0.2761932373046875,7.030590820312501,6.746472167968751
0.5140000000000171,-0.5236755371093751,7.037469482421876,6.54788818359375
0.5240000000000009,-0.6305938720703126,7.527349853515625,6.425866699218751
0.5339999999999918,-0.5979949951171876,7.637408447265625,6.219656372070313
0.5439999999999827,-0.69324951171875,7.428656005859375,6.5353271484375
0.5539999999999736,-0.6590057373046876,7.198519897460938,6.335546875
0.5639999999999645,-0.3165679931640625,7.356280517578125,6.346313476562501
0.5739999999999554,0.12022705078125,7.537667846679688,5.983987426757813
0.5839999999999463,0.4619171142578125,7.40263671875,6.182122802734376
0.5939999999999444,0.6578094482421876,7.148275756835938,6.662283325195313
0.6039999999999353,0.68487548828125,7.1346679687500005,6.948794555664063
0.613999999999919,0.6304443359375,7.387832641601563,6.608898925781251
0.62399999999991,0.5363861083984376,7.499087524414063,6.039166259765626
0.6340000000000146,0.462066650390625,7.516732788085938,6.091503906250001
0.6449999999999818,0.2193695068359375,7.029544067382813,6.136215209960938
0.6549999999999727,-0.0273651123046875,6.7518554687500005,6.275582885742188
0.6649999999999636,-0.2262481689453125,7.574902343750001,5.986080932617188
0.6749999999999545,-0.62027587890625,7.558602905273438,6.033932495117188
0.6849999999999454,-0.7255493164062501,7.586416625976563,7.0643859863281255
0.6949999999999363,-0.726446533203125,6.989767456054688,6.81346435546875
0.7049999999999272,-0.856243896484375,7.753448486328126,7.137359619140626
0.7149999999999181,-0.6314910888671875,7.4205810546875,5.418142700195313
0.724999999999909,0.0587677001953125,8.059548950195314,6.112887573242188
0.7350000000000136,0.5045349121093751,7.224838256835938,5.3750762939453125
0.7450000000000045,1.0854827880859377,7.41220703125,6.798062133789063
0.7549999999999955,1.0666412353515626,7.312466430664063,6.577645874023438
0.7649999999999864,0.864019775390625,7.459759521484376,7.166220092773438
0.7749999999999773,0.3983642578125,7.040310668945313,6.863858032226563
0.7859999999999445,0.2032196044921875,6.955374145507813,6.722097778320313
0.7959999999999354,-0.2603424072265625,7.40084228515625,6.830062866210938
0.8059999999999263,-0.5673400878906251,7.845263671875,5.4722747802734375
0.8159999999999101,-0.9455169677734376,8.288339233398439,6.0544189453125
0.8259999999999081,-0.7487274169921876,7.750906372070313,5.56334228515625
0.8360000000000127,-0.6428558349609376,7.349102783203126,6.754098510742188
0.8460000000000036,-0.4007568359375,6.962103271484375,6.395660400390626
0.8559999999999945,-0.0934600830078125,7.349700927734376,6.736004638671876
0.8659999999999854,0.180340576171875,7.701260375976563,6.216815185546875
0.8759999999999764,0.478814697265625,7.583575439453125,5.778973388671876
0.8859999999999602,0.6237152099609375,7.343719482421876,6.092251586914063
0.8959999999999582,0.73990478515625,7.238595581054688,6.060549926757813
0.9059999999999492,0.482403564453125,7.1421447753906255,6.6142822265625005
0.9159999999999472,0.2468841552734375,7.124050903320313,6.577496337890626
0.9259999999999308,-0.0611602783203125,7.165472412109375,7.189846801757813
0.9370000000000118,-0.1710693359375,7.231567382812501,6.543252563476563
0.9470000000000028,-0.3751861572265625,7.628585815429688,6.422427368164063
0.9569999999999936,-0.3871490478515625,7.624398803710938,5.846264648437501
0.9669999999999844,-0.4577301025390625,7.680923461914063,5.865853881835938
0.9769999999999754,-0.439337158203125,7.406524658203126,6.1716552734375005
0.9869999999999663,-0.3724945068359375,7.264315795898438,6.440969848632813
0.9969999999999573,-0.3022125244140625,7.229623413085938,6.970327758789063
1.0069999999999482,-0.173162841796875,7.278372192382813,6.653759765625001
1.0169999999999462,-0.04725341796875,7.409515380859376,6.4303527832031255
1.026999999999937,0.160302734375,7.310372924804688,6.139804077148438
1.0369999999999209,0.3264373779296875,7.432693481445313,6.0165863037109375
1.0469999999999118,0.4604217529296875,7.53123779296875,6.2509094238281255
1.0570000000000164,0.44501953125,7.563687133789063,6.259881591796876
1.0670000000000073,0.31402587890625,7.454226684570313,6.41031494140625
1.0769999999999982,0.137872314453125,7.178781127929688,6.605160522460938
1.0879999999999654,0.0130096435546875,7.237249755859375,6.428558349609376
1.0979999999999563,-0.2133880615234375,7.337588500976563,6.5305419921875005
1.10799999999994,-0.069683837890625,7.434936523437501,5.91923828125
1.1179999999999453,0.4870391845703125,6.041110229492188,4.134375
1.1279999999999362,0.0710296630859375,7.827468872070313,4.503729248046875
1.13799999999992,-0.2100982666015625,11.02081298828125,9.50750732421875
1.1479999999999109,0.5668914794921875,4.325631713867188,8.879006958007814
1.1580000000000157,-1.0220794677734375,3.062948608398438,7.303045654296875
1.1680000000000064,-0.0168975830078125,11.939862060546876,6.8969055175781255
1.1779999999999902,0.2106964111328125,9.628482055664064,-0.3856536865234375
1.1879999999999882,-0.470440673828125,6.189749145507813,8.472119140625
1.1979999999999862,-0.989630126953125,4.199124145507813,11.707931518554688
1.20799999999997,1.0491455078125,9.44888916015625,5.065835571289063
1.217999999999961,-0.6811370849609375,9.644183349609376,4.429409790039063
1.2289999999999353,0.2005279541015625,7.106405639648438,2.8558410644531254
1.238999999999919,0.66214599609375,7.099227905273438,9.955368041992188
1.24899999999991,0.0299072265625,4.653414916992188,6.976159667968751
1.2590000000000146,-0.1194793701171875,7.024160766601563,6.572262573242188
1.2690000000000057,0.837103271484375,11.121600341796876,5.8416290283203125
1.2789999999999964,0.2764923095703125,8.477951049804688,5.6083526611328125
1.2889999999999944,-0.288604736328125,4.923626708984376,5.9503417968750005
1.2989999999999853,0.319110107421875,6.338238525390626,7.971173095703126
1.308999999999969,0.6552673339843751,8.092147827148438,5.500836181640626
1.31899999999996,-0.1435546875,8.638253784179689,4.186114501953125
1.3289999999999509,-0.7953826904296876,7.5701171875,7.213024902343751
1.3389999999999418,-0.183929443359375,6.892568969726563,8.555261230468751
1.3489999999999327,-0.2579498291015625,6.810922241210938,6.957916259765626
1.3589999999999236,-0.0829925537109375,6.725387573242188,4.563394165039063
1.3689999999999145,0.0982452392578125,8.44879150390625,5.116976928710938
1.3809999999999718,0.0471038818359375,7.950686645507813,6.598431396484376
1.3899999999999864,-0.4335052490234375,6.369342041015625,7.142892456054688
1.3999999999999773,0.054132080078125,7.177435302734375,7.009356689453125
1.4099999999999682,0.4834503173828125,8.012445068359376,6.960009765625
1.419999999999959,0.4009063720703125,7.5162841796875,5.167669677734375
1.42999999999995,-0.3069976806640625,6.822735595703126,5.828021240234375
1.4399999999999409,0.2229583740234375,7.1361633300781255,7.329812622070313
1.4499999999999318,0.042169189453125,7.562640380859375,6.308779907226563
1.4599999999999227,-0.160003662109375,8.053567504882814,5.902340698242188
1.4699999999999136,-0.6148925781250001,7.1526123046875005,5.4658447265625005
1.4809999999999943,-0.4918243408203125,7.143789672851563,6.4731201171875
1.4900000000000162,-0.5713775634765625,7.263568115234375,6.210684204101563
1.5009999999999764,-0.01375732421875,7.475161743164063,7.879507446289063
1.5109999999999602,0.000299072265625,6.071017456054688,7.362112426757813
1.5209999999999582,0.0121124267578125,7.404281616210938,6.094644165039063
1.530999999999949,-0.1957427978515625,9.395953369140626,4.294079589843751
1.540999999999947,-0.0776092529296875,8.368640136718751,4.2408447265625
1.5509999999999309,0.4538421630859375,6.39835205078125,8.780313110351564
1.5609999999999218,0.8641693115234376,6.021969604492188,8.153009033203126
1.570999999999913,0.6482391357421875,7.502227783203126,7.829412841796875
1.5810000000000244,0.3656158447265625,7.452581787109375,4.9574218750000005
1.5910000000000153,0.6280517578125,8.343218994140626,5.5974365234375005
1.600999999999999,0.7490264892578126,7.6119873046875,6.037969970703125
1.61099999999999,0.403448486328125,6.890774536132813,6.219955444335938
1.620999999999981,-0.11304931640625,7.511798095703125,6.231021118164063
1.6309999999999718,-0.3653167724609375,8.279367065429689,6.351248168945313
1.6409999999999627,-0.5214324951171876,7.180126953125001,6.539813232421875
1.651999999999937,-0.27095947265625,6.321490478515625,7.259381103515626
1.6619999999999209,-0.2260986328125,7.123901367187501,7.2865966796875
1.6719999999999118,-0.588873291015625,8.070465087890625,5.0785461425781255
1.6820000000000164,-0.7421478271484375,8.15091552734375,5.171856689453126
1.6920000000000073,-0.0955535888671875,7.377963256835938,6.291433715820313
1.7019999999999982,0.357391357421875,7.109695434570313,7.302896118164063
1.711999999999989,0.1876678466796875,6.6456848144531255,6.532485961914063
1.721999999999987,0.2136871337890625,7.475909423828125,6.371884155273438
1.731999999999971,0.376531982421875,7.957714843750001,6.248068237304688
1.7419999999999618,0.5802001953125,7.354037475585938,6.2853027343750005
1.7519999999999527,0.319708251953125,6.817501831054688,6.3226867675781255
1.7619999999999436,1.3006652832031251,5.726187133789063,6.4183898925781255
1.7719999999999343,2.1114501953125,11.437420654296876,3.471331787109375
1.7830000000000157,-1.8415374755859373,8.282806396484375,6.504074096679688
1.7919999999999163,0.3641204833984375,4.927664184570313,9.28006286621094
1.8029999999999904,0.09630126953125,5.198922729492188,8.044744873046875
1.812999999999988,-0.6017333984375001,7.429403686523438,8.041455078125
1.8229999999999864,-2.247976684570313,8.039511108398438,2.443869018554688
1.83299999999997,-2.26278076171875,9.270941162109375,4.62186279296875
1.842999999999961,-0.1816864013671875,7.323382568359375,8.06837158203125
1.852999999999952,-0.14774169921875,7.096835327148438,7.171453857421875
1.8629999999999427,-0.4822540283203125,7.055114746093751,5.329617309570313
1.8729999999999336,0.5595642089843751,7.664324951171875,6.495101928710938
1.8829999999999243,1.2199157714843751,7.350897216796875,5.8474609375
1.892999999999916,1.331170654296875,4.91734619140625,6.165972900390625
1.9029999999999063,1.2381591796875,5.524313354492188,7.9930053710937505
1.913000000000011,0.9365447998046876,10.0213134765625,5.8550872802734375
1.9230000000000016,0.8408416748046875,10.894006347656251,6.192440795898438
1.9329999999999927,-0.61309814453125,6.849652099609376,6.1955810546875005
1.94399999999996,-0.3500640869140625,5.0854248046875,6.503775024414063
1.9539999999999509,-0.2758941650390625,6.332855224609376,6.547738647460938
1.9639999999999416,-0.6883148193359375,7.364654541015626,3.67918701171875
1.9739999999999327,-1.4585754394531252,8.398547363281251,7.837786865234375
1.983999999999924,-1.5728210449218751,8.178430175781251,10.213766479492188
1.9939999999999145,-1.167578125,7.429403686523438,7.074105834960938
2.0039999999999054,-0.6643890380859375,6.568972778320313,4.877569580078125
2.014000000000017,0.5683868408203125,7.66282958984375,3.129342651367188
2.024000000000001,0.4557861328125,8.656796264648438,5.6771392822265625
2.033999999999992,0.316717529296875,6.789987182617188,6.413604736328126
2.0439999999999827,0.365765380859375,7.864105224609376,9.10794677734375
2.0539999999999736,1.2401031494140626,8.202804565429688,7.029244995117188
2.0639999999999645,0.976171875,6.873129272460938,5.797366333007813
2.0739999999999554,0.8737396240234375,6.353790283203126,5.4389282226562505
2.0849999999999227,0.8825622558593751,6.743481445312501,6.0592041015625
2.0949999999999136,0.5834899902343751,8.134466552734375,6.142495727539063
2.1049999999999045,-0.12979736328125,8.537017822265625,5.42576904296875
2.115000000000016,-0.2068084716796875,8.313311767578126,6.853091430664063
2.125,-0.396270751953125,7.066180419921875,6.4527832031250005
2.134999999999991,-0.758148193359375,6.239993286132813,6.845016479492188
2.144999999999982,-0.96719970703125,6.078494262695313,6.046194458007813
2.1549999999999727,-0.9009552001953126,7.676437377929688,6.903485107421876
2.164999999999964,-0.7375122070312501,8.085568237304688,6.4527832031250005
2.1749999999999545,-0.7747467041015625,7.713671875,6.225936889648438
2.184999999999945,-0.3928314208984375,7.525106811523438,6.8744750976562505
2.1949999999999363,0.2441925048828125,7.103265380859376,6.1372619628906255
2.2049999999999272,0.40255126953125,7.121658325195313,5.956024169921875
2.214999999999918,0.5341430664062501,7.182369995117188,5.470330810546876
2.224999999999909,0.935498046875,7.713372802734375,6.991412353515625
2.23599999999999,0.8347106933593751,7.518676757812501,7.227081298828126
2.245999999999981,0.665435791015625,7.304391479492188,6.384146118164063
2.255999999999972,0.4813568115234375,7.431796264648438,6.185263061523438
2.2659999999999627,0.3856536865234375,7.4205810546875,5.738150024414063
2.2759999999999536,0.0710296630859375,7.204501342773438,6.100924682617188
2.2859999999999445,-0.1667327880859375,7.362710571289063,6.266909790039063
2.2959999999999354,-0.3539520263671875,7.507162475585938,6.401641845703126
2.3059999999999263,-0.6868194580078125,6.045895385742188,5.964547729492188
2.31599999999991,-1.1363250732421877,4.9346923828125,5.5280517578125
2.325999999999908,-0.2334259033203125,10.70364685058594,7.080685424804688
2.3360000000000127,-0.083441162109375,10.7606201171875,7.307083129882813
2.346000000000004,-0.55447998046875,6.299359130859376,8.97635498046875
2.3559999999999945,-0.5467041015625,4.032241821289063,5.5929504394531255
2.365999999999985,0.7692138671875001,7.796066284179688,4.748818969726563
2.3759999999999764,1.2541595458984376,7.729522705078126,2.129095458984376
2.386999999999944,0.581097412109375,7.954275512695313,8.198168945312501
2.397999999999911,0.1918548583984375,8.320339965820313,11.30792236328125
2.4069999999999254,-0.2582489013671875,7.483834838867188,7.691989135742188
2.4169999999999163,0.2109954833984375,6.854287719726563,4.015643310546875
2.4269999999999143,1.20406494140625,7.657296752929688,3.1223144531250004
2.437000000000012,0.6030792236328125,7.422375488281251,6.253900146484376
2.4470000000000027,-0.56644287109375,6.179730224609376,6.200067138671876
2.4569999999999936,-0.8403930664062501,8.92431640625,8.833547973632813
2.4669999999999845,0.2758941650390625,8.689395141601564,6.597085571289063
2.4769999999999754,0.2062103271484375,7.067227172851563,6.481195068359376
2.4869999999999663,-0.369952392578125,5.069125366210938,5.472424316406251
2.4979999999999336,-0.357391357421875,6.685162353515626,6.56224365234375
2.506999999999948,-0.1894622802734375,8.586514282226563,5.306588745117188
2.5179999999999154,-0.16927490234375,8.921624755859376,5.600277709960938
2.5279999999999063,-0.0216827392578125,8.411706542968751,6.679928588867188
2.538000000000011,-0.1431060791015625,6.734509277343751,7.189398193359375
2.548000000000002,0.0408233642578125,6.0209228515625,7.104461669921876
2.5579999999999927,0.3026611328125,6.224441528320313,5.213726806640626
2.567999999999984,0.7880554199218751,8.115924072265626,6.5260559082031255
2.5779999999999745,0.24464111328125,7.796215820312501,5.839385986328125
2.587999999999965,-0.460272216796875,7.769448852539063,7.570416259765626
2.5979999999999563,-0.4897308349609375,7.436880493164063,6.696826171875
2.60799999999994,0.003289794921875,7.402487182617188,5.810824584960938
2.6179999999999453,0.01495361328125,7.097732543945313,5.502780151367188
2.627999999999936,-0.1945465087890625,6.817352294921876,6.103765869140625
2.63799999999992,-0.5613586425781251,7.609295654296876,7.566229248046875
2.647999999999911,-0.7562042236328126,7.434786987304688,6.430950927734376
2.6580000000000155,-0.3828125,7.927059936523438,6.821539306640625
2.6689999999999827,0.0548797607421875,7.575350952148438,5.947052001953125
2.6789999999999736,0.14056396484375,7.114630126953125,6.12200927734375
2.6889999999999645,-0.002691650390625,6.681423950195313,5.605810546875
2.6989999999999554,0.5214324951171876,7.545742797851563,6.367098999023438
2.7089999999999463,0.93489990234375,7.5856689453125,6.267507934570313
2.7189999999999444,0.8329162597656251,4.991964721679688,5.205203247070313
2.728999999999936,0.2739501953125,6.423922729492188,7.003375244140625
2.738999999999919,0.34393310546875,11.969320678710938,7.9828369140625
2.74899999999991,-0.13936767578125,9.882693481445314,7.662081909179688
2.7590000000000146,-0.71119384765625,4.2999114990234375,7.755392456054688
2.769000000000005,0.2507720947265625,4.431204223632813,4.003680419921875
2.7789999999999964,0.7647277832031251,8.949288940429689,2.9536376953125
2.7889999999999944,-0.1754058837890625,8.428305053710938,3.155960083007813
2.7999999999999545,-0.9344512939453126,8.020370483398438,11.380148315429688
2.809999999999945,-0.3593353271484375,7.454226684570313,11.885580444335938
2.8199999999999363,-0.32957763671875,6.645834350585938,6.972421264648438
2.8299999999999272,0.2438934326171875,6.7219482421875005,2.660397338867188
2.839999999999918,0.8196075439453125,7.979098510742188,2.43145751953125
2.849999999999909,-0.1918548583984375,7.75614013671875,6.165225219726563
2.8600000000000136,-0.596051025390625,7.259530639648438,7.105358886718751
2.8700000000000045,-0.4006072998046875,9.165966796875,9.835739135742188
2.8799999999999955,0.4559356689453125,7.689596557617188,6.12918701171875
2.8899999999999864,0.22191162109375,6.0355773925781255,5.7409912109375005
2.8999999999999773,0.0490478515625,5.16617431640625,6.166870117187501
2.909999999999968,0.1902099609375,7.171453857421875,6.1836181640625005
2.919999999999959,-0.06041259765625,9.219500732421876,5.40184326171875
2.92999999999995,0.004486083984375,9.291876220703124,5.47960205078125
2.939999999999941,0.311334228515625,8.075848388671876,7.476507568359375
2.950999999999908,0.0142059326171875,5.995950317382813,6.721798706054688
2.9610000000000127,-0.2289398193359375,5.8630126953125,6.029745483398438
2.971000000000004,-0.0961517333984375,6.868045043945313,5.5211730957031255
2.9809999999999945,0.3416900634765625,8.345013427734376,6.894662475585938
2.990999999999985,-0.0898712158203125,7.702008056640626,6.633572387695313
3.0009999999999764,-0.4188507080078125,7.584472656250001,7.043002319335938
3.01099999999996,-0.2280426025390625,7.458862304687501,6.777874755859376
3.020999999999958,0.1586578369140625,7.2767272949218755,5.26666259765625
3.030999999999949,-0.10048828125,6.971075439453125,4.985983276367188
3.040999999999947,0.10946044921875,7.102966308593751,6.555813598632813
3.050999999999931,0.06519775390625,7.711428833007813,7.891171264648438
3.060999999999922,-0.2017242431640625,7.594940185546876,6.560897827148438
3.0709999999999127,-0.2438934326171875,7.797711181640626,6.15550537109375
3.0810000000000244,0.4562347412109375,7.337887573242188,6.170758056640626
3.091000000000016,0.32120361328125,6.034231567382813,6.388034057617188
3.1019999999999754,-0.3539520263671875,4.0172882080078125,4.503878784179688
3.1119999999999663,-0.6418090820312501,7.374224853515625,6.124850463867188
3.1219999999999573,-0.1499847412109375,13.879046630859376,7.043899536132813
3.131999999999948,-0.8339630126953126,9.55057373046875,7.871432495117188
3.141999999999946,-0.8336639404296876,3.770254516601563,8.438772583007813
3.151999999999937,0.11484375,3.954931640625,5.9328460693359375
3.161999999999921,0.9646575927734377,8.279666137695314,4.052877807617188
3.171999999999912,0.5313018798828125,8.539559936523439,1.574017333984375
3.1820000000000164,-0.15372314453125,9.457412719726562,11.12234802246094
3.192000000000008,0.661846923828125,7.190594482421876,10.877706909179688
3.201999999999998,0.6304443359375,6.333303833007813,7.162033081054688
3.211999999999989,1.1315399169921876,6.937878417968751,1.3038055419921877
3.221999999999987,1.7470306396484376,8.57679443359375,3.7665161132812495
3.231999999999971,0.16807861328125,6.656002807617188,7.204650878906251
3.241999999999962,-0.8870483398437501,6.440969848632813,8.12698974609375
3.252999999999936,-0.677398681640625,9.415243530273438,9.695773315429689
3.26299999999992,0.078656005859375,8.337237548828126,4.448251342773438
3.272999999999911,-0.3650177001953125,7.059002685546876,5.926116943359375
3.2830000000000155,-0.826336669921875,4.8976074218750005,4.335202026367188
3.2930000000000064,-0.4358978271484375,7.318896484375,7.515087890625001
3.30299999999999,-0.35230712890625,8.410659790039062,5.50113525390625
3.312999999999988,-0.2881561279296875,9.28619384765625,5.909069824218751
3.322999999999986,-0.2093505859375,7.996444702148438,6.834848022460938
3.33299999999997,0.193798828125,6.092999267578126,7.497741699218751
3.342999999999961,0.4502532958984375,5.4468536376953125,7.383197021484375
3.352999999999952,0.5161987304687501,6.399398803710938,4.809829711914063
3.3629999999999427,0.6622955322265626,8.840127563476564,6.053970336914063
3.3729999999999336,0.4797119140625,8.208187866210938,5.835797119140626
3.3829999999999245,-0.0237762451171875,7.819992065429688,8.142990112304688
3.394000000000005,-0.1993316650390625,6.840679931640626,5.881106567382813
3.4039999999999964,0.06160888671875,7.396206665039063,6.527252197265626
3.4139999999999944,0.0097198486328125,6.974514770507813,5.268008422851563
3.4239999999999853,-0.4454681396484375,7.127340698242188,5.82353515625
3.433999999999969,-0.6027801513671875,7.533929443359375,7.201361083984375
3.44399999999996,-0.374139404296875,7.532583618164063,7.485180664062501
3.453999999999951,-0.1727142333984375,7.905227661132813,6.756341552734376
3.463999999999942,-0.234173583984375,7.561593627929688,4.834951782226563
3.4739999999999327,0.0414215087890625,7.291381835937501,6.133374023437501
3.483999999999924,0.2271453857421875,5.6337738037109375,5.882452392578125
3.4939999999999145,0.1066192626953125,3.5007904052734378,4.776483154296876
3.5039999999999054,0.0593658447265625,7.087414550781251,4.868597412109375
3.514000000000017,0.401654052734375,16.92853698730469,8.649618530273438
3.5249999999999773,-0.3742889404296875,11.30911865234375,9.087908935546876
3.534999999999968,-1.3006652832031251,0.0931610107421875,10.762863159179688
3.544999999999959,0.6494354248046875,0.8697021484375,4.486083984375
3.55499999999995,3.441574096679688,9.885833740234377,2.2312286376953128
3.564999999999941,1.9922698974609376,10.795462036132813,0.0695343017578125
3.574999999999932,-2.1228149414062503,9.852935791015623,3.6264007568359378
3.5849999999999227,-1.6051208496093752,7.017730712890626,24.22978820800781
3.5949999999999136,-0.224603271484375,4.776483154296876,6.076251220703125
3.604999999999905,0.65616455078125,6.580487060546876,0.9000579833984376
3.615000000000016,1.3305725097656251,9.7557373046875,0.1592559814453125
3.625,-1.5523345947265623,7.418936157226563,1.7021697998046876
3.634999999999991,-2.361325073242188,5.4304046630859375,12.862051391601565
3.644999999999982,-0.1000396728515625,8.887979125976564,11.420672607421876
3.6549999999999727,0.9105255126953126,9.790130615234377,5.948846435546876
3.664999999999964,0.4873382568359375,7.101022338867188,3.3333099365234378
3.675999999999931,-1.2481781005859376,4.350155639648438,4.619171142578125
3.685999999999922,0.7034179687500001,5.751309204101563,6.918289184570313
3.6959999999999127,1.6444488525390626,8.367144775390626,6.596038818359376
3.706000000000024,0.817364501953125,10.226776123046877,4.450643920898438
3.7160000000000153,-0.0500946044921875,9.820037841796877,6.575103759765626
3.725999999999999,0.18123779296875,6.076699829101563,8.581430053710939
3.73599999999999,0.3339141845703125,3.77489013671875,8.088558959960938
3.745999999999981,0.2859130859375,5.381207275390626,4.794577026367188
3.755999999999972,-0.1416107177734375,9.175985717773438,5.0662841796875
3.7659999999999614,-0.8079437255859375,9.438571166992189,5.393319702148438
3.7759999999999536,-1.5035858154296875,7.947396850585938,7.567724609375
3.785999999999945,-0.72196044921875,6.895709228515625,7.969378662109375
3.795999999999936,0.247930908203125,6.926364135742188,6.768154907226563
3.807000000000016,-0.0767120361328125,6.931747436523438,4.423129272460938
3.8170000000000073,-0.49825439453125,7.217361450195313,4.601824951171875
3.826999999999998,0.088525390625,7.3966552734375,7.527200317382813
3.836999999999989,0.8746368408203126,7.152163696289063,8.399893188476563
3.846999999999987,0.6772491455078126,7.869488525390626,6.807034301757813
3.856999999999971,0.33795166015625,7.407272338867188,4.075457763671875
3.866999999999962,-0.3366058349609375,3.5589599609375004,3.203811645507813
3.8769999999999527,0.318212890625,7.442861938476563,5.177389526367188
3.886999999999944,0.5175445556640625,14.22791442871094,8.519970703125
3.896999999999936,-0.0249725341796875,8.698666381835938,10.609738159179688
3.906999999999925,-1.0830902099609376,3.15401611328125,10.453472900390626
3.916999999999916,-0.6125,4.655807495117188,4.753604125976563
3.9269999999999134,1.362274169921875,7.7522521972656255,0.5154510498046876
3.937000000000012,0.1335357666015625,9.4423095703125,2.6481353759765627
3.9470000000000014,-0.93968505859375,9.268399047851563,10.695123291015626
3.95799999999997,-1.355694580078125,7.697372436523438,12.5813720703125
3.967999999999961,-0.1849761962890625,6.073858642578125,6.729125976562501
3.977999999999952,0.9915740966796877,7.065133666992188,2.713034057617188
3.987999999999943,2.5923583984375003,7.573257446289063,3.089865112304688
3.99899999999991,0.11065673828125,5.5271545410156255,5.568127441406251
4.0079999999999245,-0.6359771728515625,7.946499633789063,9.105703735351565
4.017999999999915,0.002093505859375,9.863104248046875,8.37821044921875
4.027999999999906,1.04495849609375,9.059048461914063,6.02989501953125
4.038000000000011,0.19619140625,6.1252990722656255,4.819100952148438
4.048000000000002,-0.197686767578125,5.0949951171875005,5.483041381835938
4.057999999999993,-0.605322265625,6.329864501953126,5.935238647460938
4.067999999999984,-0.48031005859375,8.208935546875,5.73082275390625
4.077999999999975,-0.49287109375,9.30234375,6.571514892578126
4.087999999999965,-0.6925018310546875,8.499484252929689,7.551425170898438
4.098999999999933,-0.8027099609375,6.430203247070313,8.063586425781251
4.108999999999924,-0.6105560302734375,5.161837768554688,6.01793212890625
4.1189999999999145,0.3074462890625,6.914102172851563,5.1930908203125
4.128999999999905,0.6826324462890625,8.103363037109375,5.02860107421875
4.139000000000017,0.567938232421875,8.403631591796875,6.298013305664063
4.149000000000001,-0.1478912353515625,7.889077758789063,7.385440063476563
4.158999999999992,0.430963134765625,7.678829956054688,7.732513427734376
4.168999999999983,0.7200164794921875,6.773089599609375,6.251358032226563
4.178999999999974,0.847271728515625,6.6755920410156255,5.02860107421875
4.1889999999999645,0.065496826171875,7.1334716796875,5.715420532226563
4.198999999999955,-0.10826416015625,7.481442260742188,6.625796508789063
4.208999999999946,-0.5662933349609376,7.67239990234375,7.186108398437501
4.218999999999944,-0.2202667236328125,8.241235351562501,6.675442504882813
4.228999999999935,-0.401055908203125,7.77408447265625,6.225189208984376
4.238999999999919,-0.403448486328125,5.036227416992188,4.604367065429688
4.25,-1.126904296875,1.4152099609375002,2.344577026367188
4.259999999999991,-0.4176544189453125,11.273828125,6.8789611816406255
4.269999999999982,0.0638519287109375,16.80726318359375,10.061090087890626
4.279999999999973,-0.8961700439453125,6.468484497070313,9.980938720703126
4.289999999999964,-1.2252990722656252,1.4919219970703126,10.997335815429688
4.2999999999999545,1.9551849365234373,4.234265136718751,3.109304809570313
4.309999999999945,4.140206909179688,8.416043090820313,0.042169189453125
4.319999999999936,1.406985473632813,11.161676025390626,0.0657958984375
4.329999999999927,-1.0935577392578126,9.247164916992189,15.043334960937502
4.339999999999918,-0.5715270996093751,6.912457275390626,15.3041259765625
4.349999999999909,-0.3840087890625,4.296771240234375,3.7958251953125
4.360000000000014,1.5592132568359376,8.292974853515625,1.2559539794921877
4.3700000000000045,0.5594146728515625,8.356378173828126,2.591461181640625
4.379999999999996,-3.0183868408203125,5.184268188476563,5.365206909179688
4.390999999999963,-2.6179290771484376,8.01513671875,11.013186645507814
4.400999999999954,-0.30625,9.893460083007811,10.001574707031253
4.4109999999999445,0.248828125,8.931344604492189,4.74388427734375
4.420999999999935,-0.7762420654296875,6.439773559570313,3.2180175781250004
4.430999999999926,0.1281524658203125,4.8202972412109375,6.0106048583984375
4.44099999999991,1.3873962402343751,5.230026245117188,5.609548950195313
4.450999999999908,1.30814208984375,8.153457641601562,5.928659057617188
4.461000000000013,1.39248046875,10.023406982421877,6.624450683593751
4.471000000000004,0.8018127441406251,9.34002685546875,8.359219360351563
4.4809999999999945,0.056524658203125,5.7194580078125,8.975607299804688
4.4909999999999854,0.241949462890625,4.4071289062500005,6.282012939453126
4.500999999999976,0.5476013183593751,7.079937744140626,4.03807373046875
4.51099999999996,-0.1347320556640625,8.872277832031251,3.462210083007813
4.520999999999958,-1.087127685546875,8.860614013671876,5.571566772460938
4.531999999999925,-1.96610107421875,7.758981323242188,8.385687255859375
4.541999999999916,-0.9615173339843752,7.059750366210938,9.482684326171876
4.551999999999914,-0.252716064453125,6.612786865234376,6.6800781250000005
4.562000000000012,-0.3566436767578125,6.890625000000001,4.517337036132813
4.572000000000003,-0.3171661376953125,7.2447265625,4.965496826171876
4.581999999999994,-0.0497955322265625,6.635815429687501,6.226235961914063
4.5919999999999845,-0.06519775390625,4.029998779296875,4.512551879882813
4.601999999999975,0.3967193603515625,6.833352661132813,3.294729614257813
4.611999999999966,0.8329162597656251,15.746154785156252,9.119461059570312
4.621999999999957,0.9630126953125,9.291876220703124,8.502325439453125
4.631999999999948,-0.8073455810546876,3.178390502929688,11.062234497070314
4.641999999999946,0.3985137939453125,3.4058349609375003,9.238790893554688
4.651999999999937,2.872140502929688,6.39775390625,0.512310791015625
4.661999999999921,0.8225982666015625,11.813204956054689,1.5807464599609375
4.671999999999912,-1.5104644775390623,9.453225708007814,6.636413574218751
4.682000000000016,-1.1028289794921875,7.888031005859376,13.738034057617188
4.692999999999984,-0.707305908203125,5.303598022460938,8.045343017578126
4.702999999999975,0.6136962890625001,6.17105712890625,2.8449249267578125
4.712999999999965,1.6354766845703126,8.615374755859376,3.806591796875
4.722999999999956,-0.210546875,6.097036743164063,5.180978393554688
4.73299999999994,-0.8798706054687501,7.348953247070313,8.612533569335938
4.742999999999945,-0.1780975341796875,9.1360595703125,8.6096923828125
4.752999999999936,0.9350494384765624,8.77418212890625,6.3585754394531255
4.76299999999992,0.3276336669921875,7.4157958984375005,2.910272216796875
4.772999999999911,-0.612799072265625,6.1261962890625,5.531790161132813
4.783000000000016,0.040972900390625,4.922579956054688,5.942715454101563
4.793000000000006,-0.3557464599609375,7.093545532226563,7.620211791992188
4.80299999999999,-0.2558563232421875,8.722592163085938,7.392767333984375
4.812999999999988,-0.43245849609375,9.11990966796875,6.870138549804688
4.823999999999955,-0.738409423828125,7.521069335937501,7.875320434570313
4.833999999999946,-0.49705810546875,5.417095947265626,6.177487182617188
4.843999999999944,0.26497802734375,6.743331909179688,4.409820556640625
4.853999999999935,0.275445556640625,7.883544921875001,4.001138305664063
4.863999999999919,0.6273040771484375,8.617617797851564,6.296517944335938
4.87399999999991,-0.1099090576171875,7.766009521484375,7.7292236328125
4.884000000000015,-0.0342437744140625,7.279867553710938,8.851492309570313
4.8940000000000055,0.5586669921875,6.625497436523438,7.051675415039063
4.903999999999996,0.81766357421875,6.925765991210938,5.253054809570313
4.913999999999994,0.1867706298828125,7.305886840820313,4.540066528320313
4.923999999999985,-0.1993316650390625,7.612286376953126,5.576052856445313
4.933999999999969,-0.2866607666015625,7.650119018554688,7.109695434570313
4.94399999999996,-0.0538330078125,7.774234008789063,6.8311096191406255
4.953999999999951,0.1410125732421875,4.712332153320313,4.259237670898438
4.964999999999918,0.6950439453125,2.4845428466796875,0.94207763671875
4.974999999999909,-1.0131072998046875,13.682855224609376,9.709979248046876
4.985000000000014,-0.0387298583984375,14.75248718261719,9.687249755859376
4.9950000000000045,-1.9770172119140623,4.1212158203125,11.764157104492188
5.004999999999996,-0.7020721435546875,3.122763061523438,12.599465942382814
5.016999999999946,2.00079345703125,3.8103302001953128,-0.8481689453125001
5.024999999999977,2.5101135253906253,10.783349609375,0.439935302734375
5.034999999999968,-0.8599822998046875,10.452276611328124,-0.1099090576171875
5.044999999999959,-0.7591949462890626,9.630725097656253,13.973553466796876
5.05499999999995,-0.662445068359375,5.934042358398438,17.80975341796875
5.064999999999941,-0.6581085205078125,3.990371704101563,0.4589263916015625
5.074999999999932,1.839743041992188,8.880053710937501,3.0589111328125003
5.084999999999923,-0.041571044921875,6.492410278320313,1.9723815917968752
5.094999999999914,-1.7162261962890626,6.405380249023438,7.816702270507813
5.1049999999999045,-1.239505004882813,8.733956909179689,8.842819213867188
5.116999999999962,0.16927490234375,10.60794372558594,11.305679321289062
5.125999999999976,0.4613189697265625,7.639053344726563,1.3549468994140623
5.13599999999996,-0.2127899169921875,6.04783935546875,4.977310180664063
5.145999999999958,0.6919036865234376,4.338641357421875,5.569174194335938
5.155999999999949,0.91456298828125,5.557659912109376,5.562744140625
5.165999999999947,0.3887939453125,8.863156127929688,8.342172241210939
5.175999999999931,0.5007965087890626,9.857720947265626,6.74766845703125
5.185999999999922,0.3285308837890625,9.446496582031251,8.672796630859375
5.195999999999913,-0.1266571044921875,5.271746826171875,6.469680786132813
5.206000000000024,0.2684173583984375,5.2337646484375,5.4304046630859375
5.216000000000015,0.0321502685546875,6.877764892578125,3.0185363769531253
5.225999999999999,-0.175555419921875,8.704946899414063,5.605062866210938
5.23599999999999,-0.76083984375,8.659786987304688,6.605160522460938
5.245999999999981,-1.099090576171875,7.922274780273438,9.17493896484375
5.256999999999948,-0.4532440185546875,7.098629760742188,9.31251220703125
5.266999999999946,0.097796630859375,6.146533203125,4.725341796875
5.276999999999937,-0.109161376953125,6.976309204101563,5.030245971679688
5.286999999999921,0.160601806640625,7.182220458984376,3.926968383789063
5.296999999999912,0.2211639404296875,7.302896118164063,6.70579833984375
5.307000000000016,-0.2735015869140625,3.635971069335938,3.632681274414063
5.317000000000007,0.052935791015625,7.373776245117188,5.212680053710938
5.326999999999998,0.42049560546875,15.959094238281253,10.293319702148438
5.336999999999989,0.2406036376953125,8.247067260742188,7.3843933105468755
5.346999999999987,-0.7837188720703125,2.726641845703125,12.496734619140629
5.356999999999971,-0.2103973388671875,3.248672485351563,5.914752197265625
5.366999999999962,3.3778717041015627,7.84825439453125,-0.286212158203125
5.376999999999953,-0.04725341796875,11.659182739257814,3.0783508300781253
5.386999999999944,-1.2073547363281252,9.1097412109375,7.383346557617188
5.397999999999911,-1.529754638671875,7.630230712890626,16.13375244140625
5.408000000000016,-0.1475921630859375,4.672555541992188,4.8724853515625
5.418000000000006,0.815869140625,6.925616455078125,4.8516998291015625
5.42799999999999,1.812677001953125,8.310919189453125,1.1206237792968752
5.437999999999988,-0.0339447021484375,6.167019653320313,6.403884887695313
5.447999999999986,-0.6353790283203126,7.539611816406251,9.019720458984375
5.45799999999997,-0.294287109375,9.026150512695311,7.80399169921875
5.467999999999961,0.9565826416015626,9.515432739257813,7.5399108886718755
5.477999999999952,0.3147735595703125,6.1078033447265625,2.096795654296875
5.487999999999943,-0.7657745361328125,6.211132812500001,6.429156494140625
5.497999999999934,-0.043365478515625,5.151669311523438,5.8079833984375
5.5079999999999245,-0.0650482177734375,7.827468872070313,6.860867309570313
5.5190000000000055,-0.461767578125,8.796014404296876,6.8044921875
5.527999999999906,-0.5147033691406251,8.888128662109375,7.509255981445313
5.538999999999994,-0.460272216796875,7.168463134765625,7.426113891601563
5.548999999999985,-0.7535125732421876,5.137612915039063,6.164178466796876
5.558999999999969,0.4427764892578125,6.861764526367188,5.684765625000001
5.56899999999996,0.2818756103515625,7.710531616210938,3.4061340332031254
5.578999999999951,0.443524169921875,9.224136352539062,7.154257202148438
5.588999999999942,-0.0817962646484375,7.46544189453125,6.814361572265626
5.598999999999933,0.2890533447265625,7.440170288085938,8.317648315429688
5.608999999999924,0.4074859619140625,6.474017333984375,6.992160034179688
5.6189999999999145,0.7883544921875001,6.981991577148438,5.145538330078125
5.628999999999905,-0.160601806640625,7.105657958984375,5.020675659179688
5.639000000000017,-0.0107666015625,7.783953857421875,6.503176879882813
5.649000000000001,-0.1446014404296875,7.680026245117188,6.7952209472656255
5.658999999999992,-0.007177734375,6.824530029296875,5.832955932617188
5.668999999999983,0.090020751953125,3.618624877929688,3.424676513671875
5.678999999999974,-0.1389190673828125,7.578341674804688,4.726388549804688
5.689999999999941,-0.8976654052734375,14.686541748046876,10.916735839843753
5.699999999999932,-0.6524261474609375,7.418637084960938,7.343121337890626
5.709999999999923,-1.571923828125,5.1619873046875,12.8912109375
5.719999999999914,0.7001281738281251,3.98424072265625,3.217718505859376
5.7299999999999045,2.6073120117187503,7.913302612304688,1.0815948486328126
5.740000000000016,0.500347900390625,9.165219116210938,2.7003234863281254
5.75,-0.2492767333984375,9.237893676757814,9.989163208007811
5.759999999999991,-0.0059814453125,8.858670043945313,13.370623779296876
5.769999999999982,-0.7004272460937501,4.860971069335938,5.371038818359375
5.779999999999973,0.8794219970703125,7.407720947265625,4.2411437988281255
5.789999999999964,0.15491943359375,6.935485839843751,2.91356201171875
5.7999999999999545,-0.8842071533203125,6.363360595703125,5.5220703125
5.809999999999945,-1.5946533203125002,8.098129272460938,7.436880493164063
5.820999999999913,-0.137872314453125,9.849945068359377,9.091049194335938
5.831000000000024,0.20576171875,8.519372558593751,6.36844482421875
5.841000000000015,-0.082843017578125,6.399548339843751,4.1070098876953125
5.850999999999999,0.1179840087890625,5.216717529296876,5.864657592773438
5.86099999999999,0.8270843505859375,5.866302490234375,5.103219604492188
5.870999999999981,0.495562744140625,7.781561279296875,7.690045166015626
5.880999999999972,0.4988525390625,8.167962646484376,6.302798461914063
5.890999999999963,0.160601806640625,9.653155517578126,8.522213745117188
5.900999999999954,0.343035888671875,6.857278442382813,7.340579223632813
5.9109999999999445,0.0121124267578125,5.598483276367188,4.889682006835938
5.920999999999935,0.1511810302734375,7.159341430664063,4.915103149414063
5.930999999999926,0.071478271484375,7.203454589843751,5.107855224609375
5.94099999999991,-0.4828521728515625,8.382846069335939,6.118420410156251
5.950999999999908,-1.154718017578125,8.303890991210938,8.534027099609375
5.961000000000013,-0.2364166259765625,7.377514648437501,7.680923461914063
5.971999999999987,-0.3366058349609375,6.8789611816406255,6.3295654296875
5.981999999999971,0.0895721435546875,6.659591674804688,6.037371826171875
5.991999999999962,-0.0037384033203125,5.983239746093751,3.1314361572265628
6.001999999999953,-0.5124603271484376,3.420639038085938,1.6972351074218752
6.011999999999944,0.091217041015625,7.208837890625,4.7450805664062505
6.021999999999935,0.8139251708984375,17.722723388671877,12.626980590820311
6.031999999999925,-0.0945068359375,10.648318481445314,10.015481567382814
6.041999999999916,-0.7532135009765626,0.3093902587890625,13.2154052734375
6.051999999999914,-0.1087127685546875,2.428317260742188,4.193441772460938
6.062000000000012,3.9114166259765626,7.0628906250000005,-0.5244232177734376
6.072000000000003,0.7618865966796875,11.994741821289065,0.3991119384765625
6.081999999999994,-2.1261047363281254,10.723834228515626,0.3174652099609375
6.0919999999999845,-2.606564331054688,7.573406982421876,30.187008666992188
6.101999999999975,0.13577880859375,4.076205444335938,3.451144409179688
6.111999999999966,0.7004272460937501,6.958963012695313,0.3389984130859375
6.122999999999934,2.217919921875,8.33514404296875,4.0362792968750005
6.1329999999999245,1.0315002441406251,5.658297729492188,-0.9932189941406252
6.142999999999915,-2.190704345703125,7.905526733398438,14.115911865234375
6.152999999999906,-0.1529754638671875,9.253744506835938,9.551470947265626
6.163000000000011,1.0322479248046876,10.315451049804688,7.021618652343751
6.173000000000002,0.4867401123046875,6.042904663085938,2.303903198242188
6.182999999999993,-0.2962310791015625,5.41380615234375,5.585772705078125
6.192999999999984,-0.1093109130859375,4.086224365234376,4.6715087890625
6.202999999999975,-0.2953338623046875,7.590304565429688,7.341326904296875
6.212999999999965,-0.3877471923828125,9.833944702148438,6.758734130859375
6.222999999999956,-0.5849853515625001,10.186251831054689,7.185211181640626
6.23299999999994,-0.5830413818359376,7.536471557617188,10.2892822265625
6.242999999999945,-0.69923095703125,3.4297607421875003,4.505374145507813
6.252999999999936,0.1792938232421875,6.717013549804688,5.964846801757813
6.264000000000017,0.5399749755859375,7.511349487304688,2.8232421875
6.274000000000001,0.8931793212890625,9.368887329101565,5.084378051757813
6.283999999999992,-0.4487579345703125,8.330209350585939,8.250506591796876
6.293999999999983,0.2130889892578125,7.568472290039063,10.080828857421876
6.303999999999974,0.4254302978515625,6.413455200195313,6.307733154296876
6.3139999999999645,0.6763519287109375,6.682470703125,5.524163818359376
6.323999999999955,0.5443115234375,6.952383422851563,4.179684448242188
6.333999999999946,-0.14774169921875,7.253848266601563,4.595544433593751
6.343999999999944,-0.5863311767578125,7.765560913085938,9.484927368164064
6.353999999999935,0.036187744140625,8.153457641601562,5.452685546875
6.363999999999919,-0.43963623046875,9.129180908203123,8.046539306640625
6.37399999999991,-0.224603271484375,6.5114013671875,5.372982788085938
6.384000000000015,-0.2811279296875,4.031643676757813,3.907080078125
6.3940000000000055,0.7858123779296876,0.7571014404296875,2.3344085693359378
6.403999999999996,0.3327178955078125,10.256085205078126,5.4837890625000005
6.414999999999964,0.3087921142578125,20.52936706542969,13.7824462890625
6.4249999999999545,-1.43076171875,5.923425292968751,7.640997314453125
6.434999999999945,-2.097991943359375,3.05233154296875,16.330841064453125
6.444999999999936,1.3419372558593752,1.3459747314453123,0.9544891357421876
6.454999999999927,3.758590698242188,9.027197265625,-0.1368255615234375
6.464999999999918,0.5420684814453125,11.054010009765626,0.4990020751953125
6.474999999999909,-2.403045654296875,11.243771362304688,-0.6171356201171876
6.485000000000014,-0.6392669677734375,7.764065551757813,31.393316650390627
6.4950000000000045,-1.2374114990234375,2.663238525390625,2.50682373046875
6.504999999999996,1.3791717529296876,6.602917480468751,-0.1854248046875
6.514999999999986,1.3458251953125,7.595388793945313,3.84248046875
6.524999999999977,-2.2937347412109377,7.258035278320313,2.1785919189453127
6.5359999999999445,-2.051486206054688,7.627090454101563,10.329507446289064
6.544999999999959,0.4140655517578125,10.5716064453125,10.844061279296875
6.555999999999926,1.014752197265625,8.840127563476564,6.934588623046875
6.56599999999991,0.488385009765625,6.365902709960938,1.2670196533203126
6.575999999999908,-0.05562744140625,4.9758148193359375,4.8126708984375
6.586000000000013,1.319207763671875,4.630386352539063,7.163827514648438
6.596000000000004,1.1279510498046876,6.874026489257813,6.823333740234376
6.6059999999999945,0.11484375,9.74183044433594,7.83330078125
6.617999999999945,0.290997314453125,10.742526245117189,8.902932739257814
6.625999999999976,-0.27694091796875,6.85294189453125,5.589511108398438
6.63599999999996,-0.1598541259765625,5.321990966796875,6.561047363281251
6.645999999999958,0.1242645263671875,5.116976928710938,3.247775268554688
6.655999999999949,-0.1182830810546875,8.289984130859375,4.129888916015625
6.665999999999947,-1.1808868408203126,8.843865966796876,7.369888305664063
6.675999999999931,-1.251318359375,8.117568969726562,7.321737670898438
6.685999999999922,-0.6936981201171876,8.208337402343751,10.744470214843751
6.697000000000003,0.2504730224609375,5.4852844238281255,6.714321899414063
6.706999999999994,0.5072265625000001,7.027301025390625,3.463107299804688
6.717999999999961,-0.037982177734375,6.034829711914063,3.360675048828125
6.726999999999975,0.6941467285156251,1.3286285400390625,0.1134979248046875
6.736999999999966,1.102081298828125,11.473458862304687,7.273138427734375
6.746999999999957,0.8036071777343751,18.59765930175781,17.324957275390627
6.756999999999948,0.431561279296875,5.065835571289063,4.525262451171876
6.766999999999946,-2.071524047851563,1.842584228515625,15.338519287109376
6.776999999999937,1.2432434082031252,2.3682037353515626,1.9430725097656247
6.786999999999921,3.3629180908203127,9.361709594726562,-0.2938385009765625
6.796999999999912,-2.599237060546875,11.277716064453124,0.0168975830078125
6.807000000000016,-2.7915405273437504,9.534124755859375,-0.9556854248046877
6.817999999999984,-2.1036743164062504,8.959906005859375,35.981683349609376
6.826999999999998,-0.9295166015625,2.3196044921875,4.40294189453125
6.837999999999965,1.7222076416015626,7.737149047851563,-2.3788208007812504
6.847999999999956,2.729034423828125,7.293774414062501,0.667828369140625
6.85799999999994,-0.0001495361328125,6.1190185546875,-0.6249114990234376
6.867999999999945,-0.6388183593750001,9.358120727539063,1.47681884765625
6.877999999999936,0.670819091796875,10.452874755859376,26.312677001953126
6.88799999999992,2.216574096679688,8.084072875976563,3.501388549804688
6.897999999999911,0.392083740234375,5.666073608398438,0.1143951416015625
6.908000000000016,-0.7472320556640626,4.7648193359375,8.767153930664064
6.918000000000006,0.3194091796875,4.799960327148438,1.6833282470703126
6.92799999999999,-0.8027099609375,9.392813110351565,9.389224243164064
6.937999999999988,-0.936993408203125,8.4278564453125,6.156402587890626
6.947999999999986,-0.8991607666015625,10.936026000976565,9.003271484375
6.95799999999997,-1.0431640625,5.693887329101563,9.476254272460938
6.967999999999961,-0.66513671875,4.1847686767578125,3.872088623046875
6.978999999999935,-0.083740234375,7.751953125000001,5.013497924804688
6.988999999999919,0.6702209472656251,6.692938232421875,2.687612915039063
6.99899999999991,0.5945556640625,9.958059692382813,6.920083618164063
7.009000000000015,-0.1484893798828125,8.025155639648439,8.355032348632813
7.0190000000000055,0.7300354003906251,7.503125000000001,9.50810546875
7.028999999999996,0.8134765625000001,6.743481445312501,6.23924560546875
7.038999999999994,1.1925506591796875,6.040811157226563,4.998544311523438
7.048999999999985,0.721661376953125,6.810922241210938,3.5757080078125
7.058999999999969,0.2340240478515625,5.6801300048828125,4.501336669921876
7.06899999999996,1.1025299072265626,2.267266845703125,1.108062744140625
7.078999999999951,0.0764129638671875,13.31095886230469,9.814205932617188
7.088999999999942,-1.3583862304687502,18.089086914062506,14.339617919921876
7.098999999999933,-1.5183898925781252,3.3250854492187503,4.366455078125
7.108999999999924,-3.2772338867187503,2.5642456054687504,18.15114440917969
7.1200000000000045,1.5409698486328127,0.908880615234375,0.9701904296875
7.128999999999905,2.5893676757812503,10.841668701171876,-0.3357086181640625
7.139999999999986,-2.209097290039063,12.0095458984375,0.0418701171875
7.149999999999977,-1.3962188720703126,9.661978149414065,-1.2677673339843751
7.159999999999968,-0.407635498046875,6.904830932617188,36.25757751464844
7.169999999999959,-0.352008056640625,1.3666107177734377,6.58018798828125
7.17999999999995,2.208200073242188,9.193930053710938,-2.894271850585937
7.189999999999941,1.8274810791015623,6.961505126953125,0.7938873291015626
7.199999999999932,-1.4343505859375,8.370584106445314,-0.6892120361328126
7.209999999999923,-1.3123291015625,8.545541381835939,-0.96241455078125
7.219999999999914,0.4438232421875,8.644982910156251,19.848678588867188
7.229999999999904,1.128997802734375,6.976159667968751,18.748989868164063
7.240000000000016,0.0234771728515625,6.735855102539063,-4.63262939453125
7.25,-0.389093017578125,5.154959106445313,0.3219512939453125
7.259999999999991,0.5802001953125,5.574108886718751,-0.5336944580078126
7.270999999999958,0.32598876953125,8.124597167968751,18.73553161621093
7.280999999999949,-0.0832916259765625,9.556106567382812,4.71038818359375
7.290999999999947,-0.6151916503906251,10.109390258789062,11.226126098632813
7.300999999999931,-0.0228790283203125,4.978805541992188,5.1201171875
7.310999999999922,0.2310333251953125,5.258139038085938,5.684616088867188
7.320999999999913,0.1873687744140625,5.90428466796875,5.088265991210938
7.331000000000024,0.43245849609375,8.355032348632813,2.290744018554688
7.341000000000015,-0.3599334716796875,10.43567810058594,8.576943969726564
7.350999999999999,-0.6877166748046876,7.266708374023438,7.289736938476563
7.36099999999999,-0.06160888671875,7.957714843750001,9.945648193359377
7.370999999999981,0.338250732421875,4.92572021484375,5.907574462890626
7.380999999999972,0.4317108154296875,7.154556274414063,4.5103088378906255
7.390999999999963,-0.1471435546875,7.2770263671875,4.20615234375
7.400999999999954,-0.1280029296875,7.311419677734375,6.119168090820313
7.411999999999921,0.2017242431640625,8.914447021484376,8.07913818359375
7.421999999999912,-0.106768798828125,7.431497192382813,7.230670166015625
7.432000000000016,-0.1748077392578125,3.355291748046876,2.3459228515625004
7.442000000000007,-0.7271942138671875,3.902593994140626,2.0272613525390626
7.451999999999998,0.1469940185546875,15.514523315429688,9.283950805664062
7.461999999999989,-0.257501220703125,13.176824951171875,9.65091247558594
7.471999999999987,-1.3423858642578126,2.153768920898438,15.161618041992188
7.481999999999971,-1.2407012939453126,1.820602416992188,8.69642333984375
7.491999999999962,3.171212768554688,6.639404296875001,-0.7457366943359376
7.501999999999953,1.4374908447265626,10.979241943359376,0.58917236328125
7.511999999999944,-0.523077392578125,11.202798461914064,-0.3431854248046875
7.5219999999999345,-1.476220703125,7.364205932617188,19.930474853515623
7.531999999999925,0.05084228515625,5.073312377929688,11.651705932617189
7.541999999999916,1.0172943115234376,6.429006958007813,3.472677612304688
7.55299999999999,2.7227539062500004,7.546041870117188,4.522122192382813
7.562999999999988,1.962811279296875,6.726882934570313,-1.4590240478515626
7.572999999999986,-2.087973022460938,6.385940551757813,3.5884185791015626
7.58299999999997,-0.7318298339843751,9.067572021484375,15.414633178710938
7.592999999999961,0.1443023681640625,11.1171142578125,8.692086791992189
7.602999999999952,0.210546875,6.353790283203126,0.60950927734375
7.612999999999943,-1.3716949462890626,7.187603759765626,6.547738647460938
7.622999999999934,-0.7310821533203126,3.324337768554688,5.079144287109376
7.632999999999924,-0.3306243896484375,6.66392822265625,6.817800903320313
7.642999999999915,-0.8332153320312501,8.798257446289064,7.964144897460938
7.652999999999906,-0.4544403076171875,9.317446899414064,6.333752441406251
7.663000000000011,0.0240753173828125,9.4458984375,8.887680053710938
7.673000000000002,-0.53175048828125,4.296322631835938,5.9283599853515625
7.683999999999969,0.9024505615234376,6.607403564453126,5.448498535156251
7.69399999999996,0.61728515625,6.825726318359376,3.4970520019531253
7.703999999999951,1.4830993652343751,8.537765502929688,5.19189453125
7.713999999999942,0.3177642822265625,8.896203613281251,7.356878662109375
7.723999999999933,0.2690155029296875,7.314859008789063,9.095086669921876
7.735000000000014,0.0985443115234375,7.083377075195313,7.992706298828126
7.743999999999914,0.3602325439453125,6.467886352539063,5.6647277832031255
7.753999999999905,-0.0578704833984375,6.816156005859376,4.431951904296875
7.764000000000017,-0.356195068359375,7.726681518554688,4.806988525390626
7.774000000000001,-1.0255187988281251,6.626693725585938,6.029147338867188
7.783999999999992,0.2878570556640625,4.114935302734375,3.768161010742188
7.793999999999983,0.007177734375,5.613287353515625,4.082785034179688
7.803999999999974,-0.98753662109375,17.123980712890628,10.691983032226563
7.8139999999999645,-0.5072265625000001,11.866738891601564,8.564233398437501
7.823999999999955,-1.8170135498046875,0.392681884765625,12.93412780761719
7.834999999999923,0.5076751708984375,1.930810546875,8.838034057617188
7.844999999999914,3.4856872558593754,6.234909057617188,-0.9993499755859376
7.854999999999904,2.32259521484375,13.37256774902344,0.5782562255859376
7.865000000000016,-1.4890808105468751,10.430145263671877,-0.214434814453125
7.875,-0.8860015869140626,7.847357177734375,24.2571533203125
7.884999999999991,-0.5314514160156251,4.682424926757813,8.625393676757813
7.894999999999982,0.036785888671875,4.561300659179688,1.072174072265625
7.904999999999973,1.140811157226563,9.211575317382811,2.1038238525390627
7.914999999999964,-1.6114013671875,7.1062561035156255,2.070626831054688
7.924999999999954,-2.45538330078125,7.146481323242188,10.728021240234376
7.934999999999945,-0.8611785888671876,8.791528320312501,9.688296508789064
7.944999999999936,0.1954437255859375,9.138153076171877,8.492605590820313
7.954999999999927,0.796728515625,7.495498657226563,1.14066162109375
7.964999999999918,-0.258099365234375,6.010903930664063,4.6116943359375
7.974999999999909,0.8300750732421875,4.059756469726563,5.009909057617188
7.98599999999999,1.8434814453125,7.130630493164063,9.3513916015625
7.995999999999981,1.0711273193359376,8.395855712890626,6.4482971191406255
8.005999999999972,0.7382598876953126,10.570559692382814,8.348602294921875
8.015999999999963,0.265277099609375,7.829412841796875,7.0329833984375005
8.025999999999954,0.2938385009765625,5.256793212890625,5.557211303710938
8.035999999999945,0.2295379638671875,5.489620971679688,5.66143798828125
8.045999999999935,-0.350213623046875,7.223342895507813,2.212985229492188
8.055999999999926,-0.8220001220703126,9.858020019531253,7.856030273437501
8.06599999999991,-1.6429534912109376,7.741336059570313,5.7242431640625
8.075999999999908,-1.2990203857421876,8.326321411132813,11.108740234375
8.086000000000013,-0.533245849609375,5.304196166992188,6.844268798828126
8.096000000000004,0.1140960693359375,7.159640502929688,5.108303833007813
8.105999999999995,-0.3733917236328125,6.936981201171876,4.674200439453125
8.115999999999985,0.23865966796875,7.392468261718751,3.623260498046875
8.125999999999976,0.6570617675781251,8.637506103515626,9.105853271484376
8.136999999999944,1.0944549560546877,4.155010986328126,3.434396362304688
8.146999999999935,0.705810546875,3.7113372802734377,3.1668762207031254
8.156999999999925,0.7609893798828126,12.91932373046875,7.560098266601563
8.166999999999916,0.802410888671875,16.630361938476565,10.269692993164064
8.176999999999914,-0.155218505859375,3.0592102050781254,12.273028564453126
8.187000000000012,-1.5451568603515626,-0.2196685791015625,10.906866455078124
8.197000000000003,1.8535003662109373,5.909368896484375,1.5303527832031252
8.206999999999994,1.086978149414063,11.207882690429688,0.155218505859375
8.216999999999985,-2.950796508789063,12.532623291015629,0.0707305908203125
8.226999999999975,-2.3306701660156253,7.148275756835938,8.824127197265625
8.236999999999966,-1.39786376953125,5.897406005859375,23.63119506835937
8.246999999999957,0.05802001953125,4.7769317626953125,-2.607760620117188
8.256999999999948,1.905538940429688,8.493353271484375,5.974118041992188
8.266999999999946,2.3508575439453128,7.461254882812501,-0.7689147949218751
8.277999999999906,-0.134283447265625,6.341677856445313,4.7504638671875
8.288000000000011,0.2643798828125,8.1766357421875,13.07828063964844
8.298000000000002,0.9826019287109377,10.321282958984376,9.218902587890623
8.307999999999993,1.3867980957031252,7.92601318359375,2.572470092773438
8.317999999999984,-0.1021331787109375,6.9301025390625,2.8553924560546875
8.327999999999975,-0.542218017578125,3.6084564208984378,6.444857788085938
8.337999999999965,0.0614593505859375,5.8055908203125,7.139453125
8.347999999999956,-0.9555358886718752,8.477053833007814,8.265011596679688
8.35799999999994,-1.3613769531250002,9.6755859375,6.008660888671876
8.367999999999945,-1.2649261474609377,9.6552490234375,9.108843994140626
8.377999999999936,-1.07666015625,4.930206298828125,5.24931640625
8.38799999999992,-0.3360076904296875,6.117373657226563,7.316653442382813
8.39799999999991,-0.0046356201171875,6.165972900390625,1.28720703125
8.408000000000015,0.9055908203125,9.443655395507813,6.596786499023438
8.418000000000006,0.5982940673828125,8.126840209960939,6.487176513671876
8.428999999999974,0.702520751953125,8.177532958984376,9.05830078125
8.438999999999965,0.6721649169921875,6.487625122070313,9.361709594726562
8.448999999999955,1.185821533203125,6.24522705078125,4.344024658203125
8.458999999999946,1.0075744628906251,7.745672607421875,6.1731506347656255
8.468999999999944,0.246734619140625,6.385043334960938,2.0049804687500004
8.478999999999935,-0.157611083984375,8.825772094726563,8.60072021484375
8.488999999999919,0.04844970703125,4.506420898437501,3.816610717773438
8.49899999999991,0.6107055664062501,3.8595275878906254,3.944464111328125
8.509000000000015,-1.172662353515625,11.812307739257813,7.578192138671875
8.519000000000005,-1.1369232177734376,17.1248779296875,10.371078491210938
8.528999999999996,-1.923483276367188,3.5583618164062503,9.861160278320312
8.538999999999994,-1.8019104003906248,0.2441925048828125,11.901431274414064
8.548999999999985,1.9551849365234373,5.29178466796875,2.787802124023438
8.559999999999945,2.3148193359375,10.341769409179689,-0.1368255615234375
8.569999999999936,-0.7654754638671876,12.549221801757811,0.058917236328125
8.579999999999927,-1.2372619628906252,7.608248901367188,10.7091796875
8.589999999999918,0.1601531982421875,7.141397094726563,19.6299072265625
8.599999999999909,-0.5319000244140626,3.496902465820313,1.820751953125
8.610000000000014,1.6549163818359376,7.964443969726563,0.302960205078125
8.620000000000005,0.6165374755859375,8.913699340820314,4.242938232421875
8.629999999999995,-1.809835815429688,6.05980224609375,5.627194213867188
8.639999999999986,-0.9295166015625,8.221347045898439,10.298703002929688
8.649999999999977,0.4236358642578125,9.231164550781251,9.946844482421875
8.659999999999968,0.6133972167968751,8.427706909179689,3.394769287109375
8.669999999999959,-0.0931610107421875,6.784005737304688,2.8365509033203127
8.67999999999995,-0.5052825927734376,4.2755371093750005,5.436535644531251
8.69099999999991,1.5782043457031252,5.970828247070313,8.163177490234375
8.699999999999932,0.203070068359375,7.432992553710938,6.704153442382813
8.711000000000013,0.20396728515625,10.095932006835938,8.590103149414062
8.721000000000004,-0.064300537109375,8.971868896484375,6.5245605468750005
8.730999999999995,0.3339141845703125,6.868344116210938,6.734957885742188
8.740999999999985,0.0509918212890625,4.6104980468750005,5.341131591796875
8.750999999999976,0.197686767578125,6.651217651367188,3.251513671875
8.76099999999996,-0.0874786376953125,8.943157958984376,6.5365234375000005
8.770999999999958,-0.7288391113281251,8.28250732421875,5.308981323242188
8.780999999999949,-0.8261871337890626,8.676834106445312,10.517175292968751
8.790999999999947,-0.4080841064453125,5.549734497070313,7.033282470703125
8.80099999999993,0.5326477050781251,7.442263793945313,7.736999511718751
8.810999999999922,-0.313128662109375,6.155654907226563,2.8245880126953127
8.820999999999913,-0.047552490234375,7.424020385742188,4.153366088867188
8.831000000000024,-0.8058502197265626,2.5024871826171875,3.2026153564453126
8.841999999999985,-0.33077392578125,7.08861083984375,2.9484039306640626
8.851999999999975,0.611004638671875,19.751480102539062,16.426544189453125
8.861999999999966,-0.417803955078125,8.104409790039064,4.991067504882813
8.871999999999957,-0.8865997314453126,0.7113433837890626,15.888812255859376
8.881999999999948,-0.5190399169921875,1.1964385986328123,2.265472412109375
8.891999999999946,4.727883911132813,9.439169311523438,-0.3892425537109375
8.901999999999937,1.426873779296875,10.94544677734375,0.4533935546875
8.91199999999992,-2.316912841796875,10.827014160156253,5.241390991210938
8.921999999999912,-1.2101959228515626,8.049679565429688,24.63413391113281
8.932000000000016,0.3440826416015625,3.522921752929688,0.4338043212890625
8.942000000000007,1.5828399658203127,6.807931518554688,6.601571655273438
8.951999999999998,2.479608154296875,7.296615600585938,0.2423980712890625
8.961999999999989,0.284716796875,7.920330810546876,0.1341339111328125
8.972999999999956,-2.702267456054688,6.824530029296875,12.788180541992189
8.981999999999971,-0.160601806640625,10.304385375976564,10.53631591796875
8.992999999999945,0.5800506591796876,8.996392822265626,7.455273437500001
9.002999999999936,0.413916015625,6.621908569335938,-1.10596923828125
9.01299999999992,-2.1640869140625,5.478106689453125,8.251553344726563
9.02299999999991,-0.1520782470703125,3.732122802734376,3.473873901367188
9.033000000000015,0.0838897705078125,8.568270874023439,10.582073974609376
9.043000000000006,-0.5156005859375,7.783206176757813,4.39337158203125
9.05299999999999,-0.313128662109375,11.438317871093751,10.990457153320314
9.062999999999988,-0.264080810546875,6.07774658203125,5.7792724609375
9.072999999999986,0.020037841796875,5.812619018554688,6.601272583007813
9.08299999999997,0.3874481201171875,5.549285888671875,3.420040893554688
9.09299999999996,1.343731689453125,7.969378662109375,3.01943359375
9.103999999999935,1.1545684814453123,9.331802368164062,7.858721923828125
9.112999999999944,-0.5090209960937501,7.525106811523438,5.940771484375
9.122999999999934,0.0216827392578125,8.39615478515625,12.945791625976565
9.132999999999925,0.064599609375,5.02860107421875,3.408526611328125
9.144000000000004,0.9867889404296876,8.167364501953125,8.31241455078125
9.153999999999996,-0.5221801757812501,5.5081634521484375,0.976171875
9.163999999999994,-0.495263671875,8.948541259765626,6.968084716796875
9.173999999999984,-0.6332855224609375,3.778030395507813,4.192544555664063
9.183999999999967,1.0579681396484375,4.050784301757813,3.5736145019531254
9.19399999999996,-0.6428558349609376,14.614764404296876,10.861257934570313
9.20399999999995,-0.316119384765625,16.09547119140625,8.106652832031251
9.213999999999942,-1.9460632324218752,1.6680755615234375,10.76361083984375
9.223999999999933,-0.826336669921875,-0.3066986083984375,10.066024780273438
9.23599999999999,3.257345581054688,5.9313507080078125,1.0383789062500002
9.243999999999916,2.5628997802734377,11.827261352539065,0.3401947021484375
9.253999999999904,-1.2139343261718751,12.428097534179688,0.855047607421875
9.264000000000015,-1.664187622070313,7.560247802734375,19.47259521484375
9.274,-0.268865966796875,6.471325683593751,12.734646606445311
9.284999999999968,-0.605023193359375,2.4660003662109378,1.460369873046875
9.29499999999996,1.9128662109375,9.495245361328124,-0.542218017578125
9.303999999999974,-1.0642486572265626,8.139550781250001,3.695635986328125
9.31499999999994,-2.67430419921875,7.053768920898438,7.832254028320313
9.324999999999932,-0.9087310791015626,7.94156494140625,11.876458740234376
9.336000000000013,0.8447296142578126,8.781658935546876,7.866647338867188
9.344999999999914,0.988134765625,8.67249755859375,4.7290802001953125
9.354999999999905,-0.20516357421875,5.708242797851563,-0.7765411376953125
9.365000000000016,0.2476318359375,5.1059112548828125,8.689395141601564
9.375,1.815667724609375,4.716519165039063,6.683966064453125
9.384999999999993,1.4709869384765626,9.530535888671876,10.00994873046875
9.395999999999958,0.145947265625,9.29815673828125,5.683419799804688
9.404999999999973,0.0471038818359375,9.811813354492188,7.88175048828125
9.415999999999949,0.0584686279296875,5.192941284179688,6.068624877929688
9.42599999999993,0.2163787841796875,4.6523681640625005,4.123757934570313
9.434999999999944,-0.12740478515625,7.490863037109375,5.070172119140626
9.444999999999936,-1.0585662841796877,8.582028198242188,4.136019897460938
9.456000000000024,-1.376031494140625,9.801345825195312,9.234005737304688
9.466000000000015,-1.3938262939453123,6.541009521484376,7.353588867187501
9.476,-0.063104248046875,7.138256835937501,10.936325073242188
9.48599999999999,-0.009271240234375,5.371786499023438,2.7095947265625
9.49599999999998,0.3336151123046875,8.247366333007813,6.065335083007813
9.505999999999972,-0.172564697265625,6.530093383789063,2.104421997070313
9.515999999999964,0.7687652587890625,7.742382812500001,7.473666381835938
9.525999999999954,0.371148681640625,0.5912658691406251,2.7755401611328128
9.535999999999945,0.9012542724609376,11.26605224609375,4.664181518554688
9.545999999999935,0.6868194580078125,20.21294860839844,14.241970825195311
9.557000000000016,-0.0037384033203125,5.499789428710938,7.246072387695313
9.56599999999991,-1.4004058837890625,-2.3293243408203126,16.30885925292969
9.576999999999998,0.7408020019531251,2.373736572265625,1.1315399169921876
9.586999999999987,4.476214599609375,11.9066650390625,-0.0157012939453125
9.596999999999989,-2.1576568603515627,13.080374145507813,0.5106658935546875
9.606999999999973,-3.4409759521484378,10.054510498046875,-0.6884643554687501
9.616999999999962,-2.3865966796875,5.158697509765625,33.752847290039064
9.626999999999953,0.5863311767578125,3.360824584960938,2.6301910400390627
9.636999999999944,1.4839965820312502,6.988870239257813,-1.9035949707031248
9.646999999999936,2.3638671875000004,9.273483276367188,0.7707092285156251
9.656999999999924,-0.334661865234375,7.190744018554688,-0.234771728515625
9.666999999999916,-0.6717163085937501,7.237399291992188,17.59546813964844
9.676999999999914,0.579901123046875,9.100469970703124,10.8635009765625
9.687000000000012,1.933651733398437,9.051272583007814,2.547348022460937
9.697999999999986,0.748577880859375,7.363607788085938,3.45189208984375
9.706999999999994,-1.4801086425781251,4.366604614257813,3.5286041259765626
9.71799999999996,-0.0695343017578125,4.14573974609375,8.348901367187501
9.727999999999952,0.1614990234375,7.940817260742188,8.457913208007813
9.737999999999944,-1.2072052001953126,10.00381774902344,7.88175048828125
9.747999999999934,-1.2079528808593751,9.565078735351562,7.2408386230468755
9.757999999999925,-0.9721343994140624,7.037469482421876,7.546490478515626
9.767999999999915,-0.542218017578125,4.626199340820313,3.878668212890626
9.777999999999906,0.2917449951171875,6.299508666992188,4.521374511718751
9.788000000000013,0.2732025146484375,8.0330810546875,3.5568664550781253
9.798000000000002,0.774298095703125,9.8011962890625,7.790982055664063
9.807999999999993,-0.0808990478515625,7.634866333007813,8.332003784179689
9.817999999999984,0.631939697265625,6.9103637695312505,10.134661865234376
9.827999999999976,1.03419189453125,5.838638305664063,6.0479888916015625
9.837999999999964,1.332366943359375,7.2830078125,4.552029418945313
9.848999999999933,0.0327484130859375,7.01085205078125,2.9249267578125
9.858999999999924,-0.292791748046875,8.103363037109375,5.8031982421875
9.868999999999916,0.0611602783203125,7.677185058593751,7.725933837890626
9.878999999999904,0.1547698974609375,3.3044494628906254,3.833657836914063
9.889000000000015,0.2906982421875,3.9806518554687504,2.44342041015625
9.899,-2.057467651367188,18.59212646484375,11.613723754882812
9.908999999999992,-0.593060302734375,13.67164001464844,8.709283447265626
9.918999999999984,-3.179437255859375,-1.9133148193359373,13.639639282226565
9.928999999999974,-0.0387298583984375,0.9479095458984376,11.172293090820313
9.938999999999965,3.621017456054688,6.719854736328125,-0.9517974853515626
9.948999999999955,2.42308349609375,14.640484619140626,0.8837585449218751
9.958999999999946,-1.777685546875,9.1109375,-0.590069580078125
9.968999999999944,-0.648388671875,9.98243408203125,0.9500030517578124
9.978999999999935,0.0351409912109375,3.1908020019531254,38.8758056640625
9.98899999999992,0.13338623046875,5.046246337890626,-2.056719970703125
10.0,1.9828491210937504,8.73111572265625,-0.632537841796875
10.009999999999993,-0.3916351318359375,8.358172607421876,0.307147216796875
10.019999999999982,-2.2333221435546875,6.69383544921875,-0.7946350097656251
10.029999999999973,-1.6244110107421876,8.564233398437501,-0.887646484375
10.039999999999964,1.230084228515625,9.731512451171875,28.980102539062504
10.049999999999956,0.6839782714843751,6.75963134765625,9.907067871093751
10.059999999999944,-0.96719970703125,6.420632934570313,-3.607858276367188
10.069999999999936,-0.899908447265625,3.3881896972656254,-0.0647491455078125
10.079999999999927,2.62286376953125,7.137359619140626,-0.6794921875000001
10.089999999999918,-0.029608154296875,7.716064453125001,23.27021484375
10.099999999999907,0.1514801025390625,10.77198486328125,3.7485717773437504
10.110000000000014,0.0219818115234375,8.77119140625,8.944055175781251
10.120000000000005,0.7569519042968751,5.741589355468751,5.7175140380859375
10.129999999999995,-0.15970458984375,4.427166748046876,3.928912353515625
10.139999999999986,0.3732421875,7.653408813476563,4.07755126953125
10.150999999999954,-0.419598388671875,8.625244140625,5.783908081054688
10.160999999999945,-0.4924224853515625,9.11377868652344,7.747467041015626
10.170999999999935,-1.3749847412109375,6.995449829101563,9.770989990234376
10.180999999999926,0.337353515625,6.845913696289063,8.683712768554688
10.19099999999991,-0.1126007080078125,6.256143188476563,4.45677490234375
10.200999999999908,0.0414215087890625,7.48697509765625,3.936837768554688
10.211000000000013,-0.40494384765625,7.105358886718751,3.5603057861328127
10.221000000000004,0.064300537109375,6.834548950195313,6.709536743164063
10.230999999999996,-0.039776611328125,0.5621063232421876,1.4016021728515626
10.240999999999984,-0.2567535400390625,11.957357788085938,8.9135498046875
10.252999999999936,0.8327667236328126,21.13528747558594,12.067266845703124
10.26099999999996,-0.8103363037109376,5.547940063476563,9.55057373046875
10.270999999999958,-1.4255279541015626,-3.927566528320313,14.062228393554689
10.280999999999947,0.246435546875,2.248724365234376,0.726446533203125
10.291999999999916,5.259933471679688,12.251345825195314,0.3721954345703125
10.301999999999914,-0.036785888671875,14.333636474609376,0.4966094970703125
10.312000000000012,-3.154165649414063,9.73584899902344,-1.23516845703125
10.322000000000005,-1.9487548828125,4.527056884765625,35.962991333007814
10.331999999999994,1.643252563476563,2.6665283203125,6.083279418945313
10.341999999999985,2.6823791503906254,7.270147705078125,-2.6778930664062504
10.352999999999952,2.397811889648437,9.301446533203126,1.018191528320313
10.361999999999966,-0.8228973388671875,6.649124145507813,-0.715679931640625
10.372999999999934,-2.4220367431640626,8.412155151367188,-0.8613281250000001
10.381999999999948,0.084637451171875,7.903134155273438,25.519836425781254
10.391999999999946,1.4312103271484375,10.335040283203126,8.541802978515626
10.401999999999935,-0.034393310546875,6.248965454101563,-2.980255126953125
10.41199999999992,-2.9801055908203127,5.3421783447265625,0.5130584716796875
10.423000000000002,-0.265277099609375,2.9392822265625003,13.10459899902344
10.432000000000016,0.5827423095703126,8.029791259765625,8.345611572265625
10.442999999999984,-0.4880859375,9.725680541992189,7.78006591796875
10.452999999999976,-1.1575592041015623,10.501324462890626,7.903732299804688
10.462999999999964,-0.1897613525390625,7.025207519531251,7.591201782226563
10.472999999999956,0.0562255859375,4.2875000000000005,3.1009307861328126
10.48299999999994,1.375732421875,6.296368408203126,5.212231445312501
10.492999999999943,0.7378112792968751,7.3607666015625,1.6426544189453127
10.502999999999936,1.4225372314453126,10.6134765625,9.209332275390626
10.51299999999992,-0.6264068603515626,7.33743896484375,7.607650756835938
10.52299999999991,0.5209838867187501,7.477554321289063,11.508749389648438
10.533000000000015,-0.0823944091796875,4.931552124023438,5.29178466796875
10.543000000000006,1.3367034912109377,7.962948608398438,5.447750854492188
10.55299999999999,-0.85474853515625,6.398651123046876,1.87398681640625
10.562999999999988,-0.6122009277343751,7.017282104492188,4.523617553710938
10.573999999999955,0.5130584716796875,1.9176513671875,2.729632568359375
10.583999999999946,1.030154418945313,10.84720153808594,8.304489135742188
10.593999999999944,-1.6647857666015626,19.30989990234375,14.112921142578124
10.603999999999935,-0.258099365234375,5.6739990234375,5.006918334960938
10.61399999999992,-2.470635986328125,-0.107366943359375,16.602249145507812
10.62399999999991,1.57252197265625,1.8475189208984373,3.981997680664063
10.634000000000016,3.326431274414063,9.511843872070314,-0.7086517333984376
10.644000000000004,-1.3313201904296876,13.221685791015624,0.4018035888671875
10.653999999999996,-2.312277221679688,10.055706787109376,-1.0597625732421876
10.663999999999994,-0.6373229980468751,7.555612182617188,29.080142211914065
10.673999999999984,-1.35120849609375,2.415158081054688,5.418292236328125
10.683999999999967,0.2117431640625,5.903536987304688,-2.5881713867187504
10.69399999999996,2.0769073486328127,9.194528198242187,5.209240722656251
10.704999999999927,-1.6139434814453126,7.3727294921875,2.077505493164063
10.713999999999942,-1.3585357666015625,8.029342651367188,11.221939086914062
10.724999999999907,0.311932373046875,8.823080444335938,10.998532104492188
10.735000000000014,2.00438232421875,8.47869873046875,7.627987670898438
10.745000000000005,0.8563934326171876,6.84097900390625,-1.0129577636718752
10.754999999999995,-0.1060211181640625,5.603268432617188,3.48897705078125
10.764999999999986,1.2891510009765623,3.604568481445313,8.24482421875
10.774999999999975,1.4706878662109375,8.607000732421875,9.188247680664062
10.784999999999968,-0.6495849609375001,8.382546997070314,7.729074096679688
10.79499999999996,0.4272247314453125,10.85452880859375,7.325177001953126
10.80499999999995,-0.7285400390625001,7.087115478515625,6.834848022460938
10.81499999999994,-0.024822998046875,5.254101562500001,4.081738281250001
10.824999999999932,-0.6901092529296875,5.385095214843751,4.352099609375
10.834999999999924,-0.6593048095703126,7.960107421875,4.828372192382813
10.844999999999914,-0.8000183105468751,9.315054321289065,7.481741333007813
10.854999999999905,-1.1823822021484376,8.443258666992188,7.29317626953125
10.865000000000016,-0.456982421875,7.189248657226563,11.261566162109377
10.875999999999976,0.5603118896484376,5.88394775390625,4.766165161132813
10.88599999999996,0.80390625,7.004721069335938,5.756842041015625
10.895999999999958,0.060113525390625,6.540261840820313,2.2310791015625
10.905999999999947,1.0727722167968752,8.672348022460938,6.485980224609375
10.915999999999949,0.231182861328125,4.945608520507813,5.134921264648438
10.92599999999993,0.2705108642578125,1.7815734863281252,2.8035034179687504
10.935999999999922,-0.1511810302734375,15.227413940429688,9.19288330078125
10.945999999999913,0.78297119140625,17.766836547851565,11.346054077148438
10.956000000000024,-1.3239929199218752,1.3482177734375,11.036962890625
10.966000000000015,-1.6486358642578127,-1.1473907470703126,11.679220581054688
10.976,1.7238525390625,4.934841918945313,0.24703369140625
10.98599999999999,2.3055480957031254,13.994937133789064,0.5135070800781251
10.99599999999998,-2.5129547119140625,11.139395141601565,0.0674407958984375
11.006999999999948,-2.084832763671875,8.448193359375,4.509710693359375
11.016999999999946,-0.188116455078125,5.5904083251953125,30.762573242187504
11.026999999999935,0.4308135986328125,3.373983764648438,-3.559259033203125
11.03699999999992,3.506024169921876,8.902484130859376,0.0921142578125
11.046999999999912,2.297772216796876,8.5020263671875,0.3440826416015625
11.057000000000016,-0.8456268310546876,6.469082641601563,9.893161010742189
11.067000000000007,-0.8046539306640625,7.392617797851563,9.107199096679688
11.076999999999998,0.5486480712890626,9.906320190429687,11.082720947265626
11.087999999999964,0.6718658447265625,8.678030395507813,1.6489349365234376
11.096999999999989,-0.7696624755859376,7.002029418945313,3.716720581054688
11.106999999999973,-2.181732177734375,3.0080688476562503,5.781515502929688
11.116999999999962,0.4003082275390625,5.955126953125,9.211874389648438
11.126999999999953,-1.0711273193359376,7.603314208984376,7.693185424804688
11.136999999999944,-0.7591949462890626,10.12344665527344,7.417889404296876
11.14799999999991,-1.1544189453125,9.57913513183594,6.479550170898438
11.158000000000015,0.188714599609375,6.981094360351563,6.550131225585938
11.168000000000006,-0.2465850830078125,4.299163818359375,4.4609619140625005
11.17799999999999,1.2039154052734375,7.059152221679688,4.2146759033203125
11.187999999999988,1.1363250732421877,8.100372314453125,5.152267456054688
11.197999999999986,1.3349090576171876,9.485076904296877,7.557556152343751
11.20799999999997,-0.0949554443359375,7.041207885742188,9.06009521484375
11.21799999999996,0.9031982421875,6.912158203125,9.054562377929688
11.227999999999952,0.5247222900390626,6.355136108398438,5.800357055664063
11.237999999999944,0.463861083984375,7.265960693359376,3.337945556640625
11.247999999999934,-0.538031005859375,7.2258850097656255,3.641204833984376
11.257999999999925,-0.36427001953125,4.380361938476563,3.163885498046876
11.267999999999915,1.7293853759765627,3.075509643554688,3.082537841796875
11.277999999999906,-1.8229949951171875,17.2732177734375,13.122244262695313
11.288000000000013,-0.7466339111328125,16.619146728515627,11.355325317382814
11.298999999999984,-2.636471557617188,-1.457827758789063,8.34232177734375
11.308999999999967,-1.2109436035156251,1.25789794921875,15.483718872070314
11.31899999999996,2.902944946289063,3.4852386474609376,-1.0996887207031252
11.32899999999995,2.3658111572265628,14.525939941406252,0.6884643554687501
11.338999999999942,-2.4117187500000004,10.594934082031251,-0.476422119140625
11.348999999999933,-1.7440399169921876,11.034869384765626,-1.67420654296875
11.358999999999924,-0.3871490478515625,3.666925048828125,36.701550292968754
11.368999999999916,-0.1040771484375,2.7586425781250004,6.752752685546875
11.378999999999904,2.659201049804688,7.96788330078125,-2.861224365234375
11.389000000000015,0.0441131591796875,8.848352050781251,0.8124298095703125
11.399,-1.8832580566406247,7.527499389648438,-0.720166015625
11.408999999999992,-1.583438110351563,9.11976013183594,-1.0084716796875002
11.418999999999984,1.660748291015625,9.53861083984375,14.588446044921875
11.428999999999974,1.3432830810546876,6.244030761718751,23.94626770019532
11.438999999999965,0.0805999755859375,7.358523559570313,-5.035031127929688
11.449999999999932,-1.1769989013671875,3.30953369140625,0.0079254150390625
11.459999999999924,2.51280517578125,6.489569091796875,-0.8556457519531251
11.469999999999914,0.260791015625,7.870535278320313,9.910507202148438
11.479999999999905,-0.57840576171875,10.5596435546875,17.805117797851565
11.490000000000016,-0.2304351806640625,9.633865356445312,4.635470581054688
11.5,0.1033294677734375,5.670260620117188,6.3720336914062505
11.509999999999993,-0.1538726806640625,4.316510009765626,3.3599273681640627
11.519999999999982,0.1060211181640625,6.828567504882813,3.8560882568359376
11.529999999999973,-0.4619171142578125,8.640945434570312,5.9014434814453125
11.539999999999964,-0.33316650390625,9.561788940429688,7.071862792968751
11.549999999999956,-1.301263427734375,7.776776123046876,10.170999145507814
11.559999999999944,0.3078948974609375,6.637310791015626,8.89141845703125
11.569999999999936,0.4529449462890625,5.851199340820313,4.807138061523438
11.581000000000024,0.8720947265625001,7.279568481445313,4.5638427734375
11.591000000000015,1.2822723388671875,6.851596069335938,2.438934326171875
11.601,0.8864501953125,9.1049560546875,8.196823120117188
11.61099999999999,3.0230224609375003,6.945654296875,7.23515625
11.62099999999998,2.885150146484375,2.7486236572265628,4.2336669921875005
11.630999999999972,0.1909576416015625,8.568719482421876,5.413058471679688
11.640999999999964,-8.034127807617189,19.163653564453128,9.452627563476565
11.650999999999954,-3.3116271972656253,5.33963623046875,7.649371337890625
11.660999999999945,0.1754058837890625,-2.631088256835937,12.905715942382814
11.670999999999935,-0.1128997802734375,3.6283447265625,5.469134521484375
11.680999999999926,2.2372100830078128,10.376760864257813,-2.48887939453125
11.69099999999991,3.2039611816406253,12.616513061523438,2.738754272460937
11.700999999999908,-0.5924621582031251,10.726675415039065,8.524307250976562
11.711999999999987,-5.8797607421875,5.324981689453125,21.171923828125003
11.721000000000004,-2.657855224609375,2.548394775390625,-0.7759429931640626
11.731999999999973,2.10845947265625,8.253646850585938,4.218115234375
11.741999999999962,3.853546142578125,9.091348266601564,1.889987182617188
11.752999999999936,3.518585205078125,8.398846435546876,4.840634155273438
11.761999999999944,-2.5145996093750003,5.3152618408203125,11.989508056640624
11.771999999999936,-2.9934143066406254,9.18435974121094,8.305834960937501
11.781999999999924,-2.720510864257813,9.261071777343751,5.424572753906251
11.791999999999916,2.4381866455078125,7.872479248046876,1.5532318115234376
11.801999999999914,2.8387939453125,4.951290893554688,6.717163085937501
11.812000000000012,0.23865966796875,4.677938842773438,6.99649658203125
11.822000000000005,-0.8919830322265626,7.94993896484375,9.647174072265626
11.831999999999994,-1.6448974609375002,8.647076416015626,4.7709503173828125
11.841999999999985,-1.1711669921875,9.964041137695313,8.84595947265625
11.852999999999952,0.390289306640625,6.551327514648438,6.8894287109375005
11.861999999999966,3.058462524414063,5.537771606445313,7.150817871093751
11.872999999999934,0.6021820068359376,5.985482788085938,2.9129638671875
11.882999999999925,-0.3440826416015625,8.956018066406251,4.872933959960938
11.892999999999915,-1.4395843505859376,8.329910278320312,5.487377929687501
11.902999999999906,-0.4670013427734375,7.481143188476563,8.572009277343751
11.913000000000013,-1.1578582763671876,6.081484985351563,9.347653198242188
11.923000000000002,-0.4027008056640625,6.759780883789063,6.859820556640625
11.932999999999993,0.937890625,6.786099243164063,4.37901611328125
11.942999999999984,0.7888031005859376,8.075100708007813,4.390231323242188
11.95399999999995,-0.9585266113281252,6.861764526367188,5.074807739257813
11.962999999999964,0.9854431152343752,3.712982177734376,5.549285888671875
11.972999999999956,0.8870483398437501,5.492462158203125,4.135720825195313
11.98299999999994,-5.1278930664062505,18.38172912597656,10.392462158203124
11.992999999999943,-4.2640228271484375,10.988513183593753,7.853488159179688
12.002999999999936,3.700271606445313,-1.7293853759765627,13.534963989257813
12.014000000000015,0.9105255126953126,0.5389282226562501,7.17593994140625
12.024,2.428466796875,9.819290161132812,-2.531198120117188
12.033999999999992,2.44940185546875,13.627676391601565,-0.3162689208984375
12.043999999999984,-1.6333831787109376,8.975457763671876,9.91484375
12.053999999999974,-4.141552734375001,7.06468505859375,20.37085876464844
12.063999999999965,-1.4605194091796876,4.062747192382813,6.685760498046876
12.073999999999955,2.64080810546875,5.576651000976563,0.95045166015625
12.083999999999946,2.3574371337890625,9.525750732421876,-0.2163787841796875
12.093999999999944,-0.1795928955078125,8.972616577148438,4.477261352539063
12.103999999999935,-1.7724517822265626,5.226736450195313,8.973663330078125
12.11399999999992,-2.4860382080078125,8.0115478515625,12.580325317382814
12.12399999999991,-1.006228637695313,9.242230224609376,8.041156005859376
12.134000000000016,2.3010620117187504,8.808126831054688,0.8812164306640625
12.144000000000004,2.579049682617188,5.360870361328125,3.8441253662109376
12.154999999999973,2.559909057617188,4.20914306640625,7.573855590820313
12.164999999999964,-1.9137634277343751,5.740542602539063,7.527200317382813
12.174999999999956,-0.9766204833984377,9.754391479492188,6.568524169921876
12.184999999999944,-1.691552734375,9.128283691406253,7.354635620117188
12.194999999999936,-0.569732666015625,8.301498413085938,9.157891845703126
12.204999999999927,2.369549560546876,4.892224121093751,6.0233154296875
12.214999999999918,1.3085906982421875,5.62913818359375,4.462307739257813
12.224999999999907,0.859234619140625,7.724438476562501,3.8037506103515626
12.235000000000014,-0.8335144042968751,9.810617065429687,5.277578735351563
12.245000000000005,-3.1442962646484376,7.884442138671876,7.879956054687501
12.254999999999995,-0.87867431640625,6.646133422851563,9.754690551757813
12.264999999999986,0.34273681640625,6.519326782226563,9.36499938964844
12.274999999999975,2.266220092773437,6.824978637695313,3.0529296875000003
12.284999999999968,5.057162475585938,5.34801025390625,3.2748413085937504
12.29499999999996,4.5470947265625,3.6308868408203128,1.3823120117187502
12.305999999999926,-6.289639282226563,16.764346313476565,13.173684692382814
12.31599999999991,-9.673492431640623,11.379251098632814,7.018179321289063
12.325999999999908,-0.158807373046875,0.9431243896484376,14.829049682617187
12.336000000000013,1.887744140625,-0.48509521484375,4.384100341796875
12.346000000000004,4.815213012695313,10.127932739257814,0.7574005126953125
12.355999999999996,3.855789184570313,10.697964477539063,-3.02840576171875
12.365999999999984,-3.659896850585938,9.453973388671876,8.265609741210938
12.375999999999976,-7.64249267578125,6.629235839843751,19.467361450195312
12.38599999999996,-7.910162353515625,4.417745971679688,10.402780151367187
12.395999999999958,6.630133056640625,6.41868896484375,0.438140869140625
12.405999999999947,9.537713623046876,10.748358154296875,1.3703491210937502
12.415999999999949,-0.481805419921875,5.832806396484376,3.783712768554688
12.42599999999993,-1.63173828125,5.947949218750001,8.324078369140626
12.435999999999922,-2.925973510742188,9.097479248046875,10.166961669921877
12.447000000000005,-4.089962768554688,10.34476013183594,9.194528198242187
12.456999999999994,2.174554443359375,8.125344848632814,4.569375610351563
12.466999999999985,3.2714019775390626,4.52496337890625,2.1857696533203126
12.476999999999975,0.231781005859375,4.585076904296876,7.55875244140625
12.486999999999966,-0.48270263671875,5.570968627929688,4.873382568359375
12.496999999999955,-1.0012939453125,9.439767456054687,8.012594604492188
12.506999999999948,-1.9465118408203128,9.54578857421875,7.476507568359375
12.516999999999946,0.9999481201171876,9.4901611328125,11.175881958007814
12.526999999999935,-0.243145751953125,4.080990600585938,5.6177734375
12.53699999999992,0.4246826171875,5.771795654296875,4.985086059570313
12.546999999999912,0.3605316162109375,6.658843994140626,2.7172210693359378
12.557000000000016,1.407135009765625,9.428402709960938,4.691845703125001
12.567000000000007,-0.8335144042968751,7.863656616210938,8.332003784179689
12.576999999999998,0.0880767822265625,8.145980834960938,9.424215698242188
12.586999999999987,-0.3512603759765625,6.642694091796876,9.958807373046875
12.597999999999956,1.8267333984375,6.381304931640625,4.7365570068359375
12.60799999999994,-0.054132080078125,6.365902709960938,4.5135986328125
12.617999999999943,-0.3401947021484375,7.157247924804688,3.02362060546875
12.627999999999936,-0.4350006103515625,7.430001831054688,7.994052124023438
12.63799999999992,-0.2691650390625,7.31650390625,6.2284790039062505
12.64799999999991,1.0498931884765623,2.717071533203125,4.641152954101563
12.658000000000015,-0.15731201171875,7.917340087890626,4.0087646484375
12.668000000000006,-1.229486083984375,19.127764892578128,11.716604614257813
12.67799999999999,-0.343634033203125,8.098577880859375,6.836343383789063
12.687999999999988,-1.6214202880859376,-3.0626495361328128,15.174478149414064
12.697999999999986,0.47373046875,2.056719970703125,4.279425048828125
12.70799999999997,3.5333892822265627,12.032424926757812,-0.357391357421875
12.718999999999944,0.335858154296875,12.459649658203126,0.5864807128906251
12.727999999999952,-2.307940673828125,8.16168212890625,4.238003540039063
12.73899999999992,-0.9692932128906252,6.272592163085938,26.05128784179688
12.74899999999991,0.0967498779296875,4.6404052734375005,1.9444183349609376
12.759000000000016,-0.13697509765625,6.225039672851563,2.047747802734375
12.769000000000004,0.6884643554687501,10.108493041992189,0.1021331787109375
12.778999999999996,-0.6285003662109375,6.871035766601563,6.045895385742188
12.788999999999994,-1.8530517578125,5.797665405273438,10.826565551757811
12.798999999999984,0.0231781005859375,8.336639404296875,10.575643920898438
12.808999999999967,0.5806488037109375,10.430593872070313,6.227731323242188
12.81899999999996,1.64908447265625,7.339382934570313,0.7050628662109375
12.82899999999995,-1.0555755615234377,4.914804077148438,4.8617187500000005
12.838999999999942,0.8683563232421876,3.466995239257813,7.964144897460938
12.848999999999933,2.013055419921875,7.479946899414063,8.441464233398438
12.858999999999924,-0.0729736328125,9.478048706054688,7.240988159179688
12.868999999999916,-0.670819091796875,9.65225830078125,6.891522216796876
12.879999999999995,0.5275634765625,7.718008422851563,8.62943115234375
12.889999999999986,-0.3461761474609375,4.009661865234375,4.715771484375001
12.899999999999975,0.151031494140625,6.122607421875,5.456872558593751
12.909999999999968,-0.8961700439453125,7.838085937500001,2.4595703125000004
12.91999999999996,-0.386700439453125,10.116268920898438,8.29925537109375
12.92999999999995,-1.3498626708984376,7.027450561523438,6.6636291503906255
12.93999999999994,-0.378326416015625,7.102218627929688,11.142684936523438
12.949999999999932,-0.230584716796875,5.600277709960938,6.698171997070313
12.959999999999924,1.00009765625,7.645333862304688,5.312570190429688
12.971000000000004,-0.3330169677734375,6.36485595703125,2.27294921875
12.979999999999905,-0.2093505859375,4.37901611328125,3.565988159179688
12.990000000000016,-0.5549285888671875,1.9130157470703129,1.917950439453125
13.0,0.69324951171875,19.24515075683594,13.67642517089844
13.009999999999993,0.375335693359375,16.635296630859376,10.155596923828126
13.020999999999958,-0.7693634033203126,-0.5633026123046876,13.732351684570313
13.030999999999947,-1.1352783203125,-4.350604248046875,7.209735107421875
13.040999999999949,1.316815185546875,8.03726806640625,0.986639404296875
13.05099999999993,4.703210449218751,12.972259521484377,0.73272705078125
13.060999999999922,-0.3871490478515625,12.522305297851563,-0.505133056640625
13.070999999999913,-3.326730346679688,8.099923706054689,8.378060913085939
13.081000000000024,-1.7286376953125002,3.0844818115234376,31.773138427734377
13.091000000000015,2.2976226806640625,4.700518798828125,-4.928860473632813
13.101,2.5343383789062504,8.529241943359375,0.5764617919921875
13.11099999999999,2.272650146484376,8.387631225585938,0.184228515625
13.12099999999998,-2.355792236328125,6.275433349609376,-0.8242431640625001
13.130999999999972,-1.8533508300781247,8.206842041015626,13.425653076171876
13.140999999999964,-0.003887939453125,9.312960815429689,19.527175903320312
13.150999999999954,2.3595306396484377,9.610089111328126,-3.647335815429688
13.160999999999945,-0.7123901367187501,5.003628540039063,4.38499755859375
13.171999999999912,-1.92542724609375,3.4544342041015628,6.7069946289062505
13.182000000000016,-0.2121917724609375,4.663583374023438,7.379458618164063
13.192000000000007,0.3392974853515625,9.386233520507814,8.624945068359375
13.201999999999998,-1.2870574951171876,10.284646606445314,7.734158325195313
13.211999999999987,-0.3892425537109375,9.625939941406251,8.215664672851563
13.221999999999989,-0.6283508300781251,4.9083740234375,6.9492431640625005
13.231999999999973,-0.0133087158203125,4.5638427734375,3.653466796875
13.241999999999962,1.07666015625,6.698770141601563,3.75634765625
13.251999999999953,1.152774047851563,9.125143432617188,4.268060302734376
13.261999999999944,0.421990966796875,9.1647705078125,8.651263427734376
13.271999999999936,-0.4388885498046875,7.16636962890625,8.941812133789064
13.281999999999924,0.545208740234375,6.725238037109375,11.587106323242187
13.291999999999916,0.8302246093750001,5.678485107421875,3.213082885742188
13.301999999999914,0.7424468994140625,7.572958374023438,5.1249023437500005
13.312000000000012,-0.9625640869140626,6.61966552734375,2.3076416015625
13.322999999999986,-0.5070770263671875,8.19757080078125,8.033529663085938
13.33299999999997,-0.509918212890625,7.148275756835938,7.167117309570313
13.34299999999996,0.425579833984375,4.1802825927734375,5.406179809570313
13.352999999999952,0.213836669921875,3.8987060546875,1.4196960449218752
13.362999999999944,-1.380068969726563,18.725512695312503,12.267645263671875
13.372999999999934,-0.219818115234375,12.393106079101564,7.205996704101563
13.382999999999925,-2.0120086669921875,-2.397662353515625,13.906860351562502
13.392999999999915,0.4526458740234375,-0.351708984375,9.528890991210938
13.402999999999906,3.6458404541015614,9.636557006835938,-0.8001678466796875
13.413000000000013,2.1401611328125,13.72666931152344,0.8501129150390626
13.423000000000002,-2.196237182617188,9.172247314453124,-0.886151123046875
13.432999999999993,-0.9066375732421876,6.837838745117188,18.864132690429688
13.442999999999984,-0.310736083984375,3.996652221679688,19.62497253417969
13.452999999999976,-0.337652587890625,5.780468750000001,-4.635171508789063
13.463999999999942,1.41162109375,9.592892456054688,0.9745269775390626
13.473999999999933,-0.354998779296875,8.29267578125,-0.2417999267578125
13.483999999999924,-3.117080688476563,4.749267578125,10.90836181640625
13.493999999999916,-0.61728515625,8.053717041015625,14.318533325195313
13.503999999999904,0.8077941894531251,9.935629272460938,8.064035034179689
13.514000000000015,1.035687255859375,9.042300415039064,0.907086181640625
13.524,-1.0652954101562502,4.687957763671875,3.007171630859375
13.533999999999992,0.4227386474609375,3.698477172851563,7.662231445312501
13.543999999999984,2.3670074462890627,5.778076171875,7.993603515625001
13.553999999999974,0.9078338623046877,9.602014160156251,7.533331298828125
13.563999999999965,-0.5924621582031251,9.7796630859375,6.944009399414063
13.573999999999955,0.6362762451171875,9.032580566406253,8.522064208984375
13.583999999999946,-0.05562744140625,4.122113037109376,6.776528930664063
13.593999999999944,0.264678955078125,5.109799194335938,4.156805419921875
13.603999999999935,-0.301165771484375,7.398150634765625,3.63851318359375
13.615000000000016,-0.5363861083984376,9.786093139648438,5.420535278320313
13.625,-1.347021484375,8.359219360351563,7.922573852539063
13.634999999999993,-1.1615966796875,6.727780151367188,9.685305786132814
13.644999999999982,-0.0369354248046875,6.39835205078125,9.578387451171876
13.654999999999973,0.1487884521484375,6.51199951171875,4.118374633789063
13.664999999999964,-0.0203369140625,7.279867553710938,4.215872192382813
13.674999999999956,-0.8184112548828125,3.846069335937501,1.0578186035156252
13.684999999999944,-0.3608306884765625,2.4665985107421875,3.620718383789063
13.694999999999936,1.2436920166015626,16.448526000976564,11.784793090820314
13.704999999999927,0.7188201904296876,18.19092102050781,11.457159423828124
13.714999999999918,-1.1938964843750002,0.9326568603515626,11.79226989746094
13.724999999999907,-0.4361968994140625,-3.318954467773438,9.168807983398438
13.735000000000014,2.2950805664062504,6.130084228515625,0.3946258544921875
13.74599999999998,4.170562744140625,12.456359863281252,0.5842376708984376
13.755999999999972,-1.274945068359375,11.887075805664065,-0.288006591796875
13.765999999999964,-2.8727386474609378,9.191238403320312,8.699114990234376
13.775999999999954,-1.248477172851563,3.807339477539063,30.28570251464844
13.785999999999945,0.638519287109375,4.435690307617188,-4.7767822265625
13.795999999999935,2.612396240234375,8.207141113281251,0.462664794921875
13.805999999999926,2.0516357421875,7.796514892578125,0.2047149658203125
13.81599999999991,-2.2638275146484377,6.816006469726563,0.372943115234375
13.825999999999908,-2.3583343505859378,7.655950927734375,20.18393859863281
13.836000000000013,1.18851318359375,10.645477294921877,11.195022583007812
13.846000000000004,1.2981231689453123,8.389874267578126,0.8403930664062501
13.855999999999996,-0.0354400634765625,5.748019409179688,3.418994140625
13.865999999999984,-1.71607666015625,3.124557495117188,5.306588745117188
13.876999999999953,0.8895904541015626,5.446554565429688,7.864852905273438
13.886999999999944,-0.1667327880859375,8.056109619140626,7.486077880859375
13.896999999999936,-0.3309234619140625,10.982980346679687,7.69991455078125
13.906999999999924,-1.0343414306640626,9.25748291015625,9.033328247070314
13.916999999999916,-0.1523773193359375,5.691046142578125,7.136312866210938
13.926999999999914,-0.9893310546875,3.978408813476563,4.305294799804688
13.937000000000012,0.96839599609375,6.764416503906251,3.7520111083984378
13.947000000000005,0.8164672851562501,8.506661987304689,4.156954956054688
13.956999999999994,0.340045166015625,9.61622009277344,7.481591796875
13.966999999999985,-0.976171875,7.279718017578125,9.543545532226563
13.976999999999975,0.6796417236328125,7.064984130859376,10.186251831054689
13.986999999999966,0.5701812744140625,5.677886962890625,5.676092529296875
13.996999999999955,1.0981933593750002,7.207791137695313,4.0231201171875
14.006999999999948,-0.3512603759765625,6.785052490234375,3.5543243408203127
14.016999999999946,-0.152227783203125,7.35299072265625,6.064736938476563
14.027999999999906,2.0016906738281253,4.470382690429688,7.273886108398438
14.038000000000013,2.4531402587890625,8.7987060546875,4.599432373046875
14.048000000000002,-0.8557952880859375,15.407156372070313,6.941168212890625
14.057999999999993,-3.0696777343750004,12.592587280273438,8.301797485351564
14.067999999999984,-2.246331787109375,-2.6777435302734376,15.171337890625
14.077999999999976,-0.1167877197265625,-1.6321868896484375,7.034030151367188
14.087999999999964,2.3961669921875,9.661828613281251,0.25540771484375
14.097999999999956,-0.155517578125,14.060882568359377,-1.4485565185546876
14.10799999999994,-1.7715545654296876,12.474453735351563,5.2225494384765625
14.117999999999943,-2.3746337890625,11.092291259765624,17.518606567382815
14.127999999999936,-2.080197143554688,8.098876953125,14.946286010742188
14.13799999999992,0.5490966796875001,8.521615600585939,-0.4701416015625
14.14799999999991,2.3484649658203125,11.538806152343753,1.120025634765625
14.158000000000015,2.2155273437500003,11.639443969726564,2.7677642822265627
14.168000000000006,0.1643402099609375,6.9821411132812505,9.60919189453125
14.178999999999974,-4.3820068359375,2.8459716796875,13.539749145507814
14.188999999999965,-3.4898742675781254,3.790142822265625,6.081185913085938
14.198999999999955,0.4179534912109375,9.353485107421877,0.2962310791015625
14.208999999999946,2.708697509765625,10.786041259765623,2.3478668212890628
14.218999999999944,1.6015319824218752,5.3641601562500005,8.472119140625
14.228999999999935,0.6892120361328126,1.3993591308593751,7.174145507812501
14.23899999999992,0.4879364013671875,1.13348388671875,6.789837646484376
14.24899999999991,0.1849761962890625,4.114636230468751,4.71756591796875
14.259000000000016,0.6178833007812501,3.4257232666015627,8.281759643554688
14.269000000000004,-0.56763916015625,1.136773681640625,4.936785888671875
14.278999999999996,-0.47073974609375,2.9759185791015628,4.678387451171876
14.288999999999994,-0.389093017578125,5.133874511718751,1.6277008056640627
14.298999999999984,0.3605316162109375,6.350949096679688,5.1851654052734375
14.308999999999967,-0.2878570556640625,8.863455200195313,6.267208862304688
14.319999999999936,-1.774395751953125,7.277325439453126,11.749203491210938
14.329999999999927,-3.430657958984375,5.923574829101563,7.533181762695313
14.339999999999918,-4.997198486328125,12.802685546875,5.847311401367188
14.349999999999907,-4.6647796630859375,20.8381591796875,5.167520141601563
14.360000000000014,7.300054931640625,5.404534912109376,4.499990844726563
14.370000000000005,4.967739868164063,3.173455810546875,4.03807373046875
14.379999999999995,-0.063104248046875,11.097375488281251,8.774032592773438
14.389999999999986,-1.3190582275390623,18.552050781250003,9.546087646484375
14.399999999999975,-0.421392822265625,6.474316406250001,9.451730346679687
14.409999999999968,-1.2389068603515625,-2.803952026367188,10.377957153320311
14.41999999999996,2.627349853515625,4.482345581054688,3.523370361328125
14.42999999999995,3.3041503906250003,11.166162109375,-0.35888671875
14.43999999999994,-1.5008941650390626,11.065673828125,-0.0107666015625
14.449999999999932,-1.0902679443359375,9.9806396484375,14.6054931640625
14.459999999999924,-1.3983123779296875,6.207693481445313,16.677615356445315
14.471000000000004,0.6706695556640625,4.196282958984376,2.754904174804688
14.480999999999996,0.7790832519531251,6.232666015625001,1.2759918212890626
14.490999999999984,2.131488037109375,9.813308715820312,0.9697418212890626
14.500999999999976,-1.0642486572265626,6.612637329101563,5.883798217773438
14.51099999999996,-0.6174346923828126,7.9720703125,10.751199340820314
14.520999999999958,-0.0729736328125,8.721096801757813,11.125189208984375
14.530999999999947,1.9768676757812504,10.005313110351564,3.8055450439453127
14.540999999999949,-1.7069549560546875,6.064886474609375,1.9306610107421875
14.55099999999993,-0.54251708984375,4.966992187500001,5.007965087890625
14.560999999999922,-0.63941650390625,4.597787475585938,7.429403686523438
14.570999999999913,0.7173248291015626,8.317947387695312,7.863058471679688
14.581000000000024,-1.11553955078125,9.381597900390624,7.477554321289063
14.591999999999985,-0.079852294921875,10.058547973632812,7.962649536132813
14.601999999999975,-0.8359069824218751,6.308929443359376,7.258184814453125
14.611999999999966,0.4412811279296875,5.1866607666015625,4.714425659179688
14.621999999999955,0.7062591552734375,6.034381103515625,4.109701538085938
14.631999999999948,1.278533935546875,8.775228881835938,3.404190063476563
14.641999999999946,0.138470458984375,9.509750366210938,7.114480590820313
14.651999999999935,-0.383111572265625,7.589556884765625,8.035922241210939
14.66199999999992,0.1057220458984375,6.6636291503906255,10.686749267578126
14.67799999999999,0.917852783203125,6.465942382812501,5.656353759765626
14.682000000000016,0.9209930419921876,7.363159179687501,5.033236694335938
14.692000000000007,-0.6133972167968751,6.784902954101563,2.369100952148438
14.701999999999998,-0.1087127685546875,8.336788940429688,6.705349731445313
14.711999999999987,0.3315216064453125,2.8873931884765627,3.576156616210938
14.721999999999989,1.6513275146484376,4.723696899414063,4.260433959960938
14.73299999999994,0.088525390625,19.60134582519532,12.23743896484375
14.742999999999943,2.266070556640625,15.151898193359376,8.436080932617188
14.752999999999936,4.216021728515625,-1.7021697998046876,11.904870605468751
14.76299999999992,-2.1017303466796875,-1.6136444091796875,10.517324829101565
14.774,-0.7183715820312501,7.12210693359375,-5.9697814941406255
14.783000000000015,-1.70650634765625,14.531472778320314,-1.6235137939453126
14.793000000000006,-2.543161010742188,10.105801391601563,8.882745361328126
14.80299999999999,-4.217068481445313,6.977655029296876,21.398321533203127
14.812999999999988,-1.421490478515625,4.039120483398438,9.311764526367188
14.822999999999986,-1.830621337890625,4.170114135742188,-1.5756622314453126
14.83299999999997,-1.5308013916015626,9.197219848632812,3.981399536132813
14.84299999999996,0.432159423828125,8.0593994140625,6.276779174804688
14.852999999999952,0.05562744140625,7.324279785156251,5.91265869140625
14.862999999999944,-0.7816253662109376,7.093246459960938,3.493014526367188
14.872999999999934,-0.4367950439453125,11.304782104492189,2.3064453125
14.882999999999925,2.575460815429688,8.425164794921876,13.720388793945313
14.894000000000004,1.430462646484375,6.772341918945313,3.626699829101563
14.903999999999996,3.73302001953125,1.84228515625,3.6456909179687504
14.913999999999994,2.20416259765625,0.7017730712890625,7.025057983398438
14.923999999999984,-3.373983764648438,4.780819702148438,10.837332153320313
14.933999999999967,-2.5863769531250003,6.1142333984375,5.631829833984376
14.94399999999996,-2.188162231445313,8.273834228515625,9.90228271484375
14.95399999999995,-0.6450988769531251,8.349649047851564,6.127093505859375
14.963999999999942,1.2154296875,6.984832763671876,6.169113159179688
14.973999999999933,1.446014404296875,5.822787475585938,3.723150634765626
14.983999999999924,-0.4472625732421875,7.240689086914063,5.922976684570313
14.993999999999916,-0.9615173339843752,7.105059814453125,6.933392333984376
15.003999999999904,-0.844281005859375,7.272988891601563,10.0093505859375
15.014000000000015,-1.2012237548828126,7.492507934570313,8.751004028320313
15.024,-2.145843505859375,9.8657958984375,6.567178344726563
15.034999999999968,-0.6108551025390625,10.89759521484375,5.568276977539063
15.04499999999996,0.587677001953125,8.35548095703125,5.5989318847656255
15.05499999999995,-0.5987426757812501,6.519476318359375,7.859619140625001
15.06499999999994,-1.67958984375,4.5521789550781255,8.291180419921876
15.074999999999932,-0.3696533203125,3.1236602783203127,2.2708557128906253
15.084999999999924,0.6569122314453125,9.257034301757812,7.5617431640625
15.094999999999914,-5.642745971679688,16.799636840820312,9.692333984375
15.104999999999905,-5.635867309570313,1.6591033935546875,13.355072021484377
15.115000000000016,2.513104248046876,-5.422329711914063,10.196121215820312
15.125,6.181076049804688,7.9077697753906255,6.717611694335938
15.134999999999993,3.0088165283203128,13.078579711914063,-3.761880493164063
15.144999999999982,1.217523193359375,12.59931640625,5.0042266845703125
15.154999999999973,-2.5745635986328126,4.35867919921875,15.587197875976564
15.164999999999964,-6.6023193359375005,2.41650390625,15.73523864746094
15.17599999999993,-2.893972778320313,3.3198516845703128,1.911669921875
15.185999999999922,5.203857421875,9.975704956054688,2.9141601562500004
15.195999999999913,4.484588623046875,8.969476318359376,3.209344482421875
15.206000000000024,1.882510375976563,5.244232177734375,9.526797485351564
15.216000000000015,-2.181732177734375,4.833157348632813,11.382989501953126
15.226,-3.7500671386718754,7.880255126953125,8.966934204101562
15.23599999999999,-1.956829833984375,9.780859375,5.611642456054688
15.24599999999998,2.541964721679688,6.7506591796875,2.2801269531250004
15.255999999999972,3.239251708984375,3.913061523437501,8.266656494140626
15.265999999999964,-1.4718841552734376,3.562548828125,7.667913818359375
15.275999999999954,-1.220513916015625,7.479199218750001,10.568914794921875
15.285999999999945,-1.0573699951171875,8.223141479492188,5.801852416992188
15.295999999999935,0.6869689941406251,8.853884887695314,9.946844482421875
15.305999999999926,-0.06998291015625,4.803250122070313,6.848306274414063
15.31599999999991,1.1638397216796876,4.567880249023438,6.792678833007813
15.325999999999908,1.0255187988281251,5.717813110351563,3.864761352539063
15.336999999999987,1.4053405761718751,8.949737548828125,5.5902587890625
15.346999999999989,-0.1727142333984375,7.496694946289063,8.187103271484375
15.356999999999973,-1.09998779296875,6.250610351562501,9.82452392578125
15.366999999999962,-1.8427337646484376,5.257540893554688,10.750003051757814
15.376999999999953,-0.6171356201171876,6.566879272460938,6.488223266601563
15.386999999999944,1.066192626953125,7.469329833984376,5.101126098632813
15.396999999999936,1.947409057617188,9.666165161132811,3.688906860351562
15.406999999999924,1.5542785644531252,9.36978454589844,8.409762573242189
15.416999999999916,0.7959808349609375,7.926461791992188,7.140200805664063
15.426999999999914,1.4343505859375,8.272488403320313,3.285308837890625
15.437000000000012,3.42796630859375,9.78370056152344,7.032086181640626
15.447000000000005,-1.7548065185546875,6.854586791992188,12.085659790039063
15.456999999999994,-6.451138305664063,0.4000091552734375,10.220794677734377
15.46799999999996,-0.6721649169921875,-2.15631103515625,14.543585205078124
15.477999999999952,2.146292114257813,8.844314575195312,0.0139068603515625
15.487999999999944,3.805395507812501,12.481930541992188,-2.768511962890625
15.497999999999934,3.0171905517578126,9.707437133789064,3.841284179687501
15.507999999999925,-2.035186767578125,4.762127685546876,17.482867431640628
15.517999999999915,-4.020877075195313,2.93270263671875,16.12881774902344
15.527999999999906,-0.239556884765625,4.896261596679688,2.848663330078125
15.538000000000013,2.641256713867188,7.395758056640625,-0.067889404296875
15.548000000000002,0.0294586181640625,9.899740600585938,1.8846038818359376
15.557999999999993,-1.0742675781250002,6.02989501953125,7.387982177734376
15.567999999999984,-0.7850646972656251,5.8319091796875,10.982531738281253
15.577999999999976,-1.328778076171875,8.097232055664064,11.644528198242188
15.587999999999964,1.2756927490234375,10.22587890625,4.08951416015625
15.597999999999956,-0.167779541015625,6.874624633789063,1.9417266845703127
15.608999999999924,0.4498046875,3.562548828125,5.628988647460938
15.618999999999916,1.56295166015625,7.527499389648438,8.333200073242189
15.628999999999904,0.63223876953125,10.5751953125,8.228524780273439
15.639000000000015,-1.343133544921875,5.040414428710938,7.531536865234376
15.649,-1.1055206298828126,7.683166503906251,7.740139770507813
15.658999999999992,-1.8543975830078123,7.322634887695313,9.196621704101563
15.668999999999984,-3.2897949218750004,4.4958038330078125,5.409768676757813
15.678999999999974,-0.7419982910156251,7.598379516601563,3.5606048583984378
15.69099999999991,2.9979003906250004,8.910110473632812,3.2555511474609378
15.698999999999955,4.312173461914063,6.533233642578126,7.676138305664063
15.708999999999946,-0.29727783203125,6.160739135742188,8.454025268554688
15.718999999999944,-0.1003387451171875,6.653161621093751,11.268743896484375
15.728999999999935,0.2501739501953125,5.906976318359376,6.177487182617188
15.740000000000016,0.55567626953125,7.97984619140625,3.489276123046875
15.74899999999991,0.353204345703125,6.430053710937501,3.0038818359375004
15.759999999999993,1.6888610839843752,6.045297241210938,4.844372558593751
15.769999999999982,0.9381896972656252,0.391485595703125,2.92373046875
15.779999999999973,4.5032806396484375,12.24342041015625,9.632669067382814
15.790999999999949,1.1375213623046876,20.0318603515625,13.405017089843753
15.799999999999956,-7.43673095703125,4.606610107421876,10.117166137695314
15.809999999999944,-2.43504638671875,-4.09130859375,12.640737915039065
15.819999999999936,2.461962890625,4.478756713867188,0.7295867919921876
15.829999999999927,5.371188354492188,12.093734741210938,-4.381558227539063
15.839999999999918,3.317160034179688,11.503964233398438,0.65137939453125
15.849999999999907,-1.2611877441406252,8.413949584960939,20.490338134765626
15.860000000000014,-8.841921997070314,5.928060913085938,17.434567260742188
15.870000000000005,-1.6804870605468751,3.820648193359376,3.082388305664063
15.879999999999995,5.983090209960938,6.892568969726563,-0.41929931640625
15.890999999999964,5.18411865234375,9.043197631835938,-1.5547271728515626
15.900999999999954,0.7415496826171876,5.443115234375,6.978701782226563
15.910999999999945,-0.696240234375,7.203155517578126,13.291070556640626
15.920999999999935,-0.9366943359375,9.0929931640625,12.175531005859376
15.930999999999926,-0.0491973876953125,10.487118530273438,3.0459014892578127
15.94099999999991,-0.8691040039062501,5.93419189453125,1.7231048583984376
15.950999999999908,-0.8220001220703126,4.124356079101563,4.569375610351563
15.961000000000013,0.012860107421875,3.438433837890625,9.062487792968753
15.971000000000004,1.4367431640625,8.46195068359375,8.643786621093751
15.980999999999996,2.0798980712890627,8.82861328125,7.369140625000001
15.990999999999984,1.2386077880859376,10.257431030273438,8.392715454101562
16.000999999999976,-1.122418212890625,6.49405517578125,7.074105834960938
16.01099999999996,-2.7946807861328127,4.817456054687501,5.020376586914063
16.020999999999958,-1.9888305664062504,5.54898681640625,4.126599121093751
16.03099999999995,-0.90499267578125,8.272637939453126,3.744085693359376
16.041999999999916,1.1635406494140623,9.613229370117187,8.214468383789063
16.051999999999914,0.4230377197265625,7.017132568359376,8.255740356445314
16.062000000000012,0.4027008056640625,6.681124877929688,12.272430419921877
16.072000000000003,0.5072265625000001,5.448498535156251,4.011605834960938
16.081999999999994,1.2951324462890623,7.565481567382813,6.369192504882813
16.091999999999985,-0.24105224609375,6.460409545898438,1.2356170654296876
16.101999999999975,-0.69683837890625,8.281011962890625,8.130877685546876
16.111999999999966,-0.5133575439453125,5.887985229492188,6.313415527343751
16.121999999999957,0.6065185546875,2.2717529296875,4.2086944580078125
16.131999999999948,-1.14066162109375,8.238095092773438,5.397506713867188
16.141999999999946,-1.0187896728515626,21.05244445800781,12.678271484375
16.151999999999937,-0.7357177734375,6.142495727539063,7.608547973632813
16.16199999999992,-2.7586425781250004,-3.5531280517578128,15.333584594726563
16.171999999999912,1.2948333740234377,1.7123382568359375,3.560455322265625
16.182999999999993,3.4107696533203127,12.106146240234375,-0.3407928466796875
16.192999999999984,3.4125640869140628,13.26011657714844,0.6593048095703126
16.202999999999975,-2.098291015625,8.815005493164064,-0.0201873779296875
16.212999999999965,-0.8169158935546875,5.793179321289063,32.453826904296875
16.222999999999956,-0.1942474365234375,2.8748321533203125,1.564447021484375
16.23299999999994,1.6806365966796877,6.512298583984376,2.214630126953125
16.242999999999945,0.3330169677734375,10.303189086914063,0.91575927734375
16.252999999999936,-1.76392822265625,7.474264526367188,0.3025115966796875
16.26299999999992,-2.9859375000000004,5.08243408203125,14.82142333984375
16.27299999999991,0.4318603515625,9.07803955078125,12.133810424804688
16.283000000000015,0.7098480224609376,9.364102172851563,5.532687377929688
16.293000000000006,0.4394866943359375,8.208636474609376,-0.1128997802734375
16.302999999999997,-2.297174072265625,3.3594787597656253,5.30374755859375
16.312999999999988,1.9638580322265624,4.422680664062501,9.16895751953125
16.323999999999955,1.3055999755859375,6.2254882812500005,7.839431762695313
16.333999999999946,0.61549072265625,9.834094238281253,8.082876586914063
16.343999999999937,-0.3177642822265625,9.872076416015624,7.253549194335938
16.353999999999928,1.128997802734375,7.957415771484375,7.962948608398438
16.36399999999992,-0.151629638671875,3.4484527587890628,5.124752807617188
16.37399999999991,0.656463623046875,5.813366699218751,4.39337158203125
16.384000000000015,-0.3590362548828125,7.8001037597656255,4.17564697265625
16.394000000000005,-0.4191497802734375,9.87476806640625,6.842922973632813
16.403999999999996,-1.6779449462890623,7.363607788085938,9.027047729492187
16.413999999999987,-0.5873779296875,6.368743896484376,10.050772094726565
16.423999999999978,-0.1440032958984375,5.957968139648438,7.98941650390625
16.43399999999997,0.174359130859375,6.841726684570313,3.8103302001953128
16.44399999999996,-0.3808685302734375,7.0763488769531255,3.991567993164063
16.45399999999995,-0.4278228759765625,7.163079833984376,4.293331909179688
16.463999999999942,0.7579986572265626,2.4383361816406253,5.573211669921875
16.473999999999933,-0.3464752197265625,5.16019287109375,2.9291137695312504
16.485000000000014,1.0993896484375,21.732534790039065,15.702340698242187
16.495000000000005,0.009271240234375,9.4925537109375,6.199319458007813
16.504999999999995,-0.5393768310546876,-2.6837249755859376,15.674078369140624
16.514999999999986,-0.24404296875,-0.969891357421875,3.4059844970703126
16.524999999999977,4.5088134765625005,10.890866088867188,-0.088525390625
16.534999999999968,0.4708892822265625,13.325164794921877,-0.9034973144531252
16.54499999999996,-3.679037475585938,10.460650634765626,5.676541137695313
16.55499999999995,-2.3000152587890628,5.992510986328125,25.27325134277344
16.56499999999994,0.1410125732421875,3.5546234130859378,4.615283203125
