time,ax,ay,az
0.0,-6.887185668945313,0.932806396484375,6.969281005859376
0.009999999999998,-6.418090820312501,0.7499237060546875,7.148724365234376
0.0210000000000007,-6.407623291015626,0.34871826171875,7.482189941406251
0.0300000000000011,-6.679779052734376,-0.174658203125,7.865750122070313
0.0399999999999991,-6.669461059570313,-0.314923095703125,6.791632080078125
0.0510000000000019,-7.751803588867188,-0.3120819091796875,6.0460449218750005
0.0609999999999999,-6.936083984375,-0.2077056884765625,5.9448089599609375
0.0700000000000002,-6.394912719726563,-0.2237060546875,7.3470092773437505
0.0799999999999983,-6.809127807617188,-0.4110748291015625,8.76700439453125
0.0900000000000034,-6.279171752929688,-0.28052978515625,8.066577148437501
0.1000000000000014,-7.3105224609375,-0.0273651123046875,6.699667358398438
0.1110000000000042,-7.851992797851563,0.3437835693359375,5.1428466796875005
0.1199999999999974,-7.453030395507813,0.2136871337890625,5.56573486328125
0.1300000000000025,-7.069918823242188,0.3146240234375,6.739443969726563
0.1400000000000005,-6.499588012695313,0.7588958740234375,7.915545654296875
0.1499999999999985,-6.158047485351563,1.0403228759765626,8.72393798828125
0.1600000000000037,-6.204852294921875,0.3098388671875,7.843768310546875
0.1700000000000017,-6.7865478515625,-0.6165374755859375,6.586767578125
0.1799999999999997,-7.712774658203125,-0.8566925048828126,6.1208129882812505
0.1899999999999977,-7.75853271484375,-0.4678985595703125,5.773590087890625
0.2000000000000028,-7.293475341796875,-0.326287841796875,6.542803955078125
0.2100000000000008,-6.507962036132813,-0.189013671875,6.940121459960938
0.2199999999999988,-6.282312011718751,0.167779541015625,8.327816772460938
0.2300000000000039,-6.330761718750001,0.6479400634765625,8.168560791015626
0.240000000000002,-6.57420654296875,0.7572509765625001,7.349252319335938
0.25,-6.846511840820313,0.4053924560546875,6.459661865234375
0.259999999999998,-7.384243774414063,0.096600341796875,6.165374755859376
0.2700000000000031,-7.699765014648438,0.07835693359375,6.427062988281251
0.2800000000000011,-7.458563232421875,0.1392181396484375,6.046194458007813
0.2899999999999991,-6.941317749023438,0.0538330078125,6.488223266601563
0.3000000000000042,-6.603964233398438,-0.0079254150390625,7.165921020507813
0.3100000000000023,-6.318350219726563,-0.1052734375,8.277273559570313
0.3200000000000003,-6.374725341796876,0.0856842041015625,8.044894409179689
0.3299999999999983,-6.621908569335938,-0.077459716796875,7.54918212890625
0.3400000000000034,-6.837539672851563,-0.370849609375,6.402688598632813
0.3500000000000014,-7.279269409179688,-0.411224365234375,6.321640014648438
0.3599999999999994,-7.350598144531251,-0.1514801025390625,6.655255126953126
0.3699999999999974,-7.079190063476563,0.3285308837890625,6.744528198242188
0.3800000000000025,-6.656900024414063,0.4930206298828125,7.0258056640625
0.3900000000000005,-6.698171997070313,0.4765716552734375,7.156051635742188
0.3999999999999986,-6.4004455566406255,0.5486480712890626,7.778869628906251
0.4100000000000037,-6.571664428710938,0.4625152587890625,7.3604675292968755
0.4200000000000017,-6.441119384765625,0.1072174072265625,7.618716430664063
0.4299999999999997,-6.571365356445313,-0.3452789306640625,7.067825317382813
0.4399999999999977,-7.231567382812501,-0.4649078369140625,7.089059448242188
0.4500000000000028,-7.315756225585938,-0.3210540771484375,6.7159667968750005
0.4600000000000008,-7.807131958007813,-0.327783203125,5.815011596679688
0.4699999999999988,-7.083377075195313,-0.1852752685546875,6.072662353515625
0.4789999999999992,-7.060797119140625,0.0124114990234375,6.405679321289063
0.4889999999999972,-6.974514770507813,0.695343017578125,7.938424682617188
0.4990000000000023,-6.730322265625,1.2851135253906252,7.306484985351563
0.5090000000000003,-6.227432250976563,0.7512695312500001,7.449441528320313
0.5189999999999984,-6.546093750000001,-0.147442626953125,6.91275634765625
0.5290000000000035,-7.141247558593751,-0.466253662109375,7.358673095703126
0.5390000000000015,-7.648773193359376,-0.5265167236328125,7.033282470703125
0.5500000000000043,-6.903933715820313,-0.6652862548828126,5.419189453125
0.5600000000000023,-6.847708129882813,-0.8179626464843751,6.710134887695313
0.5690000000000026,-6.733462524414063,-0.152227783203125,7.539312744140625
0.5799999999999983,-7.093096923828125,0.6401641845703125,8.411557006835938
0.5889999999999986,-6.380706787109376,1.11434326171875,6.716116333007813
0.5990000000000038,-6.604861450195313,0.7852142333984375,6.365603637695313
0.6090000000000018,-7.020571899414063,0.4749267578125,7.094143676757813
0.6189999999999998,-7.464395141601563,0.103778076171875,7.404730224609375
0.6289999999999978,-7.229623413085938,-0.217724609375,6.314761352539063
0.6390000000000029,-6.806735229492188,-0.4821044921875,5.759982299804688
0.6490000000000009,-6.867147827148438,-0.6078643798828125,6.915597534179688
0.6589999999999989,-6.849801635742188,-0.3647186279296875,8.378509521484375
0.669000000000004,-6.517233276367188,-0.031103515625,7.752700805664063
0.679000000000002,-6.423474121093751,0.308343505859375,6.74527587890625
0.6890000000000001,-6.67589111328125,0.476422119140625,6.682769775390626
0.6989999999999981,-7.31590576171875,0.4478607177734375,7.184463500976563
0.7090000000000032,-7.3126159667968755,0.3339141845703125,7.006365966796875
0.7190000000000012,-7.212426757812499,0.1804901123046875,6.051727294921875
0.7289999999999992,-6.8918212890625,0.1460968017578125,6.129336547851563
0.7389999999999972,-6.903485107421876,0.0112152099609375,7.057357788085938
0.75,-6.783407592773438,-0.101385498046875,7.850048828125001
0.7590000000000003,-6.869241333007813,0.031402587890625,7.037619018554688
0.7689999999999984,-6.348855590820313,0.3853546142578125,6.991860961914063
0.7790000000000035,-6.9088684082031255,0.2881561279296875,7.165621948242188
0.7890000000000015,-7.604061889648438,-0.35350341796875,7.430001831054688
0.7989999999999995,-6.510952758789063,-0.318212890625,6.349453735351563
0.8089999999999975,-7.023712158203126,-0.0300567626953125,6.3929687500000005
0.8190000000000026,-6.926065063476563,0.0865814208984375,7.11014404296875
0.8290000000000006,-6.805838012695313,-0.0569732666015625,7.597183227539063
0.8389999999999986,-6.678582763671876,-0.0309539794921875,7.767803955078126
0.8500000000000014,-6.720901489257813,0.2755950927734375,6.625048828125
0.8590000000000018,-6.991412353515625,0.22430419921875,6.856231689453126
0.8689999999999998,-7.176239013671876,0.038580322265625,6.52037353515625
0.8789999999999978,-7.258334350585938,0.0596649169921875,6.945504760742188
0.8890000000000029,-6.9181396484375,0.2579498291015625,6.724191284179688
0.8990000000000009,-6.570019531250001,0.1188812255859375,7.090255737304688
0.9089999999999988,-6.722845458984375,-0.2585479736328125,7.748962402343751
0.919000000000004,-6.685311889648438,-0.225201416015625,7.2411376953125
0.9279999999999972,-7.032235717773438,-0.1015350341796875,7.21781005859375
0.9380000000000024,-6.891073608398438,0.01854248046875,6.217114257812501
0.9500000000000028,-6.987075805664063,-0.1806396484375,6.960906982421876
0.9590000000000032,-6.8789611816406255,-0.1152923583984375,7.144836425781251
0.9680000000000036,-6.995748901367188,0.194696044921875,7.366598510742188
0.9780000000000016,-6.919036865234376,0.487786865234375,6.664077758789063
0.9879999999999995,-6.8678955078125,0.494964599609375,6.401791381835938
0.9979999999999976,-6.977655029296876,0.2974273681640625,7.1062561035156255
1.008000000000003,-6.860867309570313,0.2609405517578125,7.3365417480468755
1.018000000000001,-6.998739624023438,0.03289794921875,7.103414916992188
1.0279999999999987,-6.7841552734375,-0.0638519287109375,6.341229248046876
1.0380000000000038,-6.8822509765625,-0.2038177490234375,6.868194580078126
1.0500000000000045,-7.022964477539063,-0.2065093994140625,7.2483154296875005
1.0579999999999998,-7.112088012695313,-0.0910675048828125,7.338635253906251
1.0679999999999978,-6.720602416992188,0.0817962646484375,6.779669189453125
1.078000000000003,-6.493008422851563,0.1275543212890625,6.853390502929688
1.088000000000001,-6.921878051757813,0.1052734375,7.328167724609376
1.097999999999999,-7.089956665039063,0.264678955078125,7.3814025878906255
1.108000000000004,-7.185659790039063,0.4221405029296875,6.339733886718751
1.118000000000002,-6.8669982910156255,0.4021026611328125,6.061596679687501
1.128,-6.8224365234375,0.1733123779296875,6.78116455078125
1.137999999999998,-6.804043579101563,-0.0037384033203125,8.1287841796875
1.1499999999999986,-7.381253051757813,-0.0466552734375,7.390823364257813
1.1580000000000013,-6.483139038085938,-0.0112152099609375,6.438876342773438
1.1679999999999993,-6.47850341796875,-0.260491943359375,6.1955810546875005
1.1779999999999973,-7.056460571289063,-0.5176940917968751,7.895507812500001
1.1880000000000024,-6.7937255859375005,-0.274847412109375,8.0330810546875
1.1980000000000004,-7.383795166015625,0.1502838134765625,6.491064453125
1.2079999999999984,-6.670358276367188,0.5169464111328126,5.8446197509765625
1.2180000000000035,-6.807333374023438,0.3180633544921875,6.678283691406251
1.2280000000000015,-6.947000122070313,-0.023028564453125,8.537316894531251
1.2379999999999995,-6.953131103515625,0.1323394775390625,7.141995239257813
1.2479999999999976,-6.930551147460938,0.43006591796875,6.301602172851563
1.258000000000003,-7.0090576171875005,0.3084930419921875,6.014642333984376
1.268000000000001,-6.999038696289063,-0.274249267578125,7.108050537109375
1.2779999999999987,-6.804342651367188,-0.5117126464843751,8.238394165039063
1.2880000000000038,-6.8619140625,-0.185125732421875,6.9301025390625
1.2980000000000018,-6.789688110351563,0.22789306640625,6.341378784179688
1.3079999999999998,-6.8655029296875005,0.2175750732421875,6.516485595703125
1.3179999999999978,-7.205099487304688,0.036785888671875,7.636212158203126
1.328000000000003,-6.968234252929688,0.25062255859375,7.311569213867188
1.338000000000001,-6.80150146484375,0.4053924560546875,6.427362060546876
1.347999999999999,-6.782061767578125,0.356195068359375,6.47611083984375
1.358000000000004,-7.074404907226563,0.0459075927734375,7.057806396484375
1.368000000000002,-6.951187133789063,-0.1640411376953125,7.704849243164063
1.378,-6.819744873046876,-0.016448974609375,6.821389770507813
1.387999999999998,-6.791781616210938,-0.0414215087890625,6.577645874023438
1.3980000000000032,-6.749014282226563,-0.106170654296875,6.785202026367188
1.4080000000000013,-6.938476562500001,-0.221014404296875,7.813861083984375
1.4170000000000016,-6.944607543945313,-0.00059814453125,7.228277587890625
1.4269999999999996,-6.877017211914063,0.2382110595703125,6.581085205078126
1.4369999999999976,-6.8834472656250005,0.3135772705078125,6.360220336914063
1.4470000000000027,-6.909915161132813,0.2151824951171875,7.146929931640625
1.4579999999999984,-7.079937744140626,0.098394775390625,7.47261962890625
1.4669999999999987,-6.867596435546876,0.2740997314453125,6.7548461914062505
1.477000000000004,-6.814361572265626,0.3934295654296875,6.101971435546876
1.487000000000002,-7.160238647460938,0.2758941650390625,6.459960937500001
1.497,-6.8176513671875005,0.3147735595703125,7.727728271484375
1.506999999999998,-6.915447998046876,0.1532745361328125,7.654306030273438
1.517000000000003,-7.100723266601563,-0.2930908203125,7.190145874023438
1.527000000000001,-6.075503540039063,-0.5565734863281251,6.321640014648438
1.536999999999999,-6.935635375976563,-0.6208740234375001,7.091003417968751
1.547000000000004,-7.170855712890625,-0.345428466796875,8.032183837890626
1.5570000000000022,-7.169061279296876,0.049945068359375,6.609646606445313
1.5670000000000002,-6.720004272460938,0.290399169921875,6.536373901367188
1.5769999999999982,-6.593945312500001,0.4628143310546875,6.450839233398438
1.5870000000000033,-7.189248657226563,0.4027008056640625,7.955023193359375
1.5970000000000013,-7.1107421875000005,0.5522369384765625,7.170407104492188
1.606999999999999,-6.882550048828126,0.517095947265625,6.423324584960938
1.616999999999997,-6.705349731445313,0.1266571044921875,6.316256713867188
1.6270000000000024,-6.869241333007813,-0.5076751708984375,7.420431518554688
1.6370000000000005,-7.154257202148438,-0.707305908203125,8.040707397460938
1.6469999999999985,-6.599478149414063,-0.3745880126953125,6.742434692382813
1.6570000000000036,-6.8729797363281255,-0.2583984375,6.444857788085938
1.6670000000000016,-6.757687377929688,-0.12261962890625,6.947149658203125
1.6769999999999996,-7.072909545898438,0.0303558349609375,7.693634033203126
1.6869999999999976,-6.880905151367188,0.5211334228515625,7.237100219726563
1.6970000000000027,-6.8140625,0.7277923583984376,6.392669677734376
1.7070000000000007,-6.891671752929688,0.6253601074218751,6.442016601562501
1.7169999999999987,-7.147976684570313,0.2923431396484375,7.189398193359375
1.727000000000004,-7.127340698242188,0.0471038818359375,7.207791137695313
1.737000000000002,-6.842623901367188,-0.0369354248046875,6.794921875000001
1.747,-6.779370117187501,-0.31163330078125,6.377566528320313
1.756999999999998,-6.7189575195312505,-0.4278228759765625,7.355682373046876
1.767000000000003,-6.791632080078125,-0.405841064453125,7.838385009765625
1.777000000000001,-6.842175292968751,-0.12142333984375,7.179379272460938
1.786999999999999,-6.8942138671875,0.2570526123046875,6.422427368164063
1.797000000000004,-6.925466918945313,0.4613189697265625,6.513943481445313
1.8070000000000024,-7.257586669921875,0.466253662109375,7.0658813476562505
1.817,-6.928158569335938,0.3952239990234375,7.333700561523438
1.8269999999999984,-6.684115600585938,0.3156707763671875,6.7004150390625
1.8370000000000035,-6.935635375976563,0.174359130859375,6.605459594726563
1.8470000000000013,-7.069320678710938,-0.015850830078125,6.913504028320313
1.8569999999999995,-6.810025024414063,-0.227294921875,7.324728393554688
1.866999999999997,-6.234011840820313,-0.3457275390625,7.1974731445312505
1.8759999999999977,-7.01683349609375,-0.2041168212890625,6.875073242187501
1.8860000000000028,-7.313363647460938,0.1517791748046875,7.0703674316406255
1.8960000000000008,-7.730120849609375,0.6144439697265626,6.521569824218751
1.9059999999999988,-6.759033203125001,0.32239990234375,6.730621337890626
1.916000000000004,-6.087615966796875,-0.329278564453125,6.762322998046876
1.926000000000002,-6.613534545898438,-0.2785858154296875,8.154354858398438
1.936,-7.386337280273438,0.2947357177734375,7.7029052734375005
1.945999999999998,-7.1959777832031255,0.52457275390625,6.330014038085938
1.956000000000003,-6.0687744140625,-0.263482666015625,6.128140258789063
1.966000000000001,-7.0030761718750005,-0.8551971435546876,6.993804931640626
1.975999999999999,-7.515835571289063,-0.1278533935546875,8.490811157226563
1.986000000000004,-7.159790039062501,0.684576416015625,6.478353881835938
1.9960000000000024,-6.557159423828126,0.4332061767578125,5.5605010986328125
2.006,-6.4994384765625,-0.04725341796875,6.758584594726563
2.0159999999999982,-7.066928100585938,0.1745086669921875,8.652908325195312
2.026000000000004,-7.068124389648438,0.4390380859375,8.397799682617189
2.0360000000000014,-6.73929443359375,0.17884521484375,5.119668579101563
2.046,-6.698171997070313,-0.2310333251953125,5.729925537109375
2.0559999999999974,-7.569668579101563,-0.2612396240234375,7.2258850097656255
2.0660000000000025,-7.37332763671875,-0.04725341796875,8.358023071289063
2.0760000000000005,-6.248367309570313,-0.0542816162109375,6.7458740234375005
2.0859999999999985,-6.174346923828126,-0.150732421875,5.973519897460938
2.096000000000004,-6.936383056640626,0.1685272216796875,7.830908203125
2.1060000000000016,-7.329663085937501,0.3572418212890625,8.190841674804688
2.116,-6.975112915039063,0.288604736328125,6.629983520507813
2.1259999999999977,-6.739743041992188,0.1206756591796875,5.24871826171875
2.136000000000003,-6.95701904296875,0.0931610107421875,6.618469238281251
2.146000000000001,-7.298110961914063,0.167779541015625,8.157794189453126
2.155999999999999,-7.087265014648438,0.0509918212890625,7.339382934570313
2.166000000000004,-6.288442993164063,-0.003887939453125,6.258087158203126
2.176000000000002,-6.582879638671876,0.0261688232421875,6.608151245117188
2.186,-7.136911010742188,-0.041571044921875,8.057904052734376
2.195999999999998,-7.045394897460938,-0.1879669189453125,7.7193542480468755
2.206000000000003,-6.804043579101563,-0.158807373046875,6.139505004882813
2.216000000000001,-6.7339111328125005,0.1580596923828125,5.929107666015625
2.225999999999999,-7.221997070312501,0.227593994140625,7.19029541015625
2.236000000000004,-6.810025024414063,0.31282958984375,7.727429199218751
2.246000000000002,-7.052273559570313,0.3614288330078125,6.677984619140625
2.256,-6.679779052734376,0.7022216796875,6.275582885742188
2.2659999999999982,-7.273886108398438,0.6682769775390626,6.926065063476563
2.276000000000004,-7.325027465820313,-0.1490875244140625,7.9825378417968755
2.2860000000000014,-6.02630615234375,-0.8303741455078125,6.891671752929688
2.296,-6.584225463867188,-1.0289581298828123,7.0533203125
2.3059999999999974,-6.903335571289063,-0.3285308837890625,7.237399291992188
2.3160000000000025,-7.715017700195313,0.1063201904296875,7.031787109375
2.3260000000000005,-6.792678833007813,0.10048828125,6.758435058593751
2.335000000000001,-6.472821044921876,0.213238525390625,6.039166259765626
2.346000000000004,-6.936831665039063,0.6844268798828126,7.889077758789063
2.3560000000000016,-7.411907958984376,1.137371826171875,7.015188598632813
2.366,-6.782211303710938,0.6506317138671875,7.237997436523438
2.375,-6.499139404296876,-0.13936767578125,6.10406494140625
2.384999999999998,-6.9268127441406255,-0.56763916015625,7.051974487304688
2.395000000000003,-7.175341796875,-0.52337646484375,8.120410156250001
2.405000000000001,-6.892568969726563,-0.6290985107421876,6.728826904296875
2.414999999999999,-6.63760986328125,-0.7262969970703126,6.582281494140625
2.4250000000000043,-6.675442504882813,-0.19918212890625,6.610394287109376
2.4350000000000023,-7.21781005859375,0.335260009765625,8.232412719726563
2.4450000000000003,-6.79013671875,0.7865600585937501,7.121807861328126
2.4549999999999983,-6.63760986328125,0.6136962890625001,6.384146118164063
2.4650000000000034,-6.927410888671876,0.6765014648437501,6.4124084472656255
2.4750000000000014,-7.431646728515625,0.60113525390625,7.168463134765625
2.4849999999999994,-7.270147705078125,0.2564544677734375,6.91514892578125
2.494999999999997,-6.918887329101563,-0.13577880859375,6.1836181640625005
2.5050000000000026,-6.710284423828125,-0.4903289794921875,6.666320800781251
2.515000000000001,-6.648974609375,-0.3385498046875,7.668362426757813
2.5249999999999986,-6.721200561523438,-0.4050933837890625,8.22987060546875
2.535000000000004,-6.545196533203126,-0.3261383056640625,7.053021240234376
2.5450000000000017,-6.793875122070313,-0.023028564453125,6.504074096679688
2.555,-7.137509155273438,0.31043701171875,6.802996826171875
2.5649999999999977,-7.245623779296875,0.43604736328125,7.100723266601563
2.575000000000003,-6.898849487304688,0.2510711669921875,6.837838745117188
2.585000000000001,-6.706097412109376,0.39656982421875,6.534729003906251
2.594999999999999,-7.154855346679688,0.45997314453125,6.904083251953126
2.605000000000004,-7.160238647460938,0.38699951171875,6.9327941894531255
2.615000000000002,-6.844717407226563,-0.024822998046875,6.985430908203125
2.625,-6.244479370117188,-0.30565185546875,6.716864013671875
2.634999999999998,-6.722097778320313,-0.109759521484375,7.4666381835937505
2.645000000000003,-7.258483886718751,-0.0985443115234375,7.754046630859375
2.655000000000001,-7.21781005859375,-0.0258697509765625,6.552673339843751
2.664999999999999,-6.890625000000001,-0.1774993896484375,6.595889282226563
2.6750000000000043,-6.615328979492188,-0.2141357421875,6.253601074218751
2.6850000000000023,-6.977056884765625,-0.094207763671875,7.890423583984376
2.6950000000000003,-6.988870239257813,0.3455780029296875,7.5521728515625
2.7049999999999983,-7.139004516601563,0.7101470947265626,6.347360229492188
2.7150000000000034,-6.458016967773438,0.5359375000000001,6.553720092773438
2.7250000000000014,-6.765014648437501,-0.1064697265625,7.117770385742188
2.7349999999999994,-7.183865356445313,-0.37503662109375,8.33035888671875
2.744999999999997,-7.1813232421875,-0.05263671875,6.377716064453126
2.7550000000000026,-6.779669189453125,-0.011962890625,5.992361450195313
2.765000000000001,-6.869839477539063,-0.317913818359375,6.755743408203125
2.7749999999999986,-6.883596801757813,-0.296978759765625,7.7417846679687505
2.785000000000004,-6.738098144531251,0.0861328125,8.36505126953125
2.7950000000000017,-6.685311889648438,0.47911376953125,6.318948364257813
2.804000000000002,-6.822286987304688,0.4391876220703125,6.195431518554688
2.814,-7.263717651367188,0.341839599609375,6.574954223632813
2.823999999999998,-7.526303100585938,0.2835205078125,7.582229614257813
2.834000000000003,-6.792529296875,0.3294281005859375,6.581683349609375
2.844000000000001,-6.578692626953125,-0.09510498046875,6.360220336914063
2.853999999999999,-6.551626586914063,-0.2761932373046875,7.490863037109375
2.863999999999997,-6.881503295898438,-0.348419189453125,8.083773803710939
2.8740000000000023,-6.909466552734376,-0.2133880615234375,7.354187011718751
2.8840000000000003,-6.776528930664063,-0.0052337646484375,6.069223022460938
2.8939999999999984,-6.8415771484375005,-0.055029296875,6.4515869140625
2.9040000000000035,-7.10655517578125,0.137274169921875,7.31351318359375
2.914000000000001,-7.1376586914062505,0.2645294189453125,7.566378784179688
2.9239999999999995,-6.796716308593751,0.517095947265625,6.409268188476563
2.933999999999997,-6.818997192382813,0.5274139404296876,6.349603271484376
2.9440000000000026,-6.961953735351563,0.256304931640625,7.2064453125
2.9540000000000006,-7.00845947265625,-0.031103515625,7.7651123046875
2.963999999999998,-6.629385375976563,-0.3001190185546875,7.198818969726563
2.974000000000004,-6.742733764648438,-0.3002685546875,6.345864868164063
2.9840000000000018,-6.977655029296876,-0.295184326171875,6.908270263671875
2.994,-7.174295043945313,-0.1184326171875,7.174145507812501
3.003999999999998,-6.998440551757813,0.04366455078125,7.203604125976563
3.014000000000003,-6.740191650390625,0.365167236328125,6.142047119140625
3.024000000000001,-6.4677368164062505,0.74708251953125,6.796716308593751
3.033999999999999,-7.340579223632813,0.68726806640625,7.137210083007813
3.044000000000004,-6.812866210937501,0.7110443115234375,7.560397338867188
3.054000000000002,-7.074703979492188,0.294586181640625,6.718359375
3.064,-7.1301818847656255,-0.2830718994140625,7.082031250000001
3.073999999999998,-6.342575073242188,-0.9390869140625,6.817950439453125
3.084000000000003,-6.806884765625001,-1.3020111083984376,7.261474609375001
3.094000000000001,-6.961056518554688,-0.8048034667968751,7.838235473632813
3.103999999999999,-7.071563720703126,0.14774169921875,6.411810302734375
3.113999999999997,-6.906625366210938,0.5202362060546876,7.072610473632813
3.1240000000000023,-6.605758666992188,0.5190399169921875,6.4348388671875005
3.1340000000000003,-7.063040161132813,0.7475311279296876,7.731915283203126
3.1439999999999984,-7.383795166015625,1.26746826171875,6.594393920898438
3.1540000000000035,-6.952383422851563,1.048098754882813,6.3690429687500005
3.164000000000001,-6.811968994140625,0.0605621337890625,6.491213989257813
3.1739999999999995,-6.624450683593751,-0.8399444580078126,7.475311279296876
3.183999999999997,-6.8655029296875005,-1.0208831787109376,8.373724365234375
3.1940000000000026,-6.598580932617188,-0.884954833984375,6.842922973632813
3.2040000000000006,-6.796267700195313,-0.8686553955078126,6.450689697265625
3.213999999999998,-6.891073608398438,-0.418402099609375,6.820791625976563
3.224000000000004,-7.129135131835938,0.209051513671875,7.671652221679688
3.233000000000004,-6.8343994140625,0.9872375488281252,7.132125854492188
3.244,-6.785202026367188,1.1306427001953123,6.414801025390625
3.253999999999998,-6.8729797363281255,1.1426055908203123,6.407025146484376
3.264000000000003,-7.242932128906251,0.8673095703125001,7.3350463867187505
3.2730000000000032,-7.318597412109375,0.3742889404296875,6.781463623046876
3.283999999999999,-6.904232788085938,-0.2524169921875,6.563589477539063
3.294000000000004,-6.665423583984375,-0.8190093994140626,6.219357299804688
3.3029999999999973,-6.676638793945313,-0.9343017578125,7.8838439941406255
3.314,-6.704153442382813,-0.868505859375,8.130279541015625
3.3230000000000004,-6.709237670898438,-0.49765625,7.2531005859375
3.3329999999999984,-6.741836547851563,0.07835693359375,6.421978759765626
3.3430000000000035,-6.9540283203125,0.6572113037109375,6.687255859375001
3.353000000000001,-7.263717651367188,0.7822235107421875,7.331756591796876
3.3629999999999995,-6.987075805664063,0.8043548583984376,6.775332641601563
3.3729999999999976,-6.875073242187501,0.726446533203125,6.481195068359376
3.3830000000000027,-7.154257202148438,0.560760498046875,6.278573608398438
3.3930000000000007,-7.219006347656251,0.0306549072265625,7.280615234375
3.4029999999999987,-6.787295532226563,-0.4717864990234375,6.940570068359375
3.413000000000004,-6.202908325195313,-0.7448394775390625,7.314410400390625
3.423000000000002,-6.453829956054688,-0.4933197021484375,7.114031982421875
3.433,-6.973468017578125,-0.252117919921875,7.76810302734375
3.442999999999998,-7.579238891601563,0.1553680419921875,6.99290771484375
3.453000000000003,-7.268801879882813,0.42109375,6.462503051757813
3.463000000000001,-6.647030639648438,0.393878173828125,5.709738159179688
3.472999999999999,-6.739593505859376,0.237762451171875,7.408468627929688
3.483000000000004,-7.0138427734375,0.3500640869140625,7.96190185546875
3.493000000000002,-7.283456420898438,0.641510009765625,7.105957031250001
3.503,-6.380258178710938,0.285614013671875,6.385940551757813
3.512999999999998,-6.249563598632813,-0.7331756591796875,6.719854736328125
3.5230000000000032,-7.242633056640625,-1.140811157226563,8.590402221679689
3.5330000000000013,-7.392767333984375,-0.3701019287109375,6.777127075195313
3.543,-6.96658935546875,0.153125,5.924172973632813
3.5529999999999973,-6.740042114257813,0.1478912353515625,5.891275024414063
3.5630000000000024,-6.782958984375001,0.157611083984375,7.690194702148438
3.5730000000000004,-6.820642089843751,0.6971374511718751,8.867044067382814
3.5829999999999984,-6.940121459960938,0.96839599609375,6.794622802734375
3.5930000000000035,-6.892868041992188,0.724652099609375,5.211932373046875
3.6030000000000015,-7.001281738281251,0.227294921875,6.142645263671875
3.613,-7.654754638671876,-0.421392822265625,7.992556762695313
3.6229999999999976,-6.838885498046875,-0.5175445556640625,7.676437377929688
3.633000000000002,-6.199618530273438,-0.7801300048828126,6.339883422851563
3.6430000000000007,-6.401193237304688,-0.5606109619140626,6.808978271484375
3.652999999999999,-6.990963745117188,-0.1882659912109375,8.188150024414064
3.663000000000004,-7.147229003906251,0.152227783203125,7.706793212890625
3.673000000000002,-6.827819824218751,0.5236755371093751,6.245526123046876
3.683,-6.811221313476563,0.6769500732421876,5.565136718750001
3.692999999999998,-7.186856079101563,0.8067474365234376,7.154257202148438
3.703000000000003,-7.362112426757813,0.4581787109375,7.793823242187501
3.713000000000001,-6.842773437500001,0.156414794921875,6.737799072265625
3.722999999999999,-6.509457397460938,-0.0067291259765625,6.082083129882813
3.733000000000004,-6.946850585937501,-0.314923095703125,7.04674072265625
3.743000000000002,-6.917541503906251,-0.5386291503906251,8.150616455078126
3.7520000000000016,-6.729275512695313,-0.7197174072265625,7.431945800781251
3.762999999999998,-6.5472900390625,-0.3147735595703125,6.467288208007813
3.772,-7.078741455078125,0.2787353515625,6.29906005859375
3.782000000000004,-7.136312866210938,0.7089508056640625,7.0419555664062505
3.7920000000000016,-7.158294677734376,0.8133270263671876,6.94505615234375
3.802,-7.128536987304688,0.8018127441406251,6.4791015625
3.8119999999999976,-6.71536865234375,1.0328460693359376,6.613235473632813
3.8220000000000014,-7.204800415039063,0.282623291015625,7.75853271484375
3.8320000000000007,-6.244329833984375,-0.8384490966796876,7.740887451171876
3.841999999999999,-6.343322753906251,-1.49356689453125,7.17235107421875
3.852000000000004,-7.137957763671875,-1.0486968994140626,6.93668212890625
3.862000000000002,-7.275979614257813,-0.1873687744140625,6.616525268554688
3.872,-7.248764038085938,-0.1251617431640625,6.829165649414063
3.881999999999998,-6.545495605468751,0.0826934814453125,6.60411376953125
3.892000000000003,-6.850997924804688,0.8387481689453126,7.321438598632813
3.902000000000001,-7.048535156250001,1.63233642578125,7.287045288085938
3.911999999999999,-6.916494750976563,1.295880126953125,6.848904418945313
3.922000000000004,-6.767407226562501,0.23028564453125,6.471624755859375
3.932000000000002,-6.819595336914063,-0.4463653564453125,7.050030517578126
3.942,-7.191641235351563,-0.697735595703125,7.457965087890625
3.951999999999998,-6.861614990234376,-0.920843505859375,6.865353393554688
3.9620000000000033,-6.762023925781251,-1.200625610351563,6.628189086914063
3.972000000000001,-6.651217651367188,-0.7497741699218751,7.153659057617188
3.9819999999999993,-6.844268798828126,0.115142822265625,7.904928588867188
3.991999999999997,-6.690994262695313,0.7433441162109375,7.397402954101563
4.002000000000002,-6.642245483398438,0.8620758056640626,6.625946044921876
4.0120000000000005,-7.030291748046875,0.9346008300781252,6.528747558593751
4.021999999999999,-7.448992919921875,1.0011444091796875,6.881503295898438
4.032000000000004,-7.473815917968751,0.6057708740234375,6.398501586914063
4.042000000000002,-6.9970947265625005,0.0563751220703125,5.996099853515625
4.052,-6.97496337890625,-0.385205078125,6.640750122070313
4.061999999999998,-6.718060302734376,-0.4813568115234375,7.665969848632813
4.072000000000003,-6.559552001953126,-0.5259185791015626,7.959808349609376
4.082000000000001,-6.292181396484375,-0.5662933349609376,7.507611083984376
4.091999999999999,-6.492858886718751,-0.37862548828125,7.120312500000001
4.102000000000004,-7.076947021484376,-0.0657958984375,7.3021484375
4.112000000000002,-7.224090576171876,0.29189453125,6.677236938476563
4.122,-7.204501342773438,0.490179443359375,6.275433349609376
4.131999999999998,-6.984683227539063,0.622967529296875,6.287545776367188
4.142000000000003,-7.096386718750001,0.6871185302734375,6.967785644531251
4.152000000000001,-7.122256469726563,0.6150421142578125,7.227230834960938
4.161999999999999,-6.719555664062501,0.333465576171875,6.816455078125
4.172000000000004,-6.0704193115234375,-0.0441131591796875,6.978103637695313
4.182000000000002,-6.955673217773438,-0.3557464599609375,7.486376953125
4.192,-7.142892456054688,-0.5639007568359375,8.061492919921875
4.201999999999998,-7.3948608398437505,-0.544012451171875,6.393566894531251
4.212000000000003,-6.513793945312501,-0.45458984375,5.9642486572265625
4.221000000000004,-6.798660278320313,-0.4263275146484375,6.849951171875
4.231999999999999,-7.011898803710938,0.16329345703125,8.046987915039063
4.241999999999997,-7.165322875976563,0.8104858398437501,7.485778808593751
4.252000000000002,-6.993356323242188,1.2296356201171876,6.100027465820313
4.261000000000003,-6.027203369140626,0.8266357421875,6.530841064453125
4.271000000000001,-7.208987426757813,-0.2008270263671875,7.534378051757813
4.280999999999999,-7.198669433593751,-0.3500640869140625,8.265310668945313
4.291000000000004,-7.266857910156251,-0.1993316650390625,5.75115966796875
4.301000000000002,-6.870736694335938,-0.3357086181640625,5.643194580078125
4.311,-6.7069946289062505,-0.6388183593750001,6.941766357421876
4.320999999999998,-6.813763427734376,-0.5082733154296876,8.827117919921875
4.331000000000003,-6.570468139648438,0.1760040283203125,8.370584106445314
4.341999999999999,-6.779220581054688,0.6765014648437501,5.614483642578126
4.350999999999999,-6.740939331054688,0.8511596679687501,6.180776977539063
4.361000000000004,-7.598529052734375,0.5374328613281251,6.726284790039063
4.371000000000002,-7.492507934570313,0.331671142578125,7.83629150390625
4.381,-6.678582763671876,0.2235565185546875,6.294125366210938
4.390999999999998,-6.756790161132813,-0.0961517333984375,5.829815673828126
4.401000000000003,-6.772042846679688,-0.238958740234375,7.549331665039063
4.411000000000001,-6.861166381835938,-0.5525360107421875,8.254244995117189
4.420999999999999,-6.580935668945313,-0.429168701171875,7.6460815429687505
4.430999999999997,-6.590805053710938,-0.173162841796875,6.237002563476563
4.442,-6.821987915039063,0.0160003662109375,6.610543823242188
4.4510000000000005,-7.271942138671876,0.1984344482421875,7.339981079101563
4.460999999999999,-7.221249389648438,0.3132781982421875,7.16397705078125
4.471000000000004,-6.861614990234376,0.6326873779296875,6.302349853515626
4.481000000000002,-6.910214233398438,0.6326873779296875,6.2374511718750005
4.491,-6.948196411132813,0.41690673828125,7.330111694335938
4.500999999999998,-6.799407958984376,-0.0417205810546875,7.91763916015625
4.511000000000003,-6.700265502929688,-0.32060546875,7.024310302734375
4.521000000000001,-6.772940063476563,-0.275146484375,6.51798095703125
4.530999999999999,-7.012646484375001,-0.275146484375,6.567327880859375
4.542000000000002,-7.308279418945313,-0.1626953125,7.033880615234375
4.551000000000002,-6.712976074218751,0.1789947509765625,6.798959350585938
4.561,-7.112985229492188,0.6231170654296876,6.559103393554688
4.570999999999998,-6.354238891601563,1.04017333984375,7.367495727539063
4.581000000000003,-7.300802612304688,0.4909271240234375,7.749859619140626
4.591000000000001,-6.886138916015626,-0.1440032958984375,7.558453369140626
4.600999999999999,-6.321789550781251,-0.6074157714843751,5.992810058593751
4.611000000000004,-7.050479125976563,-0.7681671142578126,6.897653198242188
4.621000000000002,-7.279867553710938,-0.6421081542968751,7.338934326171875
4.631,-7.1466308593750005,-0.4526458740234375,7.111639404296875
4.642000000000003,-6.290985107421876,-0.01614990234375,7.044497680664063
4.651000000000003,-6.770248413085938,0.3330169677734375,6.493606567382813
4.661000000000001,-6.890475463867188,0.9171051025390624,7.894012451171876
4.670999999999999,-7.521218872070313,0.9861907958984376,6.864456176757813
4.68,-6.773388671875001,0.8089904785156251,6.325677490234376
4.689999999999998,-6.745724487304688,0.1948455810546875,6.3600708007812505
4.7010000000000005,-7.075152587890625,-0.3409423828125,7.12509765625
4.710000000000001,-6.789089965820313,-0.6925018310546875,8.464343261718751
4.719999999999999,-6.759780883789063,-0.9666015625,6.563290405273438
4.730000000000004,-6.54190673828125,-0.7961303710937501,6.908120727539063
4.741,-6.971374511718751,-0.366961669921875,6.6471801757812505
4.75,-7.099975585937501,0.1529754638671875,7.898947143554688
4.761000000000003,-6.854287719726563,0.58917236328125,6.806286621093751
4.770000000000003,-6.761276245117188,0.9244323730468752,6.506167602539063
4.780000000000001,-6.975711059570313,1.1281005859375002,6.706396484375
4.789999999999999,-7.246820068359375,0.8423370361328125,7.043151855468751
4.800000000000004,-7.066928100585938,0.2624359130859375,7.129434204101563
4.811,-6.743182373046875,-0.268865966796875,6.246124267578126
4.82,-6.9327941894531255,-0.6413604736328126,7.039712524414063
4.829999999999998,-6.781463623046876,-0.6760528564453125,7.198519897460938
4.841999999999999,-6.741537475585938,-0.7771392822265626,7.857376098632813
4.850000000000001,-6.644039916992188,-0.4302154541015625,7.068572998046876
4.859999999999999,-6.866848754882813,0.1574615478515625,6.755892944335938
4.869999999999997,-7.139004516601563,0.6841278076171875,6.776977539062501
4.880000000000003,-7.017132568359376,0.8246917724609376,6.963150024414063
4.890000000000001,-6.999636840820313,0.6762023925781251,6.687106323242188
4.899999999999999,-6.851147460937501,0.5754150390625,6.792230224609376
4.910000000000004,-7.011151123046876,0.3457275390625,6.906326293945313
4.920000000000002,-7.142294311523438,-0.0859832763671875,6.862811279296875
4.93,-6.707293701171875,-0.5241241455078125,6.822586059570313
4.942,-6.342575073242188,-0.5363861083984376,7.136611938476563
4.950000000000003,-7.109396362304688,-0.3413909912109375,7.458563232421875
4.960000000000001,-6.876119995117188,-0.0139068603515625,7.359719848632813
4.969999999999999,-7.525106811523438,0.2944366455078125,6.593496704101563
4.980000000000004,-6.662881469726563,0.314923095703125,6.75723876953125
4.990000000000002,-6.5739074707031255,0.0408233642578125,6.648526000976563
5.0,-7.001730346679688,0.1299468994140625,7.4875732421875005
5.009999999999998,-7.17235107421875,0.5468536376953126,7.250857543945313
5.020000000000003,-7.101022338867188,0.5329467773437501,6.639852905273438
5.030000000000001,-6.131430053710938,-0.2352203369140625,6.833502197265625
5.042000000000002,-6.952832031250001,-0.9226379394531252,7.253848266601563
5.050000000000004,-7.153060913085938,-0.4077850341796875,8.0522216796875
5.060000000000002,-7.201809692382813,0.1795928955078125,6.196777343750001
5.07,-6.782360839843751,0.076861572265625,6.100027465820313
5.079999999999998,-6.709686279296876,-0.03349609375,6.880007934570313
5.090000000000003,-6.960009765625,0.3541015625,8.124447631835938
5.100000000000001,-6.974215698242188,0.7597930908203125,7.738046264648438
5.109999999999999,-6.781314086914063,0.593060302734375,5.743084716796876
5.119999999999997,-6.705200195312501,0.146844482421875,6.468933105468751
5.128999999999998,-7.463348388671876,-0.19619140625,7.063488769531251
5.140000000000001,-7.1780334472656255,-0.2032196044921875,7.8608154296875
5.149999999999999,-6.525457763671875,-0.33436279296875,6.458316040039063
5.160000000000004,-6.566580200195313,-0.47073974609375,6.413455200195313
5.169000000000004,-6.859072875976563,-0.1852752685546875,7.677185058593751
5.179000000000002,-7.057507324218751,0.1078155517578125,7.860366821289063
5.189999999999998,-6.81107177734375,0.3991119384765625,6.913055419921876
5.200000000000003,-6.784902954101563,0.425579833984375,5.8905273437500005
5.209000000000003,-6.934439086914063,0.39417724609375,6.844567871093751
5.219000000000001,-7.265362548828126,0.3294281005859375,7.540509033203126
5.228999999999999,-7.08861083984375,0.162994384765625,6.97855224609375
5.238999999999997,-6.741537475585938,0.06220703125,6.16507568359375
5.249000000000002,-6.755145263671875,-0.106170654296875,6.765014648437501
5.259,-6.887634277343751,-0.227294921875,7.792776489257813
5.268999999999998,-6.903933715820313,-0.34871826171875,7.727279663085938
5.279000000000004,-6.690994262695313,-0.158807373046875,6.634320068359376
5.2890000000000015,-6.734210205078125,0.126507568359375,6.370089721679688
5.299,-7.134518432617188,0.1637420654296875,7.048535156250001
5.3089999999999975,-7.080535888671876,0.218621826171875,7.436282348632813
5.319000000000003,-6.910214233398438,0.4095794677734375,6.557757568359375
5.329000000000001,-6.820642089843751,0.742596435546875,6.078942871093751
5.338999999999999,-7.42476806640625,0.6464447021484375,6.527850341796875
5.349000000000004,-6.63760986328125,0.490179443359375,7.638156127929688
5.359000000000002,-7.177285766601563,-0.0850860595703125,7.806234741210938
5.369,-6.438577270507813,-0.7164276123046875,7.517031860351563
5.378999999999998,-6.0449981689453125,-1.054080200195313,6.534729003906251
5.389000000000003,-7.207192993164063,-1.115838623046875,7.3709350585937505
5.399000000000001,-7.5040222167968755,-0.347222900390625,6.893167114257813
5.408999999999999,-7.418338012695313,0.428271484375,6.454876708984376
5.419000000000004,-6.426614379882813,0.7101470947265626,6.386090087890626
5.429000000000002,-6.646731567382813,0.7038665771484376,7.037469482421876
5.439,-6.905877685546876,0.9679473876953124,8.457763671875
5.448999999999998,-7.264465332031251,1.1064178466796877,6.881652832031251
5.459000000000003,-6.722845458984375,0.4486083984375,6.130532836914063
5.469000000000001,-6.7745849609375,-0.5927612304687501,6.199618530273438
5.478999999999999,-7.205548095703126,-1.1472412109375,7.5877624511718755
5.488999999999997,-6.984085083007813,-0.96361083984375,8.102017211914063
5.499000000000002,-6.625497436523438,-0.689361572265625,6.478652954101563
5.509,-6.5006347656250005,-0.4047943115234375,6.5320373535156255
5.518999999999998,-6.848156738281251,0.1591064453125,7.373477172851563
5.529000000000004,-7.033731079101563,0.718670654296875,8.31361083984375
5.5390000000000015,-6.810623168945313,0.9989013671875,6.711929321289063
5.549,-6.85294189453125,0.8707489013671875,5.749066162109376
5.5589999999999975,-7.300054931640625,0.7621856689453126,6.277676391601563
5.569000000000003,-7.57071533203125,0.39537353515625,7.267156982421875
5.579000000000001,-7.103713989257813,-0.098394775390625,6.776379394531251
5.588999999999999,-6.531140136718751,-0.4714874267578125,6.522167968750001
5.597999999999999,-6.393417358398438,-0.6687255859375001,7.200912475585938
5.609000000000002,-6.642694091796876,-0.6365753173828126,8.305386352539063
5.618000000000002,-6.700265502929688,-0.5327972412109375,7.895956420898438
5.628,-6.667068481445313,-0.1697235107421875,6.5006347656250005
5.637999999999998,-7.169808959960938,0.3422882080078125,6.062643432617188
5.649000000000001,-7.373626708984376,0.7044647216796875,6.731668090820313
5.658000000000001,-7.105657958984375,0.6954925537109375,7.204650878906251
5.667999999999999,-6.794174194335938,0.514105224609375,6.741088867187501
5.677999999999997,-6.756939697265626,0.5148529052734375,6.559402465820313
5.688000000000002,-7.028198242187501,0.4134674072265625,7.0060668945312505
5.698,-6.536224365234376,-0.0297576904296875,7.46065673828125
5.707999999999998,-6.845913696289063,-0.5812469482421876,7.167117309570313
5.718000000000004,-6.907073974609376,-0.6664825439453126,7.019375610351563
5.7280000000000015,-7.429852294921876,-0.1440032958984375,6.648376464843751
5.738,-6.954925537109376,-0.06160888671875,7.098330688476563
5.7479999999999976,-6.426913452148438,-0.41212158203125,6.706845092773438
5.758000000000003,-6.496746826171876,-0.2331268310546875,7.74716796875
5.768000000000001,-7.23037109375,0.6987823486328125,7.302297973632813
5.777999999999999,-7.520321655273438,1.226495361328125,6.607852172851563
5.788000000000004,-6.302200317382813,0.6543701171875,6.180776977539063
5.798000000000002,-6.710284423828125,-0.3727935791015625,6.730621337890626
5.808,-7.220651245117188,-0.3434844970703125,8.542251586914062
5.817999999999998,-7.285848999023438,0.1547698974609375,6.679031372070313
5.828000000000003,-6.779370117187501,-0.124713134765625,5.9533325195312505
5.838000000000001,-6.530990600585938,-0.6494354248046875,6.397305297851563
5.847999999999999,-6.855633544921876,-0.484197998046875,8.181121826171875
5.858000000000004,-6.935037231445313,0.229986572265625,8.743975830078126
5.868000000000002,-6.817800903320313,0.5232269287109376,5.852395629882813
5.878,-6.684414672851563,0.4260284423828125,5.811123657226563
5.887999999999998,-7.278671264648438,0.4649078369140625,6.606655883789063
5.898000000000003,-7.676437377929688,0.4344024658203125,8.172000122070314
5.908000000000001,-6.68546142578125,0.3536529541015625,6.759481811523438
5.917999999999999,-6.446652221679688,-0.1906585693359375,5.767459106445313
5.927999999999997,-6.7398925781250005,-0.2163787841796875,7.253399658203126
5.938000000000002,-7.172500610351563,-0.29488525390625,8.31241455078125
5.948,-6.806585693359375,-0.299072265625,7.399945068359376
5.957999999999998,-6.573458862304688,-0.209649658203125,5.9792022705078125
5.968000000000004,-6.720602416992188,-0.043963623046875,6.5260559082031255
5.9780000000000015,-7.223641967773438,0.3058013916015625,7.729074096679688
5.988,-7.199566650390626,0.30445556640625,7.518078613281251
5.9979999999999976,-6.669461059570313,0.4583282470703125,6.191543579101563
6.008000000000003,-6.836642456054688,0.4939178466796875,6.201412963867188
6.018000000000001,-7.128387451171876,0.34154052734375,7.335195922851563
6.027999999999999,-6.976608276367188,0.0013458251953125,7.816253662109376
6.038000000000004,-6.653012084960938,-0.319110107421875,6.740789794921875
6.048000000000002,-6.766360473632813,-0.14176025390625,6.101522827148438
6.058,-6.919635009765625,0.162994384765625,6.667816162109376
6.067,-7.533480834960938,0.222210693359375,7.2028564453125
6.076999999999998,-6.622955322265626,0.321502685546875,7.399496459960938
6.087000000000003,-6.641647338867188,0.5253204345703125,6.646432495117188
6.097000000000001,-7.369589233398438,0.1888641357421875,7.639501953125
6.106999999999999,-6.333004760742188,-0.33316650390625,7.191940307617188
6.116999999999997,-6.677087402343751,-0.7612884521484375,6.841278076171876
6.127000000000002,-7.136761474609376,-0.62147216796875,7.081732177734375
6.1370000000000005,-7.130331420898438,-0.1042266845703125,6.737649536132813
6.146999999999999,-6.907073974609376,-0.0614593505859375,7.4053283691406255
6.157000000000004,-6.578842163085938,-0.0801513671875,6.373229980468751
6.167000000000002,-6.885391235351563,0.3641204833984375,7.471871948242188
6.177,-7.148724365234376,1.0464538574218751,7.062142944335938
6.186999999999998,-7.097433471679688,0.887646484375,7.0180297851562505
6.197000000000003,-6.616525268554688,0.1718170166015625,6.391921997070313
6.207000000000001,-6.758734130859375,-0.277239990234375,6.862213134765626
6.216999999999999,-7.187005615234376,-0.2382110595703125,7.878759765625
6.227000000000004,-6.816006469726563,-0.39776611328125,6.91275634765625
6.237000000000002,-6.743032836914063,-0.904095458984375,6.810922241210938
6.247,-6.694583129882813,-0.6832305908203126,6.683666992187501
6.256999999999998,-7.0030761718750005,-0.0189910888671875,7.730868530273438
6.267000000000003,-6.945803833007813,0.495263671875,7.218557739257813
6.277000000000001,-6.674993896484375,0.5917144775390626,6.522616577148438
6.286999999999999,-6.880905151367188,0.7089508056640625,6.591403198242188
6.297000000000004,-7.221697998046875,0.8985626220703126,7.11612548828125
6.307000000000002,-7.286297607421876,0.6361267089843751,7.035076904296876
6.317,-6.728228759765625,0.049945068359375,6.352294921875001
6.326999999999998,-6.769949340820313,-0.5468536376953126,6.7593322753906255
6.337000000000003,-6.880755615234375,-0.5685363769531251,7.44151611328125
6.347000000000001,-6.877615356445313,-0.49466552734375,7.666567993164063
6.356999999999999,-6.661685180664063,-0.509619140625,6.962850952148438
6.366999999999997,-6.514691162109376,-0.2564544677734375,6.652114868164063
6.377000000000002,-6.923971557617188,0.2127899169921875,7.392169189453125
6.3870000000000005,-7.277325439453126,0.7070068359375,7.207940673828125
6.396999999999999,-7.169659423828126,0.7777374267578125,6.557458496093751
6.407000000000004,-6.869989013671876,0.7092498779296875,5.841329956054688
6.417000000000002,-7.020272827148438,0.54072265625,6.81944580078125
6.427,-7.218856811523438,0.238360595703125,7.4053283691406255
6.436999999999998,-6.678134155273438,-0.0183929443359375,7.063488769531251
6.447000000000003,-6.368743896484376,-0.3446807861328125,6.705349731445313
6.457000000000001,-6.9806457519531255,-0.377728271484375,7.047937011718751
6.466999999999999,-6.929055786132813,-0.3225494384765625,7.853787231445313
6.477000000000004,-7.484732055664063,-0.1431060791015625,6.986328125000001
6.487000000000002,-6.5903564453125005,-0.1867706298828125,6.741986083984376
6.497,-6.30863037109375,-0.251220703125,6.169113159179688
6.506999999999998,-7.3200927734375005,0.1398162841796875,7.686007690429688
6.517000000000003,-7.2617736816406255,0.8067474365234376,7.498040771484375
6.526000000000003,-6.942962646484376,0.8209533691406251,6.563739013671875
6.536999999999999,-6.16148681640625,0.1114044189453125,6.388931274414063
6.547000000000004,-6.832754516601563,-0.3695037841796875,7.3583740234375
6.557000000000002,-7.440618896484375,-0.208453369140625,8.3823974609375
6.5660000000000025,-7.078292846679688,-0.019439697265625,6.2876953125
6.5760000000000005,-6.742434692382813,-0.374737548828125,5.67698974609375
6.585999999999999,-6.70579833984375,-0.41810302734375,6.881951904296876
6.596000000000004,-7.133023071289063,0.041571044921875,8.288787841796875
6.606000000000002,-6.861465454101563,0.460272216796875,7.93199462890625
6.616,-6.462802124023438,0.4821044921875,5.801852416992188
6.625999999999998,-6.769351196289063,0.34931640625,6.549832153320313
6.636000000000003,-7.475161743164063,0.268865966796875,7.2752319335937505
6.646000000000001,-7.222894287109375,0.1586578369140625,7.5354248046875005
6.655999999999999,-6.679031372070313,-0.138470458984375,6.251956176757813
6.666000000000004,-6.6097961425781255,-0.301165771484375,6.167019653320313
6.676000000000002,-7.049282836914063,-0.1694244384765625,7.733859252929688
6.686,-7.050030517578126,-0.0052337646484375,7.886386108398438
6.695999999999998,-6.736901855468751,0.022430419921875,6.85892333984375
6.706000000000003,-6.504522705078125,0.165087890625,6.0764007568359375
6.716000000000001,-7.0404602050781255,0.2283416748046875,7.197921752929688
6.725999999999999,-7.102816772460938,0.235369873046875,7.691989135742188
6.736000000000004,-7.033581542968751,0.1105072021484375,6.880007934570313
6.746000000000002,-6.750210571289063,0.128900146484375,6.0771484375
6.756,-7.0018798828125,0.210247802734375,6.654208374023438
6.765999999999998,-7.108947753906251,0.0435150146484375,7.697821044921875
6.776000000000003,-6.849801635742188,-0.1368255615234375,7.346560668945313
6.786000000000001,-6.624301147460938,-0.0949554443359375,6.713275146484375
6.795999999999999,-6.749462890625001,0.1538726806640625,6.530841064453125
6.805999999999997,-7.1840148925781255,0.1517791748046875,7.248913574218751
6.8160000000000025,-6.83798828125,0.15970458984375,7.105657958984375
6.8260000000000005,-6.946551513671875,0.2280426025390625,6.34451904296875
6.835999999999999,-7.191342163085938,0.5426666259765626,6.512149047851563
6.846000000000004,-6.679330444335938,0.73990478515625,7.060049438476563
6.856000000000002,-7.55875244140625,-0.0145050048828125,8.081979370117189
6.866,-6.133673095703125,-0.6231170654296876,7.27822265625
6.875999999999998,-6.309078979492188,-0.8450286865234375,6.641049194335938
6.886000000000003,-7.0180297851562505,-0.631939697265625,7.353887939453125
6.896000000000001,-7.594491577148438,-0.046954345703125,6.722695922851563
6.905999999999999,-7.247567749023438,0.07476806640625,7.031188964843751
6.916000000000004,-6.221450805664063,0.3529052734375,5.963201904296875
6.926000000000002,-6.905728149414063,0.4290191650390625,7.515835571289063
6.936,-7.075601196289063,0.9799102783203124,7.61497802734375
6.945999999999998,-7.103414916992188,0.8351593017578126,7.443460083007813
6.956000000000003,-6.603515625000001,0.2089019775390625,5.846713256835938
6.966000000000001,-6.682919311523438,-0.463262939453125,6.737799072265625
6.975000000000001,-7.368093872070313,-0.7020721435546875,7.799505615234375
6.984999999999999,-6.874923706054688,-0.5232269287109376,7.357177734375001
6.994999999999997,-6.82303466796875,-0.680389404296875,6.498989868164063
7.006,-6.475662231445313,-0.3457275390625,6.508560180664063
7.015999999999998,-7.04075927734375,0.1386199951171875,7.685559082031251
7.024999999999999,-7.004122924804688,0.6613983154296875,7.7746826171875005
7.036000000000001,-6.638955688476563,0.7209136962890625,6.715069580078126
7.045000000000002,-6.804940795898438,0.60233154296875,6.117373657226563
7.055,-7.257736206054688,0.5728729248046875,6.830810546875001
7.064999999999998,-7.482788085937501,0.31163330078125,7.147378540039063
7.075000000000003,-7.014889526367188,-0.0267669677734375,6.674844360351563
7.085000000000001,-6.647479248046875,-0.4125701904296875,6.253451538085938
7.094999999999999,-6.6023193359375005,-0.452496337890625,7.388131713867188
7.105000000000004,-6.733462524414063,-0.34752197265625,8.201907348632814
7.115000000000002,-6.694134521484376,-0.3170166015625,7.532733154296875
7.125,-6.737051391601563,-0.0180938720703125,6.397006225585938
7.134999999999998,-7.022067260742188,0.299969482421875,6.485980224609375
7.145000000000003,-7.365252685546875,0.5254699707031251,6.865951538085938
7.155000000000001,-7.122406005859376,0.3964202880859375,7.234558105468751
7.164999999999999,-6.619366455078126,0.366064453125,6.458914184570313
7.175000000000004,-6.891970825195313,0.332269287109375,6.843521118164063
7.185000000000002,-6.987823486328126,0.233575439453125,7.131976318359375
7.195,-6.924270629882813,-0.1197784423828125,7.3335510253906255
7.204999999999998,-6.214123535156251,-0.3814666748046875,7.062741088867188
7.215000000000003,-6.889578247070313,-0.318511962890625,6.843670654296876
7.225000000000001,-7.247119140625,-0.176153564453125,7.427609252929688
7.234999999999999,-7.48099365234375,0.1691253662109375,6.602169799804688
7.244999999999997,-6.6576477050781255,0.1281524658203125,6.794323730468751
7.255000000000003,-6.532186889648438,-0.145947265625,6.50601806640625
7.265000000000001,-6.746322631835938,0.0979461669921875,7.906274414062499
7.274999999999999,-7.29197998046875,0.5523864746093751,7.470376586914063
7.285000000000004,-7.317849731445313,0.751568603515625,6.311920166015626
7.295000000000002,-6.175692749023438,0.24942626953125,6.179879760742188
7.305,-6.820642089843751,-0.5429656982421875,7.1600891113281255
7.314999999999998,-7.282858276367188,-0.409429931640625,8.611187744140626
7.325000000000003,-7.146481323242188,0.0198883056640625,6.502877807617188
7.335000000000001,-6.604861450195313,-0.015252685546875,5.861367797851563
7.344999999999999,-6.714620971679688,-0.3578399658203125,6.626394653320313
7.355000000000004,-7.035974121093751,-0.064898681640625,8.217309570312501
7.365000000000002,-7.014889526367188,0.3874481201171875,8.260525512695313
7.375,-6.790286254882813,0.6314910888671875,5.433843994140625
7.386000000000003,-6.722994995117188,0.48868408203125,6.146084594726563
7.395000000000003,-7.412506103515626,0.2899505615234375,6.817352294921876
7.405000000000001,-7.437927246093751,0.22669677734375,8.233758544921876
7.414999999999999,-6.661984252929688,0.1136474609375,6.417492675781251
7.425000000000004,-6.46055908203125,-0.299969482421875,5.977407836914063
7.435000000000002,-6.647030639648438,-0.3141754150390625,7.565481567382813
7.445,-7.143191528320313,-0.4302154541015625,8.387631225585938
7.454999999999998,-6.767855834960938,-0.2370147705078125,7.2752319335937505
7.463999999999999,-6.586767578125,0.012261962890625,5.694036865234375
7.474000000000004,-6.909915161132813,0.2223602294921875,6.609048461914063
7.484000000000002,-7.336392211914063,0.3736907958984375,7.670904541015625
7.494999999999997,-7.1095458984375,0.3650177001953125,7.330261230468751
7.505000000000003,-6.694134521484376,0.5378814697265626,6.225637817382813
7.514000000000003,-6.817800903320313,0.4415802001953125,6.226385498046875
7.524000000000001,-7.098031616210938,0.171966552734375,7.545294189453125
7.533999999999999,-6.853390502929688,-0.261688232421875,7.828067016601563
7.544000000000004,-6.777426147460938,-0.45518798828125,6.737500000000001
7.555,-6.727481079101563,-0.1616485595703125,6.222497558593751
7.564,-6.799407958984376,0.1368255615234375,6.583328247070313
7.573999999999998,-7.609893798828126,0.1789947509765625,7.428057861328125
7.584000000000003,-6.599478149414063,0.48629150390625,7.366149902343751
7.594000000000001,-6.843222045898438,0.632537841796875,6.573458862304688
7.603999999999999,-7.162481689453125,0.2989227294921875,7.308428955078125
7.613999999999997,-6.2867980957031255,-0.2953338623046875,7.109246826171876
7.624000000000002,-6.910214233398438,-0.7233062744140626,7.318447875976563
7.634,-6.969879150390626,-0.480908203125,7.154705810546876
7.643999999999998,-7.148873901367188,-0.1401153564453125,6.372482299804688
7.6540000000000035,-6.788940429687501,-0.1685272216796875,7.356878662109375
7.6640000000000015,-6.784454345703126,-0.2086029052734375,6.430801391601563
7.673999999999999,-6.913055419921876,0.372943115234375,7.877114868164063
7.683999999999997,-7.142593383789063,1.0259674072265623,6.536373901367188
7.694000000000003,-6.880905151367188,0.8773284912109376,6.943710327148438
7.704000000000001,-6.709686279296876,0.22430419921875,6.6397033691406255
7.713999999999999,-6.874026489257813,-0.24942626953125,7.181173706054688
7.724000000000004,-7.00546875,-0.234173583984375,7.739242553710938
7.734000000000002,-6.794622802734375,-0.440234375,6.463848876953126
7.744,-6.874923706054688,-0.7868591308593751,6.982888793945313
7.753999999999998,-6.81346435546875,-0.54251708984375,6.7267333984375
7.764000000000003,-7.048535156250001,-0.030804443359375,7.802197265625001
7.774000000000001,-6.736901855468751,0.5588165283203126,6.940719604492188
7.783999999999999,-6.758435058593751,0.5733215332031251,6.631329345703126
7.794000000000004,-6.8702880859375,0.7333251953125001,6.879409790039063
7.804000000000002,-7.191790771484375,0.7295867919921876,7.242034912109376
7.814,-7.175491333007813,0.44442138671875,6.813912963867188
7.823999999999998,-6.851147460937501,-0.0432159423828125,6.287844848632813
7.834000000000003,-6.834848022460938,-0.536834716796875,6.788940429687501
7.844000000000001,-6.877316284179688,-0.5010955810546875,7.553369140625
7.853999999999999,-6.800305175781251,-0.4559356689453125,7.574453735351563
7.863999999999997,-6.526205444335938,-0.274847412109375,6.985281372070313
7.874000000000002,-6.802398681640626,-0.002691650390625,6.761276245117188
7.884,-7.034179687500001,0.4015045166015625,7.104611206054688
7.893999999999998,-7.308129882812499,0.6910064697265625,6.9576171875
7.9040000000000035,-6.983486938476563,0.624462890625,6.546243286132813
7.9140000000000015,-6.69443359375,0.4629638671875,6.404483032226563
7.923999999999999,-7.001431274414063,0.19320068359375,7.200762939453125
7.933999999999997,-7.063189697265625,0.0115142822265625,7.348953247070313
7.944000000000003,-6.756640625,-0.2265472412109375,6.883746337890625
7.953000000000003,-6.361566162109376,-0.4152618408203125,6.677087402343751
7.963000000000001,-6.877914428710938,-0.2696136474609375,7.167864990234375
7.972999999999999,-7.30753173828125,-0.158807373046875,7.685858154296875
7.983000000000004,-7.30394287109375,0.3844573974609375,6.585421752929688
7.994,-6.881054687500001,0.3686065673828125,6.651068115234375
8.003,-6.323284912109376,-0.0267669677734375,6.395510864257813
8.012999999999998,-6.875671386718751,-0.1547698974609375,7.967434692382813
8.023000000000003,-7.233660888671875,0.2911468505859375,7.639202880859376
8.033999999999999,-7.147079467773438,0.654669189453125,6.291433715820313
8.043,-6.329864501953126,-0.0109161376953125,6.324331665039063
8.052999999999997,-6.76322021484375,-0.6628936767578125,7.037469482421876
8.063000000000002,-7.327120971679688,-0.42169189453125,8.551522827148439
8.073,-7.124050903320313,0.3381011962890625,6.578543090820313
8.082999999999998,-6.690097045898438,0.2452392578125,5.841329956054688
8.093000000000004,-6.688003540039063,-0.125311279296875,6.566729736328125
8.103000000000002,-7.000683593750001,0.0471038818359375,8.223590087890626
8.113,-7.084872436523438,0.4007568359375,8.143289184570314
8.122999999999998,-6.716265869140625,0.4424774169921875,5.741140747070313
8.134,-6.64359130859375,0.089422607421875,6.051129150390626
8.143,-7.279269409179688,-0.0767120361328125,7.133172607421876
8.152999999999999,-7.420431518554688,-0.0506927490234375,8.15091552734375
8.163000000000004,-6.580487060546876,0.0299072265625,6.635815429687501
8.173000000000002,-6.503775024414063,-0.1045257568359375,5.919985961914063
8.183,-6.8385864257812505,-0.02213134765625,7.404879760742188
8.192999999999998,-7.127938842773438,0.077459716796875,8.158242797851564
8.203000000000003,-6.943411254882813,0.12860107421875,7.163528442382813
8.213000000000001,-6.641497802734375,0.2385101318359375,5.679681396484376
8.222999999999999,-6.932046508789063,0.1616485595703125,6.652413940429688
8.234000000000002,-7.091302490234376,0.12261962890625,7.720849609375
8.243000000000002,-7.120910644531251,-0.039178466796875,7.511947631835938
8.253,-6.606356811523438,0.044561767578125,6.3406311035156255
8.262999999999998,-6.814511108398438,0.1828826904296875,6.240740966796875
8.273000000000003,-7.164425659179688,0.074169921875,7.476657104492188
8.283000000000001,-6.934140014648438,-0.05921630859375,7.752999877929688
8.293,-6.678283691406251,-0.1149932861328125,6.842324829101563
8.302999999999997,-6.688003540039063,0.1646392822265625,6.210086059570313
8.313000000000002,-7.099377441406251,0.2450897216796875,6.972122192382813
8.323,-7.024908447265625,0.2681182861328125,7.222595214843751
8.334000000000003,-7.088909912109376,0.271856689453125,6.733163452148438
8.343000000000004,-7.087713623046875,0.46236572265625,6.199319458007813
8.353000000000002,-6.609497070312501,0.7719055175781251,6.973318481445313
8.363,-7.380505371093751,-0.01435546875,8.208935546875
8.372999999999998,-6.153860473632813,-0.7762420654296875,7.753598022460938
8.383000000000003,-6.308331298828126,-1.0642486572265626,6.685910034179688
8.393,-7.127490234375,-0.689361572265625,6.884344482421875
8.402999999999999,-7.530340576171875,0.026318359375,6.583029174804688
8.413000000000004,-7.405477905273438,0.109161376953125,6.873727416992188
8.423000000000002,-6.345266723632813,0.2896514892578125,6.522915649414063
8.433999999999997,-6.660638427734376,0.62506103515625,7.335943603515625
8.442999999999998,-6.9037841796875,1.198681640625,7.682119750976563
8.451999999999998,-7.220501708984376,0.8912353515625001,7.165621948242188
8.462000000000003,-6.74766845703125,0.1640411376953125,6.173300170898438
8.472000000000001,-6.851745605468751,-0.4797119140625,6.500933837890625
8.482,-7.260577392578125,-0.7146331787109376,7.304241943359376
8.491999999999997,-6.790435791015626,-0.746185302734375,7.614379882812501
8.502000000000002,-6.711630249023438,-0.889141845703125,6.809127807617188
8.512,-6.549533081054688,-0.405841064453125,6.926513671875001
8.521999999999998,-6.8822509765625,0.2268463134765625,7.507760620117188
8.533999999999999,-6.879559326171876,0.6238647460937501,7.569070434570313
8.542000000000002,-6.722994995117188,0.67410888671875,6.762173461914063
8.552,-7.018478393554688,0.7251007080078126,6.232815551757813
8.561999999999998,-7.441815185546876,0.8870483398437501,6.548037719726563
8.572000000000003,-7.476806640625001,0.5824432373046875,6.603067016601563
8.582,-6.813613891601563,-0.032000732421875,6.680377197265625
8.591999999999999,-6.6047119140625,-0.5788543701171875,6.952682495117188
8.602000000000004,-6.592449951171876,-0.576611328125,7.80638427734375
8.612000000000002,-6.67947998046875,-0.456085205078125,7.723989868164063
8.622,-6.633871459960938,-0.5161987304687501,7.13048095703125
8.634,-6.7533508300781255,-0.255706787109375,6.639404296875001
8.642000000000003,-7.1361633300781255,0.1930511474609375,6.8550354003906255
8.652000000000001,-7.386337280273438,0.7188201904296876,6.760528564453126
8.661999999999999,-7.135415649414063,0.8345611572265625,6.587963867187501
8.672000000000004,-6.749014282226563,0.67530517578125,6.4252685546875
8.682000000000002,-6.771893310546876,0.43843994140625,7.180426025390625
8.692,-6.84696044921875,0.1694244384765625,7.539761352539063
8.701999999999998,-6.479550170898438,-0.08074951171875,7.151416015625
8.712000000000003,-7.043002319335938,-0.532049560546875,6.591104125976563
8.722000000000001,-7.011151123046876,-0.530853271484375,6.877615356445313
8.734000000000002,-7.574154663085938,-0.2932403564453125,7.2139221191406255
8.741999999999997,-6.6764892578125,-0.12381591796875,6.912307739257813
8.752000000000002,-6.379660034179688,-0.22789306640625,6.701461791992188
8.762,-6.590057373046876,0.1003387451171875,7.613482666015625
8.771999999999998,-7.248165893554688,0.8200561523437501,7.525405883789063
8.782000000000004,-7.380505371093751,0.8988616943359375,6.853091430664063
8.792000000000002,-6.286050415039063,0.3289794921875,6.034680175781251
8.802,-6.946401977539063,-0.4759735107421875,6.807034301757813
8.811999999999998,-7.192687988281251,-0.289202880859375,8.033380126953126
8.822000000000003,-7.23216552734375,-0.0656463623046875,6.875671386718751
8.834000000000003,-6.655703735351563,-0.204266357421875,6.1357666015625005
8.841999999999999,-6.4587646484375005,-0.383111572265625,6.785052490234375
8.852000000000004,-6.976907348632813,-0.07835693359375,8.113980102539063
8.861000000000004,-6.958514404296875,0.4055419921875,8.022763061523438
8.872,-6.806585693359375,0.478515625,5.948248291015625
8.881,-6.807632446289063,0.4140655517578125,6.024661254882813
8.890999999999998,-7.393515014648438,0.301763916015625,6.73271484375
8.901000000000003,-7.296615600585938,0.246136474609375,7.958761596679688
8.911000000000001,-6.582431030273438,0.011962890625,6.772341918945313
8.921,-6.504522705078125,-0.314923095703125,6.272293090820313
8.930999999999997,-6.820941162109375,-0.200079345703125,7.344766235351563
8.942,-7.204949951171876,-0.1209747314453125,7.856329345703125
8.951,-6.828567504882813,-0.03768310546875,7.008609008789063
8.960999999999999,-6.667218017578126,0.011962890625,6.049932861328125
8.971000000000004,-6.857128906250001,0.153125,6.938327026367188
8.981000000000002,-7.116424560546876,0.355596923828125,7.563088989257813
8.991,-7.09818115234375,0.2615386962890625,7.285400390625001
9.000999999999998,-6.6337219238281255,0.2720062255859375,6.294424438476563
9.011000000000005,-6.820791625976563,0.136676025390625,6.586618041992188
9.021,-7.050479125976563,0.024224853515625,7.47142333984375
9.031,-7.085470581054688,-0.179742431640625,7.523162841796876
9.041000000000004,-6.720901489257813,-0.1625457763671875,6.483886718750001
9.051000000000002,-6.791183471679688,0.046356201171875,6.3406311035156255
9.061,-7.036871337890625,0.15611572265625,7.120312500000001
9.070999999999998,-6.831707763671876,0.33316650390625,7.315606689453125
9.081000000000005,-7.1227050781250005,0.3360076904296875,6.750808715820313
9.091,-6.7398925781250005,0.6304443359375,6.407772827148438
9.101,-6.926663208007813,0.5386291503906251,7.12808837890625
9.111000000000004,-7.147528076171875,-0.1960418701171875,8.174243164062501
9.121000000000002,-6.278274536132813,-0.8104858398437501,7.208090209960938
9.131,-6.748416137695313,-1.00667724609375,6.6190673828125
9.140999999999998,-7.122854614257813,-0.4367950439453125,6.760678100585938
9.151000000000003,-7.556808471679688,0.095703125,6.747070312500001
9.161,-6.808978271484375,0.1876678466796875,7.076199340820313
9.171,-6.457418823242188,0.355596923828125,6.551177978515626
9.180999999999996,-6.732116699218751,0.8384490966796876,7.885488891601563
9.191000000000004,-7.220950317382813,1.182232666015625,7.0210205078125005
9.201,-7.009655761718751,0.5872283935546876,6.9327941894531255
9.211,-6.752453613281251,-0.162396240234375,5.989819335937501
9.221000000000004,-6.970776367187501,-0.602630615234375,7.046142578125001
9.231000000000002,-7.087713623046875,-0.6560150146484376,7.748962402343751
9.241,-6.661236572265626,-0.7618865966796875,7.141696166992188
9.250999999999998,-6.621310424804688,-0.7331756591796875,6.887335205078125
9.261000000000005,-6.74766845703125,-0.0856842041015625,6.803744506835938
9.271,-7.121359252929688,0.4732818603515625,7.759429931640626
9.281,-6.802398681640626,0.8037567138671876,6.946551513671875
9.29,-6.776528930664063,0.6285003662109375,6.6561523437500005
9.301000000000002,-7.085470581054688,0.7200164794921875,6.441867065429688
9.311,-7.434936523437501,0.6578094482421876,6.929205322265625
9.320999999999998,-7.157098388671876,0.20755615234375,6.577346801757813
9.329999999999998,-6.749911499023438,-0.3165679931640625,6.653759765625001
9.341,-6.686508178710938,-0.690557861328125,7.207043457031251
9.35,-6.66751708984375,-0.4813568115234375,7.727279663085938
9.36,-6.721798706054688,-0.36427001953125,7.578939819335938
9.369999999999996,-6.653759765625001,-0.194097900390625,6.758135986328125
9.380000000000004,-6.96658935546875,0.1081146240234375,6.756790161132813
9.39,-7.181622314453126,0.5163482666015625,6.866250610351563
9.4,-7.182968139648438,0.7550079345703126,6.889727783203125
9.410000000000004,-7.038516235351563,0.5516387939453126,6.573757934570313
9.420000000000002,-6.642544555664063,0.4056915283203125,6.680227661132813
9.43,-6.887036132812501,0.1284515380859375,7.292877197265626
9.439999999999998,-6.858026123046876,-0.0874786376953125,7.35299072265625
9.450000000000005,-6.551327514648438,-0.2564544677734375,6.934738159179688
9.46,-6.995150756835938,-0.3473724365234375,6.591253662109375
9.47,-7.258334350585938,-0.158807373046875,6.992309570312501
9.480000000000004,-7.311868286132813,0.073272705078125,7.05631103515625
9.490000000000002,-6.612637329101563,0.158807373046875,7.123303222656251
9.5,-6.3331542968750005,-0.1748077392578125,6.788790893554688
9.509999999999998,-6.797613525390625,0.0225799560546875,7.4684326171875
9.520000000000003,-7.193136596679688,0.5597137451171875,7.571911621093751
9.53,-7.312017822265625,0.5345916748046875,6.369342041015625
9.54,-6.420333862304688,-0.058319091796875,6.424969482421876
9.550000000000004,-6.913504028320313,-0.593658447265625,6.857128906250001
9.560000000000002,-7.230072021484376,-0.1090118408203125,8.109494018554688
9.57,-7.03477783203125,0.2307342529296875,6.74527587890625
9.579999999999998,-6.614880371093751,0.0351409912109375,6.184365844726563
9.590000000000003,-6.642245483398438,-0.1852752685546875,7.106704711914063
9.6,-6.966439819335938,0.1006378173828125,7.832553100585938
9.61,-7.152761840820313,0.3952239990234375,7.720999145507813
9.619999999999996,-6.903036499023438,0.2715576171875,5.568276977539063
9.630000000000004,-6.661685180664063,0.1679290771484375,6.348855590820313
9.64,-7.325924682617188,0.034991455078125,7.3404296875
9.65,-7.093545532226563,0.0210845947265625,8.011846923828125
9.660000000000004,-6.377865600585938,-0.049346923828125,6.652264404296876
9.670000000000002,-6.662283325195313,-0.1948455810546875,6.233114624023438
9.68,-7.017581176757813,-0.0031402587890625,7.487124633789063
9.689999999999998,-7.173098754882813,0.0165985107421875,7.531088256835938
9.700000000000005,-6.896755981445313,0.08074951171875,6.868045043945313
9.71,-6.680377197265625,0.1789947509765625,5.971426391601563
9.72,-6.948046875,0.3105865478515625,6.992010498046875
9.730000000000004,-7.138854980468751,0.328680419921875,7.720849609375
9.740000000000002,-6.865802001953125,0.0897216796875,7.074404907226563
9.75,-6.667666625976563,0.16209716796875,6.416146850585938
9.759999999999998,-6.862661743164063,0.03828125,6.797015380859375
9.770000000000003,-7.055264282226563,-0.0788055419921875,7.456619262695313
9.78,-6.971524047851563,-0.283819580078125,7.413702392578125
9.789,-6.786996459960938,-0.18482666015625,6.440371704101563
9.800000000000004,-6.832604980468751,0.1341339111328125,6.699966430664063
9.808999999999996,-6.969281005859376,0.2189208984375,6.993655395507813
9.819000000000004,-6.926962280273438,0.1882659912109375,7.557705688476563
9.829,-6.663031005859375,0.2978759765625,6.749313354492188
9.840000000000003,-6.898849487304688,0.5625549316406251,6.380856323242188
9.849000000000004,-7.4636474609375005,0.5016937255859375,6.5724121093750005
9.859000000000002,-6.974215698242188,0.435150146484375,7.1182189941406255
9.869,-7.222296142578125,-0.11962890625,7.647726440429688
9.878999999999998,-6.031539916992188,-0.6759033203125,7.096536254882813
9.889000000000005,-6.256591796875001,-0.9511993408203124,7.403683471679688
9.899,-7.269848632812501,-0.709698486328125,7.383047485351563
9.909,-7.333251953125001,0.12501220703125,6.726135253906251
9.919000000000004,-7.295867919921876,0.33795166015625,6.265115356445313
9.929000000000002,-6.351846313476563,0.291595458984375,6.337789916992188
9.939,-6.996347045898438,0.485992431640625,7.499536132812499
9.948999999999998,-7.10655517578125,1.01505126953125,7.979995727539063
9.959000000000003,-6.892120361328126,0.9111236572265624,6.647479248046875
9.969,-6.611590576171875,0.01375732421875,6.25120849609375
9.979,-6.764117431640625,-0.647491455078125,6.984832763671876
9.988999999999995,-7.346560668945313,-0.72674560546875,7.757336425781251
9.999000000000002,-6.940719604492188,-0.514404296875,7.165621948242188
10.009,-6.667218017578126,-0.5803497314453125,6.037222290039063
10.018999999999998,-6.682919311523438,-0.33436279296875,6.948944091796876
10.029000000000003,-6.926364135742188,0.2576507568359375,7.953826904296876
10.039,-6.842922973632813,0.6518280029296876,7.846759033203125
10.049,-6.571963500976563,0.6706695556640625,6.409567260742188
10.058999999999996,-6.951187133789063,0.5549285888671875,6.068475341796876
10.069000000000004,-7.569070434570313,0.5535827636718751,6.919635009765625
10.079,-7.464544677734375,0.30325927734375,6.947598266601563
10.089,-6.868942260742188,-0.136376953125,6.280966186523438
10.099000000000004,-6.517681884765626,-0.3946258544921875,6.549234008789063
10.109000000000002,-6.708489990234376,-0.3303253173828125,7.867843627929688
10.119,-6.731069946289063,-0.2426971435546875,8.211178588867188
10.128999999999998,-6.591253662109375,-0.2893524169921875,7.0584045410156255
10.139000000000005,-6.666619873046876,-0.073272705078125,6.280218505859375
10.149,-7.146331787109376,0.2220611572265625,6.8236328125000005
10.159,-7.453030395507813,0.3967193603515625,7.144537353515625
10.169000000000004,-7.041506958007813,0.405242919921875,6.792529296875
10.179000000000002,-6.640151977539063,0.3826629638671875,6.225787353515625
10.189,-6.8702880859375,0.410028076171875,6.973468017578125
10.198999999999998,-7.066030883789063,0.26617431640625,7.510751342773438
10.209000000000003,-6.5275512695312505,-0.0538330078125,7.434936523437501
10.219,-6.350051879882813,-0.2824737548828125,6.696975708007813
10.229,-7.153958129882813,-0.3279327392578125,6.9103637695312505
10.238999999999995,-7.540359497070313,-0.0811981201171875,6.987225341796876
10.249000000000002,-7.327270507812501,0.1021331787109375,6.997393798828125
10.259,-6.482540893554688,-0.1158905029296875,6.190347290039063
10.268,-6.3319580078125,-0.215631103515625,7.343121337890626
10.279000000000003,-6.855783081054688,0.1990325927734375,8.243179321289062
10.288000000000004,-7.560995483398438,0.7173248291015626,7.034030151367188
10.299,-6.804193115234376,0.6189300537109376,6.246273803710938
10.308,-6.2210021972656255,-0.0919647216796875,5.971127319335938
10.317999999999998,-7.374374389648438,-0.6148925781250001,8.02052001953125
10.328000000000005,-7.226333618164063,-0.0442626953125,7.617221069335938
10.338,-7.007412719726563,0.1200775146484375,6.532485961914063
10.348,-6.375772094726563,-0.090618896484375,5.641998291015625
10.358000000000004,-6.802398681640626,-0.331072998046875,7.453329467773438
10.368000000000002,-7.086517333984376,0.1090118408203125,8.802294921875001
10.378,-6.825875854492188,0.4773193359375,7.102517700195313
10.387999999999998,-6.864157104492188,0.363372802734375,5.317355346679688
10.398000000000003,-6.857727050781251,0.34154052734375,6.1925903320312505
10.408,-7.726083374023438,0.1351806640625,7.696624755859376
10.418,-7.050479125976563,0.2941375732421875,7.600921630859376
10.427999999999995,-6.3929687500000005,-0.1030303955078125,6.260479736328126
10.438000000000002,-6.368295288085938,-0.24464111328125,6.558804321289063
10.448,-6.991412353515625,-0.2313323974609375,8.164373779296875
10.457999999999998,-7.229473876953126,-0.2069580078125,7.821038818359375
10.468000000000004,-6.647329711914063,-0.0494964599609375,6.470877075195313
10.478000000000002,-6.7721923828125,0.035589599609375,5.5126495361328125
10.488,-7.065283203125,0.299371337890625,7.385888671875
10.497999999999998,-7.321139526367188,0.341241455078125,7.830908203125
10.508000000000004,-6.840829467773438,0.3742889404296875,6.899746704101563
10.518,-6.487924194335938,0.4478607177734375,6.022418212890625
10.528,-6.885540771484376,0.2023223876953125,6.984982299804688
10.538000000000004,-7.083078002929688,-0.078656005859375,8.015884399414062
10.548000000000002,-6.953729248046876,-0.4182525634765625,7.258483886718751
10.558,-6.693087768554688,-0.2905487060546875,6.101821899414063
10.567999999999998,-6.956121826171875,-0.0749176025390625,6.381304931640625
10.578000000000005,-6.980496215820313,0.08314208984375,7.31351318359375
10.588,-6.917092895507813,0.2977264404296875,7.511050415039063
10.598,-7.095938110351563,0.454888916015625,6.505419921875
10.608000000000004,-6.494503784179688,1.0172943115234376,6.457418823242188
10.618000000000002,-7.476208496093751,0.5450592041015625,7.474862670898438
10.628,-6.621908569335938,-0.3111846923828125,7.851992797851563
10.637999999999998,-6.309078979492188,-0.9749755859375,6.959112548828125
10.648000000000003,-6.923822021484376,-0.846075439453125,6.696826171875
10.658,-7.239044189453126,-0.21353759765625,6.833203125000001
10.668,-7.42117919921875,-0.14056396484375,7.03477783203125
10.677999999999995,-6.424520874023438,-0.1399658203125,6.913504028320313
10.688000000000002,-6.707144165039063,0.3004180908203125,6.7363037109375
10.698,-6.994253540039063,1.161297607421875,7.619015502929688
10.707999999999998,-7.289437866210938,1.196588134765625,6.867446899414063
10.718000000000004,-6.7697998046875005,0.45877685546875,6.603067016601563
10.728000000000002,-6.686956787109375,-0.18602294921875,6.5843750000000005
10.738,-7.108200073242188,-0.3976165771484375,7.36435546875
10.747999999999998,-6.901690673828125,-0.5307037353515626,7.550228881835938
10.756999999999998,-6.773687744140625,-0.9203948974609376,6.662432861328125
10.768,-6.6352172851562505,-0.8051025390625001,6.943112182617188
10.777,-6.925915527343751,-0.1604522705078125,7.144088745117188
10.787,-6.905728149414063,0.4236358642578125,7.7914306640625
10.798000000000002,-6.649871826171876,0.586181640625,6.802398681640626
10.807000000000002,-6.831857299804688,0.6590057373046876,6.538766479492188
10.817,-7.320391845703125,0.9613677978515626,6.738546752929688
10.828000000000005,-7.473965454101563,0.8260375976562501,6.695330810546875
10.837000000000003,-7.026852416992188,0.26019287109375,6.392520141601563
10.847,-6.702957153320313,-0.3793731689453125,6.578692626953125
10.857,-6.726583862304688,-0.5292083740234376,7.629034423828125
10.866999999999996,-6.798959350585938,-0.4103271484375,7.759429931640626
10.877000000000002,-6.600823974609376,-0.5208343505859375,7.243231201171875
10.887,-6.573458862304688,-0.38939208984375,6.598281860351563
10.896999999999998,-6.985879516601563,-0.060711669921875,7.23515625
10.907000000000004,-7.267306518554688,0.4852447509765625,7.054067993164063
10.917000000000002,-7.124649047851563,0.60950927734375,6.841427612304688
10.927,-6.709536743164063,0.5647979736328126,6.12918701171875
10.936999999999998,-6.898251342773438,0.4634124755859375,7.008609008789063
10.947000000000005,-7.16337890625,0.3895416259765625,7.303793334960938
10.957,-6.801651000976563,0.207855224609375,7.178781127929688
10.967,-6.3893798828125,-0.2286407470703125,6.607254028320313
10.977000000000004,-6.941317749023438,-0.3542510986328125,6.762472534179688
10.987000000000002,-7.497293090820313,-0.2787353515625,7.406375122070313
10.997,-7.265213012695313,0.1876678466796875,6.753948974609376
11.006999999999998,-6.554318237304688,0.0076263427734375,7.049432373046876
11.017000000000005,-6.130831909179688,-0.4741790771484375,6.723892211914063
11.027,-6.854736328125001,-0.216827392578125,8.237347412109376
11.037,-7.380505371093751,0.497357177734375,7.469778442382813
11.047000000000004,-7.224838256835938,0.7556060791015625,5.948248291015625
11.057000000000002,-6.344818115234376,0.040972900390625,6.036474609375
11.067,-6.928607177734375,-0.402252197265625,7.113583374023438
11.076999999999998,-7.420730590820313,0.0372344970703125,8.503521728515626
11.087000000000003,-6.909017944335938,0.464459228515625,6.582131958007813
11.097,-6.49644775390625,0.048150634765625,5.9089202880859375
11.107,-6.643142700195313,-0.404644775390625,6.948046875
11.116999999999996,-7.148574829101563,-0.149237060546875,8.324826049804688
11.127000000000002,-7.078292846679688,0.19678955078125,7.859619140625001
11.137,-6.781463623046876,0.2029205322265625,5.1637817382812505
11.146999999999998,-6.723144531250001,0.0910675048828125,6.250012207031251
11.157000000000004,-7.323382568359375,0.1951446533203125,7.509555053710938
11.167000000000002,-7.290036010742188,0.2811279296875,8.165420532226562
11.177,-6.352444458007813,0.2403045654296875,6.474017333984375
11.186999999999998,-6.5544677734375005,0.00777587890625,5.941818237304688
11.197000000000005,-7.048385620117188,-0.01973876953125,7.625296020507813
11.207,-7.2632690429687505,-0.099591064453125,7.880554199218751
11.216,-6.916793823242188,-0.1987335205078125,6.839932250976563
11.227000000000004,-6.629833984375001,-0.002093505859375,5.504275512695313
11.237000000000002,-6.945504760742188,0.112152099609375,7.065432739257813
11.246000000000002,-7.1095458984375,0.1951446533203125,8.0402587890625
11.256,-6.8942138671875,0.08134765625,7.355682373046876
11.265999999999998,-6.5066162109375005,0.2776885986328125,6.251358032226563
11.276000000000003,-6.879110717773438,0.3156707763671875,6.546990966796876
11.286,-7.25968017578125,0.1221710205078125,7.530191040039063
11.296,-7.066030883789063,-0.0976470947265625,7.291531372070313
11.305999999999996,-6.756491088867188,-0.1260589599609375,6.392819213867188
11.316000000000004,-6.743481445312501,0.1416107177734375,6.320443725585938
11.326,-6.878662109375001,0.18243408203125,7.256689453125
11.336,-7.125845336914063,0.151031494140625,7.488021850585938
11.346000000000004,-7.038217163085938,0.2980255126953125,6.775332641601563
11.356000000000002,-6.780267333984376,0.6211730957031251,6.3241821289062505
11.366,-7.297363281250001,0.180340576171875,7.54918212890625
11.375999999999998,-6.234310913085938,-0.6283508300781251,7.556958007812501
11.386000000000005,-6.553570556640626,-0.8825622558593751,7.181173706054688
11.396,-7.17833251953125,-0.32479248046875,7.059002685546876
11.406,-7.194631958007813,0.4009063720703125,6.354837036132813
11.416000000000004,-7.121359252929688,0.05263671875,6.926364135742188
11.426000000000002,-6.528448486328125,-0.1478912353515625,6.627142333984375
11.436,-6.952084350585938,0.4092803955078125,7.634866333007813
11.445999999999998,-7.058105468750001,1.02821044921875,7.205697631835938
11.456000000000005,-6.832455444335938,0.6449493408203125,6.693685913085938
11.466,-6.725088500976563,-0.288604736328125,6.717910766601563
11.476,-6.823333740234376,-0.430963134765625,7.123303222656251
11.486000000000004,-7.225735473632813,-0.2423980712890625,7.711578369140626
11.496000000000002,-6.790286254882813,-0.3180633544921875,6.465493774414063
11.506,-6.736154174804688,-0.648687744140625,6.643142700195313
11.515999999999998,-6.832455444335938,-0.2723052978515625,7.164126586914063
11.526000000000003,-6.996347045898438,0.3626251220703125,7.838684082031251
11.536,-6.79910888671875,0.581695556640625,6.99051513671875
11.546,-6.552972412109376,0.4438232421875,6.375173950195313
11.555999999999996,-7.0916015625,0.4018035888671875,6.866400146484375
11.566000000000004,-7.436880493164063,0.5706298828125,7.083825683593751
11.576,-7.207492065429688,0.326885986328125,6.639852905273438
11.586,-6.702957153320313,-0.08134765625,6.085971069335938
11.596000000000004,-6.798809814453126,-0.3509613037109375,7.114181518554688
11.606000000000002,-6.809725952148438,-0.2507720947265625,7.929153442382813
11.616,-6.691293334960938,-0.160601806640625,7.600173950195313
11.625999999999998,-6.576898193359376,-0.2118927001953125,6.666021728515625
11.636000000000005,-6.849801635742188,-0.068487548828125,6.617871093750001
11.646,-7.23515625,0.211444091796875,7.290484619140625
11.656,-7.185958862304688,0.37503662109375,6.988421630859375
11.666000000000004,-6.828268432617188,0.286810302734375,6.466690063476563
11.675000000000004,-6.732565307617188,0.314324951171875,6.480596923828125
11.686,-7.02042236328125,0.3695037841796875,7.275531005859375
11.695999999999998,-6.823483276367188,0.2334259033203125,7.54320068359375
11.704999999999998,-6.499588012695313,0.07117919921875,6.729574584960938
11.715000000000003,-7.055563354492188,-0.151629638671875,6.658245849609376
11.726,-7.246670532226563,0.0213836669921875,6.900494384765626
11.736000000000004,-7.584472656250001,0.0459075927734375,7.293026733398438
11.744999999999996,-6.232067871093751,-0.3313720703125,6.710284423828125
11.755000000000004,-6.317901611328126,-0.6781463623046875,7.07425537109375
11.765,-6.816903686523438,-0.1819854736328125,7.953378295898438
11.775,-7.667764282226563,0.6747070312500001,6.964495849609375
11.785000000000004,-6.993356323242188,0.69205322265625,6.654058837890625
11.795000000000002,-6.030642700195313,0.0599639892578125,5.813665771484375
11.805,-7.257736206054688,-0.3437835693359375,7.725485229492188
11.814999999999998,-7.306036376953125,0.4080841064453125,8.003771972656251
11.825000000000005,-7.194033813476563,0.499749755859375,6.333752441406251
11.835,-6.377865600585938,-0.1446014404296875,5.750411987304688
11.845,-6.611441040039063,-0.5625549316406251,7.055264282226563
11.855000000000004,-7.205398559570313,-0.267071533203125,9.007907104492189
11.865000000000002,-6.887933349609376,0.186920166015625,7.446450805664063
11.875,-6.7518554687500005,0.0189910888671875,5.297467041015626
11.884999999999998,-6.700115966796876,0.1547698974609375,6.164776611328126
11.895000000000003,-7.655203247070313,0.27574462890625,7.677932739257813
11.905,-7.167266845703126,0.4990020751953125,7.996295166015625
11.915,-6.276031494140626,0.248828125,6.127542114257813
11.925000000000004,-6.45218505859375,-0.0378326416015625,6.111392211914063
11.935000000000002,-7.173397827148438,0.051739501953125,7.975808715820313
11.945,-7.378262329101563,-0.1000396728515625,7.847506713867188
11.954999999999998,-6.705648803710938,-0.114544677734375,6.466690063476563
11.965000000000003,-6.644488525390625,-0.2403045654296875,5.541510009765625
11.975,-6.919635009765625,0.012860107421875,7.353738403320313
11.985,-7.211380004882813,0.232379150390625,8.258132934570312
11.994999999999996,-6.826174926757813,0.2141357421875,7.0234130859375
12.005000000000004,-6.559402465820313,0.3452789306640625,5.905331420898438
12.015,-6.846661376953126,0.2787353515625,6.7593322753906255
12.025,-7.091003417968751,0.09271240234375,7.989117431640626
12.035000000000004,-7.03477783203125,-0.2516693115234375,7.370635986328126
12.045000000000002,-6.800753784179688,-0.1018341064453125,5.814114379882813
12.055,-6.775332641601563,0.295184326171875,6.148626708984375
12.064999999999998,-7.396057128906251,0.4053924560546875,6.950439453125001
12.075000000000005,-7.142742919921876,0.3698028564453125,7.752401733398438
12.085,-6.342276000976563,0.4894317626953125,6.824081420898438
12.095,-7.0210205078125005,0.4098785400390625,7.455572509765625
12.105000000000004,-6.949691772460938,-0.3234466552734375,7.361065673828126
12.115000000000002,-6.261227416992188,-1.0017425537109377,6.8140625
12.125,-7.117172241210938,-1.0972961425781251,7.250558471679688
12.134999999999998,-7.084573364257813,-0.2633331298828125,6.571365356445313
12.145000000000003,-7.315307617187501,0.2412017822265625,6.945654296875
12.155,-6.442166137695313,0.1638916015625,6.965243530273438
12.165,-6.772042846679688,0.2917449951171875,7.122854614257813
12.175000000000004,-6.976757812500001,1.134381103515625,7.3703369140625
12.183999999999996,-7.263867187500001,1.29976806640625,6.745126342773438
12.195,-6.890176391601563,0.452496337890625,6.580487060546876
12.204,-6.594094848632813,-0.5235260009765625,6.6112915039062505
12.214,-7.1071533203125,-0.7119415283203125,7.468283081054688
12.226,-6.886587524414063,-0.5525360107421875,7.860665893554688
12.234000000000002,-6.633273315429688,-0.9008056640625,6.546841430664063
12.244,-6.663778686523438,-0.9144134521484376,6.839184570312501
12.253999999999998,-6.920681762695313,-0.106768798828125,7.162033081054688
12.264000000000005,-7.099078369140625,0.7813262939453126,7.665670776367188
12.274,-6.839932250976563,1.0488464355468752,6.548934936523438
12.284,-6.772790527343751,0.852056884765625,6.319696044921876
12.294000000000004,-7.012496948242188,0.88345947265625,7.034628295898438
12.304000000000002,-7.425665283203125,0.6591552734375,7.176239013671876
12.314,-7.023562622070313,0.0275146484375,6.706845092773438
12.326,-6.543103027343751,-0.7215118408203125,6.206198120117188
12.334000000000003,-6.740939331054688,-1.0300048828125,7.4157958984375005
12.344,-6.856530761718751,-0.7053619384765626,8.025454711914064
12.354,-6.7662109375,-0.4939178466796875,7.479049682617188
12.363999999999995,-6.534579467773438,-0.1303955078125,6.41868896484375
12.374000000000002,-6.91275634765625,0.3600830078125,6.737799072265625
12.384,-7.292279052734376,0.9064880371093752,7.25369873046875
12.393999999999998,-7.366748046875,1.0343414306640626,6.913952636718751
12.404000000000003,-6.791781616210938,0.7998687744140626,6.040213012695313
12.414,-6.85533447265625,0.4652069091796875,6.372930908203125
12.426000000000002,-7.101620483398438,0.0118133544921875,7.570864868164063
12.433999999999996,-6.711181640625001,-0.3584381103515625,7.510003662109375
12.444000000000004,-6.371286010742188,-0.7662231445312501,7.010104370117188
12.454,-6.736154174804688,-0.6198272705078125,6.564038085937501
12.464,-7.249511718750001,-0.2420989990234375,7.319793701171876
12.474000000000004,-7.466189575195313,0.188116455078125,7.17294921875
12.484000000000002,-6.988272094726563,0.3835601806640625,6.923522949218751
12.494,-6.245526123046876,0.184228515625,6.145635986328125
12.503999999999998,-6.720153808593751,0.3479705810546875,7.533480834960938
12.514000000000005,-7.41519775390625,0.5945556640625,7.79561767578125
12.526000000000003,-7.258035278320313,0.7304840087890625,6.415249633789063
12.534,-6.392221069335938,0.0049346923828125,6.397903442382813
12.544000000000004,-6.524710083007813,-0.8399444580078126,6.808529663085938
12.554000000000002,-7.259231567382813,-0.78775634765625,8.563336181640626
12.564,-7.123452758789063,-0.2165283203125,7.081283569335938
12.573999999999998,-6.679928588867188,0.0094207763671875,5.850601196289063
12.584000000000003,-6.7123779296875,-0.107666015625,6.449942016601563
12.594,-6.90916748046875,0.266473388671875,7.762869262695313
12.604,-7.144836425781251,0.6928009033203125,8.31121826171875
12.613,-6.866549682617188,0.7846160888671876,6.099578857421875
12.625,-6.7234436035156255,0.557769775390625,5.64468994140625
12.634,-7.329962158203125,0.18662109375,6.8702880859375
12.643999999999998,-7.267306518554688,-0.161199951171875,8.052969360351563
12.653,-6.642395019531251,-0.3790740966796875,7.0916015625
12.663000000000004,-6.398501586914063,-0.6078643798828125,6.225637817382813
12.673000000000002,-6.684115600585938,-0.4125701904296875,7.207492065429688
12.683,-7.08621826171875,-0.203070068359375,8.102914428710939
12.692999999999998,-7.024310302734375,0.0877777099609375,7.213024902343751
12.703000000000005,-6.785202026367188,0.3742889404296875,5.982791137695313
12.713,-6.814212036132813,0.5659942626953125,6.288143920898438
12.723,-7.141098022460938,0.5873779296875,7.524508666992188
12.733000000000004,-7.087863159179688,0.3313720703125,7.517181396484376
12.743000000000002,-6.769650268554688,0.1792938232421875,6.493307495117188
12.753,-6.750808715820313,0.0901702880859375,6.156103515625
12.762999999999998,-7.193136596679688,-0.1272552490234375,7.175341796875
12.773000000000003,-6.911859130859376,-0.4164581298828125,7.895507812500001
12.783,-6.601870727539063,-0.5030395507812501,7.0344787597656255
12.793,-6.626992797851563,-0.190509033203125,6.6591430664062505
12.802999999999995,-6.958364868164063,0.228790283203125,6.731967163085938
12.813000000000002,-7.064535522460938,0.403448486328125,7.356878662109375
12.823,-6.916793823242188,0.4930206298828125,6.7997070312500005
12.832999999999998,-7.107601928710938,0.6072662353515625,6.239096069335938
12.843000000000004,-7.066180419921875,0.8212524414062501,6.481195068359376
12.853000000000002,-7.008908081054688,0.5884246826171875,7.436431884765626
12.863,-7.059451293945313,-0.3937286376953125,7.9660888671875005
12.872999999999998,-5.818600463867188,-1.081146240234375,7.139303588867188
12.883000000000004,-6.558654785156251,-1.0986419677734376,6.98692626953125
12.893,-7.484881591796875,-0.5688354492187501,7.258184814453125
12.903,-7.379159545898438,0.014056396484375,6.5754028320312505
12.913000000000004,-6.995150756835938,0.162396240234375,6.560000610351563
12.923000000000002,-6.483139038085938,0.485693359375,6.378912353515625
12.933,-6.971075439453125,1.0219299316406252,7.745373535156251
12.942999999999998,-7.137210083007813,1.29019775390625,7.560098266601563
12.953000000000005,-6.798809814453126,0.7609893798828126,6.627890014648438
12.963,-6.695629882812501,-0.1350311279296875,6.374276733398438
12.973,-6.911410522460938,-0.7286895751953125,7.060198974609375
12.983000000000004,-7.259829711914063,-0.8797210693359375,7.675390625
12.993000000000002,-6.817501831054688,-0.84876708984375,6.761126708984375
13.003,-6.644787597656251,-0.748876953125,6.5173828125
13.012999999999998,-6.711630249023438,-0.1739105224609375,7.243679809570313
13.023000000000003,-6.811968994140625,0.4687957763671875,7.947695922851563
13.033,-6.771444702148438,0.7965789794921876,7.426712036132813
13.043,-6.732415771484376,0.8377014160156251,6.274536132812501
13.052999999999995,-7.153060913085938,0.7986724853515625,6.366500854492188
13.061999999999998,-7.584173583984375,0.6141448974609376,6.7147705078125
13.072000000000005,-7.324728393554688,0.13218994140625,6.7099853515625005
13.082999999999998,-6.77159423828125,-0.309539794921875,6.341229248046876
13.093000000000004,-6.5873657226562505,-0.49945068359375,7.057656860351563
13.102000000000004,-6.778472900390626,-0.391485595703125,7.9421630859375005
13.112000000000002,-6.564187622070313,-0.376531982421875,7.887432861328126
13.122,-6.409417724609376,-0.301165771484375,7.018927001953125
13.133000000000004,-6.859671020507813,-0.0363372802734375,6.744827270507813
13.142000000000005,-7.259231567382813,0.3267364501953125,6.82901611328125
13.152,-7.344317626953125,0.548199462890625,6.7279296875000005
13.162,-7.096835327148438,0.493768310546875,6.375173950195313
13.172000000000004,-6.811221313476563,0.4629638671875,6.52635498046875
13.182000000000002,-6.884793090820313,0.4035980224609375,7.235455322265626
13.192,-6.848605346679688,0.197088623046875,7.470077514648438
13.201999999999998,-6.3259765625,-0.0689361572265625,7.173696899414063
13.212000000000003,-6.875222778320313,-0.2761932373046875,6.769052124023438
13.222,-7.105957031250001,-0.337353515625,7.240390014648438
13.232,-7.540957641601563,-0.282025146484375,6.843521118164063
13.241999999999996,-6.783856201171876,-0.179443359375,6.8834472656250005
13.252000000000002,-6.340780639648438,-0.34991455078125,6.341378784179688
13.262,-6.854287719726563,-0.0695343017578125,7.716064453125001
13.271999999999998,-6.954177856445313,0.6386688232421875,7.917190551757813
13.282000000000004,-7.3679443359375005,0.9209930419921876,6.444708251953125
13.292000000000002,-6.41629638671875,0.52935791015625,6.402539062500001
13.302,-6.709536743164063,-0.224005126953125,6.7279296875000005
13.311999999999998,-7.3703369140625,-0.2681182861328125,8.069418334960938
13.322000000000005,-7.27164306640625,0.00777587890625,6.710433959960938
13.332,-6.836492919921875,-0.043365478515625,5.862863159179688
13.342,-6.51439208984375,-0.40673828125,6.890176391601563
13.352000000000004,-6.693984985351563,-0.38939208984375,7.993753051757813
13.362000000000002,-6.913504028320313,0.0049346923828125,8.641693115234375
13.372,-6.824081420898438,0.4038970947265625,5.954977416992188
13.381999999999998,-6.8044921875,0.47193603515625,5.929855346679688
13.392000000000005,-7.30693359375,0.352008056640625,6.589608764648438
13.402,-7.453628540039063,0.26258544921875,7.8967041015625
13.412,-6.736602783203126,0.3503631591796875,6.843222045898438
13.422000000000004,-6.663031005859375,0.1260589599609375,5.980548095703125
13.432000000000002,-6.657498168945313,0.0130096435546875,7.154705810546876
13.442,-7.0856201171875,-0.248529052734375,7.950537109375
13.451999999999998,-6.870138549804688,-0.34931640625,7.661184692382813
13.462000000000003,-6.540411376953125,-0.202471923828125,6.306686401367188
13.472,-6.875073242187501,-0.1399658203125,6.4515869140625
13.482,-7.083377075195313,0.0490478515625,7.336990356445313
13.491999999999996,-7.117919921875001,0.1419097900390625,7.4890686035156255
13.502000000000002,-6.8744750976562505,0.4891326904296875,6.500784301757813
13.512,-6.84097900390625,0.6087615966796875,6.271994018554688
13.521999999999998,-6.941616821289063,0.49705810546875,7.083825683593751
13.532000000000004,-6.934738159179688,0.05921630859375,7.887881469726563
13.542000000000002,-6.799258422851563,-0.2011260986328125,6.970925903320313
13.552,-6.8200439453125,-0.1152923583984375,6.473419189453126
13.561,-7.024758911132813,-0.1565643310546875,6.418240356445313
13.570999999999998,-7.071862792968751,-0.121722412109375,7.155603027343751
13.581000000000005,-6.825576782226563,0.0782073974609375,7.078143310546875
13.591,-7.069470214843751,0.3994110107421875,6.735556030273438
13.601,-6.422726440429688,0.8208038330078126,6.975711059570313
13.611000000000004,-7.278073120117188,0.4882354736328125,7.642343139648438
13.621000000000002,-7.0473388671875,-0.2426971435546875,7.701708984375
13.631,-6.159542846679688,-0.7188201904296876,6.366650390625001
13.640999999999998,-6.978402709960938,-0.7895507812500001,6.750360107421876
13.651000000000003,-7.317999267578125,-0.3297271728515625,6.969580078125
13.661,-7.304092407226563,-0.0342437744140625,7.250259399414063
13.671,-6.383099365234376,0.0179443359375,7.067974853515626
13.680999999999996,-6.479251098632813,0.2148834228515625,6.44560546875
13.691000000000004,-6.993804931640626,0.9194976806640626,7.778720092773438
13.701,-7.495947265625,1.1182312011718751,7.080535888671876
13.711,-6.912905883789063,0.5984436035156251,6.436035156250001
13.721000000000004,-6.628338623046876,-0.145648193359375,6.088214111328125
13.731000000000002,-6.965393066406251,-0.4894317626953125,7.283157348632813
13.741,-6.9701782226562505,-0.5411712646484376,8.4111083984375
13.750999999999998,-6.619964599609376,-0.8375518798828125,6.722994995117188
13.761000000000005,-6.627590942382813,-0.8200561523437501,6.629983520507813
13.771,-6.943112182617188,-0.1861724853515625,6.799856567382813
13.781,-7.166519165039063,0.417803955078125,7.858123779296876
13.791000000000004,-6.860119628906251,0.6959411621093751,6.822586059570313
13.801000000000002,-6.660339355468751,0.75784912109375,6.352294921875001
13.811,-7.095639038085938,0.99830322265625,6.6549560546875
13.820999999999998,-7.403384399414063,0.8568420410156251,7.198818969726563
13.831000000000005,-6.9372802734375005,0.1810882568359375,6.914700317382813
13.841,-6.529495239257813,-0.5655456542968751,6.596188354492188
13.851,-6.83140869140625,-0.8895904541015626,7.22139892578125
13.861000000000004,-6.922625732421875,-0.6222198486328125,7.4905639648437505
13.871000000000002,-6.833352661132813,-0.5319000244140626,7.36375732421875
13.881,-6.651367187500001,-0.292791748046875,6.627291870117188
13.890999999999998,-6.7593322753906255,0.2428466796875,6.897354125976563
13.901000000000003,-7.115676879882813,0.8169158935546875,7.199566650390626
13.911,-7.158892822265625,1.05452880859375,6.990066528320313
13.921,-7.0712646484375,0.7953826904296876,6.277526855468751
13.930999999999996,-6.794921875000001,0.49227294921875,6.501083374023438
13.941000000000004,-7.018627929687501,0.03050537109375,7.167864990234375
13.951,-6.8385864257812505,-0.38101806640625,7.347756958007813
13.961,-6.463101196289063,-0.5538818359375001,6.9635986328125
13.971000000000004,-6.966439819335938,-0.5414703369140625,6.870437622070313
13.981000000000002,-6.853988647460938,-0.2201171875,7.350299072265625
13.991,-7.498638916015626,-0.017645263671875,7.2387451171875
14.0,-6.477755737304688,0.1625457763671875,6.804043579101563
14.009999999999998,-6.670059204101563,0.1529754638671875,6.578692626953125
14.020000000000003,-6.985430908203125,0.4134674072265625,7.356878662109375
14.031,-7.2871948242187505,0.7482788085937501,7.0464416503906255
14.041000000000004,-7.195230102539063,0.5299560546875001,6.917391967773438
14.050000000000004,-6.175692749023438,0.02332763671875,6.324481201171875
14.060000000000002,-7.030590820312501,-0.6271545410156251,7.406524658203126
14.07,-6.928308105468751,-0.3856536865234375,7.981341552734375
14.079999999999998,-7.224838256835938,-0.183929443359375,6.567776489257813
14.090000000000003,-6.723892211914063,-0.1724151611328125,6.230422973632813
14.1,-6.667666625976563,-0.130096435546875,6.730172729492188
14.11,-7.063189697265625,0.1232177734375,8.081530761718751
14.119999999999996,-6.798062133789063,0.5621063232421876,7.540509033203126
14.130000000000004,-6.868493652343751,0.5007965087890626,6.213973999023438
14.14,-6.716714477539063,0.482403564453125,6.333602905273438
14.15,-7.469329833984376,0.188714599609375,6.907223510742188
14.160000000000004,-7.188052368164063,0.0889739990234375,7.635314941406251
14.170000000000002,-6.614431762695313,-0.131591796875,6.529495239257813
14.18,-6.660339355468751,-0.328082275390625,6.530990600585938
14.189999999999998,-6.802099609375,-0.179443359375,7.47501220703125
14.200000000000005,-7.111938476562501,-0.174957275390625,7.727429199218751
14.21,-6.689050292968751,0.0381317138671875,7.067974853515626
14.22,-6.666021728515625,0.103179931640625,6.209786987304688
14.230000000000004,-6.983337402343751,0.1843780517578125,7.146182250976563
14.240000000000002,-7.102816772460938,0.3031097412109375,7.305886840820313
14.25,-7.037319946289063,0.211444091796875,6.989617919921876
14.259999999999998,-6.8044921875,0.36546630859375,6.246124267578126
14.270000000000003,-6.980047607421875,0.188714599609375,6.700564575195313
14.28,-6.960009765625,0.1051239013671875,7.415048217773438
14.29,-6.8774658203125005,-0.16329345703125,7.522564697265626
14.300000000000004,-6.711181640625001,-0.1927520751953125,6.68546142578125
14.310000000000002,-6.712976074218751,-0.053533935546875,6.827969360351563
14.32,-7.011300659179688,-0.0979461669921875,6.993655395507813
14.329999999999998,-7.087564086914063,0.0237762451171875,7.233660888671875
14.340000000000003,-6.757388305664063,0.2459869384765625,6.667816162109376
14.35,-6.887335205078125,0.6029296875000001,6.343023681640625
14.36,-7.255941772460938,0.5467041015625,7.115975952148438
14.369999999999996,-6.868792724609375,0.5072265625000001,7.144686889648438
14.380000000000004,-7.119863891601563,0.0729736328125,7.768701171875
14.39,-6.242086791992188,-0.5238250732421875,6.732266235351563
14.4,-6.427362060546876,-0.8840576171875001,7.140200805664063
14.410000000000004,-7.379757690429688,-0.7599426269531251,7.322784423828126
14.420000000000002,-7.338485717773438,-0.0088226318359375,6.772790527343751
14.43,-6.969131469726563,0.213238525390625,6.5472900390625
14.439999999999998,-6.40672607421875,0.1628448486328125,6.411959838867188
14.450000000000005,-6.898550415039063,0.461767578125,7.713223266601563
14.46,-7.248764038085938,1.1025299072265626,7.714868164062499
14.47,-6.962402343750001,1.014752197265625,6.546093750000001
14.480000000000004,-6.609197998046875,0.1111053466796875,6.021969604492188
14.490000000000002,-6.886737060546875,-0.551190185546875,7.017880249023438
14.499000000000002,-7.227230834960938,-0.6081634521484376,7.969528198242188
14.509,-6.887783813476563,-0.5310028076171875,7.201361083984375
14.518999999999998,-6.481045532226563,-0.6823333740234375,6.281414794921876
14.529000000000003,-6.743182373046875,-0.5061798095703125,6.885989379882813
14.539,-7.058554077148438,0.1538726806640625,7.99779052734375
14.549,-6.807931518554688,0.6410614013671876,7.518676757812501
14.558999999999996,-6.705947875976563,0.7092498779296875,6.194384765625
14.569000000000004,-6.897952270507813,0.6933990478515626,6.321789550781251
14.579,-7.431198120117188,0.6877166748046876,7.070816040039063
14.589,-7.371682739257813,0.4080841064453125,7.146481323242188
14.599000000000004,-6.772042846679688,-0.0898712158203125,6.196926879882813
14.609000000000002,-6.589309692382813,-0.48629150390625,6.610693359375
14.619,-6.755892944335938,-0.508123779296875,7.787542724609375
14.628999999999998,-6.852642822265626,-0.404644775390625,8.049829101562501
14.639000000000005,-6.6232543945312505,-0.3303253173828125,7.011001586914063
14.649,-6.660189819335938,-0.0255706787109375,6.172253417968751
14.659,-7.080685424804688,0.3476715087890625,6.954177856445313
14.669000000000004,-7.373477172851563,0.5848358154296875,7.257138061523438
14.679000000000002,-7.051974487304688,0.5558258056640626,6.847857666015625
14.689,-6.641796875000001,0.4701416015625,6.231320190429688
14.698999999999998,-6.853240966796876,0.2986236572265625,6.933392333984376
14.709000000000003,-7.019973754882813,0.0390289306640625,7.592846679687501
14.719,-6.896307373046875,-0.228192138671875,7.243081665039063
14.729,-6.522018432617188,-0.4245330810546875,6.588711547851563
14.738999999999995,-6.642395019531251,-0.2866607666015625,6.616375732421876
14.749000000000002,-7.274783325195313,-0.0861328125,7.349102783203126
14.759,-7.206744384765625,0.266473388671875,7.123153686523438
14.768999999999998,-7.358673095703126,0.6298461914062501,6.559552001953126
14.779000000000003,-6.562094116210938,0.46954345703125,6.725088500976563
14.789,-6.257040405273438,-0.0611602783203125,7.283157348632813
14.799,-6.944906616210938,-0.3551483154296875,7.9900146484375005
14.808999999999996,-7.152761840820313,0.0916656494140625,7.133172607421876
14.819000000000004,-7.335494995117188,0.26138916015625,6.004025268554688
14.829,-6.398651123046876,-0.2983245849609375,6.464895629882813
14.839,-6.939373779296876,-0.8103363037109376,7.219006347656251
14.849000000000004,-7.002926635742188,-0.145947265625,8.203851318359376
14.859000000000002,-6.960159301757813,0.696240234375,6.8200439453125
14.869,-6.699218750000001,0.482403564453125,6.280068969726563
14.878999999999998,-6.659741210937501,0.0435150146484375,6.720452880859376
14.889000000000005,-7.158294677734376,0.06519775390625,7.837637329101563
14.899,-7.185360717773438,0.437841796875,7.50791015625
14.909,-6.933990478515626,0.280828857421875,5.69254150390625
14.919000000000004,-6.648825073242188,-0.1661346435546875,6.3361450195312505
14.929000000000002,-7.146182250976563,-0.31103515625,7.470376586914063
14.939,-7.073956298828126,-0.1160400390625,8.194729614257813
14.948999999999998,-6.449942016601563,0.002392578125,6.816754150390626
14.957999999999998,-6.518878173828125,-0.1973876953125,6.181674194335938
14.969,-6.925915527343751,-0.012261962890625,7.403683471679688
14.978000000000002,-7.401739501953125,0.185125732421875,7.711578369140626
14.988,-7.090554809570313,0.4182525634765625,6.619815063476563
14.997999999999998,-6.732266235351563,0.423187255859375,5.58128662109375
15.008000000000004,-6.938177490234375,0.3111846923828125,6.837539672851563
15.018,-7.134368896484376,0.2708099365234375,7.977603149414063
15.028,-6.861764526367188,0.0602630615234375,7.4062255859375
15.038000000000004,-6.4647460937500005,-0.0201873779296875,6.399398803710938
15.048000000000002,-6.778472900390626,-0.23746337890625,6.6875549316406255
15.058,-7.089657592773438,-0.3043060302734375,7.530938720703125
15.067999999999998,-7.072610473632813,-0.31761474609375,7.639651489257813
15.078000000000005,-6.79312744140625,-0.131890869140625,6.334051513671875
15.088,-6.732415771484376,0.212939453125,6.361715698242188
15.098,-7.022366333007813,0.42528076171875,7.117321777343751
15.108000000000004,-7.112985229492188,0.5250213623046875,7.563537597656251
15.118000000000002,-6.881054687500001,0.649884033203125,6.595440673828126
15.128,-6.966290283203126,0.7778869628906251,5.8199462890625
15.137999999999998,-7.114331054687501,0.5498443603515626,6.863409423828125
15.148000000000003,-6.965692138671876,0.06998291015625,7.629034423828125
15.158,-6.784603881835938,-0.5329467773437501,8.119961547851563
15.168,-6.328817749023438,-1.0741180419921876,7.081283569335938
15.177999999999995,-6.177935791015625,-1.1085113525390626,6.863110351562501
15.188000000000002,-7.434188842773438,-0.8948242187500001,7.170257568359376
15.198,-7.469927978515625,-0.021533203125,6.936383056640626
15.207999999999998,-7.124948120117188,0.6782958984375,6.312817382812501
15.218000000000004,-6.519027709960938,0.8753845214843751,6.376071166992188
15.228000000000002,-6.674993896484375,0.9562835693359376,7.460357666015626
15.238,-7.054067993164063,1.1131469726562502,8.019772338867188
15.247999999999998,-6.939373779296876,0.8097381591796876,7.053469848632813
15.258000000000004,-6.781912231445313,-0.15133056640625,5.909219360351563
15.268,-6.910064697265626,-0.9441711425781252,6.569421386718751
15.278,-7.248913574218751,-1.17535400390625,7.576397705078126
15.288000000000004,-6.946102905273438,-0.9042449951171876,7.494152832031251
15.298000000000002,-6.391622924804688,-0.6201263427734376,6.702957153320313
15.308,-6.616973876953126,-0.15970458984375,6.882400512695313
15.317999999999998,-6.861764526367188,0.59156494140625,7.838235473632813
15.328000000000005,-6.966738891601563,0.983349609375,7.509255981445313
15.338,-6.825726318359376,0.9992004394531252,6.438278198242188
15.348,-7.033731079101563,0.765325927734375,5.939276123046875
15.358000000000004,-7.479348754882813,0.5203857421875,6.709686279296876
15.368000000000002,-7.4307495117187505,0.116937255859375,7.023114013671876
15.378,-6.738247680664063,-0.4221405029296875,6.671405029296875
15.387999999999998,-6.403585815429688,-0.6975860595703125,6.927859497070313
15.398000000000003,-6.616525268554688,-0.678594970703125,7.73460693359375
15.408,-6.720153808593751,-0.42109375,8.140298461914064
15.418,-6.712976074218751,-0.1996307373046875,7.048684692382813
15.427999999999995,-6.793276977539063,0.098394775390625,6.332107543945313
15.438000000000002,-7.072012329101563,0.53055419921875,6.606057739257813
15.447000000000005,-7.34940185546875,0.743194580078125,7.0987792968750005
15.457,-7.23515625,0.7624847412109376,6.599478149414063
15.467,-7.063638305664063,0.674407958984375,6.178982543945313
15.477000000000004,-6.833801269531251,0.5223297119140625,6.695181274414063
15.487000000000002,-6.826473999023438,0.0357391357421875,7.54439697265625
15.497,-6.6429931640625,-0.5513397216796876,7.806085205078125
15.506999999999998,-6.509606933593751,-0.7309326171875,7.082778930664063
15.517000000000005,-6.596936035156251,-0.5655456542968751,6.766061401367188
15.527,-7.025357055664063,-0.2244537353515625,6.839334106445313
15.537,-7.446151733398438,-0.0210845947265625,7.018627929687501
15.547000000000004,-7.062741088867188,0.5359375000000001,6.684713745117188
15.557000000000002,-7.3822998046875,0.9745269775390626,6.566281127929688
15.567,-6.209188842773438,0.6613983154296875,7.078591918945313
15.576999999999998,-6.4243713378906255,0.0509918212890625,7.549331665039063
15.587000000000003,-7.108499145507813,-0.1661346435546875,7.8572265625
15.597,-7.074554443359376,0.131890869140625,6.653909301757813
15.607,-7.113433837890626,-0.3016143798828125,6.439324951171876
15.616999999999996,-6.572561645507813,-1.024172973632813,6.423474121093751
15.627000000000002,-7.070965576171876,-0.9150115966796876,7.498190307617188
15.637,-7.051974487304688,0.1158905029296875,7.888031005859376
15.646999999999998,-6.718209838867188,0.781475830078125,6.428408813476563
15.657000000000004,-6.618618774414063,0.4517486572265625,6.725686645507813
15.667000000000002,-6.612786865234376,0.438140869140625,7.123303222656251
15.677,-7.347906494140625,0.5624053955078125,7.9900146484375005
15.686999999999998,-7.189398193359375,0.6107055664062501,6.500784301757813
15.697000000000005,-6.926065063476563,0.03050537109375,5.508761596679688
15.707,-6.997393798828125,-0.422589111328125,6.616375732421876
15.717,-7.127191162109376,-0.4098785400390625,7.923919677734376
15.727000000000004,-6.754248046875,-0.321502685546875,7.887582397460938
15.737000000000002,-6.170907592773438,-0.2788848876953125,6.583328247070313
15.747,-6.577944946289063,-0.243743896484375,6.954177856445313
15.756999999999998,-7.119415283203126,0.1375732421875,7.667614746093751
15.767000000000005,-7.411309814453125,0.40673828125,7.201809692382813
15.777,-6.964495849609375,0.49825439453125,5.935537719726563
15.787,-6.791482543945313,0.488385009765625,5.8965087890625005
15.797000000000004,-7.249511718750001,0.416607666015625,7.329962158203125
15.807000000000002,-7.117919921875001,0.378326416015625,7.69931640625
15.817999999999998,-6.696377563476563,0.134881591796875,6.7952209472656255
15.826999999999998,-6.453530883789063,-0.061907958984375,6.373977661132813
15.837000000000003,-6.800903320312501,-0.3877471923828125,7.494900512695313
15.847,-6.9671875000000005,-0.56165771484375,7.998837280273438
15.857,-6.890774536132813,-0.474029541015625,7.044796752929688
15.866999999999996,-6.8655029296875005,-0.165985107421875,6.032437133789063
15.877000000000002,-7.000384521484375,0.2382110595703125,6.531289672851563
15.887,-7.0344787597656255,0.4125701904296875,7.420730590820313
15.896,-7.113583374023438,0.602630615234375,7.213323974609375
15.906,-6.714022827148438,0.9108245849609377,6.320294189453126
15.917000000000002,-6.953579711914063,1.03419189453125,6.127542114257813
15.927,-7.242184448242188,0.5567230224609375,7.270147705078125
15.936,-6.8415771484375005,-0.0085235595703125,7.472918701171875
15.945999999999998,-6.904531860351563,-0.6225189208984375,7.797711181640626
15.956000000000005,-6.286648559570313,-1.1910552978515625,6.863708496093751
15.966,-6.2972656250000005,-1.3420867919921875,6.911260986328125
15.976,-7.48338623046875,-0.9962097167968752,7.547387695312499
15.986000000000004,-7.284802246093751,0.14295654296875,6.850698852539063
15.996000000000002,-6.981243896484376,0.8347106933593751,6.353341674804688
16.006,-6.5275512695312505,0.929815673828125,6.350949096679688
16.018,-6.893316650390625,1.044659423828125,7.574603271484375
16.026000000000003,-7.171902465820313,1.2703094482421875,7.910012817382813
16.036,-6.905429077148438,0.8224487304687501,6.649871826171876
16.046,-6.685760498046876,-0.36666259765625,6.058605957031251
16.055999999999997,-6.859671020507813,-1.16817626953125,6.875970458984376
16.066000000000003,-7.262371826171876,-1.2451873779296876,7.880255126953125
16.076,-6.840829467773438,-0.90738525390625,7.335494995117188
16.086,-6.427810668945313,-0.6688751220703125,6.438427734375001
16.096000000000004,-6.689349365234375,-0.1203765869140625,6.897653198242188
16.106,-6.989019775390625,0.7672698974609375,7.91405029296875
16.116999999999997,-6.993206787109376,1.26627197265625,7.398449707031251
16.125999999999998,-6.706546020507813,1.1444000244140626,6.219955444335938
16.136000000000003,-6.991711425781251,0.7168762207031251,6.194833374023438
16.146,-7.404879760742188,0.4056915283203125,6.988720703125001
16.156,-7.413702392578125,-0.108563232421875,7.170706176757813
16.166000000000004,-6.744677734375,-0.624462890625,6.374725341796876
16.176000000000002,-6.474765014648438,-0.9031982421875,6.743780517578125
16.186,-6.719107055664063,-0.7666717529296876,7.8632080078125
16.195999999999998,-6.738845825195313,-0.317913818359375,8.222991943359375
16.206000000000003,-6.647479248046875,0.0043365478515625,6.97496337890625
16.218000000000004,-6.727481079101563,0.4077850341796875,6.166271972656251
16.226,-7.163229370117188,0.7600921630859375,6.772341918945313
16.236000000000004,-7.3129150390625,0.8581878662109376,7.1242004394531255
16.246000000000002,-7.325326538085938,0.6615478515625001,6.594244384765625
16.256,-6.869989013671876,0.48150634765625,5.99759521484375
16.266,-6.880307006835938,0.2404541015625,6.728826904296875
16.276000000000003,-6.948046875,-0.2397064208984375,7.710382080078125
16.286,-6.606356811523438,-0.608612060546875,7.690792846679688
16.296,-6.427362060546876,-0.67291259765625,7.116574096679688
16.305999999999997,-6.733761596679688,-0.382513427734375,6.647628784179688
16.317,-6.886288452148438,-0.06878662109375,7.190145874023438
16.326,-7.377664184570313,0.1772003173828125,6.909765625
16.336,-7.009356689453125,0.6422576904296875,6.708639526367188
16.346000000000004,-7.386187744140625,0.91575927734375,6.315359497070313
16.356,-6.449343872070313,0.6003875732421875,7.219604492187501
16.365000000000002,-6.457867431640626,-0.100787353515625,7.368692016601563
16.375999999999998,-7.033880615234375,-0.3159698486328125,7.706942749023438
16.386000000000003,-6.8678955078125,-0.0384307861328125,6.904681396484375
16.395000000000003,-7.188949584960938,-0.2208648681640625,6.409716796875
16.405,-6.641796875000001,-0.7584472656250001,6.81346435546875
16.415,-6.99290771484375,-0.7125396728515625,7.104312133789063
16.426000000000002,-7.040908813476563,0.1517791748046875,7.767803955078126
16.435000000000002,-6.799856567382813,0.7795318603515625,6.340032958984375
16.445,-6.746173095703125,0.5347412109375,6.912606811523438
16.455,-6.614132690429688,0.294287109375,7.211529541015626
16.465000000000003,-7.083975219726563,0.27933349609375,7.782308959960938
16.475,-7.0449462890625005,0.3078948974609375,6.8669982910156255
16.485,-7.063040161132813,-0.1060211181640625,5.607455444335938
16.494999999999997,-7.045095825195313,-0.338848876953125,6.648974609375
16.505000000000003,-7.151416015625,-0.2459869384765625,7.32786865234375
16.515,-6.87088623046875,-0.0689361572265625,7.7914306640625
16.525,-6.303396606445313,0.044561767578125,6.780117797851563
16.535000000000004,-6.521121215820313,-0.0109161376953125,7.046142578125001
16.545,-6.9492431640625005,0.131890869140625,7.641744995117188
16.555,-7.193435668945313,0.2002288818359375,7.123452758789063
16.564999999999998,-7.090853881835938,0.1927520751953125,6.289041137695313
16.575000000000003,-6.883297729492188,0.174359130859375,5.93658447265625
16.585,-7.2052490234375,0.1710693359375,7.120910644531251
16.595,-7.082778930664063,0.2423980712890625,7.508209228515626
16.605000000000004,-6.692489624023438,0.266473388671875,6.979299926757813
16.615000000000002,-6.610842895507813,0.2121917724609375,6.622506713867188
16.625,-6.747817993164063,0.010467529296875,7.228576660156251
16.634999999999998,-6.935037231445313,-0.2356689453125,7.763317871093751
16.645000000000003,-6.869241333007813,-0.3506622314453125,7.101919555664063
16.655,-6.907971191406251,-0.3141754150390625,6.372482299804688
16.665,-6.931896972656251,-0.0381317138671875,6.481045532226563
16.675000000000004,-7.211679077148438,0.1520782470703125,7.089956665039063
16.685000000000002,-6.957916259765626,0.4281219482421875,7.067077636718751
16.695,-6.786248779296876,0.8534027099609376,6.358724975585938
16.705,-7.207043457031251,0.8912353515625001,6.5592529296875
16.715000000000003,-6.542803955078125,0.9147125244140626,7.340579223632813
16.725,-7.419085693359375,0.136376953125,7.786645507812499
16.735,-6.5305419921875005,-0.7393066406250001,7.336990356445313
16.744999999999997,-6.060400390625,-1.1089599609375,6.431997680664063
16.755000000000003,-7.228427124023438,-1.2353179931640623,7.558154296875
16.765,-7.161285400390626,-0.6826324462890625,7.078143310546875
16.775,-7.195379638671875,-0.19678955078125,6.929653930664063
16.785000000000004,-6.626693725585938,0.383111572265625,6.438278198242188
16.795,-6.720452880859376,0.8717956542968751,6.771444702148438
16.805,-7.012796020507813,1.2610382080078126,7.832852172851563
16.814,-7.1167236328125005,1.19808349609375,7.053021240234376
16.825000000000003,-6.786099243164063,0.6436035156250001,6.581533813476563
16.835,-6.745724487304688,-0.1266571044921875,6.283508300781251
16.844,-7.219305419921875,-0.837103271484375,7.358224487304688
16.854,-6.902438354492188,-1.03658447265625,7.667016601562499
16.863999999999997,-6.726583862304688,-1.0966979980468752,6.7087890625
16.874000000000002,-6.564038085937501,-0.7517181396484376,6.903335571289063
16.884,-6.752005004882813,-0.1535736083984375,7.28360595703125
16.894,-6.903485107421876,0.454888916015625,7.934536743164063
16.904000000000003,-6.800604248046875,0.9017028808593752,6.815707397460938
16.914,-6.919186401367188,1.0548278808593752,6.306088256835938
16.924,-7.167416381835938,1.0759124755859375,6.485232543945313
16.933999999999997,-7.524508666992188,0.6261077880859376,6.808978271484375
16.944000000000003,-7.057806396484375,0.1184326171875,6.746771240234375
16.954,-6.753799438476563,-0.367559814453125,6.398800659179688
16.964,-6.817501831054688,-0.6090606689453125,7.228128051757813
16.974000000000004,-6.683218383789063,-0.617584228515625,7.63052978515625
16.984,-6.535177612304688,-0.6471923828125,7.753897094726563
