time,ax,ay,az
0.0,6.971823120117188,0.4720855712890625,7.640698242187501
0.0099999999999909,7.205099487304688,-0.6759033203125,7.019674682617188
0.0199999999999818,7.012646484375001,-1.375732421875,6.069073486328126
0.0300000000000011,6.571963500976563,-1.1590545654296875,6.66751708984375
0.039999999999992,7.1215087890625,-0.50543212890625,6.730471801757813
0.0499999999999829,6.977355957031251,0.053533935546875,7.734008789062501
0.0600000000000022,7.916741943359375,0.2026214599609375,5.636016845703125
0.0699999999999931,7.906723022460938,0.8279815673828126,6.706695556640626
0.079999999999984,6.64658203125,1.2410003662109377,5.252606201171876
0.0900000000000034,6.226535034179688,1.6961883544921876,8.172299194335938
0.1020000000000038,6.216366577148438,1.29378662109375,8.669207763671876
0.1099999999999852,6.962850952148438,0.280828857421875,7.098031616210938
0.1209999999999809,7.5617431640625,-0.5775085449218751,6.61368408203125
0.1310000000000002,6.942364501953126,-0.8978149414062501,5.0580596923828125
0.1409999999999911,7.273287963867188,-0.2325286865234375,7.812515258789063
0.150999999999982,6.589608764648438,-0.21593017578125,7.49295654296875
0.1610000000000013,7.0584045410156255,-0.3491668701171875,7.323532104492188
0.1709999999999922,6.5448974609375,-0.5455078125,6.491064453125
0.1809999999999831,6.781613159179688,0.00059814453125,6.739443969726563
0.1910000000000025,6.468783569335938,0.6791931152343751,8.2436279296875
0.2030000000000029,6.734658813476563,0.7886535644531251,7.363906860351563
0.2109999999999843,7.088909912109376,0.6255096435546875,7.11612548828125
0.2210000000000036,7.012646484375001,0.23865966796875,5.857479858398438
0.2309999999999945,6.914401245117188,0.3078948974609375,6.957168579101563
0.2409999999999854,6.819296264648438,0.3255401611328125,7.657595825195313
0.2510000000000048,6.716415405273438,-0.067889404296875,7.525106811523438
0.2609999999999957,7.27762451171875,-0.4463653564453125,6.645236206054688
0.2719999999999913,6.86490478515625,-0.6862213134765626,6.339733886718751
0.2819999999999822,6.893914794921876,-0.3470733642578125,6.767556762695313
0.2920000000000016,7.049432373046876,-0.1395172119140625,7.348205566406251
0.3019999999999925,7.225286865234375,-0.3264373779296875,6.931448364257813
0.3119999999999834,7.328167724609376,-0.439337158203125,6.182720947265626
0.3220000000000027,7.056161499023438,-0.17047119140625,6.2030578613281255
0.3319999999999936,6.689050292968751,0.3721954345703125,7.341326904296875
0.3419999999999845,6.293826293945313,0.7856628417968751,8.228973388671875
0.3520000000000038,6.479998779296875,0.9319091796875,7.908966064453126
0.3619999999999947,6.712826538085938,0.417803955078125,6.894662475585938
0.3719999999999857,7.012197875976563,0.1036285400390625,6.602468872070313
0.382000000000005,6.821389770507813,0.2035186767578125,7.085470581054688
0.3919999999999959,6.704452514648438,0.1930511474609375,7.629632568359375
0.4029999999999916,6.665573120117188,-0.0216827392578125,6.955523681640625
0.4129999999999825,7.292877197265626,-0.7047637939453125,6.076550292968751
0.4230000000000018,8.339480590820314,-0.90858154296875,5.433993530273438
0.4329999999999927,7.5162841796875,-0.969891357421875,6.018081665039063
0.4429999999999836,7.283755493164063,-0.7029693603515625,6.840530395507813
0.4530000000000029,6.924868774414063,0.3361572265625,8.689694213867188
0.4629999999999938,4.78814697265625,1.259991455078125,8.420828247070313
0.4729999999999847,5.5160888671875,1.987484741210937,7.470227050781251
0.4830000000000041,7.400991821289063,1.6758514404296876,8.024707031250001
0.492999999999995,8.18560791015625,0.49765625,5.5545196533203125
0.5029999999999859,8.003921508789062,-0.4954132080078125,5.5141448974609375
0.5130000000000052,6.78953857421875,-0.7668212890625,5.582333374023438
0.5229999999999961,6.449343872070313,-0.9891815185546876,7.972219848632813
0.5329999999999941,6.597534179687501,-1.5765594482421876,8.871231079101562
0.5430000000000064,7.066329956054688,-1.4606689453125,7.221099853515626
0.5529999999999902,6.41031494140625,-0.43006591796875,6.35648193359375
0.563999999999993,6.502578735351563,1.12869873046875,6.275433349609376
0.5739999999999839,7.374374389648438,2.1860687255859377,8.014837646484375
0.5840000000000032,7.117770385742188,2.144647216796875,7.580734252929688
0.5939999999999941,6.431100463867188,1.5599609375,6.13516845703125
0.603999999999985,6.492260742187501,0.786260986328125,6.710433959960938
0.6140000000000043,6.285601806640625,-0.0803009033203125,8.114578247070312
0.6239999999999952,6.698770141601563,-0.9467132568359377,8.403033447265626
0.6339999999999861,7.245922851562501,-1.4570800781250002,7.324728393554688
0.6440000000000055,6.869091796875001,-1.55936279296875,5.325280761718751
0.6539999999999964,7.158743286132813,-0.7648773193359375,6.369491577148438
0.6639999999999944,7.357028198242188,0.1625457763671875,7.120013427734375
0.6740000000000066,7.68077392578125,0.6021820068359376,6.725387573242188
0.6839999999999904,7.693484497070313,0.2965301513671875,5.33963623046875
0.6949999999999932,7.644287109375001,-0.251519775390625,5.119967651367188
0.7049999999999841,7.111938476562501,-0.3853546142578125,7.147378540039063
0.7139999999999986,6.045895385742188,-0.329876708984375,8.556607055664063
0.7249999999999943,5.684317016601563,-0.035589599609375,8.91773681640625
0.7349999999999852,6.169860839843751,-0.084039306640625,7.546041870117188
0.7450000000000045,7.118368530273438,0.2187713623046875,6.698620605468751
0.7549999999999955,7.374972534179688,0.7146331787109376,6.386688232421876
0.7649999999999864,7.313214111328126,1.2525146484375,6.55985107421875
0.7750000000000057,6.738247680664063,1.425079345703125,7.024908447265625
0.7849999999999966,6.991860961914063,0.5834899902343751,6.877615356445313
0.7949999999999946,6.826025390625,-0.3500640869140625,6.845166015625001
0.8050000000000068,6.722097778320313,-1.1025299072265626,6.785052490234375
0.8149999999999906,7.050479125976563,-1.3935272216796877,7.283755493164063
0.8249999999999957,7.092349243164063,-1.27823486328125,6.9958984375
0.8349999999999866,7.667016601562499,-0.8194580078125001,7.079489135742188
0.8449999999999989,6.90318603515625,0.219219970703125,5.88035888671875
0.8559999999999945,6.535028076171876,1.594952392578125,7.173846435546875
0.8659999999999854,6.233563232421876,2.4997955322265626,8.004818725585938
0.8760000000000048,7.084573364257813,2.147787475585938,7.691839599609375
0.8859999999999957,7.0736572265625,1.1414093017578126,7.180426025390625
0.8959999999999866,6.41270751953125,0.2423980712890625,5.746673583984375
0.906000000000006,7.075152587890625,-0.1054229736328125,7.419235229492188
0.9159999999999968,6.847708129882813,-0.932806396484375,7.794570922851563
0.9259999999999948,7.273886108398438,-1.6269531250000002,6.888980102539063
0.936000000000007,7.117172241210938,-1.8288269042968752,6.088064575195313
0.945999999999998,7.291232299804688,-1.3492645263671876,5.66263427734375
0.955999999999996,7.160986328125,-0.705810546875,7.20823974609375
0.9659999999999798,7.484283447265626,0.02930908203125,6.9926086425781255
0.9759999999999992,6.798809814453126,0.6718658447265625,6.952832031250001
0.98599999999999,6.181076049804688,1.0268646240234376,6.682321166992188
0.9969999999999856,6.312817382812501,1.6016815185546875,7.928405761718751
1.007000000000005,6.384744262695313,1.5566711425781252,8.678778076171875
1.016999999999996,6.617871093750001,0.8664123535156251,7.527648925781251
1.0269999999999868,7.133023071289063,0.17705078125,6.498391723632813
1.037000000000006,6.793276977539063,-0.5292083740234376,6.016436767578125
1.04699999999999,7.242184448242188,-0.7047637939453125,6.8669982910156255
1.056999999999995,7.215716552734375,-0.8348602294921875,7.464395141601563
1.0670000000000073,7.218408203125,-0.9308624267578126,6.513195800781251
1.0769999999999982,7.029843139648438,-0.657958984375,6.337191772460938
1.0869999999999962,6.722396850585938,0.0251220703125,6.878363037109375
1.09699999999998,6.513046264648438,0.9894805908203126,8.113681030273439
1.106999999999999,6.256741333007813,1.6291961669921875,7.89610595703125
1.117999999999995,6.647329711914063,1.6837768554687502,7.384094238281251
1.1269999999999811,6.896307373046875,0.9103759765625,6.411511230468751
1.1380000000000052,7.0180297851562505,-0.01495361328125,6.336743164062501
1.147999999999996,7.720849609375,-0.9619659423828124,6.3331542968750005
1.157999999999994,7.642193603515626,-1.954736328125,6.4318481445312505
1.1680000000000064,6.657049560546875,-2.5223754882812504,6.39835205078125
1.1779999999999902,7.477853393554688,-1.6172332763671875,8.054464721679688
1.1879999999999953,6.160290527343751,0.426177978515625,8.391668701171875
1.1980000000000075,5.243634033203126,2.045355224609376,7.028347778320313
1.2079999999999984,7.098031616210938,2.692697143554688,7.485031127929688
1.2179999999999964,7.671054077148438,2.0293548583984378,6.166870117187501
1.2279999999999802,7.763317871093751,1.1007354736328123,6.258685302734375
1.2379999999999995,6.891073608398438,0.0629547119140625,6.576000976562501
1.2479999999999905,6.331509399414063,-1.1004364013671877,7.267904663085938
1.2579999999999814,6.614880371093751,-1.93978271484375,8.04803466796875
1.268000000000001,7.169808959960938,-2.0996368408203128,7.37572021484375
1.2779999999999916,6.731817626953125,-1.206607055664063,6.937728881835938
1.2889999999999944,6.713125610351563,0.185723876953125,6.069671630859375
1.2990000000000066,7.326373291015625,1.5275115966796875,7.261175537109375
1.3089999999999904,7.400094604492188,2.158404541015625,6.91275634765625
1.3189999999999955,6.450390625000001,1.9152587890625,6.721649169921876
1.3289999999999864,6.911111450195313,1.2166259765625,6.804193115234376
1.3389999999999986,6.714022827148438,-0.002093505859375,7.500732421875001
1.3489999999999966,6.301602172851563,-1.0814453125,7.8751708984375
1.3589999999999804,6.788192749023438,-1.6236633300781251,7.324429321289063
1.3689999999999998,6.519924926757813,-1.5805969238281252,7.103863525390626
1.378999999999991,7.464096069335938,-0.8644683837890625,6.199618530273438
1.3889999999999816,7.619763183593751,-0.043365478515625,6.610842895507813
1.399000000000001,7.671353149414063,0.71717529296875,5.763571166992188
1.4089999999999918,7.200015258789063,1.1357269287109375,6.361267089843751
1.4199999999999946,6.702957153320313,1.0573699951171875,6.859072875976563
1.4300000000000068,6.278573608398438,0.8372528076171876,8.260525512695313
1.4399999999999906,6.080587768554688,0.2486785888671875,8.224786376953126
1.4499999999999955,6.427511596679688,-0.3153717041015625,7.770944213867188
1.4599999999999866,6.747219848632813,-0.6506317138671875,6.947747802734376
1.4699999999999989,7.077545166015626,-0.5369842529296875,6.54190673828125
1.4799999999999898,7.273287963867188,-0.1571624755859375,6.665872192382813
1.489999999999981,7.4427124023437505,0.0106170654296875,6.246871948242188
1.5,7.201062011718751,0.049346923828125,6.468484497070313
1.509999999999991,6.857427978515625,-0.160601806640625,5.920285034179688
1.5199999999999818,7.265811157226563,-0.205462646484375,7.378860473632813
1.5300000000000011,6.728677368164063,-0.240753173828125,7.610791015625001
1.539999999999992,6.785351562500001,-0.03768310546875,8.098876953125
1.549999999999983,5.788394165039063,0.6765014648437501,7.928704833984375
1.5600000000000025,6.17344970703125,1.2776367187500002,6.9253173828125005
1.570999999999998,7.167565917968751,1.359133911132813,7.358822631835938
1.580999999999996,8.263516235351563,0.4053924560546875,5.46405029296875
1.5909999999999798,7.68077392578125,-0.2166778564453125,6.294723510742188
1.602000000000004,6.032586669921876,-0.29189453125,6.600225830078125
1.61099999999999,6.123355102539063,-0.0695343017578125,8.721246337890626
1.620999999999981,6.5484863281250005,-0.49705810546875,8.791677856445313
1.6310000000000002,7.327420043945313,-0.8704498291015625,6.121859741210938
1.6409999999999911,7.356729125976563,-0.338848876953125,5.532687377929688
1.650999999999982,7.193734741210938,0.39896240234375,5.913705444335938
1.6610000000000014,7.092947387695313,0.6503326416015626,7.768402099609376
1.6709999999999925,7.161135864257813,0.4397857666015625,7.767803955078126
1.6809999999999832,6.271694946289063,0.3117828369140625,6.556411743164063
1.6910000000000025,5.968585205078125,0.3656158447265625,7.025656127929688
1.7019999999999982,6.871633911132813,0.4406829833984375,8.063137817382813
1.7109999999999843,7.175192260742188,0.1878173828125,8.057305908203126
1.72199999999998,6.607553100585938,-0.0025421142578125,6.463699340820313
1.731999999999999,6.731967163085938,0.027215576171875,5.899948120117188
1.7419999999999902,7.009506225585938,0.0465057373046875,7.279867553710938
1.7519999999999811,7.332952880859375,-0.1329376220703125,7.424618530273438
1.7620000000000005,7.618865966796876,-0.440533447265625,6.665722656250001
1.7719999999999914,7.195529174804688,-0.8258880615234375,4.862316894531251
1.7819999999999825,7.013992309570313,-0.6625946044921875,6.691891479492188
1.7920000000000016,6.493606567382813,-0.0279632568359375,8.400192260742188
1.8019999999999925,6.182272338867188,0.6386688232421875,8.676834106445312
1.811999999999984,6.219058227539063,0.8049530029296875,7.252203369140625
1.8220000000000027,6.997244262695313,0.6225189208984375,5.917294311523438
1.8319999999999936,7.578341674804688,0.7256988525390625,6.836492919921875
1.8419999999999843,7.095938110351563,0.736614990234375,7.13646240234375
1.852000000000004,6.381304931640625,0.215631103515625,7.081134033203125
1.8629999999999995,7.024758911132813,-0.9754241943359376,5.980996704101563
1.8729999999999905,7.998837280273438,-1.833612060546875,6.101971435546876
1.8829999999999807,7.158294677734376,-1.8573883056640623,6.911560058593751
1.893000000000001,6.414651489257813,-1.0993896484375,7.402487182617188
1.902999999999992,7.159042358398438,0.48509521484375,8.800650024414063
1.9129999999999825,5.5859222412109375,1.5898681640625,7.410263061523438
1.9230000000000016,6.231021118164063,2.3740356445312503,6.599627685546875
1.9329999999999927,7.204202270507813,2.404989624023438,7.443011474609375
1.942999999999984,7.757336425781251,1.43853759765625,6.423324584960938
1.9539999999999864,7.509704589843751,0.3058013916015625,6.715667724609376
1.9629999999999936,6.430950927734376,-0.6974365234375001,6.05322265625
1.9729999999999848,6.307733154296876,-1.3029083251953126,7.756289672851563
1.983000000000004,6.672601318359376,-1.9095764160156248,8.290582275390626
1.992999999999995,7.159640502929688,-1.667626953125,7.434039306640625
2.0039999999999907,6.688302612304688,-0.5953033447265625,6.277676391601563
2.0139999999999816,6.871783447265625,0.7662231445312501,6.048886108398438
2.024000000000001,7.6445861816406255,1.7144317626953127,7.277175903320313
2.033999999999992,7.200164794921876,1.7186187744140626,7.082778930664063
2.0439999999999827,6.475662231445313,1.3675079345703125,6.518878173828125
2.054000000000002,6.4228759765625005,0.5456573486328126,7.082778930664063
2.063999999999993,6.670806884765626,-0.3931304931640625,7.921826171875001
2.073999999999984,6.613833618164063,-0.9954620361328126,8.329312133789063
2.084000000000003,6.5155883789062505,-1.10357666015625,6.944009399414063
2.093999999999994,6.733612060546876,-0.7251007080078126,6.461755371093751
2.103999999999985,7.227978515625001,-0.094805908203125,6.637161254882813
2.1140000000000043,7.648922729492188,0.4580291748046875,6.775631713867188
2.1239999999999952,7.634567260742188,0.5363861083984376,5.969033813476563
2.133999999999986,7.664474487304688,0.25899658203125,5.44371337890625
2.144000000000005,7.136911010742188,-0.0692352294921875,6.640151977539063
2.155000000000001,6.145785522460938,-0.18123779296875,8.058651733398438
2.164999999999992,5.732617187500001,0.08553466796875,9.081179809570314
2.174999999999983,5.944958496093751,-0.0584686279296875,7.951284790039063
2.1850000000000023,6.976757812500001,-0.0563751220703125,6.926065063476563
2.194999999999993,7.493106079101563,0.2732025146484375,6.028698730468751
2.204999999999984,7.494601440429688,0.7807281494140625,6.40433349609375
2.2150000000000034,6.595590209960938,0.8860015869140626,6.823184204101563
2.2249999999999943,6.862960815429688,0.2636322021484375,6.890475463867188
2.234999999999985,7.171752929687501,-0.6132476806640625,6.825726318359376
2.2450000000000045,7.072012329101563,-1.3160675048828123,6.562393188476563
2.2549999999999955,7.050479125976563,-1.2170745849609377,7.254895019531251
2.2649999999999864,7.5892578125,-0.8348602294921875,7.346710205078126
2.2750000000000057,5.959912109375001,0.1451995849609375,7.440917968750001
2.2849999999999966,6.102719116210938,1.1460449218750002,6.786099243164063
2.2959999999999923,6.8026977539062505,1.6852722167968752,7.991958618164063
2.305999999999983,7.811318969726563,1.331170654296875,6.387585449218751
2.3160000000000025,7.222146606445313,0.9556854248046877,7.089657592773438
2.3259999999999934,5.933444213867188,0.8091400146484375,6.192440795898438
2.3359999999999843,6.643142700195313,0.3449798583984375,8.218505859375
2.346000000000004,6.996347045898438,-0.7457366943359376,7.980294799804688
2.3559999999999945,7.358224487304688,-1.5765594482421876,6.32657470703125
2.365999999999985,7.168911743164063,-1.502688598632813,5.733364868164063
2.3760000000000048,7.065432739257813,-0.88046875,5.992959594726563
2.385999999999996,7.203005981445313,-0.2145843505859375,8.088708496093751
2.3959999999999866,7.097134399414063,0.4056915283203125,7.174743652343751
2.406000000000006,6.560897827148438,0.85474853515625,6.461456298828126
2.415999999999997,6.346463012695313,1.2661224365234376,6.581234741210938
2.425999999999995,6.848904418945313,1.3808166503906252,8.167962646484376
2.436000000000007,6.753500366210938,1.069183349609375,8.220001220703125
2.4470000000000027,6.315509033203125,0.5027404785156251,7.094442749023438
2.4569999999999936,6.463250732421876,-0.149237060546875,6.410614013671876
2.4669999999999845,7.00546875,-0.61907958984375,7.28958740234375
2.477000000000004,7.34342041015625,-0.913067626953125,7.447348022460938
2.4869999999999948,7.700961303710938,-1.0304534912109375,6.262423706054688
2.4969999999999857,7.305438232421875,-0.9854431152343752,5.050582885742188
2.507000000000005,7.272988891601563,-0.6616973876953125,6.132626342773438
2.519000000000005,7.036572265625001,0.1224700927734375,7.863955688476563
2.526999999999987,6.520523071289063,0.740203857421875,7.917489624023438
2.537000000000006,6.287844848632813,0.9127685546875,7.322186279296876
2.54699999999999,6.518429565429688,0.7376617431640625,6.597384643554688
2.556999999999995,6.782659912109375,0.796429443359375,7.579537963867188
2.567000000000008,6.650469970703125,0.6207244873046875,7.478302001953126
2.576999999999998,7.359570312500001,-0.023028564453125,6.50841064453125
2.587999999999994,7.492208862304688,-0.9371429443359376,5.734710693359375
2.5979999999999848,7.2052490234375,-1.3359558105468752,6.266909790039063
2.608000000000004,7.435833740234376,-0.3683074951171875,8.130578613281251
2.619,5.905780029296875,0.28411865234375,8.059100341796876
2.627999999999986,5.932546997070313,0.623565673828125,7.20943603515625
2.638000000000005,6.787295532226563,0.8451782226562501,7.169808959960938
2.647999999999996,7.510003662109375,0.938787841796875,6.622506713867188
2.657999999999994,7.456619262695313,0.9920227050781252,7.027151489257813
2.6680000000000064,6.7817626953125005,0.5109649658203126,6.156552124023438
2.67799999999999,6.633422851562501,-0.0342437744140625,7.124649047851563
2.687999999999996,6.659442138671875,-0.754559326171875,7.5318359375
2.6980000000000075,6.926663208007813,-0.8480194091796875,7.963397216796875
2.7079999999999984,6.439025878906251,-0.641510009765625,7.1256958007812505
2.718999999999994,6.620861816406251,-0.0737213134765625,6.615179443359375
2.728999999999985,7.299755859375001,0.5818450927734375,6.983636474609376
2.7390000000000043,7.2632690429687505,0.8140747070312501,6.836642456054688
2.7479999999999905,7.114779663085938,0.8873474121093751,6.516784667968751
2.758999999999986,7.028198242187501,0.3548492431640625,6.29906005859375
2.769000000000005,6.976458740234375,-0.2715576171875,6.971374511718751
2.7789999999999964,6.692190551757813,-0.6519775390625,7.675390625
2.7889999999999944,6.414352416992188,-0.704315185546875,7.693783569335938
2.799999999999983,6.363211059570313,-0.488983154296875,7.294073486328125
2.8089999999999904,6.901242065429688,-0.055029296875,7.022665405273438
2.8189999999999955,7.425665283203125,0.45040283203125,6.670806884765626
2.8289999999999864,7.445703125,0.748876953125,6.300106811523438
2.838999999999998,7.341625976562501,0.9090301513671876,6.204852294921875
2.8489999999999966,6.562692260742188,0.4972076416015625,7.1346679687500005
2.8589999999999804,6.584524536132813,0.0916656494140625,7.603164672851563
2.8700000000000045,6.295471191406251,-0.2583984375,8.114727783203126
2.8799999999999955,6.730023193359376,-0.6763519287109375,7.155902099609375
2.8899999999999864,7.014889526367188,-0.632537841796875,6.810623168945313
2.9000000000000057,7.205398559570313,-0.3255401611328125,6.220404052734375
2.9099999999999966,6.978851318359376,0.26378173828125,6.863259887695313
2.9199999999999946,6.880905151367188,0.5120117187500001,6.664376831054688
2.930000000000007,7.366598510742188,0.2962310791015625,6.58616943359375
2.9399999999999906,7.350747680664063,-0.13338623046875,6.484933471679688
2.949999999999996,6.985729980468751,-0.1721160888671875,7.376766967773438
2.959999999999986,6.722845458984375,0.2525665283203125,8.081979370117189
2.969999999999999,5.355487060546875,0.5443115234375,7.688101196289063
2.9799999999999898,6.388183593750001,0.5863311767578125,7.502227783203126
2.9899999999999807,7.536621093750001,0.0946563720703125,6.837539672851563
3.0,8.207141113281251,-0.1888641357421875,5.712728881835938
3.009999999999991,6.905130004882813,0.14654541015625,6.615029907226563
3.0209999999999866,6.167318725585938,0.4454681396484375,6.909466552734376
3.031000000000006,6.6406005859375,0.26856689453125,8.494699096679689
3.040999999999997,6.967785644531251,-0.4903289794921875,7.224539184570313
3.050999999999995,7.066180419921875,-0.5371337890625001,6.534878540039063
3.061000000000007,6.740640258789063,-0.0994415283203125,6.25120849609375
3.0720000000000027,6.925915527343751,0.2083038330078125,7.290335083007813
3.080999999999996,7.386486816406251,0.18662109375,7.671353149414063
3.09099999999998,6.84337158203125,0.1375732421875,6.494204711914063
3.100999999999999,6.552523803710938,0.2983245849609375,6.297116088867188
3.11099999999999,6.90079345703125,0.3802703857421875,7.281811523437501
3.120999999999981,7.01444091796875,0.3545501708984375,8.03248291015625
3.131,6.572262573242188,0.18841552734375,7.330859375
3.140999999999991,6.333004760742188,0.195294189453125,6.615328979492188
3.150999999999982,6.6621337890625005,0.149835205078125,7.050628662109376
3.162000000000006,7.464694213867188,-0.049346923828125,7.5369201660156255
3.17199999999999,7.491311645507813,-0.2495758056640625,6.586917114257813
3.181999999999995,7.197622680664063,-0.5052825927734376,5.452984619140626
3.192000000000008,7.072311401367188,-0.466552734375,6.324780273437501
3.201999999999998,6.842025756835938,-0.225201416015625,7.752102661132813
3.211999999999996,6.556561279296876,0.1472930908203125,8.2197021484375
3.22199999999998,6.324929809570313,0.3940277099609375,7.3129150390625
3.232,6.497195434570313,0.493170166015625,6.567327880859375
3.2419999999999902,7.230969238281251,0.6458465576171876,7.0643859863281255
3.251999999999981,7.202557373046876,0.6465942382812501,7.0951904296875
3.2620000000000005,6.847259521484376,0.3013153076171875,6.575552368164063
3.271999999999992,7.163827514648438,-0.5179931640625001,5.819049072265625
3.2819999999999823,7.537069702148438,-1.1820831298828125,6.551776123046875
3.2920000000000016,6.6815734863281255,-1.242047119140625,7.5593505859375005
3.3019999999999925,6.819744873046876,-0.458477783203125,8.115924072265626
3.312999999999996,6.292929077148438,0.6464447021484375,7.98582763671875
3.3230000000000075,5.9467529296875,1.2110931396484377,6.690396118164063
3.3329999999999984,7.329812622070313,1.6718139648437502,7.013394165039063
3.3429999999999964,7.50491943359375,1.31591796875,6.1955810546875005
3.35299999999998,7.548284912109375,0.542816162109375,6.75963134765625
3.3629999999999995,6.6645263671875,-0.2468841552734375,6.793426513671876
3.3729999999999905,6.111392211914063,-0.7496246337890625,7.494750976562501
3.3829999999999814,6.46953125,-1.0445098876953125,8.225234985351562
3.3930000000000007,6.976159667968751,-1.2661224365234376,7.232913208007813
3.402999999999992,7.206744384765625,-0.6166870117187501,6.549832153320313
3.4129999999999825,7.000833129882813,0.3566436767578125,5.901742553710938
3.423000000000002,7.101919555664063,1.2895996093750002,7.149920654296875
3.4329999999999927,7.130929565429688,1.4826507568359375,7.280465698242188
3.4439999999999955,6.638357543945313,1.0376312255859377,6.988571166992188
3.4539999999999864,6.648526000976563,0.417803955078125,6.731967163085938
3.463999999999998,6.644338989257813,-0.30804443359375,7.449591064453125
3.4739999999999966,6.804193115234376,-0.7538116455078125,7.751205444335938
3.4839999999999804,6.839483642578125,-0.9495544433593752,7.323681640625001
3.494,6.713723754882813,-0.7894012451171876,6.3481079101562505
3.5039999999999907,7.180874633789063,-0.2938385009765625,6.43065185546875
3.5139999999999816,7.437777709960938,0.237164306640625,6.9342895507812505
3.524000000000001,7.386337280273438,0.6331359863281251,6.600076293945313
3.533999999999992,6.832455444335938,0.656463623046875,6.483587646484375
3.5439999999999827,6.686807250976563,0.5504425048828125,6.877316284179688
3.554000000000002,6.570916748046876,0.3180633544921875,8.029940795898439
3.563999999999993,6.443212890625,0.1064697265625,8.000631713867188
3.573999999999984,6.391473388671876,-0.127105712890625,7.198968505859376
3.584000000000003,6.911709594726563,-0.3240447998046875,6.5209716796875
3.594999999999999,7.057955932617188,-0.2047149658203125,6.785052490234375
3.6049999999999898,7.304541015625,-0.0456085205078125,6.582879638671876
3.6149999999999807,7.400244140625,0.021832275390625,6.555514526367188
3.625,7.270297241210938,-0.2498748779296875,6.016735839843751
3.634999999999991,7.426263427734375,-0.2872589111328125,7.080535888671876
3.644999999999982,6.52037353515625,0.1673309326171875,7.838534545898438
3.655000000000001,5.22000732421875,0.8130279541015626,8.212673950195313
3.664999999999992,6.186309814453126,0.9120208740234376,7.995098876953126
3.674999999999983,7.568023681640626,0.27335205078125,6.805987548828125
3.6850000000000014,8.195178222656251,-0.137274169921875,5.753701782226563
3.694999999999993,6.923223876953125,0.1902099609375,6.031838989257813
3.704999999999984,6.2721435546875,0.4897308349609375,7.079489135742188
3.7150000000000034,6.932196044921875,-0.081646728515625,8.373873901367189
3.725999999999999,7.156051635742188,-0.9322082519531252,7.247418212890626
3.73599999999999,6.772042846679688,-0.72794189453125,6.138757324218751
3.745999999999981,6.499588012695313,-0.021234130859375,6.736453247070313
3.756,6.994403076171875,0.4299163818359375,7.753448486328126
3.765999999999991,7.364505004882813,0.3910369873046875,7.645932006835938
3.775999999999982,7.192687988281251,0.326287841796875,5.604763793945313
3.786000000000002,6.582730102539063,0.4341033935546875,5.969482421875
3.795999999999992,6.808978271484375,0.3721954345703125,7.624847412109376
3.805999999999983,7.056161499023438,0.125311279296875,8.55286865234375
3.8160000000000025,6.432745361328125,-0.10228271484375,7.542153930664063
3.8259999999999934,6.179580688476563,-0.064300537109375,5.951687622070313
3.835999999999984,6.889279174804688,-0.0231781005859375,7.133621215820313
3.846000000000004,7.626641845703125,0.0369354248046875,7.4325439453125
3.8559999999999945,7.281961059570313,0.0195892333984375,6.96658935546875
3.8659999999999854,6.972421264648438,-0.1544708251953125,5.29716796875
3.876999999999981,7.004122924804688,-0.2017242431640625,6.574057006835938
3.887000000000001,7.110443115234376,-0.1556671142578125,7.725485229492188
3.896999999999992,6.638507080078125,0.098095703125,8.0833251953125
3.9069999999999823,6.110943603515626,0.22908935546875,7.195529174804688
3.9170000000000016,6.485681152343751,0.294586181640625,6.595889282226563
3.926999999999993,7.265811157226563,0.4541412353515625,7.388580322265626
3.936999999999984,7.284652709960938,0.50064697265625,7.074105834960938
3.9470000000000014,6.973767089843751,0.186920166015625,6.224740600585938
3.9569999999999936,7.215267944335938,-0.4828521728515625,5.318402099609376
3.966999999999985,7.592547607421875,-1.0220794677734375,6.932196044921875
3.977000000000004,6.671554565429688,-1.129296875,7.820739746093751
3.9869999999999934,6.775930786132813,-0.2283416748046875,8.351742553710938
3.9969999999999857,5.952584838867188,0.744091796875,7.647427368164063
4.007000000000005,5.989071655273438,1.21124267578125,6.686508178710938
4.0190000000000055,7.446899414062501,1.5962982177734375,7.180575561523438
4.027999999999992,7.62813720703125,1.0798004150390623,6.29068603515625
4.037999999999983,7.50491943359375,0.4580291748046875,6.599777221679688
4.048000000000002,6.522167968750001,-0.229388427734375,6.668414306640625
4.057999999999993,6.21591796875,-0.6132476806640625,7.627688598632813
4.067999999999984,6.556411743164063,-1.02581787109375,8.278170776367189
4.078000000000003,7.099526977539063,-1.1910552978515625,7.251904296875001
4.087999999999994,7.0258056640625,-0.5028900146484375,6.292330932617188
4.097999999999985,6.828866577148438,0.4442718505859375,6.1285888671875
4.108000000000004,7.351495361328125,1.2656738281250002,7.165621948242188
4.119,7.191043090820313,1.242645263671875,7.35299072265625
4.127999999999986,6.565533447265626,0.9794616699218752,6.706097412109376
4.138000000000005,6.4970458984375,0.463861083984375,6.877914428710938
4.147999999999996,6.580038452148438,-0.206658935546875,7.7292236328125
4.157999999999994,6.854885864257813,-0.6213226318359375,7.948892211914063
4.168999999999983,6.740042114257813,-0.8919830322265626,7.054067993164063
4.179000000000002,6.831259155273438,-0.704315185546875,5.995202636718751
4.188999999999993,7.231118774414063,-0.281427001953125,6.727780151367188
4.198999999999984,7.448992919921875,0.185723876953125,7.010403442382813
4.209000000000003,7.308728027343751,0.5401245117187501,6.672302246093751
4.219999999999999,6.852642822265626,0.4533935546875,6.045745849609375
4.228999999999985,7.123602294921875,0.32838134765625,6.843222045898438
4.239000000000004,6.542205810546876,0.1182830810546875,7.867095947265626
4.248999999999995,6.266162109375,0.216229248046875,8.209683227539063
4.258999999999986,6.054718017578125,0.1532745361328125,7.622305297851563
4.269999999999982,6.860717773437501,-0.062506103515625,6.674395751953125
4.278999999999996,7.621109008789063,-0.08134765625,6.568524169921876
4.288999999999994,7.564434814453126,0.00657958984375,6.215170288085938
4.299000000000007,6.6397033691406255,0.2812774658203125,6.698620605468751
4.30899999999999,6.643890380859376,0.0800018310546875,6.505270385742188
4.319999999999993,7.235305786132813,-0.333465576171875,7.523312377929688
4.329999999999984,7.179229736328126,-0.6859222412109376,6.91873779296875
4.340000000000003,7.248764038085938,-0.4705902099609375,7.160986328125
4.349999999999994,6.3630615234375005,0.3040069580078125,7.349252319335938
4.359999999999985,5.985931396484375,0.8877960205078126,7.335943603515625
4.3700000000000045,6.874624633789063,1.0464538574218751,7.787692260742188
4.379999999999996,7.430599975585938,0.4409820556640625,6.537719726562501
4.389999999999986,7.709933471679688,0.2059112548828125,6.123504638671875
4.400000000000006,6.154159545898438,0.2404541015625,6.697125244140626
4.409999999999997,6.53831787109375,0.3409423828125,7.982089233398438
4.419999999999995,6.800454711914063,-0.244342041015625,8.433987426757813
4.430000000000007,7.0712646484375,-0.8991607666015625,6.069821166992188
4.439999999999991,7.176089477539063,-0.6126495361328126,6.214273071289063
4.449999999999996,7.095040893554688,-0.2280426025390625,6.2210021972656255
4.459999999999987,7.054367065429688,0.083441162109375,7.606304931640626
4.471000000000004,7.223043823242188,0.1093109130859375,7.297064208984375
4.4809999999999945,6.660339355468751,0.26019287109375,6.3810058593750005
4.4909999999999854,6.369790649414063,0.599639892578125,6.886288452148438
4.501000000000005,6.7339111328125005,0.8094390869140625,7.901937866210938
4.510999999999996,6.941467285156251,0.63941650390625,8.072259521484376
4.520999999999987,6.520672607421876,0.346923828125,6.744677734375
4.531000000000006,6.512298583984376,0.1885650634765625,6.365304565429688
4.540999999999997,7.000982666015625,-0.0599639892578125,7.296316528320313
4.550999999999995,7.309326171875001,-0.3126800537109375,7.540060424804688
4.561000000000007,7.33983154296875,-0.6578094482421876,6.451885986328126
4.570999999999998,7.312017822265625,-0.8599822998046875,5.285205078125
4.580999999999996,7.156948852539063,-0.684576416015625,6.376370239257813
4.59099999999998,6.969580078125,-0.22191162109375,7.79202880859375
4.602000000000004,6.512298583984376,0.41929931640625,8.093344116210938
4.611999999999995,6.036474609375,0.7938873291015626,7.284503173828125
4.621999999999986,6.651367187500001,0.8586364746093751,6.734210205078125
4.632000000000005,7.077993774414063,0.8335144042968751,7.233062744140626
4.641999999999996,7.184613037109376,0.60831298828125,6.826174926757813
4.651999999999987,7.082778930664063,-0.0192901611328125,6.30205078125
4.662000000000006,7.401141357421875,-1.033145141601563,5.8438720703125
4.67199999999999,6.985430908203125,-1.5511383056640626,7.185958862304688
4.681999999999995,7.061096191406251,-0.807196044921875,8.183514404296876
4.692000000000007,5.930453491210938,0.2794830322265625,8.146578979492189
4.701999999999998,6.0340820312500005,0.871197509765625,6.9755615234375
4.711999999999996,7.246072387695313,1.2260467529296877,6.876718139648438
4.722999999999985,7.643539428710938,1.3519561767578123,6.389828491210938
4.731999999999999,7.376467895507813,1.2084014892578123,6.682919311523438
4.742999999999995,6.623403930664063,0.47672119140625,6.702508544921876
4.752999999999986,6.47611083984375,-0.4221405029296875,7.352691650390626
4.763000000000005,6.5619445800781255,-1.0774078369140625,8.07435302734375
4.772999999999996,6.752154541015625,-1.1831298828125,7.479199218750001
4.782999999999994,6.643890380859376,-0.77579345703125,6.993804931640626
4.793000000000006,7.080685424804688,-0.096002197265625,6.229974365234376
4.80299999999999,7.396505737304688,0.732427978515625,6.897653198242188
4.812999999999995,7.268801879882813,1.19449462890625,6.599029541015626
4.823000000000008,6.840081787109376,1.1590545654296875,6.75723876953125
4.832999999999998,6.8475585937500005,0.587078857421875,6.89720458984375
4.842999999999996,6.646432495117188,-0.0961517333984375,7.45347900390625
4.85299999999998,6.526504516601563,-0.5464050292968751,7.805038452148438
4.863,6.552224731445313,-0.7687652587890625,7.323233032226563
4.872999999999991,6.741986083984376,-0.7687652587890625,6.916494750976563
4.882999999999981,7.331756591796876,-0.441729736328125,6.492709350585938
4.8940000000000055,7.3679443359375005,0.167779541015625,6.722097778320313
4.903999999999996,7.222595214843751,0.569134521484375,6.258984375000001
4.913999999999994,7.256689453125,0.697735595703125,6.632376098632813
4.924000000000007,6.83499755859375,0.46595458984375,6.931149291992188
4.93399999999999,6.348855590820313,0.295184326171875,7.769598388671875
4.943999999999996,6.169113159179688,0.2370147705078125,8.066128540039063
4.953999999999986,6.416744995117188,-0.0506927490234375,7.554415893554688
4.963999999999999,7.227230834960938,-0.335858154296875,6.914700317382813
4.973999999999997,7.446301269531251,-0.34393310546875,5.872732543945313
4.9839999999999804,7.153060913085938,-0.0210845947265625,6.532485961914063
4.994,6.674246215820313,0.145648193359375,6.68785400390625
5.003999999999991,7.122854614257813,0.064300537109375,7.083377075195313
5.013999999999982,7.257138061523438,-0.3614288330078125,6.711032104492188
5.024000000000001,6.942364501953126,-0.600836181640625,6.773986816406251
5.036000000000001,7.162481689453125,0.0369354248046875,7.662081909179688
5.044999999999995,5.941668701171875,0.6433044433593751,7.841076660156251
5.055000000000007,6.1611877441406255,1.0603607177734375,7.562640380859375
5.064999999999991,6.835296630859376,0.7496246337890625,7.097433471679688
5.074999999999996,7.996893310546875,0.2417999267578125,6.036175537109376
5.084999999999987,7.392767333984375,0.2268463134765625,6.788491821289063
5.094999999999999,6.120513916015625,0.1849761962890625,6.6142822265625005
5.10499999999999,6.81107177734375,0.0578704833984375,8.120260620117188
5.114999999999981,6.554318237304688,-0.71717529296875,7.462600708007813
5.125,7.244277954101563,-0.711492919921875,6.933990478515626
5.135999999999996,6.8954101562500005,-0.3401947021484375,6.307882690429688
5.144999999999982,6.961654663085938,0.0934600830078125,6.5209716796875
5.156000000000006,7.383197021484375,0.19320068359375,7.275381469726563
5.164999999999992,7.040310668945313,0.2256500244140625,6.858624267578126
5.175999999999995,6.585720825195313,0.5508911132812501,6.606506347656251
5.186000000000007,6.39237060546875,0.5176940917968751,7.272689819335938
5.195999999999998,6.990664672851563,0.432159423828125,7.735055541992188
5.205999999999996,6.730471801757813,0.127105712890625,7.607501220703125
5.21599999999998,6.417791748046875,0.197686767578125,6.827072143554688
5.225999999999999,6.55087890625,0.2095001220703125,6.98692626953125
5.236999999999995,7.108499145507813,-0.052337646484375,7.336093139648438
5.245999999999981,7.671054077148438,-0.31103515625,6.6950317382812505
5.256,7.441665649414063,-0.590667724609375,5.792730712890625
5.265999999999991,7.156799316406251,-0.5265167236328125,5.6500732421875
5.275999999999982,6.899746704101563,-0.4188507080078125,7.385140991210938
5.286000000000001,6.608898925781251,-0.0010467529296875,8.254244995117189
5.295999999999992,6.327471923828125,0.3533538818359375,7.759130859375
5.305999999999983,6.335247802734376,0.5987426757812501,6.808978271484375
5.3160000000000025,6.973468017578125,0.8211029052734375,6.944607543945313
5.326999999999998,7.157696533203126,0.7472320556640626,7.0299926757812505
5.336999999999996,7.165023803710938,0.4272247314453125,6.472821044921876
5.34699999999998,7.465890502929688,-0.4134674072265625,5.784506225585938
5.356999999999999,7.097732543945313,-1.308291625976563,6.585122680664063
5.36699999999999,6.870437622070313,-1.2789825439453126,7.638754272460938
5.376999999999981,6.61966552734375,-0.15372314453125,8.783602905273439
5.3870000000000005,5.538967895507813,0.60352783203125,7.580136108398438
5.396999999999991,6.7697998046875005,0.9781158447265624,6.51439208984375
5.406999999999982,7.633969116210938,1.2378601074218751,6.644488525390625
5.417000000000002,7.748962402343751,1.1808868408203126,6.309078979492188
5.4269999999999925,6.9396728515625,0.959722900390625,6.978253173828126
5.436999999999983,6.309378051757813,-0.0,6.5918518066406255
5.447000000000003,6.538916015625,-0.7944854736328125,8.22388916015625
5.456999999999994,6.653012084960938,-1.2312805175781252,7.665969848632813
5.467999999999996,6.815856933593751,-0.9383392333984376,7.485479736328125
5.47799999999998,6.7159667968750005,-0.365765380859375,6.253601074218751
5.488,7.345962524414063,0.3533538818359375,6.513494873046875
5.497999999999991,7.520172119140626,1.044659423828125,6.905130004882813
5.507999999999981,6.849502563476563,1.1924011230468752,6.635366821289063
5.518000000000001,6.757388305664063,0.9917236328125,6.890625000000001
5.527999999999992,6.696527099609376,0.1921539306640625,7.127789306640626
5.537999999999983,6.676339721679688,-0.4451690673828125,7.820590209960938
5.548000000000002,6.589608764648438,-0.68487548828125,7.494451904296875
5.557999999999993,6.570468139648438,-0.7452880859375001,7.064236450195313
5.567999999999984,7.066180419921875,-0.5570220947265625,6.569869995117188
5.578000000000003,7.367495727539063,-0.204266357421875,6.685610961914063
5.587999999999994,7.440917968750001,0.3419891357421875,6.370239257812501
5.597999999999985,7.0377685546875,0.6425567626953126,6.5739074707031255
5.6089999999999804,6.930850219726563,0.5879760742187501,6.749313354492188
5.619,6.809875488281251,0.3787750244140625,7.551425170898438
5.628999999999991,6.243133544921876,0.1867706298828125,7.694680786132813
5.638999999999982,6.362313842773438,0.103179931640625,7.769448852539063
5.649000000000001,6.664227294921876,-0.162994384765625,7.100424194335938
5.658999999999992,7.300204467773438,-0.289202880859375,6.7069946289062505
5.668999999999983,7.499685668945313,-0.1960418701171875,6.274237060546875
5.679000000000002,6.804043579101563,0.016748046875,6.452484130859376
5.688999999999993,6.86729736328125,0.1697235107421875,6.7712951660156255
5.698999999999984,7.121807861328126,-0.1244140625,7.051824951171875
5.709000000000003,7.181622314453126,-0.3701019287109375,6.953878784179688
5.718999999999994,6.996197509765626,-0.3240447998046875,7.08023681640625
5.728999999999985,6.710433959960938,0.2851654052734375,7.716064453125001
5.739000000000004,5.782562255859375,0.884954833984375,7.474862670898438
5.748999999999995,6.633123779296875,0.9091796875,7.586566162109375
5.759999999999991,7.377813720703125,0.4294677734375,6.637759399414063
5.769999999999982,7.9227233886718755,0.0165985107421875,6.060848999023438
5.780000000000001,6.541458129882813,0.1828826904296875,6.836343383789063
5.789999999999992,6.301004028320313,0.2477813720703125,7.223043823242188
5.799999999999983,6.768603515625,-0.1519287109375,8.454324340820314
5.810000000000002,6.99051513671875,-0.7687652587890625,6.6286376953125
5.819999999999993,7.043002319335938,-0.5431152343750001,6.745425415039063
5.829999999999984,6.972720336914063,-0.0109161376953125,6.127392578125001
5.840000000000003,7.053619384765626,0.1798919677734375,7.375869750976563
5.849999999999994,7.439572143554688,0.1882659912109375,7.114480590820313
5.859999999999985,6.626843261718751,0.198883056640625,6.5021301269531255
5.8700000000000045,6.509158325195313,0.435748291015625,6.763967895507813
5.879999999999996,6.790884399414063,0.5087219238281251,7.699166870117188
5.890999999999991,6.881951904296876,0.30206298828125,7.964443969726563
5.900999999999982,6.7279296875000005,0.19918212890625,6.900045776367188
5.911000000000001,6.358425903320313,0.2166778564453125,6.634619140625
5.920999999999992,6.885690307617188,0.12740478515625,7.061993408203126
5.930999999999983,7.374224853515625,-0.1278533935546875,7.628436279296875
5.9410000000000025,7.416094970703125,-0.430963134765625,6.246871948242188
5.950999999999993,7.232015991210938,-0.610107421875,5.679083251953125
5.960999999999984,7.0210205078125005,-0.5232269287109376,6.447848510742188
5.971000000000004,6.92113037109375,-0.168377685546875,7.850048828125001
5.9809999999999945,6.532785034179688,0.174359130859375,7.957864379882813
5.9909999999999854,6.331359863281251,0.499151611328125,7.131677246093751
6.001000000000005,6.515887451171875,0.7034179687500001,6.8550354003906255
6.010999999999996,7.170407104492188,0.8125793457031251,7.242633056640625
6.020999999999987,7.089508056640626,0.7517181396484376,7.158145141601563
6.031000000000006,6.921728515625,0.0387298583984375,6.12200927734375
6.042000000000002,7.4307495117187505,-0.7476806640625,5.748617553710938
6.0519999999999925,7.405178833007813,-1.370648193359375,6.81346435546875
6.061999999999983,6.67947998046875,-1.323394775390625,7.747018432617188
6.072000000000003,6.901092529296876,-0.27215576171875,8.3034423828125
6.081999999999994,5.8202453613281255,0.7233062744140626,7.512695312500001
6.0919999999999845,6.284255981445313,1.382012939453125,6.54130859375
6.102000000000004,7.364205932617188,1.7604888916015626,7.404580688476563
6.111999999999995,7.674194335937501,1.322198486328125,6.198571777343751
6.121999999999986,7.291531372070313,0.6120513916015625,6.7892395019531255
6.132000000000005,6.428408813476563,-0.225201416015625,6.417193603515625
6.143000000000001,6.381753540039063,-0.8166168212890625,7.945452880859375
6.151999999999987,6.67589111328125,-1.3821624755859376,8.049530029296875
6.162000000000006,7.096984863281251,-1.3325164794921875,7.141397094726563
6.17199999999999,6.810623168945313,-0.5967987060546875,6.390725708007813
6.181999999999995,6.968084716796875,0.5015441894531251,6.23924560546875
6.192999999999984,7.384542846679688,1.37752685546875,7.375122070312501
6.203000000000003,7.170706176757813,1.4534912109375,6.880157470703126
6.212999999999994,6.573608398437501,1.185671997070313,6.652413940429688
6.222999999999985,6.570169067382813,0.5176940917968751,6.956271362304688
6.233000000000004,6.631927490234376,-0.20037841796875,7.97984619140625
6.242999999999995,6.6501708984375005,-0.796728515625,7.929901123046876
6.252999999999986,6.715817260742188,-1.04794921875,6.905279541015625
6.263000000000005,6.849203491210938,-0.9102264404296876,6.210385131835938
6.272999999999996,7.368991088867188,-0.3695037841796875,6.662582397460938
6.282999999999994,7.572360229492188,0.259295654296875,6.926065063476563
6.293000000000006,7.331756591796876,0.5435638427734375,6.200216674804688
6.30299999999999,7.0114501953125,0.5807983398437501,6.108700561523438
6.312999999999995,6.896606445312501,0.371148681640625,7.101321411132813
6.323999999999984,6.455325317382813,0.2809783935546875,8.13895263671875
6.332999999999998,6.007015991210938,0.25361328125,8.383892822265626
6.343999999999994,6.206796264648438,0.042169189453125,7.379907226562499
6.353999999999985,6.966290283203126,-0.1242645263671875,6.780267333984376
6.364000000000004,7.699615478515626,-0.104376220703125,6.228329467773438
6.373999999999995,7.568771362304688,0.1015350341796875,6.451287841796876
6.383999999999986,6.698471069335938,0.102581787109375,6.31461181640625
6.3940000000000055,6.739144897460938,-0.02093505859375,6.801351928710938
6.403999999999996,7.168014526367188,-0.4065887451171875,7.307382202148438
6.413999999999994,6.929953002929688,-0.6736602783203125,7.084573364257813
6.424000000000007,7.168014526367188,-0.48509521484375,7.169509887695313
6.43399999999999,6.863858032226563,0.14415283203125,7.490713500976563
6.443999999999996,5.803048706054688,0.9135162353515626,7.031488037109376
6.454999999999984,6.741836547851563,1.2000274658203125,7.595239257812499
6.463999999999999,7.160836791992188,0.7988220214843751,7.015637207031251
6.473999999999997,7.756887817382813,0.3844573974609375,6.345266723632813
6.484999999999985,6.447698974609375,0.317315673828125,6.936083984375
6.4950000000000045,6.433792114257813,0.24942626953125,6.901690673828125
6.504999999999996,6.797463989257813,-0.3028106689453125,8.600869750976564
6.514999999999986,7.074105834960938,-0.9603210449218752,6.538916015625
6.525000000000006,7.118966674804688,-0.789251708984375,6.686657714843751
6.536000000000001,6.952383422851563,-0.3524566650390625,5.893667602539063
6.544999999999995,7.121359252929688,-0.045458984375,7.243231201171875
6.555000000000007,7.452581787109375,0.116339111328125,7.257736206054688
6.564999999999991,6.718658447265626,0.454290771484375,6.683367919921875
6.574999999999996,6.25419921875,0.8275329589843751,6.839483642578125
6.584999999999987,6.590206909179688,0.945965576171875,7.655801391601563
6.594999999999999,6.941915893554688,0.6308929443359376,8.161383056640625
6.60499999999999,6.742584228515626,0.3114837646484375,6.919934082031251
6.614999999999981,6.372930908203125,0.1407135009765625,6.588711547851563
6.626000000000005,6.797314453125001,-0.18004150390625,7.0234130859375
6.635999999999996,7.283306884765626,-0.4646087646484375,7.721896362304688
6.645999999999987,7.6460815429687505,-0.78775634765625,6.286050415039063
6.656000000000006,7.476208496093751,-0.8931793212890625,5.326626586914063
6.665999999999997,7.267904663085938,-0.7378112792968751,5.793478393554688
6.675999999999995,6.976907348632813,-0.170172119140625,7.774832153320313
6.686000000000007,6.3989501953125005,0.4912261962890625,8.432192993164064
6.695999999999998,5.971127319335938,0.9322082519531252,7.622604370117188
6.705999999999996,6.393118286132813,0.9772186279296876,6.876568603515626
6.71599999999998,7.126593017578125,0.8638702392578126,7.073208618164063
6.725999999999999,7.130780029296876,0.7390075683593751,7.025506591796876
6.73599999999999,7.182220458984376,0.0037384033203125,6.052923583984375
6.745999999999981,7.577893066406251,-1.0226776123046877,5.905331420898438
6.757000000000005,6.905429077148438,-1.8460235595703127,6.71776123046875
6.765999999999991,7.404281616210938,-1.1940460205078125,8.027697753906251
6.776999999999987,6.257489013671876,0.1544708251953125,8.398248291015626
6.787000000000006,5.275784301757813,0.8836090087890626,7.078143310546875
6.79699999999999,7.107302856445313,1.3882934570312502,6.969430541992188
6.806999999999995,7.616473388671875,1.493267822265625,6.715817260742188
6.817000000000007,7.63651123046875,1.3697509765625,6.677685546875001
6.826999999999998,6.690246582031251,0.666632080078125,6.44261474609375
6.836999999999996,6.413604736328126,-0.273052978515625,6.8131652832031255
6.84699999999998,6.679629516601563,-1.0907165527343752,8.332601928710938
6.856999999999999,6.676040649414063,-1.4496032714843752,7.678680419921876
6.86699999999999,6.648974609375,-1.0014434814453126,7.131527709960938
6.876999999999981,6.9671875000000005,-0.3668121337890625,6.036474609375
6.8870000000000005,7.344616699218751,0.6433044433593751,6.863708496093751
6.896999999999991,7.511648559570313,1.245635986328125,6.730621337890626
6.907999999999994,6.80150146484375,1.29498291015625,6.6920410156250005
6.918000000000006,6.78355712890625,0.914862060546875,6.772640991210938
6.92799999999999,6.588861083984376,0.107366943359375,7.404431152343751
6.937999999999995,6.582281494140625,-0.43485107421875,7.967135620117188
6.948000000000008,6.443063354492188,-0.7463348388671875,7.579837036132813
6.957999999999998,6.563888549804688,-0.7357177734375,7.052871704101563
6.967999999999996,7.055862426757813,-0.44561767578125,6.562393188476563
6.97799999999998,7.434786987304688,0.0892730712890625,6.7997070312500005
6.988,7.510302734375,0.493170166015625,6.157598876953125
6.997999999999991,7.328616333007813,0.4765716552734375,6.072662353515625
7.007999999999981,7.303195190429688,0.3013153076171875,6.525158691406251
7.018000000000001,6.472372436523438,-0.0366363525390625,7.4780029296875
7.027999999999992,6.157897949218751,0.0418701171875,8.394509887695314
7.037999999999983,6.01553955078125,-0.0198883056640625,7.90328369140625
7.048000000000002,6.745724487304688,-0.1604522705078125,7.310971069335938
7.05899999999999,7.353588867187501,0.01435546875,6.353790283203126
7.068999999999996,7.352542114257813,0.2986236572265625,6.298611450195313
7.078999999999986,6.986029052734375,0.5434143066406251,6.4755126953125
7.088999999999999,7.014889526367188,0.239556884765625,6.481494140625
7.098999999999997,7.484732055664063,-0.3720458984375,6.905877685546876
7.1089999999999804,6.779220581054688,-0.996807861328125,6.744528198242188
7.119,7.037170410156251,-0.7046142578125001,7.7890380859375
7.128999999999991,6.237002563476563,0.119329833984375,8.212225341796875
7.138999999999982,5.814413452148438,0.7041656494140626,7.263568115234375
7.149000000000001,6.954476928710938,1.0515380859375,7.1107421875000005
7.158999999999992,7.7058959960937505,0.710296630859375,6.154458618164063
7.168999999999983,7.850646972656251,0.7787841796875,6.5320373535156255
7.179000000000002,6.303695678710938,0.62506103515625,6.784304809570313
7.188999999999993,6.529046630859376,0.3237457275390625,7.51090087890625
7.199999999999996,6.299508666992188,-0.499151611328125,8.301947021484375
7.209999999999987,7.013693237304688,-1.0466033935546877,7.017581176757813
7.219999999999999,6.981991577148438,-0.802410888671875,6.887634277343751
7.22999999999999,7.061245727539063,-0.468646240234375,5.864208984375001
7.239999999999981,7.462301635742188,-0.024224853515625,6.893765258789063
7.25,7.477554321289063,0.1662841796875,6.7593322753906255
7.259999999999991,6.587963867187501,0.6386688232421875,6.676040649414063
7.269999999999982,6.505569458007813,0.8166168212890625,7.1813232421875
7.280000000000001,6.574057006835938,0.7343719482421875,7.733859252929688
7.289999999999992,6.684713745117188,0.4879364013671875,7.956817626953126
7.299999999999983,6.445455932617188,0.3093902587890625,7.182220458984376
7.310000000000002,6.500933837890625,0.2199676513671875,6.954327392578126
7.319999999999993,6.9268127441406255,-0.1317413330078125,7.0030761718750005
7.329999999999984,7.519573974609376,-0.46416015625,6.965243530273438
7.34099999999998,7.655801391601563,-0.6930999755859375,6.07176513671875
7.350999999999999,7.295867919921876,-0.748577880859375,5.577996826171876
7.36099999999999,7.2243896484375005,-0.584686279296875,6.560748291015625
7.370999999999981,6.730172729492188,-0.26856689453125,7.713970947265626
7.381,6.471026611328125,0.320306396484375,8.121905517578126
7.390999999999991,6.070120239257813,0.7210632324218751,7.323382568359375
7.400999999999982,6.583328247070313,1.0113128662109376,7.241586303710938
7.411000000000001,7.0975830078125,1.024322509765625,7.171304321289063
7.420999999999992,7.0114501953125,0.790447998046875,6.849951171875
7.430999999999983,7.020272827148438,0.072076416015625,5.895611572265626
7.441000000000002,7.889077758789063,-0.98035888671875,5.792730712890625
7.453000000000003,7.2148193359375,-1.7132354736328126,7.026553344726563
7.460999999999984,6.686209106445313,-1.6416076660156251,7.392169189453125
7.47199999999998,6.833053588867188,-0.1912567138671875,8.664422607421876
7.481999999999999,5.196231079101563,0.8815155029296876,7.574603271484375
7.49199999999999,6.711331176757813,1.5173431396484376,6.684713745117188
7.501999999999981,7.622305297851563,1.831369018554688,7.24771728515625
7.512,7.742382812500001,1.5041839599609377,5.812918090820313
7.521999999999991,7.014590454101563,0.9870880126953124,6.933990478515626
7.531999999999982,6.417492675781251,-0.1783966064453125,6.3893798828125
7.542000000000002,6.49345703125,-1.064996337890625,8.434585571289062
7.551999999999992,6.562393188476563,-1.7486755371093752,7.811767578125001
7.561999999999983,6.888381958007813,-1.4322570800781251,7.279119873046875
7.572000000000003,6.743032836914063,-0.578106689453125,6.29666748046875
7.581999999999994,7.253848266601563,0.4714874267578125,6.4243713378906255
7.591999999999984,7.744775390625,1.409527587890625,6.986029052734375
7.602000000000004,6.914102172851563,1.5562225341796876,6.4491943359375
7.611999999999995,6.582879638671876,1.362124633789063,6.772940063476563
7.621999999999986,6.599179077148438,0.5265167236328125,7.484732055664063
7.632999999999981,6.499737548828126,-0.3378021240234375,8.142840576171876
7.643000000000001,6.491363525390626,-0.8522064208984376,7.681072998046876
7.652999999999992,6.592449951171876,-1.0409210205078123,6.862960815429688
7.6629999999999825,6.980047607421875,-0.8403930664062501,6.508261108398438
7.673000000000002,7.558453369140626,-0.33555908203125,6.696377563476563
7.682999999999993,7.605856323242188,0.329278564453125,6.397454833984376
7.692999999999984,7.231268310546875,0.5479003906250001,5.959014892578125
7.703000000000003,7.149920654296875,0.5767608642578126,6.339434814453125
7.712999999999994,6.817202758789063,0.368756103515625,7.533630371093751
7.722999999999985,6.261975097656251,0.1490875244140625,8.087960815429689
7.733000000000004,5.99998779296875,0.155218505859375,8.1957763671875
7.742999999999995,6.287246704101563,-0.084039306640625,7.230819702148438
7.752999999999986,7.191342163085938,-0.0617584228515625,7.062591552734376
7.763000000000005,7.566827392578125,0.0426177978515625,6.111392211914063
7.774000000000001,7.517330932617188,0.1936492919921875,6.24283447265625
7.783999999999992,6.714471435546876,0.1493865966796875,6.346163940429688
7.793999999999983,6.944009399414063,-0.0548797607421875,6.8625122070312505
7.804000000000002,7.173696899414063,-0.3808685302734375,7.487872314453125
7.813999999999993,6.696377563476563,-0.78177490234375,6.9985900878906255
7.823999999999984,7.303045654296875,-0.424981689453125,7.46544189453125
7.834000000000003,6.2987609863281255,0.234771728515625,7.2513061523437505
7.843999999999994,6.1910949707031255,0.9941162109375,7.365850830078125
7.853999999999985,6.897055053710938,1.1281005859375002,7.380355834960938
7.864000000000004,7.555911254882813,0.5573211669921876,6.4731201171875
7.873999999999995,7.5043212890625,0.46475830078125,6.520822143554688
7.883999999999986,6.138906860351563,0.341839599609375,6.8131652832031255
7.894000000000005,6.672601318359376,0.2811279296875,7.872329711914063
7.903999999999996,6.637460327148438,-0.6042755126953125,7.954425048828125
7.914999999999992,7.185659790039063,-0.9534423828125,6.64957275390625
7.924999999999983,6.934439086914063,-0.6183319091796875,6.399249267578125
7.935000000000002,7.081582641601563,-0.189013671875,6.265115356445313
7.944999999999993,7.422973632812501,0.0593658447265625,7.180575561523438
7.954999999999984,7.215118408203126,0.094207763671875,6.94505615234375
7.965000000000003,6.4961486816406255,0.5561248779296876,6.4557739257812505
7.974999999999994,6.344967651367188,0.7914947509765625,7.491760253906251
7.984999999999985,6.691891479492188,0.8273834228515625,7.935433959960938
7.995000000000003,6.820642089843751,0.471337890625,7.860665893554688
8.004999999999995,6.590206909179688,0.2549591064453125,6.543701171875001
8.014999999999986,6.621160888671875,0.1296478271484375,6.680825805664063
8.025000000000006,7.016384887695313,-0.21353759765625,7.309176635742188
8.034999999999997,7.477703857421876,-0.478216552734375,7.168463134765625
8.044999999999995,7.326223754882813,-0.7672698974609375,6.175393676757813
8.055000000000007,7.3006530761718755,-0.8076446533203125,5.311224365234375
8.06499999999999,7.249960327148438,-0.5565734863281251,6.8798583984375
8.075999999999993,6.782360839843751,-0.045758056640625,7.795169067382813
8.085999999999984,6.330163574218751,0.5763122558593751,8.088558959960938
8.096000000000004,6.020474243164063,0.9153106689453124,7.177883911132813
8.105999999999995,6.78056640625,1.0114624023437502,7.111938476562501
8.115999999999985,7.200015258789063,0.8563934326171876,7.191940307617188
8.126000000000005,7.118069458007813,0.5985931396484375,6.760528564453126
8.135999999999996,6.732116699218751,-0.1757049560546875,6.0834289550781255
8.145999999999987,7.7196533203125,-1.1328857421875,5.914602661132813
8.156000000000006,7.446899414062501,-1.773797607421875,7.009655761718751
8.165999999999997,6.596038818359376,-1.612896728515625,7.239791870117188
8.175999999999995,6.83140869140625,-0.125311279296875,8.483035278320314
8.186000000000007,5.633474731445313,1.1100067138671876,7.698568725585938
8.195999999999998,6.538766479492188,1.8185089111328123,6.867596435546876
8.206999999999994,7.355084228515626,2.067037963867188,7.209286499023438
8.216999999999985,7.624099731445313,1.5134552001953123,5.69134521484375
8.227000000000004,7.2393432617187505,0.6782958984375,6.932196044921875
8.236999999999995,6.530242919921876,-0.509918212890625,6.714920043945313
8.246999999999986,6.38878173828125,-1.2837677001953125,8.221795654296876
8.257000000000005,6.478802490234376,-1.801312255859375,7.691241455078125
8.266999999999996,6.986477661132813,-1.4780151367187502,7.200015258789063
8.276999999999987,6.981094360351563,-0.5381805419921876,6.459960937500001
8.287000000000006,7.211380004882813,0.6806884765625001,6.279769897460938
8.29699999999999,7.470825195312501,1.71787109375,6.951486206054688
8.306999999999995,6.884344482421875,1.795779418945313,6.781613159179688
8.317000000000007,6.648825073242188,1.415957641601563,7.027450561523438
8.326999999999998,6.530691528320313,0.49287109375,7.383795166015625
8.337999999999994,6.471923828125001,-0.47373046875,7.816851806640625
8.34699999999998,6.6471801757812505,-1.1249603271484376,7.638455200195313
8.358000000000004,6.795669555664063,-1.33087158203125,6.907821655273438
8.367999999999995,6.939523315429688,-0.9754241943359376,6.572561645507813
8.377999999999986,7.299307250976563,-0.25540771484375,6.651815795898438
8.388000000000005,7.54678955078125,0.4843475341796875,6.522167968750001
8.397999999999996,7.467535400390625,0.713287353515625,5.962603759765625
8.407999999999994,7.376019287109376,0.660650634765625,6.0783447265625
8.418000000000006,6.663031005859375,0.475823974609375,7.4086181640625
8.42799999999999,6.0225677490234375,0.2800811767578125,8.268899536132814
8.437999999999995,5.868994140625,0.2005279541015625,8.751602172851562
8.448000000000008,6.394314575195313,-0.23447265625,7.35478515625
8.457999999999998,7.309027099609375,-0.32838134765625,6.526803588867188
8.467999999999996,7.594192504882813,-0.0856842041015625,5.882153320312501
8.47799999999998,7.406375122070313,0.264678955078125,6.373529052734376
8.488,6.816604614257813,0.3479705810546875,6.826324462890626
8.498999999999995,6.976907348632813,-0.01614990234375,6.599627685546875
8.508999999999986,7.135864257812501,-0.490478515625,6.9253173828125005
8.519000000000005,6.781463623046876,-0.7837188720703125,6.974215698242188
8.528999999999996,6.986477661132813,-0.443524169921875,7.832403564453125
8.538999999999994,6.767855834960938,0.201275634765625,8.011398315429688
8.549000000000007,5.838937377929688,0.8318695068359375,6.725836181640625
8.55899999999999,6.828866577148438,1.1793914794921876,6.970626831054688
8.568999999999996,7.441665649414063,0.8124298095703125,6.846063232421876
8.578999999999986,7.876068115234376,0.53533935546875,6.738098144531251
8.588999999999999,6.265115356445313,0.3452789306640625,7.008010864257813
8.598999999999997,6.191244506835938,0.1975372314453125,6.774285888671876
8.60899999999998,6.673348999023438,-0.3973175048828125,8.657992553710939
8.619,7.132125854492188,-1.0214813232421875,6.819296264648438
8.62899999999999,7.205697631835938,-0.7962799072265626,6.8320068359375
8.639999999999986,6.975860595703126,-0.440533447265625,5.4109649658203125
8.650000000000006,7.325326538085938,-0.0755157470703125,6.980197143554688
8.659999999999997,7.521368408203125,0.1299468994140625,7.356878662109375
8.669999999999995,6.49644775390625,0.539825439453125,6.831707763671876
8.680000000000007,6.187655639648438,0.8868988037109375,7.121957397460938
8.68999999999999,6.492111206054688,0.9203948974609376,7.554266357421875
8.699999999999996,6.9327941894531255,0.657659912109375,8.241534423828126
8.709999999999987,6.736602783203126,0.3339141845703125,6.956121826171875
8.719999999999999,6.506466674804688,0.1619476318359375,6.603515625000001
8.72999999999999,6.816903686523438,-0.311932373046875,6.724041748046876
8.73999999999998,7.567425537109376,-0.6732116699218751,7.290634155273438
8.75,7.54439697265625,-0.89661865234375,6.543551635742188
8.759999999999991,7.23575439453125,-0.925927734375,5.4259185791015625
8.769999999999982,7.109097290039063,-0.5994903564453126,6.3534912109375
8.780000000000001,6.938476562500001,-0.0835906982421875,7.563537597656251
8.789999999999992,6.437081909179688,0.63223876953125,8.383892822265626
8.800999999999995,6.0355773925781255,1.101931762695313,7.412356567382813
8.811000000000007,6.387435913085938,1.1841766357421877,7.053021240234376
8.820999999999998,7.11612548828125,0.8688049316406251,7.01085205078125
8.830999999999996,7.280914306640626,0.38460693359375,6.751556396484376
8.84099999999998,7.447647094726563,-0.3689056396484375,5.923724365234375
8.852000000000004,7.4265625,-1.3423858642578126,6.011801147460938
8.86099999999999,6.845614624023438,-1.7690124511718752,7.096984863281251
8.870999999999981,7.184463500976563,-0.9401336669921876,8.300152587890626
8.881,5.610296630859375,0.4481597900390625,8.236749267578126
8.890999999999991,5.882153320312501,1.1521759033203125,6.827819824218751
8.900999999999982,7.437179565429688,1.5681854248046876,7.326223754882813
8.911000000000001,7.787991333007813,1.6130462646484376,6.160140991210938
8.920999999999992,7.23515625,1.4473602294921877,6.6681152343750005
8.930999999999983,6.544448852539063,0.5363861083984376,6.331509399414063
8.942000000000007,6.639254760742188,-0.7597930908203125,7.559948730468751
8.951999999999998,6.673648071289063,-1.592410278320313,8.161981201171876
8.961999999999996,6.725387573242188,-1.594354248046875,7.438226318359375
8.97199999999998,6.345266723632813,-0.8517578125,7.0389648437500005
8.982,7.092498779296876,-0.08553466796875,6.12200927734375
8.99199999999999,7.85184326171875,0.8290283203125001,7.080984497070313
9.001999999999981,7.3485046386718755,1.4485565185546876,6.184216308593751
9.012,6.49644775390625,1.62874755859375,6.698321533203125
9.021999999999991,6.730471801757813,1.01026611328125,7.252651977539063
9.031999999999982,6.526205444335938,0.05263671875,8.095138549804688
9.042000000000002,6.468783569335938,-0.605023193359375,7.858422851562499
9.051999999999992,6.438278198242188,-0.953741455078125,6.985281372070313
9.061999999999983,6.839184570312501,-1.01983642578125,6.722994995117188
9.073000000000008,7.505218505859376,-0.7001281738281251,6.679180908203126
9.082999999999998,7.564584350585938,-0.0587677001953125,6.596636962890625
9.092999999999996,7.219454956054688,0.48031005859375,5.806637573242188
9.10299999999998,7.241586303710938,0.5964996337890626,6.306088256835938
9.113,7.2378479003906255,0.4858428955078125,7.021170043945313
9.12299999999999,6.395211791992188,0.285015869140625,7.861264038085938
9.13299999999998,5.957220458984375,0.2788848876953125,7.989865112304688
9.143,5.909069824218751,0.1855743408203125,7.976107788085938
9.152999999999992,6.988421630859375,-0.0773101806640625,7.328167724609376
9.162999999999982,7.553967285156251,-0.0895721435546875,6.402838134765625
9.173000000000002,7.535574340820313,-0.0055328369140625,5.745477294921876
9.182999999999993,6.673947143554688,0.0853851318359375,6.220553588867188
9.192999999999984,7.140350341796876,-0.002093505859375,6.893316650390625
9.203000000000005,7.243231201171875,-0.410626220703125,7.5138916015625
9.212999999999994,6.850399780273438,-0.7708587646484376,6.844866943359375
9.223999999999997,7.246221923828125,-0.396868896484375,7.191940307617188
9.23399999999998,6.058157348632813,0.399261474609375,7.524807739257813
9.244,6.084475708007813,1.04974365234375,7.760028076171875
9.25399999999999,6.894961547851563,1.12869873046875,7.617669677734375
9.263999999999982,7.649670410156251,0.4185516357421875,5.9253692626953125
9.274,7.4923583984375,0.286810302734375,6.550131225585938
9.283999999999992,6.241339111328125,0.37264404296875,6.555364990234375
9.293999999999984,6.697274780273438,0.2334259033203125,8.205645751953126
9.304000000000002,6.672750854492188,-0.6440521240234376,7.917190551757813
9.313999999999991,7.183267211914063,-1.07606201171875,6.264218139648438
9.323999999999984,6.874774169921875,-0.5570220947265625,6.585421752929688
9.334000000000003,6.938476562500001,0.0477020263671875,6.514990234375
9.343999999999994,7.284204101562499,0.224005126953125,7.606454467773438
9.353999999999983,7.380206298828125,0.107965087890625,6.544448852539063
9.36499999999998,6.635665893554688,0.430364990234375,6.225189208984376
9.375,6.375622558593751,0.7629333496093751,7.347308349609375
9.384999999999993,6.662432861328125,0.777288818359375,8.150167846679688
9.394999999999982,6.785800170898438,0.390289306640625,8.03607177734375
9.405,6.478952026367188,0.1179840087890625,6.376370239257813
9.414999999999992,6.504971313476563,0.1072174072265625,6.748715209960938
9.424999999999985,7.150967407226563,-0.0442626953125,7.376766967773438
9.435000000000002,7.461553955078125,-0.3823638916015625,7.26207275390625
9.444999999999991,7.442861938476563,-0.6470428466796876,5.903536987304688
9.454999999999984,7.289886474609376,-0.7705596923828125,5.155557250976563
9.465000000000003,7.260726928710938,-0.6024810791015626,6.843521118164063
9.474999999999994,6.865054321289063,-0.120526123046875,8.095736694335939
9.484999999999983,6.196627807617188,0.3889434814453125,8.058801269531251
9.495000000000005,5.954977416992188,0.8074951171875001,7.194631958007813
9.504999999999995,6.59573974609375,1.0114624023437502,7.082031250000001
9.515999999999991,7.263717651367188,0.9814056396484376,7.375271606445313
9.525999999999982,7.264465332031251,0.5785552978515626,6.491961669921875
9.536,7.089059448242188,-0.2154815673828125,5.702261352539063
9.545999999999992,7.871731567382813,-1.1355773925781252,5.7115325927734375
9.555999999999983,6.798809814453126,-1.846621704101563,7.3485046386718755
9.566000000000004,6.960159301757813,-1.233523559570313,8.119961547851563
9.575999999999992,6.098980712890626,0.1825836181640625,8.551373291015626
9.585999999999984,5.395114135742188,1.10537109375,7.1062561035156255
9.596000000000004,7.2632690429687505,1.722955322265625,6.930850219726563
9.605999999999996,7.762420654296876,1.79383544921875,6.613385009765626
9.615999999999984,7.6359130859375,1.4449676513671876,6.049783325195313
9.626000000000005,6.739144897460938,0.5333953857421876,6.626992797851563
9.635999999999996,6.5066162109375005,-0.6285003662109375,6.983935546875
9.645999999999988,6.420632934570313,-1.4412292480468751,8.666815185546875
9.656999999999982,6.620562744140625,-1.7201141357421876,7.598080444335938
9.667000000000002,6.707891845703125,-1.1774475097656252,7.044049072265626
9.676999999999992,7.013394165039063,-0.265576171875,5.881405639648438
9.686999999999983,7.612435913085938,0.89661865234375,6.811968994140625
9.697000000000005,7.472171020507813,1.6004852294921876,6.784304809570313
9.706999999999994,6.636712646484376,1.7335723876953126,6.587664794921875
9.716999999999985,6.592898559570313,1.1919525146484375,7.152462768554688
9.727000000000004,6.412109375000001,0.2591461181640625,7.778421020507813
9.736999999999997,6.488372802734376,-0.509320068359375,8.115475463867188
9.746999999999986,6.5783935546875005,-1.0561737060546876,7.304690551757813
9.757000000000003,6.848455810546875,-1.1566619873046875,6.629534912109375
9.769000000000004,7.132125854492188,-0.8571411132812501,6.479400634765626
9.776999999999989,7.632025146484375,-0.1769012451171875,6.76322021484375
9.787999999999982,7.461404418945313,0.44501953125,6.254946899414063
9.798000000000002,7.2746337890625,0.6314910888671875,5.8606201171875005
9.807999999999993,7.211380004882813,0.505133056640625,6.532186889648438
9.817999999999984,6.507064819335938,0.366064453125,7.808477783203125
9.828000000000005,6.027352905273438,0.3674102783203125,8.524008178710938
9.837999999999994,5.888583374023438,0.198284912109375,8.14014892578125
9.847999999999985,6.698171997070313,-0.0838897705078125,7.057806396484375
9.858000000000004,7.396057128906251,-0.2145843505859375,6.3944641113281255
9.869,7.6685119628906255,0.01016845703125,6.081484985351563
9.877999999999986,7.1526123046875005,0.2205657958984375,6.496746826171876
9.888000000000003,6.759033203125001,0.059814453125,6.775482177734376
9.897999999999996,7.035525512695313,-0.180340576171875,6.820791625976563
9.907999999999994,7.067974853515626,-0.5740692138671876,6.8744750976562505
9.918000000000006,6.754248046875,-0.6219207763671876,7.208987426757813
9.92799999999999,7.120611572265625,-0.2603424072265625,7.579986572265626
9.938999999999991,6.522616577148438,0.435150146484375,7.859320068359375
9.948999999999984,6.043801879882813,1.012210083007813,6.776828002929688
9.959000000000003,6.868643188476563,1.1620452880859375,7.229324340820313
9.968999999999994,7.538864135742188,0.6914550781250001,6.496298217773438
9.978999999999983,7.682717895507813,0.260791015625,6.841427612304688
9.989000000000004,6.189749145507813,0.15850830078125,6.874923706054688
9.998999999999995,6.319696044921876,0.0240753173828125,7.41160888671875
10.008999999999986,6.652713012695313,-0.464459228515625,8.368789672851562
10.019000000000004,7.2513061523437505,-0.921142578125,6.601272583007813
10.028999999999996,7.231716918945313,-0.634033203125,6.478353881835938
10.038999999999994,7.082778930664063,-0.1589569091796875,5.620166015625
10.049000000000008,7.200762939453125,0.147442626953125,7.353738403320313
10.05899999999999,7.330709838867188,0.2881561279296875,7.261474609375001
10.068999999999996,6.360369873046875,0.484796142578125,6.969580078125
10.078999999999986,6.268106079101563,0.7031188964843751,7.062142944335938
10.090000000000003,6.696078491210938,0.7059600830078125,7.73460693359375
10.099999999999994,6.90677490234375,0.482403564453125,7.987322998046875
10.109999999999983,6.794024658203125,0.2923431396484375,6.716116333007813
10.120000000000005,6.531289672851563,0.0985443115234375,6.521270751953126
10.129999999999995,7.038516235351563,-0.191107177734375,6.828118896484376
10.139999999999986,7.3727294921875,-0.5495452880859375,7.498788452148438
10.150000000000006,7.5728088378906255,-0.7101470947265626,6.260031127929688
10.159999999999997,6.990664672851563,-0.7796813964843751,5.713177490234376
10.169999999999996,7.183715820312501,-0.55328369140625,6.566729736328125
10.180000000000009,6.824978637695313,0.0491973876953125,7.826721191406251
10.18999999999999,6.42227783203125,0.6041259765625,8.084072875976563
10.199999999999996,6.197225952148438,0.983349609375,7.253997802734376
10.209999999999988,6.591104125976563,0.9764709472656252,6.913055419921876
10.22,7.149322509765626,0.8004669189453125,7.092648315429688
10.230999999999996,7.121359252929688,0.3345123291015625,6.800604248046875
10.240999999999984,7.352691650390626,-0.411822509765625,5.969332885742188
10.251000000000005,7.687203979492188,-1.3310211181640623,5.876321411132813
10.260999999999996,6.710433959960938,-1.8887908935546875,7.063189697265625
10.270999999999988,7.201361083984375,-0.8082427978515626,8.33634033203125
10.281000000000006,5.5859222412109375,0.6619964599609376,8.462847900390626
10.290999999999997,5.630484008789063,1.294384765625,6.7961181640625
10.300999999999997,7.488470458984375,1.5825408935546876,7.236053466796876
10.311000000000009,7.971920776367188,1.4494537353515626,6.06219482421875
10.320999999999998,7.349252319335938,1.3642181396484376,6.668264770507813
10.330999999999996,6.453979492187501,0.45159912109375,6.4363342285156255
10.34099999999998,6.5275512695312505,-0.79373779296875,7.513143920898438
10.351,6.691741943359376,-1.6878143310546876,8.19876708984375
10.36099999999999,6.838735961914063,-1.5967468261718751,7.462002563476563
10.371999999999986,6.4288574218750005,-0.791943359375,7.000833129882813
10.382000000000003,6.987374877929688,0.0267669677734375,5.9946044921875
10.391999999999996,7.835394287109375,0.9625640869140626,7.075003051757813
10.401999999999989,7.350598144531251,1.4958099365234376,6.382052612304688
10.412000000000006,6.446054077148438,1.715029907226563,6.741088867187501
10.42199999999999,6.626843261718751,0.993817138671875,7.172500610351563
10.431999999999997,6.610842895507813,-0.05203857421875,7.956817626953126
10.442000000000007,6.5353271484375,-0.7228576660156251,7.933938598632813
10.451999999999998,6.413006591796876,-1.0223785400390626,7.0736572265625
10.461999999999996,6.842922973632813,-0.97138671875,6.661685180664063
10.47199999999998,7.3846923828125,-0.734222412109375,6.590206909179688
10.482,7.827767944335938,-0.08673095703125,6.550579833984376
10.49199999999999,7.177285766601563,0.4894317626953125,6.01494140625
10.502999999999986,7.152163696289063,0.6954925537109375,6.088513183593751
10.512,7.138406372070313,0.5161987304687501,7.223641967773438
10.522999999999996,6.481045532226563,0.265576171875,7.79561767578125
10.532999999999994,5.981146240234375,0.284716796875,8.227926635742188
10.543000000000006,5.910116577148438,0.1526763916015625,7.661334228515625
10.55299999999999,6.835745239257813,0.0240753173828125,7.490414428710938
10.562999999999995,7.578939819335938,-0.1269561767578125,6.441567993164063
10.573000000000008,7.70888671875,-0.021832275390625,5.825479125976563
10.582999999999998,6.908120727539063,0.05323486328125,5.969631958007813
10.592999999999996,6.906924438476563,-0.0497955322265625,6.764266967773438
10.60299999999998,7.104312133789063,-0.3222503662109375,7.710083007812501
10.613,6.910513305664063,-0.7879058837890626,6.857577514648438
10.62299999999999,6.904531860351563,-0.5653961181640625,7.219903564453125
10.63299999999998,6.99649658203125,0.170770263671875,7.553369140625
10.643,5.767907714843751,1.0477996826171876,7.479199218750001
10.652999999999992,6.693237304687501,1.30634765625,7.312167358398438
10.662999999999982,7.179528808593751,0.844580078125,6.836044311523438
10.674000000000008,7.847656250000001,0.28770751953125,6.1182708740234375
10.68399999999999,6.665274047851563,0.2100982666015625,7.066030883789063
10.693999999999996,6.176141357421876,0.193499755859375,7.11552734375
10.703999999999986,6.665423583984375,-0.386102294921875,8.429501342773438
10.714,7.011599731445313,-1.0286590576171877,6.733462524414063
10.723999999999997,7.270147705078125,-0.8309722900390626,6.626843261718751
10.73399999999998,6.949990844726563,-0.189013671875,6.087765502929688
10.744,7.070068359375001,0.224603271484375,6.957467651367188
10.75399999999999,7.407272338867188,0.2050140380859375,7.305886840820313
10.763999999999982,6.836492919921875,0.392083740234375,6.647479248046875
10.774,6.269900512695313,0.7722045898437501,7.000683593750001
10.783999999999992,6.431549072265626,0.8614776611328125,7.666717529296876
10.793999999999984,6.913055419921876,0.5366851806640626,8.128335571289064
10.804000000000002,6.808380126953126,0.1649383544921875,6.943710327148438
10.81499999999999,6.528448486328125,0.0794036865234375,6.484783935546876
10.824999999999996,6.700714111328126,-0.0761138916015625,7.008010864257813
10.834999999999988,7.321139526367188,-0.326885986328125,7.573406982421876
10.845,7.476208496093751,-0.6530242919921876,6.611889648437501
10.85499999999999,7.41759033203125,-0.7648773193359375,5.226287841796875
10.86499999999998,7.287493896484375,-0.6759033203125,5.951687622070313
10.875,7.201062011718751,-0.312530517578125,7.397552490234376
10.884999999999993,6.377267456054688,0.3285308837890625,8.403182983398438
10.894999999999982,5.956024169921875,0.7614379882812501,7.682867431640625
10.905,6.201712036132813,1.0095184326171875,7.197174072265626
10.914999999999992,7.053768920898438,0.9770690917968752,7.214071655273438
10.924999999999985,7.311718750000001,0.8406921386718751,7.1002746582031255
10.935000000000002,6.956869506835938,0.266473388671875,6.196179199218751
10.944999999999991,7.231716918945313,-0.6672302246093751,5.624951171875001
10.955999999999996,7.97685546875,-1.54859619140625,6.270349121093751
10.96599999999998,6.918588256835938,-2.0543273925781254,7.190444946289063
10.976,6.600674438476563,-1.2377105712890626,7.799804687500001
10.98599999999999,6.24522705078125,0.4701416015625,8.654403686523438
10.99599999999998,5.34801025390625,1.619775390625,7.588211059570313
11.006,7.216464233398438,2.21492919921875,6.990963745117188
11.015999999999991,7.683166503906251,2.09649658203125,6.307284545898438
11.025999999999982,7.713372802734375,1.4042938232421875,5.811123657226563
11.036,6.988421630859375,0.312530517578125,6.81107177734375
11.045999999999992,6.3798095703125,-0.9920227050781252,7.203005981445313
11.055999999999983,6.277078247070313,-1.8409393310546875,8.533129882812501
11.066000000000004,6.4874755859375,-2.092608642578125,7.598977661132813
11.075999999999992,6.970028686523438,-1.3058990478515626,7.114630126953125
11.086999999999996,7.091152954101563,-0.0716278076171875,5.969931030273438
11.09699999999998,7.578192138671875,1.215728759765625,6.436483764648438
11.107,7.521218872070313,1.97327880859375,6.6705078125
11.11699999999999,6.655255126953126,1.9574279785156248,6.725537109375001
11.12699999999998,6.415548706054688,1.379022216796875,7.476806640625001
11.137,6.293975830078126,0.241949462890625,7.943359375000001
11.146999999999991,6.386837768554688,-0.774298095703125,8.05401611328125
11.156999999999982,6.746023559570313,-1.3833587646484375,7.204650878906251
11.168000000000006,6.899746704101563,-1.3649658203125,6.636563110351563
11.176999999999992,7.133322143554688,-0.8973663330078125,6.410763549804688
11.186999999999983,7.670904541015625,-0.11424560546875,6.666171264648438
11.197000000000005,7.578640747070313,0.5164978027343751,6.04783935546875
11.206999999999994,7.436431884765626,0.6702209472656251,5.804843139648438
11.216999999999985,7.250408935546876,0.6015838623046875,6.447998046875001
11.227000000000004,6.407174682617188,0.3883453369140625,7.882348632812499
11.238,5.857330322265625,0.3198577880859375,8.7412841796875
11.24799999999999,5.784207153320313,0.173760986328125,8.400491333007814
11.25799999999998,6.496298217773438,-0.0441131591796875,7.211080932617188
11.268,7.4800964355468755,-0.105572509765625,6.347958374023438
11.277999999999992,7.721597290039063,0.07177734375,6.01434326171875
11.287999999999982,7.437927246093751,0.22490234375,6.123056030273438
11.298000000000002,6.827520751953125,0.026019287109375,6.501232910156251
11.307999999999993,7.11552734375,-0.3455780029296875,6.770697021484375
11.317999999999984,7.011300659179688,-0.8227478027343751,7.067376708984376
11.328000000000005,6.478952026367188,-0.8140747070312501,7.506564331054688
11.337999999999994,6.936233520507813,-0.2480804443359375,7.725335693359375
11.347999999999985,6.51798095703125,0.552685546875,7.9349853515625
11.358000000000004,6.193487548828125,1.1853729248046876,6.525308227539063
11.369,7.102069091796875,1.3399932861328123,6.960757446289063
11.37899999999999,7.565481567382813,0.938787841796875,6.4874755859375
11.388999999999982,7.54678955078125,0.4412811279296875,6.882699584960938
11.399,6.1063079833984375,0.10347900390625,7.180276489257813
11.408999999999992,6.301452636718751,-0.2346221923828125,7.258633422851563
11.418999999999984,6.627890014648438,-0.7629333496093751,8.431146240234376
11.429000000000002,7.2650634765625,-1.0860809326171876,6.593646240234375
11.438999999999991,7.1660705566406255,-0.625958251953125,6.721649169921876
11.448999999999984,7.115228271484376,-0.05084228515625,5.389431762695313
11.459000000000003,7.355233764648438,0.3108856201171875,7.275830078125001
11.468999999999994,7.382748413085938,0.452197265625,7.0045715332031255
11.478999999999983,6.279769897460938,0.6446502685546875,7.089956665039063
11.489000000000004,6.236404418945313,0.8258880615234375,7.291381835937501
11.498999999999995,6.509756469726563,0.6907073974609376,7.9421630859375005
11.508999999999986,6.8774658203125005,0.3572418212890625,7.940368652343751
11.519000000000004,6.812118530273438,0.107965087890625,6.619216918945313
11.53,6.737200927734375,-0.0474029541015625,6.5185791015625005
11.539999999999992,7.044198608398438,-0.327783203125,6.6166748046875
11.549999999999985,7.4771057128906255,-0.5733215332031251,7.422525024414063
11.560000000000002,7.473217773437501,-0.680389404296875,6.266909790039063
11.569999999999991,6.984085083007813,-0.729437255859375,5.768057250976563
11.579999999999984,7.223043823242188,-0.4418792724609375,6.488821411132813
11.590000000000003,6.820941162109375,0.0719268798828125,7.885787963867188
11.599999999999994,6.363211059570313,0.6074157714843751,7.979995727539063
11.609999999999983,6.066680908203125,1.0627532958984376,7.590753173828125
11.620000000000005,6.5155883789062505,1.0546783447265626,6.947598266601563
11.629999999999995,7.144537353515625,0.87149658203125,7.362860107421875
11.639999999999986,7.370635986328126,0.5019927978515626,6.677835083007813
11.650000000000006,6.863110351562501,-0.163592529296875,6.375173950195313
11.659999999999997,7.125396728515626,-1.0515380859375,5.863461303710938
11.670999999999992,7.617370605468751,-1.6365234375000002,6.575253295898438
11.680999999999983,7.4202819824218755,-1.73641357421875,7.038217163085938
11.691000000000004,6.175842285156251,-1.197186279296875,7.267755126953125
11.700999999999992,6.770248413085938,0.422589111328125,8.273385620117189
11.710999999999984,5.930752563476563,1.9400817871093752,8.013043212890626
11.721000000000004,6.350949096679688,2.6050689697265628,7.107003784179688
11.730999999999996,7.241436767578126,2.3961669921875,6.7952209472656255
11.740999999999984,7.690643310546876,1.176699829101563,5.687905883789063
11.751000000000005,7.435833740234376,0.006280517578125,6.808978271484375
11.760999999999996,6.474316406250001,-1.20107421875,7.200912475585938
11.770999999999988,6.226535034179688,-1.9050903320312504,7.811767578125001
11.781000000000006,6.4348388671875005,-2.1826293945312503,7.738644409179688
11.790999999999997,7.304541015625,-1.5013427734375,7.085171508789063
11.800999999999997,7.062442016601563,-0.03648681640625,6.531887817382813
11.811000000000009,7.086517333984376,1.4207427978515623,5.914303588867188
11.820999999999998,7.416394042968751,2.266668701171876,6.950588989257813
11.831999999999994,6.967935180664063,2.07017822265625,7.100872802734376
11.841999999999985,6.333303833007813,1.567437744140625,7.402487182617188
11.852000000000004,6.225637817382813,0.4131683349609375,7.633071899414063
11.861999999999997,6.433343505859376,-0.8462249755859376,7.783206176757813
11.871999999999986,6.949691772460938,-1.634280395507813,7.489218139648438
11.882000000000003,6.9866271972656255,-1.7129364013671875,6.651068115234375
11.891999999999996,7.010253906250001,-1.0742675781250002,6.202758789062501
11.901999999999989,7.367047119140626,-0.232379150390625,6.599478149414063
11.912000000000006,7.697222900390625,0.495562744140625,6.571963500976563
11.92199999999999,7.456619262695313,0.9203948974609376,5.994903564453125
11.931999999999997,6.993057250976563,0.9652557373046876,6.088961791992188
11.942000000000007,6.734957885742188,0.667828369140625,7.47740478515625
11.951999999999998,6.07774658203125,0.32359619140625,8.704348754882814
11.962999999999994,5.915798950195313,0.1329376220703125,8.533129882812501
11.972999999999985,6.0783447265625,-0.1664337158203125,7.356130981445313
11.983000000000004,7.216314697265625,-0.3074462890625,6.5724121093750005
11.992999999999997,7.792327880859376,-0.2657257080078125,6.0962890625
12.002999999999986,7.754644775390625,0.02093505859375,6.103616333007813
12.013000000000003,6.904980468750001,0.279034423828125,6.413754272460938
12.022999999999996,6.773239135742188,0.03170166015625,6.680676269531251
12.032999999999994,6.8834472656250005,-0.273651123046875,7.351345825195313
12.043000000000006,6.7865478515625,-0.5528350830078126,7.195080566406251
12.05299999999999,6.680526733398438,-0.44083251953125,7.451535034179688
12.062999999999995,7.0018798828125,-0.07117919921875,7.188351440429688
12.073000000000008,6.983786010742188,0.523077392578125,7.6454833984375
12.084999999999988,6.186459350585938,1.063201904296875,6.544149780273438
12.092999999999996,6.839035034179688,1.21363525390625,7.006814575195313
12.10299999999998,7.342224121093751,0.611602783203125,6.887783813476563
12.114000000000004,7.666268920898438,-0.1269561767578125,6.893615722656251
12.123999999999995,6.132028198242188,-0.046954345703125,7.420431518554688
12.133999999999986,6.039166259765626,-0.009271240234375,6.969430541992188
12.144000000000004,6.8505493164062505,-0.3910369873046875,8.326171875
12.153999999999996,7.627838134765626,-0.9203948974609376,6.258535766601563
12.163999999999994,7.453778076171876,-0.6216217041015626,6.300106811523438
12.174000000000008,6.856082153320313,0.107965087890625,5.6285400390625
12.185000000000002,6.8849426269531255,0.4083831787109375,7.585369873046876
12.193999999999996,7.275979614257813,0.3781768798828125,7.9182373046875005
12.203999999999986,6.408370971679688,0.4294677734375,6.953280639648438
12.214,6.0150909423828125,0.715679931640625,6.807632446289063
12.223999999999997,6.760379028320313,0.6711181640625,7.532882690429688
12.23399999999998,7.282708740234375,0.3282318115234375,8.07734375
12.245000000000005,6.976907348632813,0.014056396484375,6.542355346679688
12.254999999999995,6.606207275390625,-0.173162841796875,5.986978149414063
12.264999999999986,6.938177490234375,-0.349615478515625,6.7413879394531255
12.275000000000006,7.444058227539063,-0.6462951660156251,7.703353881835938
12.284999999999997,7.447647094726563,-0.6745574951171875,6.792977905273438
12.294999999999996,6.730023193359376,-0.471636962890625,5.785104370117188
12.305000000000009,6.65794677734375,-0.06759033203125,6.669161987304688
12.31499999999999,6.959860229492188,0.5209838867187501,8.123849487304689
12.324999999999996,6.650320434570313,0.8888427734375001,8.039810180664062
12.334999999999988,6.438278198242188,0.9257781982421877,6.830361938476563
12.345,6.564935302734376,0.7237548828125,6.29906005859375
12.35499999999999,7.178631591796876,0.4155609130859375,7.316354370117188
12.36499999999998,7.174743652343751,0.0145050048828125,7.503424072265625
12.375,6.852044677734376,-0.5894714355468751,6.476409912109376
12.385999999999996,7.09219970703125,-1.24354248046875,5.541659545898438
12.395999999999988,7.75255126953125,-1.5216796875,6.298461914062501
12.406000000000006,7.090405273437501,-1.0756134033203126,7.5862670898437505
12.415999999999997,6.497793579101563,-0.14534912109375,7.759280395507813
12.425999999999997,6.427511596679688,1.2381591796875,8.189346313476562
12.436000000000009,5.57291259765625,2.020681762695313,7.170407104492188
12.445999999999998,7.057507324218751,2.202667236328125,7.181622314453126
12.455999999999996,7.537518310546876,1.550091552734375,6.791632080078125
12.46599999999998,7.613931274414063,0.21951904296875,5.957669067382813
12.476,6.975112915039063,-0.73392333984375,6.634619140625
12.48599999999999,6.273638916015625,-1.4653045654296877,7.182669067382813
12.49599999999998,6.639254760742188,-1.6614959716796875,8.329312133789063
12.506,6.71177978515625,-1.62874755859375,7.530041503906251
12.515999999999991,7.079489135742188,-0.57362060546875,6.56822509765625
12.525999999999982,6.947000122070313,0.838299560546875,6.170458984375
12.537000000000006,7.211529541015626,1.8727905273437504,6.833801269531251
12.54699999999999,7.331158447265626,2.114739990234375,7.252203369140625
12.556999999999997,6.582730102539063,1.526614379882813,7.020123291015626
12.567000000000007,6.340182495117188,0.7923919677734376,7.0030761718750005
12.576999999999998,6.477905273437501,-0.36187744140625,7.765859985351563
12.586999999999996,6.693386840820313,-1.3075439453125002,7.897451782226563
12.59699999999998,7.031488037109376,-1.613345336914063,7.117022705078125
12.607,6.821389770507813,-1.2858612060546877,6.1656738281250005
12.61699999999999,7.308279418945313,-0.584686279296875,6.06937255859375
12.62699999999998,7.677035522460938,0.1724151611328125,6.893466186523438
12.637,7.598379516601563,0.7182220458984375,6.273788452148438
12.646999999999991,6.899597167968751,0.9715362548828126,6.414352416992188
12.656999999999982,6.370986938476563,0.96361083984375,6.899896240234376
12.667000000000002,6.226086425781251,0.6590057373046876,8.625543212890626
12.67799999999999,6.361416625976563,0.305352783203125,8.577990722656251
12.687999999999995,6.352743530273438,-0.0435150146484375,7.364505004882813
12.698000000000008,6.746472167968751,-0.3470733642578125,6.233413696289063
12.707999999999998,7.576846313476563,-0.347821044921875,6.282012939453126
12.717999999999996,7.607052612304688,-0.2609405517578125,6.725088500976563
12.72799999999998,7.466189575195313,-0.218621826171875,6.250610351562501
12.738,6.628338623046876,-0.274249267578125,6.429605102539063
12.74799999999999,6.874026489257813,-0.2998199462890625,6.547439575195313
12.75799999999998,6.788790893554688,-0.171966552734375,7.999734497070313
12.768,6.691143798828126,-0.0249725341796875,7.543350219726563
12.777999999999992,6.837539672851563,0.229388427734375,7.356729125976563
12.787999999999982,6.948196411132813,0.65616455078125,6.89481201171875
12.798000000000002,6.271395874023438,1.13946533203125,7.007861328125
12.807999999999993,6.952981567382813,1.0434631347656251,7.210482788085938
12.817999999999984,7.280764770507813,0.3207550048828125,6.978103637695313
12.828999999999986,7.471273803710938,-0.4361968994140625,6.284405517578126
12.839,6.444558715820313,-0.448907470703125,7.383944702148438
12.848999999999997,6.157897949218751,-0.114544677734375,7.380355834960938
12.85899999999998,6.8610168457031255,-0.207257080078125,8.212823486328126
12.869,7.287344360351563,-0.6036773681640626,6.371136474609376
12.87899999999999,7.472021484375,-0.2585479736328125,5.9373321533203125
12.888999999999982,6.910064697265626,0.3802703857421875,6.207992553710938
12.899,6.89720458984375,0.6350799560546876,7.5138916015625
12.908999999999992,6.982888793945313,0.4000091552734375,7.966986083984375
12.918999999999984,6.551177978515626,0.17286376953125,6.738247680664063
12.929000000000002,6.207394409179688,0.30625,6.959561157226563
12.938999999999991,6.758435058593751,0.39896240234375,7.471273803710938
12.948999999999984,7.297363281250001,0.12501220703125,7.85184326171875
12.959000000000003,7.020123291015626,-0.142657470703125,6.459512329101563
12.968999999999994,6.838137817382813,-0.0952545166015625,5.953781127929688
12.97999999999999,6.807781982421876,-0.14534912109375,6.929055786132813
12.98999999999998,7.362860107421875,-0.25361328125,7.612286376953126
13.0,7.203005981445313,-0.36666259765625,7.113134765625
13.009999999999993,6.810025024414063,-0.415411376953125,5.708093261718751
13.019999999999982,6.667218017578126,-0.024224853515625,6.869241333007813
13.03,6.83798828125,0.3838592529296875,7.94395751953125
13.039999999999992,6.7458740234375005,0.71717529296875,8.0713623046875
13.049999999999985,6.519177246093751,0.7093994140625001,6.796716308593751
13.060000000000002,6.743182373046875,0.477020263671875,6.108700561523438
13.069999999999991,7.264465332031251,0.30684814453125,7.17235107421875
13.079999999999984,7.105209350585938,0.0785064697265625,7.460507202148438
13.090000000000003,6.686508178710938,-0.3967193603515625,6.9193359375000005
13.101,7.055712890625,-1.041668701171875,5.594595336914063
13.109999999999983,7.544546508789063,-1.260440063476563,6.388034057617188
13.12099999999998,7.420132446289063,-1.0672393798828126,7.030441284179688
13.131,6.393716430664063,-0.30804443359375,7.817749023437501
13.140999999999991,6.671554565429688,0.8650665283203126,7.971023559570313
13.150999999999982,5.957220458984375,1.7960784912109375,7.700064086914063
13.161,6.3056396484375,2.129095458984376,6.955673217773438
13.170999999999992,7.386337280273438,1.6739074707031252,7.0593017578125
13.180999999999983,7.69273681640625,0.446514892578125,6.150271606445313
13.191000000000004,7.343869018554688,-0.5653961181640625,6.50003662109375
13.200999999999992,6.499588012695313,-1.2248504638671875,7.003225708007813
13.210999999999984,6.266012573242188,-1.4635101318359376,7.754943847656251
13.221000000000004,6.78953857421875,-1.511212158203125,7.8987976074218755
13.230999999999996,7.178482055664063,-0.8773284912109376,6.863259887695313
13.240999999999984,6.896755981445313,0.466253662109375,6.415399169921876
13.251000000000005,6.926513671875001,1.6531219482421875,6.424969482421876
13.262,7.283306884765626,1.9810546875,7.281811523437501
13.271999999999991,7.0419555664062505,1.529156494140625,7.154705810546876
13.281999999999982,6.366799926757813,0.880169677734375,6.917990112304688
13.292000000000002,6.353192138671876,-0.067889404296875,7.362112426757813
13.301999999999992,6.681423950195313,-0.9763214111328126,7.8990966796875
13.311999999999983,6.98692626953125,-1.5331939697265626,7.51329345703125
13.322000000000005,6.933541870117188,-1.3220489501953123,6.423623657226563
13.331999999999994,6.975711059570313,-0.6506317138671875,6.031240844726563
13.341999999999985,7.42177734375,0.062506103515625,6.6764892578125
13.352000000000004,7.844216918945313,0.609808349609375,6.766061401367188
13.361999999999997,7.144836425781251,0.8743377685546876,6.291433715820313
13.371999999999986,6.510354614257813,0.8339630126953126,6.296817016601563
13.38299999999998,6.462652587890625,0.57840576171875,7.975210571289063
13.393,6.333752441406251,0.2543609619140625,8.768798828125
13.402999999999992,6.342126464843751,-0.0753662109375,7.921527099609375
13.412999999999982,6.460858154296876,-0.2528656005859375,6.494952392578125
13.423000000000002,7.243081665039063,-0.2764923095703125,6.304144287109375
13.432999999999993,7.696923828125,-0.1541717529296875,6.688302612304688
13.442999999999984,7.559201049804688,-0.0061309814453125,6.4994384765625
13.453000000000005,6.882998657226563,-0.1472930908203125,6.030941772460938
13.462999999999994,6.908718872070313,-0.3001190185546875,6.402688598632813
13.472999999999985,6.779818725585938,-0.2954833984375,7.616921997070313
13.483000000000004,6.740640258789063,-0.2175750732421875,7.9720703125
13.492999999999997,6.682470703125,0.0154022216796875,7.520172119140626
13.502999999999986,6.78355712890625,0.4487579345703125,6.986328125000001
13.513000000000003,6.493905639648438,0.9861907958984376,6.952383422851563
13.522999999999996,7.0018798828125,1.1669799804687502,7.086666870117188
13.532999999999994,7.296316528320313,0.7116424560546876,6.907672119140625
13.543000000000006,7.370635986328126,-0.107965087890625,6.265863037109376
13.554000000000002,6.593347167968751,-0.3231475830078125,7.136013793945313
13.563999999999991,6.213076782226563,-0.154022216796875,7.575201416015625
13.573999999999984,6.582730102539063,-0.2738006591796875,8.416192626953126
13.584999999999988,7.0703674316406255,-0.6178833007812501,6.667965698242188
13.593999999999994,7.477554321289063,-0.4675994873046875,6.021670532226563
13.603999999999983,7.192538452148438,0.1616485595703125,5.940472412109376
13.614000000000004,7.058105468750001,0.5311523437500001,7.145733642578126
13.623999999999995,7.117321777343751,0.391485595703125,7.54918212890625
13.633999999999986,6.5425048828125005,0.2145843505859375,7.037020874023438
13.644000000000004,6.175991821289063,0.361279296875,7.140948486328125
13.653999999999996,6.510803222656251,0.48629150390625,7.6849609375
13.663999999999994,7.019674682617188,0.300567626953125,7.866647338867188
13.674000000000008,7.098330688476563,0.0261688232421875,6.5559631347656255
13.685000000000002,6.916644287109375,-0.085235595703125,6.050381469726563
13.694999999999991,6.853689575195313,-0.0701324462890625,6.716265869140625
13.704999999999984,7.125994873046875,-0.174957275390625,7.737747192382813
13.715000000000003,7.221249389648438,-0.4367950439453125,7.024160766601563
13.724999999999994,7.180276489257813,-0.5628540039062501,5.867648315429688
13.734999999999983,6.913504028320313,-0.4487579345703125,6.117971801757813
13.745000000000005,6.979000854492188,0.08433837890625,7.712326049804688
13.754999999999995,6.4109130859375005,0.6477905273437501,8.314956665039062
13.764999999999986,6.250012207031251,0.8438323974609375,7.534527587890626
13.775000000000006,6.781015014648438,0.6951934814453126,6.393716430664063
13.784999999999997,7.215267944335938,0.4711883544921875,6.706246948242188
13.794999999999996,7.292428588867188,0.3928314208984375,7.161883544921875
13.805000000000009,6.734359741210938,0.0488983154296875,7.090853881835938
13.81499999999999,6.702957153320313,-0.5764617919921875,6.559402465820313
13.824999999999996,7.219754028320313,-1.1894104003906252,6.230422973632813
13.835999999999984,7.623800659179688,-1.2628326416015625,6.638058471679688
13.846000000000004,7.131228637695313,-0.8492156982421876,6.8176513671875005
13.855999999999996,6.382351684570313,-0.3025115966796875,7.374972534179688
13.865999999999984,6.827670288085938,0.95164794921875,8.115475463867188
13.876000000000005,5.879461669921875,1.9436706542968751,8.023062133789063
13.885999999999996,6.420483398437501,2.149432373046875,6.8430725097656255
13.895999999999988,7.380505371093751,1.4485565185546876,6.749163818359375
13.906000000000006,7.826422119140625,0.0814971923828125,5.870489501953125
13.915999999999997,7.330111694335938,-0.6220703125,6.975711059570313
13.925999999999997,6.195281982421876,-1.1644378662109376,7.066928100585938
13.936000000000009,6.357528686523438,-1.45767822265625,7.841674804687501
13.945999999999998,6.873876953125,-1.5782043457031252,7.603164672851563
13.955999999999996,7.327120971679688,-0.681884765625,6.702508544921876
13.96599999999998,6.840380859375,0.75186767578125,6.533682250976563
13.976,6.844119262695313,1.7480773925781252,6.500186157226563
13.986999999999997,7.2976623535156255,1.9496520996093751,7.420132446289063
13.996999999999986,6.863110351562501,1.3926300048828126,7.084124755859375
14.007000000000003,6.373080444335938,0.8673095703125001,7.068423461914063
14.016999999999996,6.381753540039063,-0.183331298828125,7.353588867187501
14.026999999999989,6.785202026367188,-1.1787933349609376,7.725335693359375
14.037000000000006,7.101321411132813,-1.553082275390625,7.361215209960938
14.04699999999999,6.764715576171875,-1.2359161376953125,6.5380187988281255
14.056999999999997,7.060647583007813,-0.5132080078125001,6.0150909423828125
14.067000000000007,7.640847778320313,0.0372344970703125,6.5993286132812505
14.076999999999998,7.897601318359375,0.4605712890625,6.274685668945313
14.086999999999996,7.1137329101562505,0.7318298339843751,6.334350585937501
14.09699999999998,6.288592529296875,0.9223388671875,6.824081420898438
14.107,5.9969970703125,0.7364654541015625,8.638552856445314
14.11699999999999,6.311770629882813,0.435748291015625,8.882296752929689
14.12699999999998,6.3810058593750005,0.135479736328125,7.533630371093751
14.138000000000003,6.8236328125000005,-0.146246337890625,6.080438232421876
14.147999999999996,7.443759155273438,-0.1495361328125,6.196478271484375
14.157999999999994,7.569967651367188,-0.1888641357421875,6.804641723632813
14.168000000000006,7.483535766601563,-0.18243408203125,6.595440673828126
14.17799999999999,6.846063232421876,-0.3578399658203125,6.246722412109375
14.187999999999995,6.8224365234375,-0.56524658203125,6.481344604492188
14.198000000000008,6.6023193359375005,-0.35230712890625,7.691390991210938
14.207999999999998,6.660189819335938,-0.040673828125,7.772439575195313
14.217999999999996,6.788940429687501,0.1087127685546875,7.259530639648438
14.22799999999998,7.179229736328126,0.23267822265625,6.474765014648438
14.238,7.284802246093751,0.8559448242187501,7.234109497070313
14.24799999999999,6.269451904296876,1.319207763671875,7.002777099609376
14.25799999999998,6.494503784179688,1.1257080078125,7.48697509765625
14.268,7.106854248046876,0.1338348388671875,6.91873779296875
14.278999999999996,7.521069335937501,-0.70999755859375,6.880007934570313
14.288999999999994,6.451287841796876,-0.4391876220703125,7.233959960937501
14.299000000000008,6.200814819335938,-0.1317413330078125,7.104611206054688
14.30899999999999,7.057058715820313,-0.279034423828125,7.887432861328126
14.318999999999996,7.62095947265625,-0.6600524902343751,5.978305053710938
14.328999999999986,7.450787353515626,-0.21593017578125,6.321789550781251
14.339,6.7473693847656255,0.471337890625,6.0580078125000005
14.348999999999997,6.611590576171875,0.6610992431640625,7.939620971679688
14.35899999999998,7.035525512695313,0.4083831787109375,7.984930419921875
14.369,6.349752807617188,0.2642303466796875,7.019375610351563
14.37899999999999,6.257638549804688,0.535040283203125,6.7626220703125
14.388999999999982,6.826473999023438,0.3967193603515625,7.359121704101563
14.399,7.573406982421876,0.0091217041015625,7.561294555664063
14.409999999999997,7.10655517578125,-0.289501953125,6.258386230468751
14.419999999999996,6.7028076171875,-0.2763427734375,6.051876831054688
14.430000000000009,6.818399047851563,-0.2495758056640625,7.020571899414063
14.43999999999999,7.222744750976563,-0.4158599853515625,7.873675537109375
14.449999999999996,7.3335510253906255,-0.37025146484375,6.869091796875001
14.459999999999988,6.594543457031251,-0.2065093994140625,5.872732543945313
14.47,6.781463623046876,0.2636322021484375,6.778024291992188
14.47999999999999,6.8355957031250005,0.68487548828125,8.225534057617189
14.48999999999998,6.683966064453125,0.8978149414062501,7.900891113281251
14.501000000000005,6.504223632812501,0.7319793701171875,6.744229125976563
14.509999999999993,6.85892333984375,0.270361328125,6.060400390625
14.519999999999982,7.334149169921876,-0.0195892333984375,7.105508422851563
14.53,7.141696166992188,-0.366064453125,7.325924682617188
14.539999999999992,6.7662109375,-0.7810272216796875,6.485232543945313
14.549999999999985,7.320391845703125,-1.227093505859375,5.69732666015625
14.561000000000009,7.399047851562501,-1.263430786132813,6.887933349609376
14.570999999999998,6.753201293945313,-0.4206451416015625,7.651614379882813
14.580999999999996,6.67947998046875,0.9754241943359376,8.477203369140625
14.59099999999998,5.568875122070313,1.8896881103515624,7.435235595703125
14.601,6.42825927734375,1.873089599609375,6.669461059570313
14.61099999999999,7.687503051757813,1.5299041748046875,7.397103881835938
14.62099999999998,7.616024780273438,0.6084625244140626,6.125
14.631,7.028646850585938,-0.2950347900390625,6.720153808593751
14.640999999999991,6.401043701171876,-1.239056396484375,6.457568359375
14.650999999999982,6.686358642578125,-1.6715148925781251,8.089007568359376
14.661,6.803445434570313,-1.5490447998046877,7.883395385742188
14.670999999999992,7.018777465820313,-0.8167663574218751,6.8430725097656255
14.680999999999983,6.7626220703125,0.4272247314453125,6.274087524414063
14.691000000000004,7.091302490234376,1.4470611572265626,6.50242919921875
14.701999999999998,7.373626708984376,2.0338409423828128,7.567425537109376
14.710999999999984,6.779220581054688,1.7551055908203126,7.044497680664063
14.72199999999998,6.333004760742188,1.0340423583984375,6.929205322265625
14.732,6.608151245117188,-0.0868804931640625,7.1840148925781255
14.74199999999999,6.682022094726563,-1.0812957763671875,7.93199462890625
14.75199999999998,6.953729248046876,-1.52227783203125,7.403982543945313
14.762,6.858175659179688,-1.4081817626953126,6.587664794921875
14.771999999999991,7.0329833984375005,-0.8710479736328126,6.048138427734376
14.781999999999982,7.538565063476563,-0.098394775390625,6.619515991210938
14.792000000000002,7.6445861816406255,0.6557159423828125,6.770846557617188
14.801999999999992,7.104013061523438,1.062005615234375,6.243582153320313
14.811999999999983,6.487326049804688,1.0519866943359375,6.714172363281251
14.822000000000005,6.389529418945313,0.820654296875,7.949789428710938
14.831999999999994,6.189749145507813,0.448907470703125,8.757583618164062
14.842999999999996,6.461456298828126,0.034393310546875,7.739990234375001
14.85299999999998,6.688751220703126,-0.43843994140625,6.487326049804688
14.863,7.354486083984375,-0.6645385742187501,6.097784423828125
14.87299999999999,7.566378784179688,-0.4031494140625,6.706097412109376
14.88299999999998,7.260876464843751,-0.1293487548828125,6.686807250976563
14.893,6.995599365234376,-0.115740966796875,6.392221069335938
14.902999999999992,6.940570068359375,-0.201275634765625,6.369491577148438
14.912999999999982,6.792977905273438,-0.0925628662109375,7.242184448242188
14.923000000000002,6.800604248046875,0.1945465087890625,7.846908569335938
14.932999999999993,6.596636962890625,0.338250732421875,7.762271118164063
14.942999999999984,6.877166748046876,0.4628143310546875,7.220950317382813
14.953000000000005,6.403436279296876,0.7240539550781251,6.675292968750001
14.962999999999994,6.803594970703125,0.9129180908203126,7.024908447265625
14.972999999999985,7.339532470703125,0.4055419921875,7.126293945312501
14.983000000000004,7.592846679687501,-0.4266265869140625,6.454876708984376
14.994,6.737350463867188,-0.485693359375,6.860119628906251
15.00399999999999,5.886639404296876,-0.0788055419921875,7.246221923828125
15.013999999999982,6.7721923828125,0.0967498779296875,8.444903564453126
15.024,7.129882812500001,-0.33436279296875,7.094891357421876
15.033999999999992,7.46304931640625,-0.2609405517578125,5.755795288085938
15.043999999999984,6.890774536132813,0.34393310546875,6.054119873046876
15.054000000000002,6.941018676757813,0.575115966796875,7.1167236328125005
15.063999999999991,7.286447143554688,0.2420989990234375,7.950686645507813
15.073999999999984,6.727630615234376,-0.09749755859375,6.910812377929688
15.084000000000003,6.131430053710938,0.035589599609375,6.457119750976563
15.093999999999994,6.428408813476563,0.2989227294921875,7.735354614257813
15.103999999999983,7.2139221191406255,0.341241455078125,8.079736328125001
15.114000000000004,6.964047241210938,0.1422088623046875,7.153359985351563
15.123999999999995,6.907971191406251,0.118731689453125,5.31571044921875
15.133999999999986,6.962103271484375,0.1018341064453125,6.596487426757813
15.144999999999982,7.346859741210938,-0.176153564453125,7.473666381835938
15.155,7.296017456054688,-0.4191497802734375,7.443310546875001
15.164999999999992,6.652413940429688,-0.6219207763671876,6.204702758789063
15.174999999999985,6.565982055664063,-0.450103759765625,6.311920166015626
15.185000000000002,6.94864501953125,0.0991424560546875,8.07435302734375
15.194999999999991,6.725985717773438,0.5872283935546876,7.938723754882813
15.204999999999984,6.614431762695313,0.8970672607421876,7.290036010742188
15.215000000000003,6.64598388671875,0.8112335205078126,5.762374877929688
15.224999999999994,7.185360717773438,0.59036865234375,6.998291015625001
15.234999999999983,7.386337280273438,0.177947998046875,7.217361450195313
15.245000000000005,6.86729736328125,-0.588873291015625,6.701461791992188
15.254999999999995,7.228128051757813,-1.319805908203125,5.749365234375
15.264999999999986,7.034030151367188,-1.6257568359375,6.93369140625
15.275000000000006,6.7626220703125,-0.9745269775390626,7.790383911132813
15.286,7.007113647460938,0.379522705078125,8.486773681640626
15.295999999999992,5.7469726562500005,1.5408203125000002,7.214071655273438
15.305999999999983,6.356033325195313,1.9110717773437504,6.026156616210938
15.316000000000004,7.620361328125001,1.861874389648437,7.598678588867188
15.325999999999992,7.66641845703125,1.1584564208984376,6.58916015625
15.335999999999984,6.86131591796875,0.233575439453125,7.025057983398438
15.346000000000004,6.217562866210938,-0.8264862060546876,6.210983276367188
15.355999999999996,6.6696105957031255,-1.5982421875,7.875918579101563
15.365999999999984,7.0987792968750005,-1.8119293212890624,8.008258056640626
15.376000000000005,7.115377807617188,-1.236065673828125,6.857727050781251
15.385999999999996,6.56822509765625,-0.0538330078125,6.196627807617188
15.395999999999988,7.030291748046875,1.0274627685546875,6.191244506835938
15.406999999999982,7.535873413085938,1.7881530761718751,7.766308593750001
15.415999999999997,6.925765991210938,1.8430328369140627,7.069470214843751
15.426999999999992,6.179281616210938,1.4422760009765625,6.833801269531251
15.436999999999983,6.4874755859375,0.4843475341796875,7.149920654296875
15.447000000000005,6.743182373046875,-0.5456573486328126,8.127438354492188
15.456999999999994,6.882400512695313,-1.2327758789062502,7.656100463867188
15.466999999999985,6.798062133789063,-1.3809661865234375,6.458465576171876
15.477000000000004,6.933392333984376,-1.2060089111328125,5.939126586914063
15.486999999999997,7.6837646484375,-0.5932098388671876,6.663778686523438
15.496999999999986,7.720700073242188,0.2307342529296875,6.975411987304688
15.507000000000003,7.003225708007813,0.784466552734375,6.062045288085938
15.516999999999996,6.850399780273438,0.94088134765625,6.291134643554688
15.526999999999989,6.642245483398438,0.7820739746093751,7.625146484375
15.537000000000006,6.396408081054688,0.634033203125,8.641842651367188
15.54699999999999,6.1078033447265625,0.4296173095703125,8.1311767578125
15.556999999999997,6.243283081054688,0.0091217041015625,6.959112548828125
15.567999999999984,7.201211547851563,-0.3826629638671875,6.507363891601563
15.578000000000005,7.664923095703125,-0.3961212158203125,6.627890014648438
15.587999999999994,7.494152832031251,-0.277838134765625,6.278125
15.597999999999985,7.075451660156251,-0.2379119873046875,6.311172485351563
15.608000000000004,6.7099853515625005,-0.332568359375,6.445007324218751
15.617999999999997,7.003375244140625,-0.25421142578125,7.280166625976563
15.627999999999986,6.857427978515625,-0.161199951171875,7.4265625
15.638000000000003,6.516934204101563,-0.0539825439453125,7.354037475585938
15.647999999999996,7.203005981445313,0.2507720947265625,7.201211547851563
15.657999999999994,6.821240234375001,0.7970275878906251,7.542153930664063
15.668000000000006,6.097036743164063,1.2372619628906252,6.777127075195313
15.67799999999999,6.876568603515626,1.0060791015625,7.18192138671875
15.687999999999995,7.351943969726563,0.2109954833984375,6.78953857421875
15.698000000000008,7.5796875,-0.3895416259765625,6.765014648437501
15.707999999999998,6.189300537109376,-0.2435943603515625,7.272689819335938
15.718999999999994,6.285452270507813,-0.093310546875,7.144387817382813
15.728999999999983,6.925765991210938,-0.4113739013671875,8.143289184570314
15.739000000000004,7.572061157226563,-0.7105957031250001,6.123953247070313
15.748999999999995,7.23814697265625,-0.2417999267578125,6.472970581054688
15.758999999999986,6.840081787109376,0.33555908203125,5.90667724609375
15.769000000000004,6.911410522460938,0.497357177734375,7.760626220703125
15.778999999999996,7.111489868164063,0.360980224609375,7.742831420898438
15.788999999999994,6.2721435546875,0.3757843017578125,6.918289184570313
15.800999999999997,6.254049682617188,0.5926116943359375,6.969281005859376
15.80899999999999,6.930999755859376,0.4963104248046875,7.492208862304688
15.818999999999996,7.229922485351563,0.101385498046875,7.6445861816406255
15.828999999999986,7.027151489257813,-0.1087127685546875,6.349304199218751
15.839,6.5440002441406255,-0.12022705078125,6.371136474609376
15.848999999999997,6.775332641601563,-0.2675201416015625,7.051077270507813
15.85899999999998,7.451983642578125,-0.41331787109375,7.7911315917968755
15.870000000000005,7.313961791992188,-0.5055816650390625,6.421530151367188
15.879999999999995,6.947000122070313,-0.454290771484375,5.450741577148438
15.889999999999986,7.011599731445313,-0.035589599609375,6.861614990234376
15.900999999999982,6.677984619140625,0.4031494140625,8.118167114257814
15.909999999999997,6.591253662109375,0.8227478027343751,8.263815307617188
15.919999999999996,6.186608886718751,0.7925415039062501,6.814212036132813
15.930000000000009,6.901242065429688,0.5313018798828125,6.5185791015625005
15.93999999999999,7.217062377929688,0.37802734375,7.206594848632813
15.949999999999996,7.075302124023438,0.158209228515625,7.219454956054688
15.959999999999988,6.772491455078126,-0.39896240234375,6.435437011718751
15.97,7.359420776367188,-1.2242523193359376,5.543304443359375
15.97999999999999,7.84287109375,-1.49715576171875,6.496896362304688
15.98999999999998,6.711331176757813,-1.1820831298828125,7.340878295898438
16.001000000000005,6.426614379882813,0.0322998046875,8.205795288085938
16.010999999999996,6.258984375000001,1.3482177734375,8.359667968750001
16.020999999999987,5.82652587890625,1.8928283691406247,7.16636962890625
16.031000000000006,7.242184448242188,2.1138427734375003,6.685760498046876
16.040999999999997,7.637109375,1.353152465820313,6.338088989257813
16.050999999999995,7.689596557617188,0.252716064453125,6.284555053710938
16.061000000000007,6.676339721679688,-0.8374023437500001,6.910662841796875
16.070999999999998,6.264666748046875,-1.4596221923828123,7.344467163085938
16.080999999999996,6.412258911132813,-1.685122680664063,8.298956298828125
16.09099999999998,6.928607177734375,-1.4685943603515623,7.372879028320313
16.101,7.173098754882813,-0.3194091796875,6.650619506835938
16.11099999999999,6.891970825195313,0.9939666748046876,5.903387451171875
16.12099999999998,7.27762451171875,2.0105133056640625,6.8789611816406255
16.131,7.267456054687501,1.9178009033203127,7.291232299804688
16.141999999999996,6.628189086914063,1.3426849365234377,7.028646850585938
16.151999999999987,6.350350952148438,0.430364990234375,7.084872436523438
16.162000000000006,6.363211059570313,-0.645697021484375,7.671951293945313
16.17199999999999,6.891372680664063,-1.350311279296875,7.956668090820313
16.181999999999995,6.8894287109375005,-1.5124084472656252,7.178182983398438
16.192000000000007,6.909466552734376,-0.996807861328125,5.990267944335938
16.201999999999998,7.235604858398438,-0.2669219970703125,6.187954711914063
16.211999999999996,7.704849243164063,0.4358978271484375,6.719555664062501
16.22199999999998,7.624697875976563,0.8677581787109375,6.577645874023438
16.232,6.761724853515625,0.9640594482421876,6.31700439453125
16.24199999999999,6.287246704101563,0.7185211181640625,7.02939453125
16.25199999999998,6.353341674804688,0.3404937744140625,8.632571411132814
16.262,6.373828125,0.0450103759765625,8.452529907226562
16.27199999999999,6.395809936523438,-0.26796875,7.196426391601563
16.282999999999994,6.99051513671875,-0.359783935546875,6.040960693359375
16.293000000000006,7.414749145507813,-0.2235565185546875,6.511700439453126
16.30299999999999,7.630380249023438,0.016748046875,6.702209472656251
16.312999999999995,7.161434936523438,0.1278533935546875,6.564187622070313
16.323000000000008,6.722396850585938,-0.1088623046875,6.112588500976563
16.333,6.898101806640626,-0.2758941650390625,6.869091796875001
16.342999999999996,6.962103271484375,-0.2992218017578125,7.649670410156251
16.35299999999998,6.516635131835938,-0.218023681640625,8.006762695312501
16.363,7.093545532226563,0.1338348388671875,7.272540283203125
16.37299999999999,6.216815185546875,0.6163879394531251,6.904681396484375
16.38299999999998,6.734957885742188,1.0735198974609377,6.795819091796876
16.393,7.116424560546876,0.9673492431640626,7.377514648437501
16.40299999999999,7.553518676757813,0.28052978515625,6.420932006835938
16.412999999999982,7.0987792968750005,-0.1230682373046875,6.7653137207031255
16.424000000000007,5.924920654296876,-0.1176849365234375,7.125845336914063
16.432999999999993,6.731817626953125,-0.0270660400390625,8.141793823242189
16.442999999999984,6.750210571289063,-0.5562744140625,7.748663330078125
16.453999999999986,7.458264160156251,-0.6672302246093751,6.016436767578125
16.464,7.033432006835938,-0.2394073486328125,6.130682373046875
16.473999999999997,7.221099853515626,0.26617431640625,6.2793212890625005
16.48399999999998,7.209585571289063,0.3428863525390625,7.748962402343751
16.494,6.960906982421876,0.2349212646484375,7.151715087890626
16.50399999999999,6.1671691894531255,0.3712982177734375,6.686358642578125
16.51399999999998,6.276181030273438,0.6065185546875,7.694830322265625
16.524,6.8415771484375005,0.638519287109375,7.951583862304688
16.533999999999992,7.043151855468751,0.2714080810546875,7.496096801757813
16.543999999999983,6.905429077148438,0.0656463623046875,5.85703125
16.554000000000002,6.8026977539062505,-0.112451171875,6.407473754882813
16.563999999999993,7.299456787109375,-0.3183624267578125,7.195678710937501
16.573999999999984,7.304541015625,-0.5595642089843751,7.451385498046876
16.584999999999987,7.153210449218751,-0.7188201904296876,6.223693847656251
16.595,6.830361938476563,-0.5824432373046875,5.893817138671875
16.60499999999999,6.922476196289063,-0.1280029296875,7.337289428710938
16.61499999999998,6.684564208984376,0.5733215332031251,8.276077270507812
16.625,6.3570800781250005,0.9984527587890626,7.786944580078125
16.63499999999999,6.474765014648438,0.9984527587890626,6.429904174804688
16.644999999999982,7.141696166992188,0.7161285400390626,6.665274047851563
16.655,7.213623046875001,0.433056640625,7.105657958984375
16.664999999999992,6.900045776367188,-0.0273651123046875,7.118817138671876
16.674999999999983,6.855633544921876,-0.8625244140625,6.154309082031251
16.685000000000002,7.507611083984376,-1.5188385009765626,6.0998779296875005
16.694999999999993,7.419683837890625,-1.6559631347656252,6.883148193359376
16.704999999999984,6.714172363281251,-0.8239440917968751,7.563238525390625
16.715000000000003,6.545046997070313,0.7381103515625,8.264114379882812
16.726,5.555416870117188,1.7643768310546877,7.598678588867188
16.73599999999999,6.635067749023438,2.130291748046876,6.880755615234375
16.74599999999998,7.630679321289063,1.7766387939453123,7.05631103515625
16.756,7.702157592773438,0.8342620849609376,5.934042358398438
16.76599999999999,6.993057250976563,-0.077459716796875,6.776678466796875
16.775999999999982,6.365005493164063,-1.0264160156250002,6.808978271484375
16.786,6.520523071289063,-1.6588043212890626,8.19697265625
