time,ax,ay,az
0.0,6.446353149414063,0.3074462890625,6.9037841796875
0.0100000000000051,6.616824340820313,0.3150726318359375,7.120611572265625
0.0200000000000031,7.353439331054688,0.2549591064453125,6.873577880859376
0.0300000000000011,7.343270874023438,0.1867706298828125,7.0258056640625
0.0400000000000062,6.687106323242188,0.2669219970703125,6.472821044921876
0.0500000000000042,6.310125732421875,0.1626953125,6.7745849609375
0.0600000000000022,6.995300292968751,-0.186920166015625,7.25010986328125
0.0700000000000002,7.494003295898438,-0.69205322265625,6.843820190429688
0.0800000000000054,6.752304077148438,-0.593359375,6.776080322265625
0.0900000000000034,6.096438598632813,0.0435150146484375,6.853091430664063
0.0990000000000037,6.524111938476563,0.396868896484375,7.683016967773438
0.1170000000000044,7.603912353515626,0.3002685546875,7.025057983398438
0.1200000000000045,7.329663085937501,0.1126007080078125,6.094644165039063
0.1300000000000025,6.641348266601563,0.3294281005859375,6.104513549804688
0.1390000000000029,6.536074829101563,0.3871490478515625,7.199566650390626
0.1490000000000009,6.76920166015625,-0.0321502685546875,8.014688110351564
0.159000000000006,7.0377685546875,-0.424383544921875,7.206744384765625
0.169000000000004,6.508261108398438,-0.5441619873046876,6.233563232421876
0.179000000000002,6.840380859375,-0.3165679931640625,6.309378051757813
0.189,7.391571044921876,-0.16448974609375,7.2052490234375
0.2000000000000028,7.223492431640626,-0.01435546875,7.082479858398438
0.2090000000000031,6.45517578125,0.2501739501953125,6.568374633789063
0.2190000000000012,6.2808166503906255,0.41810302734375,6.749014282226563
0.2290000000000063,6.98453369140625,0.435150146484375,7.516583251953126
0.2390000000000043,7.028646850585938,0.190509033203125,7.451834106445313
0.2490000000000023,6.799557495117188,0.044561767578125,6.603665161132813
0.2590000000000003,6.5380187988281255,-0.0997406005859375,6.27872314453125
0.2690000000000054,6.880606079101563,-0.2109954833984375,6.9994873046875
0.2790000000000034,7.172650146484376,-0.2890533447265625,7.398001098632813
0.2890000000000015,7.042703247070313,-0.394476318359375,6.791931152343751
0.2990000000000066,6.765762329101563,-0.2956329345703125,6.206646728515626
0.3090000000000046,6.763519287109376,-0.1344329833984375,6.681423950195313
0.3190000000000026,6.977206420898438,0.25181884765625,7.609445190429688
0.3290000000000006,6.66990966796875,0.450103759765625,7.357626342773438
0.3390000000000057,6.522018432617188,0.3641204833984375,6.715069580078126
0.3490000000000037,6.951934814453126,0.12381591796875,6.241488647460938
0.3590000000000017,7.225286865234375,-0.070880126953125,6.893615722656251
0.3690000000000069,6.789987182617188,-0.2301361083984375,7.074404907226563
0.3790000000000049,6.630880737304688,-0.4670013427734375,6.935037231445313
0.3890000000000029,6.47611083984375,-0.5911163330078125,6.8583251953125
0.3990000000000009,7.203604125976563,-0.4628143310546875,6.982888793945313
0.409000000000006,7.434487915039063,0.0801513671875,7.395159912109375
0.419000000000004,6.798809814453126,0.6627441406250001,6.545794677734375
0.429000000000002,6.241787719726563,0.9691436767578124,6.566131591796876
0.439,6.864605712890626,0.7988220214843751,6.877914428710938
0.4490000000000052,7.3574768066406255,0.1981353759765625,7.281661987304688
0.4590000000000032,6.952383422851563,-0.2835205078125,7.048983764648438
0.4690000000000012,6.11602783203125,-0.3937286376953125,6.721051025390626
0.4790000000000063,6.434689331054688,-0.4601226806640625,7.2052490234375
0.4890000000000043,7.443460083007813,-0.6802398681640626,7.121209716796876
0.4990000000000023,7.575201416015625,-0.6192291259765625,6.58377685546875
0.5090000000000003,6.715069580078126,0.025421142578125,6.073260498046875
0.5190000000000055,6.388034057617188,0.6836791992187501,6.839782714843751
0.5290000000000035,6.746173095703125,0.7962799072265626,7.71068115234375
0.5390000000000015,7.111041259765625,0.5743682861328125,7.531088256835938
0.5490000000000066,6.533532714843751,0.419598388671875,6.715817260742188
0.5590000000000046,6.500784301757813,0.2100982666015625,6.354986572265625
0.5690000000000026,7.133023071289063,-0.2056121826171875,7.114181518554688
0.5790000000000006,7.317849731445313,-0.6329864501953125,7.119265747070313
0.5890000000000057,6.722396850585938,-0.68427734375,6.706246948242188
0.5990000000000038,6.5353271484375,-0.5381805419921876,6.362612915039063
0.6090000000000018,7.010403442382813,-0.32120361328125,6.96300048828125
0.6190000000000069,7.255941772460938,-0.0216827392578125,7.310223388671876
0.6290000000000049,6.805239868164063,0.38221435546875,6.870736694335938
0.6380000000000052,6.444857788085938,0.669622802734375,6.572561645507813
0.6480000000000032,6.717910766601563,0.6113037109375,6.923822021484376
0.6580000000000013,6.9970947265625005,0.36546630859375,7.467535400390625
0.6680000000000064,6.867446899414063,0.0578704833984375,7.098629760742188
0.6780000000000044,6.568524169921876,-0.223406982421875,6.59215087890625
0.6880000000000024,6.78056640625,-0.494964599609375,6.588861083984376
0.6980000000000004,7.245922851562501,-0.6114532470703126,6.995748901367188
0.7080000000000055,7.149771118164063,-0.416607666015625,7.084274291992188
0.7180000000000035,6.641647338867188,-0.15731201171875,6.486877441406251
0.7280000000000015,6.728228759765625,0.0647491455078125,6.610992431640626
0.7380000000000067,7.042703247070313,0.228192138671875,6.947448730468751
0.7480000000000047,6.806436157226563,0.340045166015625,7.344168090820313
0.7580000000000027,6.340481567382813,0.3680084228515625,7.025656127929688
0.7680000000000007,6.558355712890625,0.115740966796875,6.88883056640625
0.7780000000000058,7.077395629882813,-0.0743194580078125,7.040161132812501
0.7880000000000038,7.623352050781251,-0.18841552734375,6.801351928710938
0.7980000000000018,6.90677490234375,-0.068487548828125,6.7234436035156255
0.8080000000000069,6.366949462890625,0.127703857421875,6.396707153320313
0.818000000000005,6.565234375,0.122918701171875,7.434786987304688
0.828000000000003,7.438375854492188,-0.161798095703125,7.1071533203125
0.838000000000001,7.064086914062501,-0.353802490234375,6.850250244140626
0.8480000000000061,6.399697875976563,0.0216827392578125,6.483288574218751
0.8580000000000041,6.288891601562501,0.40494384765625,7.254745483398438
0.8680000000000021,7.222296142578125,0.2863616943359375,7.525555419921876
0.8780000000000001,7.477703857421876,-0.08792724609375,6.570617675781251
0.8880000000000052,6.754397583007813,-0.0698333740234375,6.091503906250001
0.8980000000000032,6.503924560546875,0.1973876953125,6.663031005859375
0.9080000000000013,6.7832580566406255,0.0928619384765625,7.86380615234375
0.9180000000000064,7.027301025390625,-0.1924530029296875,7.484881591796875
0.9280000000000044,6.7593322753906255,-0.2501739501953125,6.545495605468751
0.9380000000000024,6.535177612304688,-0.1239654541015625,6.1345703125
0.9480000000000004,7.352243041992188,-0.0478515625,6.858026123046876
0.9580000000000056,7.35538330078125,-0.119329833984375,7.271194458007813
0.9680000000000036,6.69383544921875,0.029010009765625,6.7428833007812505
0.9780000000000016,6.09569091796875,0.2074066162109375,6.747967529296876
0.9880000000000068,6.7174621582031255,0.2579498291015625,7.218707275390625
0.9980000000000048,7.197024536132813,0.158209228515625,7.619015502929688
1.008000000000003,6.937130737304688,0.028411865234375,6.68785400390625
1.018000000000001,6.661087036132813,0.0853851318359375,6.229226684570313
1.0280000000000058,6.721798706054688,-0.0139068603515625,6.720751953125
1.0380000000000038,7.079190063476563,-0.1520782470703125,7.427310180664063
1.0480000000000018,7.07664794921875,-0.311932373046875,7.090554809570313
1.058000000000007,6.716265869140625,-0.3422882080078125,6.385791015625
1.068000000000005,6.694134521484376,-0.2495758056640625,6.47611083984375
1.0770000000000053,7.033432006835938,0.0139068603515625,7.387084960937501
1.088000000000001,6.810025024414063,0.338848876953125,7.521517944335938
1.0970000000000013,6.532485961914063,0.3983642578125,6.791333007812501
1.108000000000004,6.716116333007813,0.292791748046875,6.382351684570313
1.118000000000002,7.272689819335938,0.0447113037109375,6.580038452148438
1.1270000000000024,7.0593017578125,-0.1399658203125,7.166220092773438
1.1370000000000005,6.6310302734375,-0.4176544189453125,6.6788818359375
1.1470000000000056,6.550131225585938,-0.6660339355468751,6.941467285156251
1.1570000000000036,6.7787719726562505,-0.660650634765625,6.896157836914063
1.1670000000000016,7.389328002929688,-0.2600433349609375,7.53243408203125
1.1770000000000067,7.197622680664063,0.372943115234375,6.880755615234375
1.1870000000000047,6.252853393554688,0.8960205078125001,6.327023315429688
1.1970000000000027,6.593496704101563,1.113446044921875,6.847109985351563
1.2070000000000007,7.137957763671875,0.7946350097656251,7.292428588867188
1.217000000000006,7.156948852539063,0.1724151611328125,7.317401123046875
1.227000000000004,6.447848510742188,-0.3040069580078125,6.573458862304688
1.237000000000002,6.271246337890625,-0.5573211669921876,6.872381591796875
1.247000000000007,7.07066650390625,-0.7911956787109375,7.300054931640625
1.257000000000005,7.595986938476563,-0.9740783691406252,6.924868774414063
1.267000000000003,6.991412353515625,-0.5902191162109376,6.220254516601563
1.277000000000001,6.46654052734375,0.2021728515625,6.295022583007813
1.287000000000006,6.613983154296876,0.792242431640625,7.452133178710938
1.297000000000004,7.02281494140625,0.8970672607421876,7.675241088867188
1.3070000000000022,6.698471069335938,0.8302246093750001,7.180874633789063
1.3170000000000002,6.377117919921876,0.6869689941406251,6.377117919921876
1.3270000000000053,6.828118896484376,0.263482666015625,6.85892333984375
1.3370000000000033,7.371084594726563,-0.387298583984375,7.23814697265625
1.3470000000000013,7.03238525390625,-0.8738891601562501,6.848455810546875
1.3570000000000064,6.549383544921875,-0.95404052734375,6.461306762695313
1.3670000000000044,6.736602783203126,-0.8169158935546875,6.593496704101563
1.3770000000000024,7.26925048828125,-0.5016937255859375,7.34102783203125
1.3870000000000005,7.069320678710938,0.04486083984375,6.956570434570313
1.3970000000000056,6.598880004882813,0.6542205810546875,6.606506347656251
1.4070000000000036,6.556710815429688,0.9517974853515626,6.638806152343751
1.4170000000000016,6.854138183593751,0.8880950927734376,7.373178100585938
1.4270000000000067,6.8583251953125,0.6105560302734375,7.528994750976563
1.4370000000000047,6.516934204101563,0.1655364990234375,6.913504028320313
1.4470000000000027,6.658245849609376,-0.37025146484375,6.559103393554688
1.4570000000000007,7.129284667968751,-0.844580078125,6.6875549316406255
1.467000000000006,7.398150634765625,-0.9263763427734376,7.002777099609376
1.477000000000004,6.878363037109375,-0.6890625,6.600225830078125
1.487000000000002,6.628338623046876,-0.3455780029296875,6.463699340820313
1.497000000000007,6.952832031250001,0.0219818115234375,6.782659912109375
1.507000000000005,6.95103759765625,0.350213623046875,7.229922485351563
1.517000000000003,6.588262939453125,0.642706298828125,7.206295776367188
1.527000000000001,6.320144653320313,0.647491455078125,6.946102905273438
1.537000000000006,6.749612426757813,0.4445709228515625,7.081582641601563
1.547000000000004,7.443460083007813,0.153424072265625,7.120162963867188
1.5560000000000045,7.105508422851563,-0.0605621337890625,6.813015747070313
1.5660000000000025,6.453381347656251,-0.1239654541015625,6.415399169921876
1.5760000000000003,6.591253662109375,-0.3081939697265625,6.786398315429688
1.5870000000000033,7.39725341796875,-0.600537109375,7.1573974609375
1.5960000000000036,7.287493896484375,-0.7086517333984376,6.839184570312501
1.6060000000000016,6.382949829101563,-0.140863037109375,6.774435424804688
1.6160000000000068,6.145935058593751,0.515899658203125,7.1167236328125005
1.6260000000000048,6.957467651367188,0.6329864501953125,7.537518310546876
1.6360000000000028,7.584173583984375,0.41212158203125,6.81944580078125
1.6460000000000008,6.898849487304688,0.31043701171875,6.049334716796875
1.656000000000006,6.518280029296876,0.3727935791015625,6.601571655273438
1.666000000000004,6.696826171875,0.0351409912109375,7.493106079101563
1.676000000000002,6.9899169921875,-0.4538421630859375,7.716812133789063
1.686000000000007,6.858175659179688,-0.6449493408203125,6.688751220703126
1.696000000000005,6.461007690429688,-0.5281616210937501,6.243283081054688
1.706000000000003,7.162780761718751,-0.2579498291015625,6.642694091796876
1.716000000000001,7.461703491210938,-0.07357177734375,7.224688720703125
1.7260000000000062,6.9223266601562505,0.2068084716796875,6.731219482421875
1.7360000000000042,6.296218872070313,0.466552734375,6.512896728515625
1.7460000000000022,6.53592529296875,0.5040863037109375,7.105358886718751
1.7560000000000002,7.064086914062501,0.3769805908203125,7.71068115234375
1.7660000000000051,6.7961181640625,0.12740478515625,7.225137329101563
1.7760000000000034,6.583029174804688,-0.01435546875,6.431100463867188
1.7860000000000014,6.673199462890626,-0.2020233154296875,6.574356079101563
1.7960000000000065,7.125845336914063,-0.3159698486328125,7.165771484375001
1.8060000000000045,7.152313232421876,-0.350811767578125,7.126144409179688
1.8160000000000025,6.894662475585938,-0.389691162109375,6.360220336914063
1.8260000000000003,6.898550415039063,-0.2920440673828125,6.281863403320313
1.8360000000000056,6.9103637695312505,-0.107666015625,7.022216796875001
1.846000000000004,6.798062133789063,0.3213531494140625,7.706494140625001
1.8560000000000016,6.442016601562501,0.4885345458984375,7.179379272460938
1.8660000000000068,6.564337158203125,0.37862548828125,6.667965698242188
1.8760000000000048,7.093096923828125,0.1891632080078125,6.440521240234376
1.8860000000000028,7.157098388671876,0.0201873779296875,7.071563720703126
1.8960000000000008,6.763519287109376,-0.2041168212890625,6.769351196289063
1.906000000000006,6.678433227539063,-0.5375823974609375,6.793576049804688
1.916000000000004,6.754248046875,-0.7105957031250001,6.7602294921875
1.926000000000002,7.28599853515625,-0.5465545654296875,7.273287963867188
1.936000000000007,7.228277587890625,0.0849365234375,7.300354003906251
1.946000000000005,6.315509033203125,0.6896606445312501,6.587066650390626
1.956000000000003,6.421978759765626,0.9351989746093752,6.700863647460938
1.966000000000001,7.203753662109375,0.760540771484375,6.970327758789063
1.9760000000000064,7.361215209960938,0.264080810546875,7.150518798828125
1.986000000000004,6.66392822265625,-0.05323486328125,6.792379760742188
1.9960000000000024,6.141000366210938,-0.241650390625,6.81346435546875
2.006,6.7593322753906255,-0.5423675537109376,7.360168457031251
2.0160000000000053,7.476358032226563,-0.877178955078125,7.036422729492188
2.026000000000004,7.177285766601563,-0.6883148193359375,6.489718627929688
2.035000000000004,6.590655517578125,-0.0408233642578125,6.201412963867188
2.0460000000000065,6.601272583007813,0.5121612548828125,7.100872802734376
2.055000000000007,7.037619018554688,0.6479400634765625,7.614230346679688
2.0660000000000025,6.895111083984376,0.62745361328125,7.124948120117188
2.075000000000003,6.39237060546875,0.6446502685546875,6.616375732421876
2.085000000000001,6.647479248046875,0.36905517578125,6.690545654296876
2.095000000000006,7.160238647460938,-0.1114044189453125,7.402935791015626
2.105000000000004,7.055413818359376,-0.5045349121093751,6.9866271972656255
2.115000000000002,6.51798095703125,-0.6329864501953125,6.631927490234376
2.125,6.740341186523438,-0.6178833007812501,6.486578369140625
2.135000000000005,7.259381103515626,-0.5321990966796876,7.0539184570312505
2.145000000000003,7.237698364257813,-0.1949951171875,6.969729614257813
2.155000000000001,6.674545288085938,0.2558563232421875,6.586019897460938
2.1650000000000063,6.543103027343751,0.5387786865234375,6.652114868164063
2.1750000000000043,6.8954101562500005,0.5598632812500001,7.146929931640625
2.1850000000000023,6.88583984375,0.425579833984375,7.47261962890625
2.1950000000000003,6.622805786132813,0.262286376953125,6.990216064453126
2.2050000000000054,6.558654785156251,0.003289794921875,6.71177978515625
2.2150000000000034,6.961804199218751,-0.3081939697265625,6.876119995117188
2.2250000000000014,7.226632690429688,-0.45458984375,6.9612060546875005
2.2350000000000065,6.990814208984376,-0.4146636962890625,6.74766845703125
2.2450000000000045,6.710433959960938,-0.3055023193359375,6.376968383789063
2.2550000000000026,6.800454711914063,-0.225799560546875,6.724191284179688
2.265000000000001,6.967337036132813,-0.003289794921875,7.252203369140625
2.2750000000000057,6.617572021484375,0.1167877197265625,7.097433471679688
2.285000000000004,6.564935302734376,0.2417999267578125,7.009805297851563
2.2950000000000017,6.852194213867188,0.2334259033203125,6.714321899414063
2.305000000000007,7.420880126953126,0.2666229248046875,7.207342529296875
2.315000000000005,7.02939453125,0.3784759521484375,6.880157470703126
2.325000000000003,6.260629272460938,0.4284210205078125,6.734210205078125
2.335000000000001,6.498989868164063,0.216827392578125,6.892419433593751
2.345000000000006,7.494900512695313,-0.395074462890625,6.950289916992188
2.355000000000004,7.396954345703126,-0.7897003173828125,6.82841796875
2.365000000000002,6.383248901367188,-0.471038818359375,6.6576477050781255
2.375,6.021820068359375,0.095404052734375,7.366598510742188
2.385000000000005,7.02640380859375,0.1278533935546875,7.395010375976563
2.395000000000003,7.734457397460938,-0.082843017578125,6.692938232421875
2.405000000000001,7.063488769531251,0.1224700927734375,5.82891845703125
2.4150000000000063,6.377566528320313,0.5879760742187501,6.578692626953125
2.4250000000000043,6.571365356445313,0.5395263671875,7.809823608398438
2.4350000000000023,7.040011596679688,0.0171966552734375,7.754046630859375
2.4450000000000003,6.808828735351563,-0.2787353515625,6.795968627929688
2.4550000000000054,6.442764282226563,-0.30804443359375,5.993408203125
2.4650000000000034,7.069470214843751,-0.3010162353515625,6.838885498046875
2.474000000000004,7.536172485351563,-0.340045166015625,7.301998901367188
2.4850000000000065,6.911111450195313,-0.2450897216796875,6.731219482421875
2.4950000000000045,6.385491943359376,0.0480010986328125,6.365155029296876
2.5050000000000026,6.531439208984375,0.2292388916015625,6.902737426757813
2.514000000000003,7.157247924804688,0.3114837646484375,7.819992065429688
2.524000000000001,6.981991577148438,0.3052032470703125,7.179379272460938
2.534000000000006,6.4348388671875005,0.3061004638671875,6.420034790039063
2.544000000000004,6.62803955078125,0.2089019775390625,6.487026977539063
2.554000000000002,7.153359985351563,-0.02811279296875,7.359719848632813
2.564,7.170706176757813,-0.2074066162109375,7.271942138671876
2.574000000000005,6.630731201171876,-0.4236358642578125,6.468933105468751
2.584000000000003,6.78355712890625,-0.472235107421875,6.305490112304688
2.594000000000001,7.043600463867188,-0.34273681640625,7.0225158691406255
2.6040000000000063,6.936981201171876,-0.03648681640625,7.522564697265626
2.6140000000000043,6.667218017578126,0.3144744873046875,7.023562622070313
2.6240000000000023,6.547439575195313,0.338250732421875,6.429306030273438
2.6340000000000003,6.916345214843751,0.3078948974609375,6.696975708007813
2.644000000000005,7.212875366210938,0.2453887939453125,7.090704345703125
2.6540000000000035,6.641647338867188,0.0004486083984375,7.041357421875
2.664000000000001,6.677685546875001,-0.4032989501953125,6.527850341796875
2.6740000000000066,6.559552001953126,-0.648687744140625,6.979449462890625
2.6840000000000046,7.268502807617188,-0.4690948486328125,7.278970336914063
2.6950000000000003,7.3365417480468755,-0.1308441162109375,7.285549926757813
2.7040000000000006,6.813613891601563,0.3692047119140625,6.451736450195313
2.7140000000000057,6.322387695312501,0.726446533203125,6.335098266601563
2.724000000000004,6.916195678710938,0.820654296875,7.26566162109375
2.7340000000000018,7.231866455078125,0.4140655517578125,7.290335083007813
2.744000000000007,6.949392700195313,-0.1208251953125,6.965841674804688
2.754000000000005,6.188851928710938,-0.2069580078125,6.613833618164063
2.764000000000003,6.523663330078126,-0.2761932373046875,7.292428588867188
2.774000000000001,7.305587768554688,-0.5176940917968751,7.271194458007813
2.784000000000006,7.509405517578125,-0.748876953125,6.445755004882813
2.7950000000000017,6.822885131835938,-0.3117828369140625,6.042007446289063
2.804000000000002,6.4372314453125,0.3572418212890625,6.799856567382813
2.814,6.705050659179688,0.6122009277343751,7.881301879882813
2.824000000000005,7.030889892578125,0.514105224609375,7.543499755859376
2.834000000000003,6.591702270507813,0.4155609130859375,6.563140869140626
2.844000000000001,6.560299682617188,0.4119720458984375,6.364108276367188
2.8540000000000063,7.099975585937501,0.1015350341796875,7.132424926757813
2.8640000000000043,7.222894287109375,-0.335260009765625,7.282110595703125
2.8740000000000023,6.7363037109375,-0.547003173828125,6.720901489257813
2.8840000000000003,6.505868530273438,-0.5770599365234376,6.395211791992188
2.895000000000003,6.9806457519531255,-0.445916748046875,6.990963745117188
2.9040000000000035,7.207342529296875,-0.2151824951171875,7.344317626953125
2.914000000000001,6.874774169921875,0.1703216552734375,6.92412109375
2.9240000000000066,6.478952026367188,0.4843475341796875,6.385641479492188
2.9340000000000046,6.7219482421875005,0.5477508544921875,6.862661743164063
2.9440000000000026,7.081881713867188,0.448309326171875,7.414151000976563
2.9540000000000006,6.795669555664063,0.1712188720703125,7.192239379882813
2.9640000000000057,6.678134155273438,-0.0725250244140625,6.582431030273438
2.973000000000006,6.740341186523438,-0.4335052490234375,6.531140136718751
2.983000000000004,7.224987792968751,-0.538031005859375,7.07724609375
2.9950000000000045,6.975711059570313,-0.3769805908203125,7.176986694335938
3.004000000000005,6.6097961425781255,-0.154022216796875,6.778323364257813
3.013000000000005,6.6740966796875005,0.042767333984375,6.5353271484375
3.0230000000000032,7.06229248046875,0.1260589599609375,6.862811279296875
3.0330000000000013,6.950140380859375,0.3587371826171875,7.244876098632813
3.0430000000000064,6.4348388671875005,0.30146484375,6.867745971679688
3.0530000000000044,6.515438842773438,0.1299468994140625,6.972421264648438
3.0630000000000024,7.18431396484375,-0.19619140625,6.76561279296875
3.0730000000000004,7.600173950195313,-0.287408447265625,7.068423461914063
3.083000000000005,6.897952270507813,-0.1311431884765625,6.665722656250001
3.095000000000006,6.196179199218751,0.142657470703125,6.694732666015626
3.1040000000000063,6.5831787109375,0.2175750732421875,7.2722412109375005
3.1130000000000067,7.3404296875,-0.0333465576171875,7.229324340820313
3.1230000000000047,7.158444213867188,-0.102581787109375,6.759033203125001
3.1330000000000027,6.335995483398438,0.1933502197265625,6.497195434570313
3.1430000000000007,6.282910156250001,0.460272216796875,7.234707641601563
3.153000000000006,7.26805419921875,0.15731201171875,7.461703491210938
3.163000000000004,7.521667480468751,-0.311334228515625,6.724041748046876
3.173000000000002,6.694134521484376,-0.3072967529296875,6.01553955078125
3.183000000000007,6.535028076171876,-0.0450103759765625,6.706695556640626
3.1950000000000003,6.7458740234375005,-0.0889739990234375,7.641744995117188
3.203000000000003,7.169509887695313,-0.2409027099609375,7.467684936523438
3.213000000000001,6.690097045898438,-0.10826416015625,6.531439208984375
3.223000000000006,6.544747924804688,0.16688232421875,6.215618896484376
3.233000000000004,7.147677612304688,0.2995208740234375,7.027151489257813
3.243000000000002,7.273587036132813,0.235968017578125,7.432095336914063
3.253,6.523513793945313,0.23447265625,6.8894287109375005
3.263000000000005,6.2302734375,0.2141357421875,6.703704833984376
3.2730000000000032,6.846063232421876,-0.003887939453125,7.033432006835938
3.2830000000000013,7.334298706054688,-0.274249267578125,7.398001098632813
3.2950000000000017,7.019525146484376,-0.3802703857421875,6.568673706054688
3.3030000000000044,6.561495971679688,-0.275146484375,6.303396606445313
3.3130000000000024,6.816305541992188,-0.1652374267578125,6.732415771484376
3.3230000000000004,7.112985229492188,-0.0964508056640625,7.4546752929687505
3.333000000000005,6.887185668945313,0.03648681640625,7.155902099609375
3.3430000000000035,6.547140502929688,0.206658935546875,6.552673339843751
3.353000000000001,6.680676269531251,0.3010162353515625,6.807781982421876
3.3630000000000067,6.989169311523438,0.2884552001953125,7.186407470703125
3.3730000000000047,7.030740356445313,0.2435943603515625,7.350448608398438
3.3830000000000027,6.55985107421875,0.093609619140625,6.591552734375001
3.394000000000005,6.734509277343751,-0.2163787841796875,6.466390991210938
3.403000000000006,7.160687255859376,-0.42169189453125,6.8044921875
3.413000000000004,7.050778198242188,-0.5745178222656251,7.033282470703125
3.423000000000002,6.677386474609375,-0.5420684814453125,6.690994262695313
3.432000000000002,6.4791015625,-0.4445709228515625,6.742584228515626
3.443000000000005,6.792230224609376,-0.130096435546875,7.245623779296875
3.453000000000003,7.529443359375,0.3192596435546875,7.506564331054688
3.463000000000001,7.226931762695313,0.8432342529296876,6.8343994140625
3.473000000000006,5.934490966796876,1.125408935546875,6.1979736328125
3.4820000000000064,6.663330078125001,0.9033477783203124,6.913504028320313
3.4950000000000045,7.370635986328126,0.3291290283203125,7.637408447265625
3.503,7.0823303222656255,-0.496160888671875,7.004421997070313
3.513000000000005,6.356930541992188,-0.798223876953125,6.599777221679688
3.5220000000000056,6.308929443359376,-0.7345214843750001,6.70340576171875
3.532000000000004,7.326223754882813,-0.7140350341796875,7.544247436523438
3.5420000000000016,7.6239501953125,-0.5920135498046876,6.736154174804688
3.5520000000000067,6.912606811523438,-0.0753662109375,6.013745117187501
3.5620000000000047,6.357678222656251,0.7117919921875,6.568972778320313
3.5720000000000027,6.584075927734376,1.088623046875,7.612435913085938
3.5820000000000007,7.115377807617188,0.8705993652343751,8.059548950195314
3.592000000000006,6.5592529296875,0.5076751708984375,6.700564575195313
3.602000000000004,6.453231811523438,0.1423583984375,6.225039672851563
3.612000000000002,7.097882080078126,-0.2681182861328125,6.881204223632813
3.622000000000007,7.256689453125,-0.7538116455078125,7.327120971679688
3.632000000000005,6.989169311523438,-0.8972167968750001,6.909017944335938
3.642000000000003,6.536672973632813,-0.7168762207031251,6.228778076171875
3.652000000000001,6.654656982421876,-0.3816162109375,6.659442138671875
3.662000000000006,7.340878295898438,0.069384765625,7.408169555664063
3.672000000000004,7.044049072265626,0.4702911376953125,7.1310791015625
3.682000000000002,6.355285644531251,0.8270843505859375,6.601123046875
3.692,6.393716430664063,0.832318115234375,6.774435424804688
3.702000000000005,6.969580078125,0.5866302490234375,7.6239501953125
3.7120000000000033,6.9941040039062505,0.194097900390625,7.390524291992188
3.722000000000001,6.6352172851562505,-0.2998199462890625,6.517532348632813
3.7320000000000064,6.9671875000000005,-0.7138854980468751,6.118420410156251
3.742000000000005,7.229324340820313,-0.9314605712890626,6.731817626953125
3.7520000000000016,7.16038818359375,-0.669622802734375,7.285101318359375
3.762000000000001,6.595889282226563,-0.2639312744140625,6.904980468750001
3.7720000000000056,6.570318603515625,0.0390289306640625,6.563888549804688
3.782000000000004,7.000683593750001,0.3055023193359375,6.682620239257813
3.7920000000000016,6.958514404296875,0.548797607421875,7.224090576171876
3.802000000000007,6.483737182617188,0.6969879150390625,7.199716186523438
3.8120000000000047,6.400894165039063,0.384906005859375,6.929205322265625
3.8220000000000014,6.8619140625,-0.0569732666015625,6.9899169921875
3.8320000000000007,7.78544921875,-0.3512603759765625,6.917840576171876
3.842000000000006,7.0942932128906255,-0.2702117919921875,6.866101074218751
3.852000000000004,6.226235961914063,-0.070880126953125,6.29307861328125
3.862000000000002,6.610992431640626,-0.0704315185546875,7.031188964843751
3.871000000000002,7.393814086914063,-0.244342041015625,7.210482788085938
3.882000000000005,7.225436401367188,-0.2989227294921875,6.8918212890625
3.892000000000003,6.090606689453125,0.2567535400390625,6.8942138671875
3.902000000000001,6.12918701171875,0.7017730712890625,7.050479125976563
3.912000000000006,7.24173583984375,0.4723846435546875,7.632473754882813
3.922000000000004,7.742532348632813,-0.0587677001953125,6.430801391601563
3.931000000000005,6.827072143554688,-0.14056396484375,6.098532104492188
3.9410000000000025,6.393566894531251,0.05443115234375,6.5592529296875
3.951000000000001,6.647329711914063,-0.2077056884765625,7.69871826171875
3.9610000000000056,7.281362915039063,-0.5700317382812501,7.675091552734376
3.971000000000004,6.838137817382813,-0.466851806640625,6.443661499023438
3.9820000000000064,6.360519409179688,-0.0494964599609375,6.22489013671875
3.991000000000007,7.0856201171875,0.2660247802734375,6.843222045898438
4.001000000000005,7.434637451171875,0.308343505859375,7.508358764648438
4.011000000000003,6.724789428710938,0.40853271484375,6.840530395507813
4.021000000000001,6.217263793945313,0.43604736328125,6.473867797851563
4.031000000000006,6.633572387695313,0.25899658203125,7.181622314453126
4.041000000000004,7.243829345703125,-0.0569732666015625,7.530191040039063
4.051000000000002,6.944906616210938,-0.2821746826171875,7.048983764648438
4.061000000000007,6.647030639648438,-0.3282318115234375,6.1166259765625
4.071000000000005,6.722546386718751,-0.3910369873046875,6.5125976562500005
4.081000000000003,7.319046020507813,-0.3010162353515625,7.28121337890625
4.091000000000001,7.0688720703125005,-0.1577606201171875,7.184762573242188
4.101000000000006,6.513046264648438,0.0426177978515625,6.609197998046875
4.111000000000004,6.654058837890625,0.21832275390625,6.499737548828126
4.121000000000002,7.0225158691406255,0.2857635498046875,7.311569213867188
4.131,6.971524047851563,0.4000091552734375,7.434637451171875
4.141000000000005,6.54130859375,0.3174652099609375,6.872381591796875
4.151000000000003,6.58018798828125,0.0892730712890625,6.517083740234376
4.161000000000001,7.1002746582031255,-0.243743896484375,6.713125610351563
4.171000000000007,7.156201171875001,-0.4027008056640625,7.125247192382813
4.1810000000000045,6.772042846679688,-0.5327972412109375,6.639105224609375
4.1910000000000025,6.778622436523438,-0.640911865234375,6.453829956054688
4.2010000000000005,6.650918579101563,-0.524871826171875,6.9181396484375
4.211000000000006,7.103713989257813,-0.118731689453125,7.428955078125001
4.221000000000004,7.202706909179688,0.42886962890625,7.494152832031251
4.231000000000002,6.763070678710938,0.8919830322265626,6.546542358398438
4.241000000000007,6.180776977539063,1.1345306396484376,6.533682250976563
4.251000000000005,6.890774536132813,0.9269744873046876,7.087265014648438
4.261000000000003,7.391421508789063,0.224005126953125,7.309176635742188
4.271000000000001,7.0823303222656255,-0.634930419921875,6.647778320312501
4.281000000000006,6.343472290039063,-0.8225982666015625,6.540859985351563
4.291000000000004,6.33494873046875,-0.702520751953125,7.252502441406251
4.301000000000002,7.186108398437501,-0.7143341064453126,7.459161376953125
4.311000000000007,7.559799194335938,-0.6418090820312501,6.648974609375
4.321000000000005,6.8200439453125,-0.018841552734375,5.923425292968751
4.331000000000003,6.469082641601563,0.9308624267578126,6.7428833007812505
4.341000000000001,6.6591430664062505,1.208551025390625,7.727279663085938
4.351000000000006,7.128536987304688,0.8357574462890626,7.645932006835938
4.361000000000004,6.669311523437501,0.4113739013671875,6.602169799804688
4.3700000000000045,6.3525939941406255,0.131292724609375,6.4013427734375
4.380000000000003,6.993505859375,-0.2830718994140625,7.193435668945313
4.390000000000001,7.217660522460938,-0.8345611572265625,7.358822631835938
4.400000000000006,6.919036865234376,-0.947760009765625,6.644937133789063
4.410000000000004,6.578543090820313,-0.7369140625,6.137860107421876
4.420000000000002,7.030291748046875,-0.3122314453125,6.730172729492188
4.430000000000007,7.31590576171875,0.098394775390625,7.341925048828125
4.440000000000005,6.911560058593751,0.4966094970703125,6.972720336914063
4.450000000000003,6.292480468750001,0.8568420410156251,6.620413208007813
4.460000000000001,6.463998413085938,0.8058502197265626,7.029693603515626
4.469999999999999,6.869091796875001,0.5912658691406251,7.747018432617188
4.480000000000004,6.872381591796875,0.1170867919921875,7.299307250976563
4.490000000000009,6.779519653320313,-0.3158203125,6.483737182617188
4.5,6.912606811523438,-0.6759033203125,6.126794433593751
4.510000000000005,7.326522827148438,-0.8650665283203126,6.795819091796876
4.52000000000001,7.23575439453125,-0.6625946044921875,7.138555908203125
4.530000000000001,6.6232543945312505,-0.3620269775390625,6.718807983398438
4.540000000000006,6.584524536132813,0.021533203125,6.65555419921875
4.549999999999997,6.7997070312500005,0.287408447265625,6.885540771484376
4.560000000000002,7.006814575195313,0.6452484130859375,7.542004394531251
4.570000000000007,6.396856689453125,0.7224090576171875,6.998739624023438
4.579999999999998,6.415249633789063,0.4454681396484375,6.803146362304688
4.590000000000003,6.940869140625001,0.031402587890625,6.802398681640626
4.6000000000000085,7.481591796875,-0.38759765625,6.986029052734375
4.609999999999999,7.438076782226563,-0.43843994140625,6.909317016601563
4.6200000000000045,6.504971313476563,-0.3943267822265625,6.327920532226563
4.63000000000001,6.286349487304688,-0.0657958984375,7.042852783203125
4.640000000000001,6.905728149414063,0.0342437744140625,7.320242309570313
4.650000000000006,7.36435546875,-0.0641510009765625,7.206744384765625
4.659999999999997,7.0258056640625,0.033795166015625,6.277676391601563
4.670000000000002,6.146533203125,0.5175445556640625,6.781015014648438
4.680000000000007,6.538766479492188,0.7603912353515625,7.561444091796876
4.689999999999998,7.377963256835938,0.2382110595703125,7.3126159667968755
4.700000000000003,7.201809692382813,-0.311932373046875,6.393118286132813
4.710000000000008,6.68785400390625,-0.3563446044921875,5.989071655273438
4.719999999999999,6.480895996093751,-0.1278533935546875,7.256390380859376
4.730000000000004,6.812417602539063,-0.213238525390625,7.783804321289063
4.740000000000009,7.125546264648438,-0.387896728515625,7.197323608398438
4.75,6.859222412109376,-0.2755950927734375,5.958416748046876
4.760000000000005,6.747070312500001,0.0396270751953125,6.1327758789062505
4.77000000000001,7.293325805664063,0.3180633544921875,7.395458984375001
4.780000000000001,7.010104370117188,0.29368896484375,7.370187377929688
4.790000000000006,6.302200317382813,0.3141754150390625,7.027301025390625
4.799999999999997,6.269601440429688,0.30804443359375,6.626394653320313
4.810000000000002,6.914401245117188,0.167181396484375,7.445404052734376
4.820000000000007,7.213323974609375,0.007177734375,7.30992431640625
4.829999999999998,6.952981567382813,-0.2141357421875,6.486578369140625
4.840000000000003,6.784753417968751,-0.2531646728515625,6.1261962890625
4.8500000000000085,6.907522583007813,-0.3614288330078125,6.6232543945312505
4.859999999999999,7.122406005859376,-0.299072265625,7.605557250976563
4.869,6.863858032226563,-0.2615386962890625,6.957916259765626
4.879000000000005,6.604861450195313,-0.112451171875,6.58616943359375
4.88900000000001,6.692639160156251,0.11424560546875,6.646133422851563
4.900000000000006,6.982589721679688,0.358587646484375,7.424020385742188
4.909000000000006,6.905130004882813,0.5976959228515626,7.456320190429688
4.918999999999997,6.535626220703126,0.42109375,6.540710449218751
4.929000000000002,6.722396850585938,0.1048248291015625,6.38878173828125
4.939000000000007,7.184912109375,-0.2983245849609375,6.718060302734376
4.948999999999998,7.036721801757813,-0.6258087158203125,7.142742919921876
4.959000000000003,6.762322998046876,-0.7645782470703125,6.837838745117188
4.969000000000008,6.384744262695313,-0.7346710205078125,6.706396484375
4.978999999999999,7.191790771484375,-0.3381011962890625,7.215267944335938
4.989000000000004,7.352542114257813,0.3144744873046875,7.313662719726563
4.999000000000009,6.509307861328126,1.0494445800781251,6.824081420898438
5.009,6.236404418945313,1.254608154296875,6.397305297851563
5.0190000000000055,7.075003051757813,0.9335540771484376,7.013394165039063
5.029000000000011,7.370486450195313,0.218621826171875,7.189547729492188
5.0390000000000015,6.77159423828125,-0.3111846923828125,7.159191894531251
5.049000000000007,6.153411865234376,-0.5444610595703125,6.722247314453125
5.0589999999999975,6.716415405273438,-0.92054443359375,7.030441284179688
5.069000000000003,7.575350952148438,-1.0759124755859375,7.040011596679688
5.079000000000008,7.249362182617188,-0.6989318847656251,6.521868896484375
5.088999999999999,6.556561279296876,0.2062103271484375,6.412857055664063
5.099000000000004,6.447250366210938,0.8095886230468751,6.90318603515625
5.109000000000009,7.049133300781251,0.9645080566406252,7.698568725585938
5.119,6.913204956054688,0.9511993408203124,7.266110229492188
5.129000000000005,6.330911254882813,0.750372314453125,6.684265136718751
5.13900000000001,6.705200195312501,0.253314208984375,6.635067749023438
5.149000000000001,7.1873046875,-0.498553466796875,7.147229003906251
5.159000000000006,7.130630493164063,-0.9045440673828126,7.063937377929688
5.168999999999997,6.5634399414062505,-0.9295166015625,6.660638427734376
5.179000000000002,6.715518188476563,-0.7843170166015626,6.48448486328125
5.189000000000007,7.279119873046875,-0.4711883544921875,6.912606811523438
5.198999999999998,7.249960327148438,0.0420196533203125,6.941317749023438
5.209000000000003,6.624002075195313,0.7258483886718751,6.825726318359376
5.219000000000008,6.37681884765625,0.986639404296875,6.741986083984376
5.228999999999999,6.745425415039063,0.8623748779296876,7.36435546875
5.239000000000004,6.866400146484375,0.4738800048828125,7.374075317382813
5.249000000000009,6.67947998046875,0.0680389404296875,7.011749267578126
5.259,6.731967163085938,-0.36307373046875,6.537271118164063
5.2690000000000055,7.105508422851563,-0.8785247802734376,6.542654418945313
5.279000000000011,7.333102416992188,-0.9033477783203124,6.96300048828125
5.2890000000000015,6.876718139648438,-0.6162384033203125,6.668862915039063
5.299000000000007,6.578991699218751,-0.17884521484375,6.814810180664063
5.3089999999999975,6.799856567382813,0.094207763671875,6.613534545898438
5.319000000000003,7.095639038085938,0.384906005859375,7.267007446289063
5.328000000000003,6.412557983398438,0.6685760498046875,7.034179687500001
5.338999999999999,6.299359130859376,0.6518280029296876,7.178182983398438
5.347999999999999,6.759033203125001,0.3877471923828125,7.131228637695313
5.358000000000004,7.640249633789063,-0.111553955078125,6.76920166015625
5.368000000000009,7.395159912109375,-0.2761932373046875,6.703106689453126
5.378,6.562841796875,-0.236566162109375,6.26317138671875
5.388000000000005,6.208291625976563,-0.0659454345703125,7.317700195312501
5.39800000000001,7.078591918945313,-0.3117828369140625,7.161285400390626
5.408000000000001,7.523013305664063,-0.6697723388671876,6.893914794921876
5.418000000000006,6.933990478515626,-0.4415802001953125,6.121261596679688
5.427999999999997,5.9911651611328125,0.429168701171875,7.115078735351563
5.438000000000002,6.488821411132813,0.8867492675781251,7.918835449218751
5.448000000000008,7.522415161132813,0.446514892578125,7.202557373046876
5.457999999999998,7.274484252929688,0.0602630615234375,5.99998779296875
5.468000000000004,6.561795043945313,0.1371246337890625,5.858975219726563
5.478000000000009,6.492858886718751,0.2519683837890625,7.627987670898438
5.488,6.894363403320313,-0.1816864013671875,7.971771240234376
5.498000000000005,7.028945922851563,-0.6012847900390625,7.172500610351563
5.50800000000001,6.698919677734375,-0.6555664062500001,5.676541137695313
5.518000000000001,6.81107177734375,-0.3443817138671875,6.271395874023438
5.528000000000006,7.522116088867188,0.000897216796875,7.463796997070313
5.537999999999997,7.0832275390625,0.1045257568359375,7.21781005859375
5.548000000000002,6.347210693359376,0.3291290283203125,6.565533447265626
5.558000000000007,6.271545410156251,0.468646240234375,6.582730102539063
5.567999999999998,6.922625732421875,0.5160491943359375,7.799954223632813
5.578000000000003,7.074554443359376,0.3665130615234375,7.514639282226563
5.588000000000008,6.69383544921875,0.0614593505859375,6.597982788085938
5.597999999999999,6.669760131835938,-0.1607513427734375,5.97845458984375
5.608000000000004,6.978253173828126,-0.355596923828125,6.88284912109375
5.618000000000009,7.105807495117188,-0.3935791015625,7.618267822265626
5.628,6.8610168457031255,-0.43963623046875,6.881353759765625
5.638000000000005,6.759780883789063,-0.40255126953125,6.202758789062501
5.64800000000001,6.979748535156251,-0.1900604248046875,6.405230712890625
5.658000000000001,7.057208251953125,0.1682281494140625,7.386935424804688
5.668000000000006,6.739443969726563,0.5760131835937501,7.488021850585938
5.677999999999997,6.350799560546876,0.5336944580078126,6.809875488281251
5.688000000000002,6.663479614257813,0.2860626220703125,6.544448852539063
5.698000000000008,7.282708740234375,0.02691650390625,6.828268432617188
5.707999999999998,6.82901611328125,-0.2417999267578125,7.151864624023438
5.718000000000004,6.786996459960938,-0.4873382568359375,6.6501708984375005
5.728000000000009,6.504373168945313,-0.7614379882812501,6.713125610351563
5.738,7.191192626953126,-0.6443511962890626,6.978701782226563
5.748000000000005,7.518975830078125,-0.191705322265625,7.362261962890625
5.75800000000001,6.813015747070313,0.5516387939453126,6.848754882812501
5.768000000000001,6.010754394531251,1.01923828125,6.442465209960938
5.778000000000006,6.8104736328125,0.9993499755859376,7.1334716796875
5.787999999999997,7.346710205078126,0.60352783203125,7.369589233398438
5.798000000000002,7.058105468750001,-0.002691650390625,6.981393432617188
5.808000000000007,6.301901245117188,-0.2328277587890625,6.557907104492188
5.817000000000007,6.53592529296875,-0.5371337890625001,6.848156738281251
5.826999999999998,7.271044921875,-0.8208038330078126,7.335195922851563
5.837000000000003,7.494003295898438,-0.93011474609375,6.628488159179688
5.847000000000008,6.74228515625,-0.466253662109375,6.246722412109375
5.856999999999999,6.421978759765626,0.3093902587890625,6.702957153320313
5.867000000000004,6.729125976562501,0.7790832519531251,7.645184326171876
5.8770000000000095,7.103115844726563,0.8486175537109376,7.5521728515625
5.8870000000000005,6.622506713867188,0.7692138671875001,6.59873046875
5.897000000000006,6.563290405273438,0.555975341796875,6.359024047851563
5.9069999999999965,7.053170776367188,0.0913665771484375,7.066030883789063
5.917000000000002,7.063040161132813,-0.4628143310546875,7.375421142578125
5.927000000000007,6.8370910644531255,-0.798223876953125,6.87626953125
5.936999999999998,6.496896362304688,-0.862225341796875,6.4013427734375
5.947000000000003,6.929354858398438,-0.6434539794921875,6.7533508300781255
5.957000000000008,7.315756225585938,-0.265277099609375,7.19627685546875
5.966999999999999,7.0284973144531255,0.2284912109375,6.874176025390626
5.977000000000004,6.509158325195313,0.6343322753906251,6.427960205078126
5.987000000000009,6.58018798828125,0.7651763916015626,6.913204956054688
5.997,6.896606445312501,0.6735107421875001,7.558901977539063
6.007000000000005,6.743630981445313,0.3736907958984375,7.389627075195313
6.01700000000001,6.681723022460938,-0.0462066650390625,6.606057739257813
6.027000000000001,6.912606811523438,-0.5310028076171875,6.343472290039063
6.037000000000006,7.243231201171875,-0.772802734375,6.830212402343751
6.046999999999997,6.9567199707031255,-0.5926116943359375,7.176837158203125
6.057000000000002,6.6023193359375005,-0.3650177001953125,6.826025390625
6.067000000000007,6.812118530273438,-0.1395172119140625,6.496298217773438
6.076999999999998,6.896606445312501,0.029608154296875,6.740490722656251
6.087000000000003,6.714471435546876,0.401654052734375,7.271044921875
6.097000000000008,6.474166870117188,0.5773590087890625,7.252352905273438
6.106999999999999,6.799258422851563,0.366363525390625,6.984982299804688
6.117000000000004,7.650567626953125,0.07237548828125,6.603964233398438
6.1270000000000095,7.2626708984375,-0.0213836669921875,6.720602416992188
6.1370000000000005,6.3585754394531255,0.27813720703125,6.782958984375001
6.147000000000006,6.0749053955078125,0.06400146484375,7.184164428710938
6.1569999999999965,7.330410766601563,-0.4484588623046875,7.258483886718751
6.167000000000002,7.538864135742188,-0.8583374023437501,6.441418457031251
6.177000000000007,6.469381713867188,-0.3218017578125,6.890176391601563
6.186999999999998,5.9328460693359375,0.530255126953125,7.002178955078126
6.197000000000003,6.990814208984376,0.516796875,7.738644409179688
6.207000000000008,7.932742309570313,0.059814453125,6.471923828125001
6.216999999999999,6.994403076171875,-0.049945068359375,5.799609375
6.227000000000004,6.386538696289063,0.4275238037109375,6.734359741210938
6.237000000000009,6.375622558593751,0.3153717041015625,7.820291137695313
6.247,7.0389648437500005,-0.331072998046875,8.084072875976563
6.257000000000005,7.065731811523438,-0.5190399169921875,6.372183227539063
6.266000000000005,6.343023681640625,-0.3581390380859375,5.983837890625001
6.277000000000001,7.055413818359376,-0.055029296875,6.616973876953126
6.286000000000001,7.663726806640626,-0.062506103515625,7.511798095703125
6.296999999999997,6.838735961914063,0.0007476806640625,6.905429077148438
6.305999999999997,6.195281982421876,0.2749969482421875,6.29068603515625
6.3160000000000025,6.43065185546875,0.3790740966796875,7.159939575195313
6.326000000000008,7.116424560546876,0.279632568359375,7.783804321289063
6.335999999999999,7.129583740234375,0.0668426513671875,7.233660888671875
6.346000000000004,6.602468872070313,-0.008673095703125,6.090606689453125
6.356000000000009,6.599926757812501,-0.0590667724609375,6.251058959960938
6.366,7.1062561035156255,-0.1948455810546875,7.424319458007813
6.376000000000005,7.263568115234375,-0.2100982666015625,7.469778442382813
6.38600000000001,6.482839965820313,-0.250323486328125,6.680825805664063
6.396000000000001,6.493905639648438,-0.1194793701171875,6.2302734375
6.406000000000006,7.118966674804688,-0.009869384765625,7.020721435546876
6.415999999999997,7.263717651367188,0.1577606201171875,7.509854125976563
6.426000000000002,6.691592407226563,0.28411865234375,6.785800170898438
6.436000000000007,6.493606567382813,0.1801910400390625,6.395510864257813
6.445999999999998,6.786099243164063,0.0707305908203125,6.7099853515625005
6.456000000000003,7.157247924804688,-0.1338348388671875,7.406674194335938
6.466999999999999,6.731668090820313,-0.260491943359375,7.085470581054688
6.475999999999999,6.747518920898438,-0.442926025390625,6.303097534179688
6.487000000000009,6.600524902343751,-0.4502532958984375,6.735107421875001
6.496000000000009,7.256240844726563,-0.20396728515625,7.191940307617188
6.506,7.302896118164063,0.226995849609375,7.590454101562501
6.516000000000005,6.49644775390625,0.644500732421875,6.65196533203125
6.5260000000000105,6.190496826171875,0.7926910400390625,6.463400268554688
6.536000000000001,6.992309570312501,0.6712677001953126,7.107601928710938
6.546000000000007,7.504769897460938,0.0803009033203125,7.191641235351563
6.555999999999997,7.009506225585938,-0.38460693359375,6.826922607421875
6.5660000000000025,6.229376220703125,-0.454888916015625,6.409716796875
6.576000000000008,6.4183898925781255,-0.4113739013671875,7.319644165039063
6.585999999999999,7.376019287109376,-0.5232269287109376,7.3365417480468755
6.596000000000004,7.367645263671876,-0.5091705322265625,6.795968627929688
6.606000000000009,6.697872924804688,0.0405242919921875,6.031240844726563
6.616,6.432147216796875,0.6596038818359375,6.775482177734376
6.626000000000005,6.919186401367188,0.7998687744140626,7.723541259765626
6.63600000000001,7.195379638671875,0.5375823974609375,7.354187011718751
6.646000000000001,6.509606933593751,0.322698974609375,6.5978332519531255
6.656000000000006,6.526953125,0.1592559814453125,6.322088623046875
6.665999999999997,6.9133544921875005,-0.1795928955078125,7.452282714843751
6.676000000000002,7.133621215820313,-0.518890380859375,7.31650390625
6.686000000000007,6.719705200195313,-0.60113525390625,6.8080810546875
6.695999999999998,6.68486328125,-0.5027404785156251,6.087167358398438
6.706000000000003,7.151416015625,-0.3552978515625,6.635067749023438
6.716000000000008,7.404879760742188,-0.0545806884765625,7.28001708984375
6.7250000000000085,6.784753417968751,0.3207550048828125,6.884643554687501
6.736000000000004,6.263021850585938,0.542218017578125,6.761126708984375
6.7450000000000045,6.6681152343750005,0.5022918701171876,6.909017944335938
6.75500000000001,7.034927368164063,0.3075958251953125,7.575949096679688
6.765000000000001,6.8071838378906255,0.13936767578125,7.04075927734375
6.775000000000006,6.583627319335938,-0.1069183349609375,6.506915283203125
6.786000000000001,6.928158569335938,-0.3931304931640625,6.57181396484375
6.796000000000007,7.299307250976563,-0.5354888916015625,6.892718505859375
6.805000000000007,6.964794921875001,-0.3313720703125,7.169509887695313
6.814999999999998,6.527252197265626,-0.1164886474609375,6.598580932617188
6.825000000000003,6.708340454101563,-0.003289794921875,6.689199829101563
6.835000000000008,7.049282836914063,0.05084228515625,6.910214233398438
6.844999999999999,6.865054321289063,0.2397064208984375,7.272540283203125
6.855000000000004,6.445755004882813,0.32479248046875,6.962402343750001
6.865000000000009,6.549234008789063,0.1867706298828125,6.893167114257813
6.875,7.23336181640625,-0.04844970703125,6.8714843750000005
6.88600000000001,7.471572875976563,-0.172564697265625,6.896307373046875
6.89500000000001,6.772341918945313,0.0387298583984375,6.782510375976563
6.905000000000001,6.287396240234376,0.180340576171875,6.725387573242188
6.915000000000006,6.720004272460938,0.1066192626953125,7.276577758789063
6.924999999999997,7.351345825195313,-0.2086029052734375,6.935635375976563
6.935000000000002,6.992010498046875,-0.2803802490234375,6.806137084960938
6.945000000000007,6.417343139648438,0.0861328125,6.616375732421876
6.954999999999998,6.430203247070313,0.3026611328125,7.358224487304688
6.965000000000003,7.252203369140625,0.10946044921875,7.284802246093751
6.9750000000000085,7.312765502929688,-0.1849761962890625,6.514990234375
6.987000000000009,6.733761596679688,-0.0417205810546875,6.249114990234376
6.9950000000000045,6.5353271484375,0.17645263671875,6.842025756835938
7.00500000000001,6.80509033203125,0.0599639892578125,7.773486328125
7.015000000000001,7.030889892578125,-0.1096099853515625,7.243081665039063
7.025000000000006,6.562692260742188,-0.084637451171875,6.587814331054688
7.034999999999997,6.717312622070313,0.0538330078125,6.377716064453126
7.045000000000002,7.226034545898438,0.05263671875,7.049282836914063
7.055000000000007,7.267007446289063,-0.073870849609375,7.077395629882813
7.064999999999998,6.740341186523438,-0.0252716064453125,6.609347534179688
7.075000000000003,6.336892700195313,-0.0133087158203125,6.702359008789063
7.087000000000003,6.803894042968751,-0.0010467529296875,7.24173583984375
7.094999999999999,7.1376586914062505,-0.0777587890625,7.4875732421875005
7.105000000000004,6.87088623046875,-0.0539825439453125,6.684713745117188
7.115000000000009,6.5927490234375,0.0782073974609375,6.381903076171875
7.125,6.85234375,0.142657470703125,6.828268432617188
7.135000000000005,7.0643859863281255,0.1511810302734375,7.397103881835938
7.14500000000001,6.881802368164063,0.0083740234375,6.989169311523438
7.155000000000001,6.684265136718751,-0.096600341796875,6.477008056640625
7.165000000000006,6.832904052734375,-0.1909576416015625,6.639105224609375
7.174999999999997,6.990216064453126,-0.1338348388671875,7.320391845703125
7.186999999999998,6.786846923828126,-0.002093505859375,7.198220825195313
7.195000000000007,6.6322265625000005,0.0168975830078125,6.770547485351563
7.204999999999998,6.878363037109375,-0.0327484130859375,6.3346496582031255
7.215000000000003,7.09219970703125,-0.085833740234375,6.793875122070313
7.224000000000004,6.910812377929688,-0.117236328125,6.987075805664063
7.234000000000009,6.69443359375,-0.18721923828125,6.91275634765625
7.244,6.358276367187501,-0.2274444580078125,6.991860961914063
7.254000000000005,7.135864257812501,-0.233575439453125,7.102966308593751
7.26400000000001,7.703054809570313,0.1173858642578125,7.329214477539063
7.274000000000001,6.575701904296875,0.6207244873046875,6.471475219726563
7.286000000000001,6.101223754882813,0.7569519042968751,6.469979858398438
7.295000000000002,7.108648681640625,0.5256195068359375,7.22618408203125
7.304000000000002,7.322634887695313,0.0441131591796875,7.354037475585938
7.314000000000007,6.683816528320313,-0.2364166259765625,7.0138427734375
7.323999999999998,6.166122436523438,-0.2280426025390625,6.598281860351563
7.334000000000003,6.832754516601563,-0.3763824462890625,7.134368896484376
7.344000000000008,7.547686767578125,-0.584088134765625,7.058853149414063
7.353999999999999,7.313064575195313,-0.469244384765625,6.437380981445313
7.364000000000004,6.538467407226563,0.0548797607421875,6.262124633789063
7.374000000000009,6.390725708007813,0.4583282470703125,7.032235717773438
7.384,7.012197875976563,0.5263671875,7.895059204101563
7.394000000000005,6.905429077148438,0.485693359375,7.346710205078126
7.404000000000011,6.351547241210938,0.5058807373046875,6.534878540039063
7.4140000000000015,6.75364990234375,0.2893524169921875,6.45218505859375
7.424000000000007,7.359570312500001,-0.168975830078125,7.1376586914062505
7.433999999999997,7.165921020507813,-0.4930206298828125,7.030441284179688
7.444000000000003,6.568374633789063,-0.5495452880859375,6.654656982421876
7.454000000000008,6.509158325195313,-0.5239746093750001,6.617871093750001
7.463999999999999,7.034179687500001,-0.4550384521484375,7.150967407226563
7.474000000000004,7.33983154296875,-0.1353302001953125,7.227529907226563
7.484000000000009,6.681723022460938,0.2836700439453125,6.593496704101563
7.494,6.468484497070313,0.59754638671875,6.5592529296875
7.504000000000005,6.846063232421876,0.631939697265625,7.135864257812501
7.51400000000001,6.9372802734375005,0.476422119140625,7.582080078125
7.524000000000001,6.701013183593751,0.25062255859375,7.003524780273438
7.534000000000006,6.533682250976563,-0.1323394775390625,6.455026245117188
7.543999999999997,7.127191162109376,-0.5359375000000001,6.572561645507813
7.554000000000002,7.390823364257813,-0.7120910644531251,7.026104736328126
7.564000000000007,6.859970092773438,-0.558966064453125,6.902288818359375
7.573999999999998,6.456372070312501,-0.2543609619140625,6.591253662109375
7.584000000000003,6.828567504882813,-0.113348388671875,6.701611328125001
7.594000000000008,7.108798217773438,0.0586181640625,7.102816772460938
7.603999999999999,6.677386474609375,0.30924072265625,7.042553710937501
7.614000000000004,6.522467041015625,0.479412841796875,7.072610473632813
7.624000000000009,6.615179443359375,0.3521575927734375,6.890475463867188
7.634,7.483236694335938,0.1018341064453125,7.144088745117188
7.644000000000005,7.253848266601563,0.1164886474609375,6.901840209960938
7.654000000000011,6.282012939453126,0.1475921630859375,6.4874755859375
7.6640000000000015,6.511251831054688,0.037384033203125,6.925018310546876
7.674000000000007,7.29796142578125,-0.4367950439453125,7.075601196289063
7.683999999999997,7.3574768066406255,-0.5932098388671876,7.059899902343751
7.694000000000003,6.292031860351563,-0.16927490234375,6.699368286132813
7.703000000000003,6.17943115234375,0.3084930419921875,7.020870971679688
7.713000000000008,7.1693603515625,0.2642303466796875,7.356430053710938
7.722999999999999,7.604061889648438,0.04725341796875,6.833053588867188
7.733000000000004,6.890475463867188,0.2141357421875,6.305789184570313
7.743000000000009,6.273638916015625,0.413018798828125,6.51199951171875
7.753,6.797015380859375,0.143255615234375,7.460806274414063
7.763000000000005,7.296466064453125,-0.352606201171875,7.506863403320313
7.77300000000001,6.737500000000001,-0.405242919921875,6.777426147460938
7.783000000000001,6.289489746093751,-0.119329833984375,6.453680419921875
7.793000000000006,6.875970458984376,-0.023626708984375,6.937579345703125
7.802999999999997,7.539611816406251,-0.0536834716796875,7.320541381835938
7.813000000000002,6.967037963867188,0.0432159423828125,6.572113037109376
7.823000000000007,6.450390625000001,0.238958740234375,6.397305297851563
7.832999999999998,6.645385742187501,0.2047149658203125,6.905578613281251
7.8430000000000035,7.167864990234375,-0.0019439697265625,7.691241455078125
7.853000000000009,6.932196044921875,-0.0820953369140625,7.104910278320313
7.862999999999999,6.401641845703126,-0.072076416015625,6.4133056640625
7.873000000000005,6.678582763671876,-0.055328369140625,6.666171264648438
7.88300000000001,7.145135498046876,-0.1096099853515625,7.273437500000001
7.893000000000001,7.162182617187501,-0.0192901611328125,7.203604125976563
7.903000000000006,6.60770263671875,0.0043365478515625,6.409567260742188
7.912999999999997,6.6860595703125005,-0.0035888671875,6.526504516601563
7.923000000000002,7.100125122070313,-0.014654541015625,7.119863891601563
7.933000000000007,7.025357055664063,0.038580322265625,7.413403320312501
7.942999999999998,6.538616943359376,0.070281982421875,6.813613891601563
7.953000000000003,6.579290771484375,-0.0777587890625,6.371734619140626
7.963000000000008,7.158444213867188,-0.1471435546875,6.902139282226563
7.972999999999999,7.011001586914063,-0.2262481689453125,7.0225158691406255
7.983000000000004,6.7578369140625005,-0.1876678466796875,6.9148498535156255
7.993000000000009,6.575851440429688,-0.240155029296875,6.627291870117188
8.003,6.683666992187501,-0.1607513427734375,7.062442016601563
8.013000000000005,7.455572509765625,0.1009368896484375,7.422824096679688
8.02300000000001,7.033581542968751,0.4110748291015625,6.989318847656251
8.033000000000001,6.188552856445313,0.687567138671875,6.390127563476563
8.043000000000006,6.606954956054688,0.5522369384765625,6.7961181640625
8.052999999999997,7.402337646484375,0.17884521484375,7.400692749023438
8.063000000000002,7.192089843750001,-0.2044158935546875,7.043301391601563
8.073000000000008,6.299209594726563,-0.3171661376953125,6.667068481445313
8.082999999999998,6.402389526367188,-0.3066986083984375,6.632525634765625
8.093000000000004,7.203005981445313,-0.4083831787109375,7.415048217773438
8.103000000000009,7.540658569335938,-0.46356201171875,6.926214599609375
8.113,6.770248413085938,-0.1326385498046875,6.355285644531251
8.123000000000005,6.35947265625,0.3605316162109375,6.456372070312501
8.13300000000001,6.746771240234375,0.5600128173828125,7.438076782226563
8.143,7.139901733398438,0.46475830078125,7.689297485351563
8.153000000000006,6.70340576171875,0.39896240234375,6.8714843750000005
8.162000000000006,6.377716064453126,0.30684814453125,6.382949829101563
8.173000000000002,6.910662841796875,0.042169189453125,6.8439697265625
8.182000000000002,7.314111328125,-0.37623291015625,7.377963256835938
8.192999999999998,6.921429443359376,-0.5057312011718751,6.925466918945313
8.201999999999998,6.462802124023438,-0.4454681396484375,6.427212524414063
8.212000000000003,6.794024658203125,-0.40015869140625,6.706246948242188
8.222000000000008,7.315756225585938,-0.231781005859375,7.221847534179688
8.233000000000004,7.058255004882813,0.032598876953125,6.9552246093750005
8.242000000000004,6.5173828125,0.3910369873046875,6.513494873046875
8.25200000000001,6.581085205078126,0.4684967041015625,6.681124877929688
8.263000000000005,6.908718872070313,0.399261474609375,7.502825927734375
8.272000000000006,6.84097900390625,0.2660247802734375,7.366897583007813
8.281999999999996,6.553720092773438,0.1140960693359375,6.867745971679688
8.292000000000002,6.767257690429688,-0.2069580078125,6.395809936523438
8.302000000000007,7.248464965820313,-0.5124603271484376,6.682620239257813
8.311999999999998,7.340878295898438,-0.418402099609375,7.113134765625
8.322000000000003,6.558206176757813,-0.304754638671875,6.676638793945313
8.332000000000008,6.519924926757813,-0.1368255615234375,6.791781616210938
8.341999999999999,7.016085815429688,-0.0698333740234375,6.817800903320313
8.352000000000004,7.027301025390625,0.0794036865234375,7.225436401367188
8.362000000000009,6.473269653320313,0.3171661376953125,6.8669982910156255
8.372,6.481494140625,0.3098388671875,6.882699584960938
8.382000000000005,6.858026123046876,0.1351806640625,7.051226806640625
8.39200000000001,7.570266723632813,-0.1012359619140625,6.953131103515625
8.402000000000001,7.213772583007813,0.0381317138671875,6.9627014160156255
8.412000000000006,6.3645568847656255,0.20755615234375,6.339883422851563
8.421999999999997,6.330462646484375,0.2014251708984375,7.155154418945313
8.432000000000002,7.3105224609375,-0.1160400390625,7.217361450195313
8.442000000000007,7.23575439453125,-0.41092529296875,6.984085083007813
8.451999999999998,6.61966552734375,-0.1909576416015625,6.49046630859375
8.462000000000003,6.157299804687501,0.2193695068359375,6.961804199218751
8.472000000000008,6.950140380859375,0.2905487060546875,7.565182495117188
8.482,7.568771362304688,-0.0237762451171875,6.917691040039063
8.492000000000004,6.939822387695313,-0.088824462890625,6.170159912109376
8.50200000000001,6.558654785156251,0.1939483642578125,6.395361328125
8.512,6.669461059570313,0.2172760009765625,7.505218505859376
8.522000000000006,6.991860961914063,-0.046954345703125,7.632473754882813
8.531999999999996,6.788940429687501,-0.231781005859375,6.90079345703125
8.542000000000002,6.564486694335938,-0.1673309326171875,6.183767700195313
8.552000000000007,7.054516601562501,-0.0512908935546875,6.726882934570313
8.561999999999998,7.311718750000001,-0.0638519287109375,7.239941406250001
8.572000000000003,6.910214233398438,0.032000732421875,6.961056518554688
8.582000000000008,6.286050415039063,0.1813873291015625,6.682022094726563
8.591999999999999,6.568673706054688,0.2292388916015625,6.949392700195313
8.602000000000004,7.170257568359376,0.06759033203125,7.417440795898438
8.612000000000009,7.0763488769531255,-0.06280517578125,6.925765991210938
8.62100000000001,6.728677368164063,-0.0346923828125,6.363659667968751
8.632000000000005,6.602917480468751,-0.046356201171875,6.643740844726563
8.641000000000005,6.977206420898438,-0.119927978515625,7.25369873046875
8.65100000000001,7.047637939453126,-0.2074066162109375,7.288540649414063
8.661000000000001,6.782061767578125,-0.1526763916015625,6.665423583984375
8.671000000000006,6.640750122070313,-0.0333465576171875,6.423175048828125
8.680999999999997,6.88583984375,0.0979461669921875,7.036273193359375
8.691000000000003,7.1071533203125,0.219219970703125,7.367645263671876
8.701000000000008,6.725985717773438,0.2089019775390625,6.868643188476563
8.710999999999999,6.567776489257813,0.084637451171875,6.401043701171876
8.721000000000004,7.023562622070313,-0.088824462890625,6.686657714843751
8.731000000000009,6.947000122070313,-0.27095947265625,7.215567016601563
8.741,6.917242431640625,-0.4119720458984375,6.928158569335938
8.751000000000005,6.501980590820313,-0.4347015380859375,6.816455078125
8.76100000000001,6.736004638671876,-0.331072998046875,6.678582763671876
8.771,7.421627807617188,0.0179443359375,7.483834838867188
8.781000000000006,7.060348510742188,0.494964599609375,7.024459838867188
8.790999999999997,6.310873413085938,0.858038330078125,6.603665161132813
8.801000000000002,6.496896362304688,0.8333648681640625,6.704751586914063
8.811000000000007,7.317251586914063,0.3348114013671875,7.153659057617188
8.820999999999998,7.275531005859375,-0.13218994140625,7.248464965820313
8.831000000000003,6.347958374023438,-0.4035980224609375,6.578543090820313
8.841000000000008,6.393566894531251,-0.4670013427734375,6.907073974609376
8.850999999999999,7.047937011718751,-0.6676788330078125,7.098031616210938
8.861000000000004,7.569818115234375,-0.6443511962890626,7.087265014648438
8.87100000000001,6.854736328125001,-0.14056396484375,6.368893432617188
8.881,6.360519409179688,0.4725341796875,6.463101196289063
8.891000000000005,6.798211669921876,0.7905975341796876,7.39725341796875
8.90100000000001,7.07664794921875,0.6839782714843751,7.532135009765626
8.911000000000001,6.725985717773438,0.6090606689453125,7.063937377929688
8.921000000000006,6.360668945312501,0.3467742919921875,6.355435180664063
8.930999999999997,6.967935180664063,-0.124114990234375,6.939971923828126
8.941000000000003,7.335943603515625,-0.6000885009765625,7.188201904296876
8.951000000000008,6.863558959960938,-0.7403533935546875,6.914102172851563
8.960999999999999,6.513494873046875,-0.5979949951171876,6.4850830078125
8.971000000000004,6.818847656250001,-0.4533935546875,6.665423583984375
8.981000000000009,7.325027465820313,-0.1380218505859375,7.198519897460938
8.991,7.027749633789063,0.2609405517578125,6.873727416992188
9.001000000000005,6.4796997070312505,0.6264068603515626,6.634619140625
9.01100000000001,6.626992797851563,0.7008758544921876,6.821539306640625
9.021,6.863558959960938,0.450701904296875,7.447198486328125
9.031000000000006,6.842324829101563,0.18243408203125,7.323681640625001
9.040999999999997,6.636114501953125,-0.1227691650390625,6.728378295898438
9.051000000000002,6.789389038085938,-0.462066650390625,6.551327514648438
9.060000000000002,7.201809692382813,-0.6512298583984375,6.758435058593751
9.070999999999998,7.166519165039063,-0.4960113525390625,7.079339599609376
9.079999999999998,6.6696105957031255,-0.20875244140625,6.682620239257813
9.091000000000008,6.7087890625,-0.0420196533203125,6.568075561523438
9.101,6.958813476562501,0.09151611328125,6.8439697265625
9.111000000000004,6.807034301757813,0.1957427978515625,7.134817504882813
9.120000000000005,6.711331176757813,0.34453125,7.168014526367188
9.13000000000001,6.35648193359375,0.2474822998046875,6.923223876953125
9.14,7.294372558593751,0.0782073974609375,7.006216430664063
9.150000000000006,7.3470092773437505,0.0276641845703125,6.945504760742188
9.159999999999997,6.611740112304688,0.1245635986328125,6.624899291992188
9.170000000000002,6.405380249023438,0.1804901123046875,6.842623901367188
9.180000000000009,7.029095458984376,-0.18482666015625,6.993057250976563
9.189999999999998,7.3583740234375,-0.433056640625,7.089059448242188
9.200000000000005,6.637460327148438,-0.2583984375,6.786996459960938
9.210000000000008,6.241638183593751,0.207855224609375,6.997393798828125
9.22,6.7473693847656255,0.28411865234375,7.195828247070313
9.230000000000004,7.518975830078125,0.0315521240234375,6.992309570312501
9.240000000000007,7.132873535156251,0.05682373046875,6.4079223632812505
9.25,6.445306396484376,0.277838134765625,6.453829956054688
9.260000000000003,6.664825439453126,0.2654266357421875,7.2531005859375
9.27000000000001,6.970626831054688,-0.1626953125,7.507461547851563
9.28,6.968084716796875,-0.2884552001953125,7.097134399414063
9.290000000000006,6.459661865234375,-0.1463958740234375,6.399697875976563
9.299999999999995,6.851895141601563,-0.078656005859375,6.743331909179688
9.310000000000002,7.428207397460938,-0.1272552490234375,7.045095825195313
9.320000000000007,7.019525146484376,-0.0514404296875,6.873577880859376
9.329999999999998,6.410015869140626,0.2175750732421875,6.661386108398438
9.340000000000003,6.448147583007813,0.2651275634765625,6.938327026367188
9.350000000000009,7.129284667968751,0.1099090576171875,7.451834106445313
9.36,7.085470581054688,-0.009869384765625,7.011898803710938
9.370000000000005,6.578543090820313,0.025421142578125,6.533831787109375
9.38000000000001,6.607553100585938,0.0417205810546875,6.645834350585938
9.39,7.0473388671875,-0.1299468994140625,7.182818603515625
9.400000000000006,7.1191162109375,-0.2092010498046875,7.1256958007812505
9.409999999999997,6.713125610351563,-0.229388427734375,6.4946533203125005
9.420000000000002,6.777426147460938,-0.152825927734375,6.538616943359376
9.430000000000009,6.923822021484376,-0.0418701171875,7.1334716796875
9.439999999999998,6.925765991210938,0.1317413330078125,7.414749145507813
9.450000000000005,6.563589477539063,0.2797821044921875,6.900643920898438
9.460000000000008,6.69383544921875,0.1586578369140625,6.393118286132813
9.47,7.144537353515625,-0.0064300537109375,6.685610961914063
9.480000000000004,6.97197265625,-0.2510711669921875,6.886737060546875
9.490000000000007,6.879110717773438,-0.3313720703125,7.054367065429688
9.5,6.417492675781251,-0.4164581298828125,6.820492553710938
9.510000000000003,6.815258789062501,-0.426177978515625,7.07664794921875
9.52000000000001,7.604660034179688,-0.115142822265625,7.2408386230468755
9.53,6.890026855468751,0.5057312011718751,6.903485107421876
9.540000000000006,6.007763671875001,0.9377410888671877,6.488970947265625
9.549999999999995,6.806286621093751,0.7841674804687501,6.953280639648438
9.560000000000002,7.462002563476563,0.3261383056640625,7.3966552734375
9.570000000000007,7.0524230957031255,-0.081646728515625,6.988421630859375
9.579999999999998,6.142794799804688,-0.1434051513671875,6.696826171875
9.589,6.478652954101563,-0.395672607421875,6.808230590820313
9.599000000000004,7.444058227539063,-0.7662231445312501,7.263568115234375
9.61,7.526602172851563,-0.7986724853515625,6.746322631835938
9.619,6.590505981445313,-0.221612548828125,6.32059326171875
9.629000000000003,6.317453002929688,0.403448486328125,6.707891845703125
9.63900000000001,6.9755615234375,0.586181640625,7.545443725585938
9.649,7.12449951171875,0.6256591796875001,7.539462280273438
9.659000000000006,6.505868530273438,0.748876953125,6.700714111328126
9.668999999999995,6.410763549804688,0.6160888671875,6.4961486816406255
9.679000000000002,7.147528076171875,0.032598876953125,6.952682495117188
9.689000000000007,7.337289428710938,-0.54251708984375,7.2154174804687505
9.698999999999998,6.701611328125001,-0.67889404296875,6.811819458007813
9.709000000000003,6.30863037109375,-0.6522766113281251,6.533682250976563
9.719000000000008,6.967636108398438,-0.6193786621093751,7.03836669921875
9.729,7.431198120117188,-0.360980224609375,7.140350341796876
9.739000000000004,6.907821655273438,0.181536865234375,6.734210205078125
9.74900000000001,6.4557739257812505,0.65137939453125,6.371136474609376
9.759,6.748715209960938,0.6824829101562501,6.971524047851563
9.769000000000004,7.171902465820313,0.51260986328125,7.494302368164063
9.77900000000001,6.626693725585938,0.3246429443359375,7.226931762695313
9.789,6.345715332031251,0.07237548828125,6.7662109375
9.799000000000008,6.7638183593750005,-0.3279327392578125,6.768753051757813
9.808999999999996,7.33385009765625,-0.69205322265625,6.989019775390625
9.819000000000004,7.339532470703125,-0.6358276367187501,6.701760864257813
9.829000000000008,6.605908203125001,-0.440234375,6.326126098632813
9.839,6.822885131835938,-0.1801910400390625,6.638357543945313
9.849000000000004,6.976458740234375,0.066094970703125,7.209884643554688
9.859000000000009,6.7279296875000005,0.296978759765625,7.301251220703126
9.869,6.3466125488281255,0.4391876220703125,6.838137817382813
9.879000000000003,6.586917114257813,0.3114837646484375,6.818399047851563
9.88900000000001,7.040011596679688,0.1158905029296875,7.120761108398438
9.899,7.639950561523438,-0.067889404296875,7.096237182617188
9.909000000000006,7.123751831054688,-0.027215576171875,6.680377197265625
9.918999999999995,6.158047485351563,0.0581695556640625,6.248068237304688
9.929000000000002,6.569271850585938,0.015252685546875,7.218856811523438
9.939000000000007,7.373477172851563,-0.1867706298828125,7.500881958007813
9.948999999999998,7.1071533203125,-0.4182525634765625,6.828118896484376
9.959000000000003,6.336743164062501,-0.018243408203125,6.623403930664063
9.969000000000008,6.221749877929688,0.4643096923828125,6.964645385742188
9.979,7.227679443359375,0.4601226806640625,7.655203247070313
9.989000000000004,7.578341674804688,0.02930908203125,6.632824707031251
9.99900000000001,6.879708862304688,-0.1251617431640625,5.945706176757813
10.009,6.521569824218751,0.092413330078125,6.573757934570313
10.018,6.564337158203125,-0.02093505859375,7.676287841796875
10.02900000000001,7.11851806640625,-0.30684814453125,7.852890014648438
10.039,6.797463989257813,-0.4104766845703125,6.517831420898438
10.049000000000008,6.5081115722656255,-0.1583587646484375,6.084625244140625
10.058000000000009,7.1705566406250005,0.1280029296875,6.765463256835938
10.067999999999998,7.260427856445313,0.2304351806640625,7.5019287109375
10.078000000000005,6.748715209960938,0.28232421875,6.985580444335938
10.089,6.32896728515625,0.28411865234375,6.525009155273438
10.098,6.6337219238281255,0.20755615234375,6.922775268554688
10.108000000000004,7.1095458984375,-0.037384033203125,7.511050415039063
10.11800000000001,7.152761840820313,-0.2117431640625,7.070816040039063
10.128,6.6130859375,-0.2621368408203125,6.2673583984375005
10.138000000000003,6.667068481445313,-0.250323486328125,6.4961486816406255
10.14800000000001,7.111639404296875,-0.1649383544921875,7.275531005859375
10.158,7.0234130859375,-0.0605621337890625,7.381851196289063
10.168000000000006,6.594543457031251,0.108563232421875,6.724639892578126
10.177999999999995,6.612188720703125,0.176153564453125,6.438876342773438
10.188000000000002,7.090554809570313,0.2295379638671875,7.03836669921875
10.198000000000008,7.0975830078125,0.23447265625,7.310073852539063
10.207999999999998,6.643441772460938,0.141162109375,6.925616455078125
10.218000000000004,6.580337524414063,-0.06998291015625,6.415548706054688
10.228000000000009,6.996197509765626,-0.3575408935546875,6.7147705078125
10.238,7.0389648437500005,-0.4729827880859375,7.1406494140625005
10.248000000000005,6.878662109375001,-0.4840484619140625,6.810772705078126
10.25800000000001,6.53831787109375,-0.336456298828125,6.818847656250001
10.268,6.713873291015625,-0.20157470703125,6.671853637695313
10.278000000000006,7.4322448730468755,0.1622467041015625,7.6221557617187505
10.287999999999997,7.18431396484375,0.7119415283203125,7.0377685546875
10.298000000000002,6.076550292968751,1.0154998779296875,6.642245483398438
10.308000000000009,6.528448486328125,0.8387481689453126,6.599029541015626
10.317999999999998,7.428356933593751,0.1449005126953125,7.174444580078125
10.328000000000005,7.39127197265625,-0.436944580078125,7.137808227539063
10.338000000000008,6.290386962890626,-0.621771240234375,6.677984619140625
10.348,6.20694580078125,-0.5431152343750001,6.903485107421876
10.358000000000004,7.0868164062500005,-0.6301452636718751,7.273437500000001
10.36800000000001,7.688848876953125,-0.5576202392578126,7.046591186523438
10.378,6.846063232421876,0.06400146484375,6.26676025390625
10.388000000000003,6.357678222656251,0.7409515380859375,6.42227783203125
10.39800000000001,6.739144897460938,0.919049072265625,7.342074584960938
10.408,7.182968139648438,0.5969482421875001,7.677932739257813
10.418000000000006,6.715518188476563,0.3985137939453125,7.064086914062501
10.427999999999995,6.2808166503906255,0.150433349609375,6.371734619140626
10.438000000000002,6.8550354003906255,-0.264080810546875,6.9492431640625005
10.448000000000008,7.389178466796875,-0.6959411621093751,7.246371459960938
10.457999999999998,6.995599365234376,-0.713287353515625,6.902139282226563
10.468000000000004,6.501531982421875,-0.41810302734375,6.34093017578125
10.478000000000009,6.8012023925781255,-0.2130889892578125,6.634619140625
10.488,7.363906860351563,0.055328369140625,7.275979614257813
10.498000000000005,7.018179321289063,0.3796722412109375,7.0234130859375
10.50800000000001,6.34691162109375,0.64539794921875,6.690994262695313
10.51700000000001,6.543551635742188,0.5184417724609376,6.7593322753906255
10.528000000000006,7.109695434570313,0.18243408203125,7.378561401367188
10.537000000000006,7.0225158691406255,-0.028411865234375,7.218707275390625
10.546999999999995,6.52635498046875,-0.2696136474609375,6.625347900390626
10.557000000000002,6.740042114257813,-0.4341033935546875,6.615628051757813
10.567000000000007,7.128985595703125,-0.53055419921875,6.943411254882813
10.578000000000005,7.156948852539063,-0.2883056640625,7.237548828125001
10.587000000000003,6.602169799804688,0.0037384033203125,6.646282958984376
10.597000000000008,6.689199829101563,0.1792938232421875,6.576150512695313
10.607,6.975860595703126,0.3144744873046875,6.912606811523438
10.617000000000004,6.804791259765626,0.2606414794921875,7.110293579101563
10.62700000000001,6.665124511718751,0.1879669189453125,7.089059448242188
10.637,6.750210571289063,-0.1628448486328125,6.598431396484376
10.647000000000006,6.990066528320313,-0.3401947021484375,6.997244262695313
10.656999999999996,7.376617431640626,-0.3004180908203125,6.970327758789063
10.667000000000002,6.907522583007813,0.0228790283203125,7.140200805664063
10.679000000000002,6.23087158203125,0.3557464599609375,6.689199829101563
10.686999999999998,6.634170532226563,0.327783203125,6.914550781250001
10.697000000000005,7.5757995605468755,0.104974365234375,6.939224243164063
10.707000000000008,7.162182617187501,-0.1721160888671875,6.647030639648438
10.717,6.362164306640626,0.131292724609375,7.018627929687501
10.727000000000004,6.1190185546875,0.2552581787109375,7.1191162109375
10.737000000000007,7.023712158203126,-0.00897216796875,7.594790649414063
10.747,7.552621459960938,-0.35948486328125,6.57181396484375
10.757000000000003,6.904681396484375,-0.2456878662109375,6.2150207519531255
10.76700000000001,6.490615844726563,0.2531646728515625,6.718508911132813
10.778000000000006,6.7040039062500005,0.198883056640625,7.364056396484376
10.787000000000006,7.231268310546875,-0.0405242919921875,7.527349853515625
10.796999999999995,6.965692138671876,-0.1649383544921875,6.371734619140626
10.807000000000002,6.449343872070313,0.0059814453125,6.4874755859375
10.817000000000007,6.968234252929688,0.0746185302734375,6.917990112304688
10.826999999999998,7.033432006835938,-0.0823944091796875,7.530938720703125
10.837000000000003,6.867147827148438,-0.00418701171875,6.945953369140626
10.847000000000008,6.325079345703125,0.07117919921875,6.428707885742188
10.857,6.831259155273438,0.126806640625,6.953430175781251
10.867000000000004,7.22977294921875,0.0094207763671875,7.233959960937501
10.878,7.0927978515625005,-0.0279632568359375,7.020272827148438
10.887,6.566580200195313,0.0360382080078125,6.267956542968751
10.897000000000006,6.600674438476563,-0.067889404296875,6.749163818359375
10.906999999999996,7.131527709960938,-0.11663818359375,7.305886840820313
10.917000000000002,6.995150756835938,-0.19798583984375,7.226632690429688
10.927000000000008,6.610244750976563,-0.0859832763671875,6.638656616210938
10.936999999999998,6.589309692382813,-0.0168975830078125,6.490316772460938
10.947000000000005,7.139154052734376,0.0820953369140625,7.237399291992188
10.956000000000005,7.002178955078126,0.241650390625,7.31351318359375
10.967,6.588262939453125,0.2241546630859375,6.759930419921876
10.978000000000009,6.62803955078125,0.16748046875,6.51798095703125
10.987000000000007,7.02939453125,-0.112750244140625,6.714022827148438
10.99600000000001,7.058255004882813,-0.2691650390625,7.246072387695313
11.007000000000003,6.823184204101563,-0.499749755859375,6.568374633789063
11.016000000000004,6.707144165039063,-0.5749664306640625,6.741088867187501
11.02600000000001,6.722247314453125,-0.4921234130859375,6.710583496093751
11.036,7.2976623535156255,-0.180340576171875,7.637109375
11.046000000000006,7.2148193359375,0.4894317626953125,7.172799682617188
11.055999999999996,6.04185791015625,0.9794616699218752,6.563140869140626
11.066000000000004,6.493606567382813,1.076959228515625,6.768453979492188
11.076000000000008,7.3966552734375,0.6437530517578125,7.085321044921876
11.087000000000003,7.33145751953125,0.0115142822265625,7.222744750976563
11.096000000000004,6.5724121093750005,-0.3790740966796875,6.436932373046876
11.106000000000009,6.081484985351563,-0.54969482421875,6.914999389648438
11.116,7.060049438476563,-0.7493255615234375,7.354336547851563
11.126000000000005,7.474264526367188,-0.907086181640625,7.213323974609375
11.13600000000001,7.011898803710938,-0.464459228515625,6.289938354492188
11.146,6.520223999023438,0.2959320068359375,6.16507568359375
11.156000000000006,6.653610229492188,0.79373779296875,7.230670166015625
11.165999999999997,7.1899963378906255,0.8526550292968751,7.647277832031251
11.176000000000002,6.682171630859376,0.729736328125,7.248165893554688
11.186000000000009,6.261825561523438,0.5893218994140625,6.416595458984376
11.195999999999998,6.751556396484376,0.1230682373046875,6.936831665039063
11.206000000000005,7.278820800781251,-0.4246826171875,7.378860473632813
11.216000000000008,7.069320678710938,-0.761138916015625,6.897802734375
11.226,6.541757202148438,-0.766522216796875,6.452484130859376
11.236000000000004,6.852044677734376,-0.6745574951171875,6.327471923828125
11.24600000000001,7.408169555664063,-0.4786651611328125,7.236053466796876
11.256,7.201062011718751,0.0165985107421875,6.893765258789063
11.266000000000004,6.415997314453126,0.5061798095703125,6.672003173828125
11.27600000000001,6.464596557617188,0.7408020019531251,6.756790161132813
11.286,6.8550354003906255,0.65018310546875,7.427609252929688
11.296000000000006,6.905279541015625,0.50662841796875,7.572360229492188
11.305999999999996,6.511102294921876,0.2308837890625,6.766510009765626
11.316000000000004,6.670208740234376,-0.195294189453125,6.565682983398438
11.326000000000008,7.220651245117188,-0.5959014892578125,6.72733154296875
11.336,7.30992431640625,-0.7071563720703126,7.032235717773438
11.346000000000004,6.753799438476563,-0.528759765625,6.698620605468751
11.356000000000009,6.646432495117188,-0.363372802734375,6.430203247070313
11.366,6.995300292968751,-0.124713134765625,6.925616455078125
11.376000000000005,6.93309326171875,0.1272552490234375,7.055563354492188
11.38600000000001,6.510205078125001,0.40673828125,7.191491699218751
11.396,6.545944213867188,0.4972076416015625,6.864755249023438
11.406000000000006,6.751406860351563,0.3170166015625,7.018179321289063
11.415999999999997,7.523312377929688,0.157611083984375,7.042703247070313
11.426000000000002,7.109695434570313,0.127703857421875,6.853839111328125
11.436000000000009,6.290536499023438,0.1622467041015625,6.55087890625
11.445999999999998,6.567477416992188,-0.055029296875,6.906924438476563
11.454999999999998,7.3200927734375005,-0.467449951171875,7.242034912109376
11.466000000000008,7.265811157226563,-0.6299957275390625,6.826473999023438
11.475000000000009,6.290536499023438,-0.2017242431640625,6.828866577148438
11.486000000000004,6.291583251953125,0.29129638671875,6.948196411132813
11.495000000000005,7.127340698242188,0.3321197509765625,7.482937622070313
11.50500000000001,7.654006958007813,0.1591064453125,6.638955688476563
11.515,6.791033935546875,0.25181884765625,6.223544311523438
11.525000000000006,6.371884155273438,0.4311126708984375,6.640301513671876
11.534999999999997,6.767407226562501,0.1353302001953125,7.561444091796876
11.545000000000002,7.120611572265625,-0.32359619140625,7.648922729492188
11.555000000000009,6.740490722656251,-0.419598388671875,6.618618774414063
11.564999999999998,6.423474121093751,-0.261688232421875,6.383099365234376
11.575000000000005,7.134368896484376,-0.1311431884765625,6.786248779296876
11.585000000000008,7.479199218750001,-0.1481903076171875,7.254595947265625
11.595,6.904681396484375,0.0396270751953125,6.614880371093751
11.605000000000004,6.362762451171876,0.284417724609375,6.461007690429688
11.615000000000007,6.567477416992188,0.32718505859375,7.151864624023438
11.625,7.079040527343751,0.2069580078125,7.683316040039063
11.635000000000003,6.927560424804688,0.0315521240234375,7.101919555664063
11.64500000000001,6.552822875976563,0.0345428466796875,6.310424804687501
11.655,6.704751586914063,-0.0785064697265625,6.589309692382813
11.665000000000006,7.127938842773438,-0.1371246337890625,7.33385009765625
11.674999999999995,7.108050537109375,-0.16568603515625,7.151266479492188
11.685000000000002,6.680227661132813,-0.23028564453125,6.447100830078125
11.695000000000007,6.764715576171875,-0.218621826171875,6.356631469726563
11.704999999999998,7.125845336914063,-0.1126007080078125,7.162033081054688
11.715000000000003,6.841876220703125,0.179742431640625,7.5354248046875005
11.725000000000009,6.468783569335938,0.292193603515625,6.9208312988281255
11.735,6.627441406250001,0.2403045654296875,6.6337219238281255
11.745000000000005,7.101470947265626,0.0515899658203125,6.5951416015625
11.75500000000001,7.215716552734375,0.0121124267578125,7.155752563476563
11.765,6.610394287109376,-0.16927490234375,6.673199462890626
11.775000000000006,6.715817260742188,-0.4595245361328125,6.599777221679688
11.784999999999997,6.719406127929688,-0.5939575195312501,6.9806457519531255
11.795000000000002,6.936831665039063,-0.394476318359375,7.301998901367188
11.805000000000009,7.311419677734375,0.0515899658203125,7.403683471679688
11.814999999999998,7.0030761718750005,0.44442138671875,6.40433349609375
11.825000000000005,6.283209228515625,0.808392333984375,6.468783569335938
11.835000000000008,6.820193481445313,0.89661865234375,7.029544067382813
11.845,7.099826049804688,0.5102172851562501,7.532583618164063
11.855000000000004,7.003973388671875,-0.1878173828125,6.910961914062501
11.865000000000007,6.420034790039063,-0.43485107421875,6.6525634765625
11.875,6.452633666992188,-0.3695037841796875,7.061245727539063
11.885000000000003,7.147677612304688,-0.5106658935546875,7.283306884765626
11.89500000000001,7.504769897460938,-0.6809875488281251,6.68187255859375
11.905,6.956420898437501,-0.353204345703125,6.011053466796875
11.914,6.459960937500001,0.3901397705078125,6.779220581054688
11.924999999999995,6.612487792968751,0.781475830078125,7.640698242187501
11.935000000000002,7.015786743164063,0.6166870117187501,7.680325317382813
11.945000000000007,6.745574951171876,0.439337158203125,6.683666992187501
11.954000000000008,6.565533447265626,0.3410919189453125,6.261676025390625
11.964,6.998440551757813,0.091815185546875,7.030142211914063
11.974000000000004,7.139154052734376,-0.4068878173828125,7.237698364257813
11.984000000000009,6.8774658203125005,-0.6711181640625,7.000683593750001
11.994,6.517233276367188,-0.5945556640625,6.445755004882813
12.004000000000003,6.708190917968751,-0.3922332763671875,6.851596069335938
12.01400000000001,7.278521728515625,-0.13876953125,7.286148071289063
12.024,7.081433105468751,0.158807373046875,6.852493286132813
12.034000000000006,6.534130859375001,0.5402740478515625,6.495700073242188
12.043999999999995,6.577496337890626,0.6087615966796875,6.706097412109376
12.054000000000002,7.020123291015626,0.4409820556640625,7.526004028320313
12.064000000000007,6.897055053710938,0.16807861328125,7.310372924804688
12.073999999999998,6.460110473632813,-0.0886749267578125,6.803744506835938
12.084000000000003,6.686358642578125,-0.3084930419921875,6.5592529296875
12.094000000000008,7.110891723632813,-0.4978057861328125,6.984085083007813
12.104,7.295269775390626,-0.4661041259765625,6.973468017578125
12.114000000000004,6.897802734375,-0.3141754150390625,6.498989868164063
12.12400000000001,6.726284790039063,-0.11544189453125,6.433343505859376
12.134,6.850399780273438,0.128302001953125,6.953878784179688
12.144000000000004,6.897354125976563,0.28292236328125,7.430899047851563
12.15400000000001,6.510803222656251,0.363970947265625,7.055862426757813
12.164,6.427062988281251,0.198284912109375,6.702059936523438
12.174000000000008,6.9133544921875005,-0.011962890625,6.897952270507813
12.183999999999996,7.083676147460938,-0.149237060546875,7.096536254882813
12.194000000000004,7.3966552734375,-0.2181732177734375,6.941317749023438
12.204000000000008,7.081732177734375,-0.119329833984375,6.4850830078125
12.214,6.456970214843751,0.045159912109375,6.594393920898438
12.224000000000004,6.531887817382813,0.3351104736328125,7.347607421875001
12.234000000000009,6.970925903320313,0.194097900390625,7.337289428710938
12.244,7.115676879882813,-0.1616485595703125,6.753799438476563
12.254000000000003,6.699218750000001,-0.1170867919921875,6.46414794921875
12.26400000000001,6.320144653320313,0.341241455078125,7.214968872070313
12.274,6.890625000000001,0.3431854248046875,7.520022583007813
12.284000000000006,7.4187866210937505,-0.198883056640625,6.772042846679688
12.293999999999995,7.212875366210938,-0.42169189453125,5.971426391601563
12.304000000000002,6.509307861328126,-0.0874786376953125,6.527999877929688
12.314000000000007,6.506167602539063,0.1700225830078125,7.684063720703126
12.323999999999998,6.969879150390626,-0.085235595703125,7.7402893066406255
12.334000000000003,7.00487060546875,-0.2322296142578125,6.782061767578125
12.344000000000008,6.706246948242188,0.00418701171875,5.884097290039063
12.354,6.889279174804688,0.2603424072265625,6.778921508789063
12.364000000000004,7.200613403320313,0.245538330078125,7.4157958984375005
12.373000000000005,6.944009399414063,0.0462066650390625,7.17294921875
12.38300000000001,6.322088623046875,0.0155517578125,6.536822509765625
12.393,6.450689697265625,-0.018243408203125,6.810174560546876
12.403000000000006,7.1541076660156255,-0.0873291015625,7.629931640625
12.412999999999997,7.197174072265626,-0.165386962890625,7.018328857421875
12.423000000000002,6.730023193359376,-0.1422088623046875,6.3199951171875
12.433000000000009,6.693685913085938,-0.03349609375,6.232067871093751
12.442999999999998,7.039114379882813,0.00418701171875,7.178182983398438
12.453000000000005,7.025207519531251,0.0450103759765625,7.444955444335938
12.463000000000008,6.593646240234375,0.01734619140625,6.842623901367188
12.473,6.594393920898438,-0.0061309814453125,6.537420654296875
12.483000000000004,6.868344116210938,0.0901702880859375,7.0509277343750005
12.49300000000001,6.97197265625,0.2196685791015625,7.545294189453125
12.503,6.758435058593751,0.2077056884765625,6.915447998046876
12.513000000000003,6.794921875000001,-0.01435546875,6.2210021972656255
12.52300000000001,7.155303955078126,-0.2412017822265625,6.398651123046876
12.533,7.020721435546876,-0.3270355224609375,7.014590454101563
12.543000000000006,6.693685913085938,-0.3692047119140625,7.189846801757813
12.552999999999995,6.730471801757813,-0.4466644287109375,6.758584594726563
12.563000000000002,6.56583251953125,-0.4870391845703125,6.733462524414063
12.573000000000008,7.144985961914063,-0.113946533203125,7.193136596679688
12.582999999999998,7.245623779296875,0.3841583251953125,7.368392944335938
12.593000000000004,6.722396850585938,0.8483184814453125,6.881652832031251
12.603000000000009,6.211282348632813,0.8985626220703126,6.405380249023438
12.613,7.038815307617188,0.6769500732421876,7.0927978515625005
12.623000000000005,7.227081298828126,0.2086029052734375,7.271044921875
12.63300000000001,6.847109985351563,-0.32838134765625,6.899298095703125
12.643,6.405679321289063,-0.4948150634765625,6.6561523437500005
12.653000000000006,6.577496337890626,-0.6102569580078125,7.001281738281251
12.662999999999997,7.271792602539063,-0.57720947265625,7.37392578125
12.673000000000002,7.234109497070313,-0.46356201171875,6.631927490234376
12.683000000000009,6.800155639648438,0.006280517578125,6.26376953125
12.692999999999998,6.593197631835938,0.4996002197265625,6.605908203125001
12.703000000000005,6.855484008789063,0.681884765625,7.603762817382813
12.713000000000008,6.94864501953125,0.66812744140625,7.521667480468751
12.723,6.350201416015626,0.509619140625,6.800604248046875
12.733000000000004,6.596487426757813,0.256304931640625,6.599627685546875
12.74300000000001,7.133322143554688,-0.187518310546875,6.974215698242188
12.753,7.228427124023438,-0.5049835205078126,7.1481262207031255
12.763000000000003,6.799856567382813,-0.5962005615234376,6.648974609375
12.77300000000001,6.55028076171875,-0.561956787109375,6.512896728515625
12.783,7.070965576171876,-0.413616943359375,6.9088684082031255
12.793000000000006,7.154257202148438,-0.1553680419921875,7.177584838867188
12.802999999999995,6.8439697265625,0.2237060546875,6.817352294921876
12.813000000000002,6.516934204101563,0.467449951171875,6.528149414062501
12.823000000000008,6.865652465820313,0.52337646484375,7.032684326171876
12.832000000000008,6.8610168457031255,0.4634124755859375,7.358224487304688
12.843000000000004,6.582580566406251,0.277239990234375,7.26566162109375
12.852000000000004,6.605310058593751,0.0321502685546875,6.770547485351563
12.863,6.904830932617188,-0.3491668701171875,6.710882568359375
12.872,7.285848999023438,-0.5085723876953125,6.809277343750001
12.88300000000001,7.007861328125,-0.5268157958984375,6.702059936523438
12.893,6.914999389648438,-0.387896728515625,6.592300415039063
12.902,6.824081420898438,-0.2361175537109375,6.5963378906250005
12.912000000000006,6.798062133789063,-0.06878662109375,7.071713256835938
12.921999999999995,6.639254760742188,0.21114501953125,7.295718383789063
12.932000000000002,6.617123413085938,0.3602325439453125,7.138107299804688
12.942000000000007,6.546841430664063,0.48150634765625,7.051077270507813
12.951999999999998,7.317700195312501,0.3392974853515625,6.740640258789063
12.962000000000003,7.216165161132813,0.2908477783203125,6.947897338867188
12.972000000000008,6.668414306640625,0.2432952880859375,6.541607666015626
12.982,6.344668579101563,-0.002691650390625,7.004721069335938
12.992000000000004,7.267755126953125,-0.4517486572265625,6.981842041015626
13.00200000000001,7.294821166992188,-0.9087310791015626,6.737948608398438
13.012,6.65555419921875,-0.5894714355468751,6.850399780273438
13.02300000000001,6.235507202148438,0.1069183349609375,7.047787475585938
13.031999999999996,6.560299682617188,0.4388885498046875,7.585519409179688
13.042000000000002,7.656399536132813,0.36068115234375,6.766510009765626
13.052000000000008,7.114031982421875,0.325689697265625,6.2090393066406255
13.061999999999998,6.584075927734376,0.6108551025390625,6.395062255859376
13.072000000000005,6.450988769531251,0.4843475341796875,7.455123901367188
13.082000000000008,6.866699218750001,-0.11484375,7.816851806640625
13.092,7.040310668945313,-0.570928955078125,6.88284912109375
13.102000000000004,6.517083740234376,-0.60233154296875,6.352145385742188
13.112000000000007,6.908120727539063,-0.3859527587890625,6.474017333984375
13.122,7.36435546875,-0.3258392333984375,7.223492431640626
13.132000000000003,7.323831176757813,-0.1290496826171875,6.719555664062501
13.14200000000001,6.543252563476563,0.136676025390625,6.345416259765625
13.152,6.464447021484376,0.39656982421875,6.766958618164063
13.162000000000006,6.843222045898438,0.445916748046875,7.706045532226563
13.171999999999995,6.899597167968751,0.3234466552734375,7.593145751953125
13.182000000000002,6.557458496093751,0.207257080078125,6.631478881835938
13.192000000000007,6.591253662109375,0.027215576171875,6.465045166015625
13.201999999999998,7.046292114257813,-0.0779083251953125,6.981692504882813
13.212000000000003,7.177435302734375,-0.2313323974609375,7.258184814453125
13.222000000000008,6.857278442382813,-0.3488677978515625,6.666171264648438
13.232,6.753201293945313,-0.4317108154296875,6.1740478515625
13.242000000000004,7.032534790039063,-0.3090911865234375,6.934140014648438
13.25200000000001,6.933392333984376,-0.0035888671875,7.447198486328125
13.262,6.522616577148438,0.283819580078125,7.2865966796875
13.272000000000006,6.605459594726563,0.3925323486328125,6.671554565429688
13.281999999999996,6.875372314453125,0.245538330078125,6.513644409179688
13.292000000000002,7.167266845703126,0.1758544921875,6.969879150390626
13.302000000000008,6.816006469726563,0.0067291259765625,6.939224243164063
13.311999999999998,6.624899291992188,-0.32359619140625,6.762472534179688
13.320999999999998,6.647030639648438,-0.6419586181640625,6.807632446289063
13.331000000000005,7.103115844726563,-0.5821441650390625,7.227081298828126
13.342,7.451235961914063,-0.1607513427734375,7.258035278320313
13.351,6.711331176757813,0.3760833740234375,6.709835815429688
13.361000000000004,6.21292724609375,0.7331756591796875,6.357379150390625
13.37100000000001,6.936233520507813,0.7771392822265626,7.119265747070313
13.381,7.344766235351563,0.419000244140625,7.294073486328125
13.391000000000004,6.992459106445313,-0.0151031494140625,6.903335571289063
13.40100000000001,6.123504638671875,-0.094207763671875,6.744677734375
13.411,6.438427734375001,-0.21832275390625,7.062442016601563
13.421000000000006,7.402786254882813,-0.5822937011718751,7.442413330078126
13.430999999999996,7.577593994140625,-0.7974761962890625,6.488223266601563
13.441000000000004,6.675292968750001,-0.309539794921875,6.14713134765625
13.451000000000008,6.3893798828125,0.3375030517578125,6.720452880859376
13.461,6.818997192382813,0.5239746093750001,7.705447387695313
13.471000000000004,7.153060913085938,0.454290771484375,7.549929809570313
13.481000000000009,6.571365356445313,0.515301513671875,6.564187622070313
13.491,6.369192504882813,0.5109649658203126,6.453381347656251
13.501000000000005,7.092349243164063,0.16090087890625,7.110443115234376
13.51100000000001,7.2991577148437505,-0.3288299560546875,7.344915771484375
13.521,6.728677368164063,-0.5316009521484375,6.674395751953125
13.531000000000006,6.426913452148438,-0.5609100341796875,6.410614013671876
13.540999999999997,6.976309204101563,-0.5284606933593751,6.943859863281251
13.551000000000002,7.355084228515626,-0.3386993408203125,7.300503540039063
13.561000000000009,6.8702880859375,0.0471038818359375,6.821389770507813
13.570999999999998,6.4303527832031255,0.46475830078125,6.392520141601563
13.581000000000005,6.681723022460938,0.5513397216796876,6.902139282226563
13.591000000000008,7.084124755859375,0.5057312011718751,7.5743041992187505
13.601,6.8385864257812505,0.327783203125,7.206594848632813
13.611000000000004,6.463699340820313,0.079852294921875,6.578543090820313
13.62100000000001,6.838885498046875,-0.270361328125,6.509307861328126
13.631,7.308578491210938,-0.563153076171875,7.099078369140625
13.641000000000004,7.073956298828126,-0.48330078125,7.098928833007813
13.65100000000001,6.4826904296875005,-0.34931640625,6.602618408203125
13.661,6.724041748046876,-0.155517578125,6.64957275390625
13.671000000000006,7.118069458007813,-0.04605712890625,6.844418334960938
13.680999999999996,6.881951904296876,0.217425537109375,7.257885742187501
13.691000000000004,6.5305419921875005,0.3641204833984375,6.7653137207031255
13.701000000000008,6.552075195312501,0.211444091796875,6.929803466796876
13.711,7.129284667968751,0.0363372802734375,6.923223876953125
13.721000000000004,7.572061157226563,-0.0258697509765625,7.218707275390625
13.731000000000009,6.79552001953125,0.1610504150390625,6.785052490234375
13.741,6.1046630859375,0.24344482421875,6.443960571289063
13.751000000000005,6.727032470703126,0.033197021484375,7.251455688476563
13.76100000000001,7.554415893554688,-0.28411865234375,7.140948486328125
13.771,7.020123291015626,-0.37025146484375,6.900494384765626
13.781000000000006,6.14354248046875,0.05203857421875,6.551028442382813
13.790999999999997,6.389080810546876,0.3252410888671875,7.237399291992188
13.801000000000002,7.407571411132813,0.1495361328125,7.380953979492188
13.811000000000009,7.492657470703126,-0.14534912109375,6.558804321289063
13.820000000000007,6.569720458984375,0.012860107421875,6.0962890625
13.831000000000005,6.4647460937500005,0.237762451171875,6.801950073242188
13.841000000000008,6.83499755859375,0.02392578125,7.816851806640625
13.850000000000009,7.174444580078125,-0.241351318359375,7.423870849609376
13.86,6.612637329101563,-0.200079345703125,6.468783569335938
13.870000000000005,6.486428833007813,0.00897216796875,6.2748352050781255
13.88000000000001,7.296765136718751,0.0626556396484375,7.044796752929688
13.89,7.322186279296876,0.0001495361328125,7.33385009765625
13.900000000000006,6.618319702148438,0.1305450439453125,6.638058471679688
13.909999999999997,6.1884033203125,0.2023223876953125,6.604562377929688
13.920000000000002,6.846511840820313,0.10826416015625,7.213174438476563
13.930000000000009,7.294073486328125,-0.1112548828125,7.5043212890625
13.939999999999998,6.940121459960938,-0.1505828857421875,6.714620971679688
13.950000000000005,6.516934204101563,-0.0656463623046875,6.158197021484376
13.960000000000008,6.791482543945313,-0.079852294921875,6.842922973632813
13.97,7.169210815429688,-0.0324493408203125,7.492807006835938
13.980000000000004,6.789688110351563,0.0082244873046875,7.165621948242188
13.990000000000007,6.476260375976563,0.058917236328125,6.501232910156251
14.0,6.819595336914063,0.0258697509765625,6.598880004882813
14.010000000000003,7.264614868164063,0.0623565673828125,7.308129882812499
14.02000000000001,6.927261352539063,0.1015350341796875,7.095339965820313
14.03,6.525457763671875,0.0710296630859375,6.658395385742188
14.040000000000006,6.759780883789063,-0.090618896484375,6.502279663085938
14.049999999999995,7.080984497070313,-0.284417724609375,6.967636108398438
14.060000000000002,7.069619750976563,-0.2165283203125,7.207492065429688
14.070000000000007,6.515139770507813,-0.29010009765625,6.599029541015626
14.079999999999998,6.706097412109376,-0.31103515625,6.615628051757813
14.090000000000003,6.770996093750001,-0.2379119873046875,7.047787475585938
14.100000000000009,7.0688720703125005,0.047552490234375,7.499984741210938
14.11,7.374972534179688,0.398663330078125,7.069619750976563
14.120000000000005,6.609347534179688,0.6883148193359375,6.468634033203125
14.13000000000001,6.288891601562501,0.790447998046875,6.510055541992188
14.14,7.059899902343751,0.5443115234375,7.435684204101563
14.150000000000006,7.2447265625,-0.048150634765625,7.288092041015625
14.159999999999997,6.871334838867188,-0.6276031494140626,6.60770263671875
14.170000000000002,6.231320190429688,-0.51978759765625,6.683966064453125
14.180000000000009,6.658096313476563,-0.3318206787109375,7.188351440429688
14.189999999999998,7.42117919921875,-0.4209442138671875,7.376019287109376
14.200000000000005,7.44510498046875,-0.4318603515625,6.22728271484375
14.210000000000008,6.665124511718751,0.1248626708984375,6.128140258789063
14.22,6.362014770507813,0.7768402099609376,7.012048339843751
14.230000000000004,6.783108520507813,0.7926910400390625,7.900143432617188
14.240000000000007,6.976907348632813,0.4317108154296875,7.524508666992188
14.24900000000001,6.542803955078125,0.204266357421875,6.339434814453125
14.260000000000003,6.566131591796876,0.1167877197265625,6.55028076171875
14.27000000000001,7.197174072265626,-0.2313323974609375,7.160238647460938
14.28,7.265213012695313,-0.5991912841796876,7.192388916015625
14.289,6.733462524414063,-0.5942565917968751,6.536822509765625
14.299000000000008,6.478802490234376,-0.444720458984375,6.345266723632813
14.308999999999996,7.057656860351563,-0.218023681640625,7.155154418945313
14.320000000000007,7.283905029296876,0.0387298583984375,7.324279785156251
14.329000000000008,6.7458740234375005,0.3333160400390625,6.830511474609375
14.339,6.378015136718751,0.599639892578125,6.4303527832031255
14.349000000000004,6.782809448242188,0.524871826171875,7.040310668945313
14.359000000000009,7.059600830078126,0.3614288330078125,7.586715698242188
14.370000000000005,6.6884521484375,0.0491973876953125,7.081732177734375
14.379000000000003,6.6286376953125,-0.19678955078125,6.540411376953125
14.38900000000001,6.919485473632813,-0.496160888671875,6.499887084960938
14.399,7.319345092773438,-0.6317901611328125,7.001580810546876
14.409000000000006,7.143789672851563,-0.46116943359375,6.93907470703125
14.418999999999995,6.615927124023438,-0.2189208984375,6.537121582031251
14.429000000000002,6.621160888671875,0.0586181640625,6.719107055664063
14.439000000000007,6.995449829101563,0.1921539306640625,7.084274291992188
14.448999999999998,6.761425781250001,0.3895416259765625,7.414300537109375
14.459000000000003,6.465942382812501,0.3590362548828125,6.793576049804688
14.47,6.504522705078125,0.1806396484375,6.977056884765625
14.479,7.246969604492188,-0.027813720703125,6.826922607421875
14.489000000000004,7.649520874023438,-0.104974365234375,7.147079467773438
14.49900000000001,6.8655029296875005,-0.0450103759765625,6.470877075195313
14.509,6.155355834960938,0.0644500732421875,6.466091918945313
14.519000000000004,6.722994995117188,0.00777587890625,7.390673828125
14.52900000000001,7.366448974609375,-0.246435546875,7.327420043945313
14.539,6.96898193359375,-0.2500244140625,6.997393798828125
14.549000000000008,6.246423339843751,0.1604522705078125,6.388333129882813
14.558999999999996,6.449792480468751,0.4768707275390625,7.239492797851563
14.570000000000007,7.476956176757813,0.2510711669921875,7.248764038085938
14.579000000000008,7.47501220703125,-0.113946533203125,6.598880004882813
14.589,6.624002075195313,-0.073272705078125,6.0998779296875005
14.599000000000004,6.366500854492188,0.093609619140625,6.925167846679688
14.609000000000009,6.718658447265626,-0.075067138671875,7.92960205078125
14.619,7.161734008789063,-0.28411865234375,7.42177734375
14.629000000000003,6.69981689453125,-0.24105224609375,6.3959594726562505
14.63900000000001,6.6471801757812505,-0.0396270751953125,5.9911651611328125
14.649,7.339233398437501,0.0817962646484375,7.013394165039063
14.659000000000006,7.304989624023438,0.0668426513671875,7.340579223632813
14.670000000000002,6.4722229003906255,0.14774169921875,6.844866943359375
14.679000000000002,6.206497192382813,0.216827392578125,6.7398925781250005
14.689000000000007,6.71177978515625,0.155816650390625,7.216314697265625
14.698999999999998,7.24173583984375,0.03289794921875,7.560546875000001
14.709000000000003,6.9926086425781255,-0.0494964599609375,6.656301879882813
14.719000000000008,6.58916015625,-0.04306640625,6.19737548828125
14.728000000000009,6.870736694335938,-0.075067138671875,6.6875549316406255
14.739000000000004,7.08861083984375,-0.1577606201171875,7.439422607421876
14.748000000000005,6.958963012695313,-0.1949951171875,7.123751831054688
14.75800000000001,6.55985107421875,-0.1990325927734375,6.472821044921876
14.771,6.744677734375,-0.0752166748046875,6.658096313476563
14.77900000000001,7.072161865234375,0.08194580078125,7.198220825195313
14.787999999999997,6.917691040039063,0.258099365234375,7.353289794921875
14.798000000000002,6.563888549804688,0.303857421875,6.6501708984375005
14.808000000000009,6.730770874023438,0.1006378173828125,6.422726440429688
14.817999999999998,7.1735473632812505,-0.079254150390625,6.813763427734376
14.828000000000005,6.901690673828125,-0.3096893310546875,7.069918823242188
14.838000000000008,6.781463623046876,-0.44681396484375,6.824081420898438
14.848,6.453979492187501,-0.5598632812500001,6.709686279296876
14.858000000000004,6.875073242187501,-0.45279541015625,7.150967407226563
14.86800000000001,7.669259643554688,-0.0073272705078125,7.423422241210938
14.879000000000003,6.957318115234376,0.6823333740234375,6.902438354492188
14.888000000000003,5.872433471679688,1.073968505859375,6.239544677734376
14.89800000000001,6.835745239257813,0.9443206787109376,6.978253173828126
14.908,7.39366455078125,0.43126220703125,7.453628540039063
14.918000000000006,7.056161499023438,-0.19918212890625,7.040011596679688
14.927999999999995,6.178234863281251,-0.40135498046875,6.690695190429688
14.938000000000002,6.395809936523438,-0.5761627197265625,6.7841552734375
14.948000000000008,7.37332763671875,-0.8094390869140625,7.435983276367188
14.957999999999998,7.653558349609375,-0.8511596679687501,6.603964233398438
14.968000000000004,6.771145629882813,-0.3031097412109375,6.130233764648438
14.978000000000009,6.324032592773438,0.48330078125,6.609197998046875
14.988,6.714022827148438,0.8750854492187501,7.724288940429688
14.998000000000005,7.080535888671876,0.8387481689453126,7.832254028320313
15.00800000000001,6.549234008789063,0.748876953125,6.772341918945313
15.018,6.467437744140626,0.5254699707031251,6.2673583984375005
15.028000000000006,7.069021606445313,0.008673095703125,6.923373413085938
15.037999999999997,7.3021484375,-0.59814453125,7.311718750000001
15.048000000000002,6.873577880859376,-0.85474853515625,6.906326293945313
15.058000000000009,6.416595458984376,-0.8394958496093751,6.368743896484376
15.067999999999998,6.8056884765625005,-0.6582580566406251,6.817501831054688
15.078000000000005,7.437777709960938,-0.255108642578125,7.302746582031251
15.088000000000008,6.954776000976563,0.300567626953125,6.9103637695312505
15.098,6.439025878906251,0.7885040283203125,6.461007690429688
15.108000000000004,6.574356079101563,0.8768798828125001,6.814511108398438
15.11800000000001,7.027899169921875,0.6996795654296876,7.602117919921875
15.128,6.798062133789063,0.3868499755859375,7.370037841796876
15.138000000000003,6.444259643554688,-0.0569732666015625,6.730471801757813
15.14800000000001,6.881802368164063,-0.570928955078125,6.3929687500000005
15.158,7.280465698242188,-0.9202453613281252,6.807632446289063
15.168000000000006,7.357925415039063,-0.7946350097656251,6.988421630859375
15.177999999999995,6.560299682617188,-0.471038818359375,6.644638061523438
15.186999999999998,6.64658203125,-0.101385498046875,6.581234741210938
15.197000000000005,6.997393798828125,0.2313323974609375,6.993356323242188
15.207000000000008,6.845913696289063,0.5130584716796875,7.273587036132813
15.217,6.4243713378906255,0.7285400390625001,7.026702880859376
15.227000000000004,6.55028076171875,0.46116943359375,6.755743408203125
15.237000000000007,6.875372314453125,0.014056396484375,7.007861328125
15.247,7.518676757812501,-0.30924072265625,7.027749633789063
15.257000000000003,7.347308349609375,-0.29189453125,6.990963745117188
15.26700000000001,6.28709716796875,-0.1203765869140625,6.353640747070313
15.277,6.36246337890625,-0.0777587890625,6.884194946289063
15.287000000000006,7.341925048828125,-0.0985443115234375,7.366000366210938
15.296999999999995,7.279568481445313,-0.2385101318359375,6.914550781250001
15.307000000000002,6.554019165039063,0.1033294677734375,6.745574951171876
15.317000000000007,6.089111328125,0.586181640625,6.824380493164063
15.326999999999998,6.897952270507813,0.5803497314453125,7.6804748535156255
15.337000000000003,7.581182861328125,0.1052734375,6.940121459960938
15.347000000000008,7.076947021484376,-0.22789306640625,6.118569946289063
15.357,6.5185791015625005,-0.08134765625,6.360369873046875
15.367000000000004,6.58018798828125,-0.1484893798828125,7.350149536132813
15.37700000000001,7.045544433593751,-0.3901397705078125,7.872479248046876
15.387,7.014291381835938,-0.4472625732421875,6.816455078125
15.397000000000006,6.541159057617188,-0.18721923828125,6.076699829101563
15.406999999999996,6.921728515625,0.179443359375,6.518280029296876
15.417000000000002,7.343719482421876,0.293988037109375,7.427758789062499
15.427000000000008,6.937429809570313,0.3602325439453125,7.174295043945313
15.436999999999998,6.213226318359376,0.3718963623046875,6.604412841796876
15.447000000000005,6.450091552734375,0.25062255859375,6.887484741210938
15.457000000000008,7.12449951171875,-0.0079254150390625,7.49534912109375
15.467,7.168911743164063,-0.2208648681640625,7.251754760742188
15.477000000000004,6.710583496093751,-0.2621368408203125,6.315509033203125
15.487000000000007,6.636712646484376,-0.3055023193359375,6.324481201171875
15.497,7.18192138671875,-0.259893798828125,7.033282470703125
15.507000000000003,7.103265380859376,-0.1347320556640625,7.322933959960938
15.51700000000001,6.6501708984375005,0.0127105712890625,6.807333374023438
15.527,6.533084106445313,0.0945068359375,6.489120483398438
15.537000000000006,6.927859497070313,0.2059112548828125,7.084423828125001
15.546999999999995,7.043002319335938,0.3545501708984375,7.440170288085938
15.557000000000002,6.693087768554688,0.3090911865234375,6.9755615234375
15.567000000000007,6.6740966796875005,0.1096099853515625,6.439175415039063
15.576999999999998,6.976608276367188,-0.2160797119140625,6.541607666015626
15.587000000000003,7.063638305664063,-0.3768310546875,7.127938842773438
15.597000000000008,6.762023925781251,-0.516796875,6.869540405273438
15.607,6.904830932617188,-0.605023193359375,6.7040039062500005
15.617000000000004,6.581982421875001,-0.536834716796875,6.592599487304688
15.62700000000001,7.2378479003906255,-0.186322021484375,7.3248779296875
15.637,7.24771728515625,0.5680877685546876,7.490115356445313
15.647000000000006,6.12200927734375,1.05692138671875,6.824380493164063
15.656999999999996,6.344668579101563,1.1161376953125002,6.63760986328125
15.667000000000002,7.332055664062499,0.6642395019531251,6.974514770507813
15.677000000000008,7.447348022460938,0.0330474853515625,7.154705810546876
15.686999999999998,6.667218017578126,-0.399261474609375,6.719256591796875
15.695999999999998,6.114831542968751,-0.6231170654296876,6.719705200195313
15.706000000000005,6.868493652343751,-0.8305236816406251,7.2650634765625
15.716000000000008,7.476806640625001,-0.9476104736328126,7.248764038085938
15.726,7.113882446289063,-0.441729736328125,6.618020629882813
15.736000000000004,6.449343872070313,0.33017578125,6.123504638671875
15.74600000000001,6.667367553710938,0.8432342529296876,6.969131469726563
15.756,7.2258850097656255,0.8988616943359375,7.537667846679688
15.766000000000004,6.841278076171876,0.8062988281250001,7.288241577148438
15.77600000000001,6.2374511718750005,0.6313415527343751,6.677536010742188
15.786,6.590655517578125,0.0861328125,6.787893676757813
15.796000000000006,7.259530639648438,-0.5102172851562501,7.338037109375
15.805999999999996,7.148275756835938,-0.8411407470703126,6.948944091796876
15.816000000000004,6.586468505859376,-0.7535125732421876,6.562991333007813
15.826000000000008,6.720901489257813,-0.5967987060546875,6.333453369140625
15.836,7.342672729492188,-0.4007568359375,7.040011596679688
15.846000000000004,7.3200927734375005,0.078057861328125,6.9582153320312505
15.856000000000009,6.478802490234376,0.5357879638671875,6.6441894531250005
15.866,6.411660766601563,0.7505218505859376,6.796865844726563
15.876000000000005,6.8463623046875,0.634930419921875,7.332504272460938
15.88600000000001,6.830960083007813,0.40853271484375,7.6000244140625
15.896,6.540859985351563,0.155816650390625,6.914102172851563
15.906000000000006,6.672750854492188,-0.2391082763671875,6.5448974609375
15.915999999999997,7.209286499023438,-0.567938232421875,6.673348999023438
15.926000000000002,7.352542114257813,-0.6657348632812501,6.868493652343751
15.936000000000009,6.773089599609375,-0.4749267578125,6.764865112304688
15.945999999999998,6.665573120117188,-0.2579498291015625,6.534878540039063
15.956000000000005,6.881802368164063,-0.03529052734375,7.027600097656251
15.966000000000008,6.897653198242188,0.20037841796875,7.04434814453125
15.976,6.552374267578125,0.4658050537109375,7.193435668945313
15.986000000000004,6.428707885742188,0.45758056640625,6.716116333007813
15.99600000000001,6.8505493164062505,0.185125732421875,7.0584045410156255
16.006,7.390075683593751,-0.0506927490234375,6.934738159179688
16.016000000000005,7.590005493164063,-0.165985107421875,6.892568969726563
16.02600000000001,6.439324951171876,-0.03289794921875,6.50302734375
16.036,6.170758056640626,0.0450103759765625,6.738845825195313
16.046000000000006,7.048983764648438,-0.037384033203125,7.677185058593751
16.055999999999997,7.339532470703125,-0.3677093505859375,6.8619140625
16.066000000000003,6.888531494140626,-0.1810882568359375,6.736004638671876
16.076000000000008,6.02032470703125,0.3864013671875,6.617422485351563
16.086,6.738098144531251,0.5830413818359376,7.524209594726563
16.096000000000004,7.505068969726563,0.195892333984375,7.257437133789063
16.10600000000001,7.228128051757813,-0.2023223876953125,6.150720214843751
16.116,6.569570922851563,0.0007476806640625,6.335546875
16.126000000000005,6.46055908203125,0.05443115234375,7.099227905273438
16.13600000000001,6.942962646484376,-0.2165283203125,7.957864379882813
16.14500000000001,7.072311401367188,-0.4115234375,7.093246459960938
16.156000000000006,6.621908569335938,-0.2388092041015625,6.076251220703125
16.165000000000006,6.733013916015626,0.07117919921875,6.452484130859376
16.176000000000002,7.394711303710938,0.1567138671875,7.233212280273438
16.186000000000007,7.158444213867188,0.207855224609375,7.310372924804688
16.195000000000007,6.269451904296876,0.2681182861328125,6.543551635742188
16.205,6.339883422851563,0.265277099609375,6.818099975585938
16.215000000000003,7.0509277343750005,0.06998291015625,7.4442077636718755
16.22500000000001,7.189099121093751,-0.135479736328125,7.316952514648438
16.236000000000004,6.813015747070313,-0.1792938232421875,6.478802490234376
16.245000000000005,6.585122680664063,-0.2056121826171875,6.176589965820313
16.25500000000001,6.966140747070313,-0.149835205078125,7.079339599609376
16.265,7.098928833007813,-0.0925628662109375,7.423870849609376
16.275000000000006,6.79910888671875,-0.045758056640625,6.979000854492188
16.284999999999997,6.559103393554688,0.0186920166015625,6.30264892578125
16.295,6.879559326171876,0.08553466796875,6.820941162109375
16.305000000000007,7.141995239257813,0.2065093994140625,7.411010742187501
16.314999999999998,6.721051025390626,0.246435546875,7.162033081054688
16.325000000000003,6.565533447265626,0.1628448486328125,6.625347900390626
16.335000000000008,6.822286987304688,-0.1131988525390625,6.465194702148438
16.345,7.185958862304688,-0.2356689453125,7.085021972656251
16.355000000000004,6.90318603515625,-0.2540618896484375,7.008609008789063
16.36500000000001,6.493905639648438,-0.3871490478515625,6.589907836914063
16.375,7.010403442382813,-0.500347900390625,6.482241821289063
16.385000000000005,6.736154174804688,-0.4484588623046875,7.039562988281251
16.39500000000001,7.375869750976563,-0.0456085205078125,7.479348754882813
16.405,7.226632690429688,0.5274139404296876,7.099826049804688
16.415000000000006,5.834750366210938,0.92174072265625,6.594094848632813
16.424999999999997,6.57181396484375,0.94925537109375,6.765762329101563
16.435000000000002,7.313662719726563,0.6539215087890625,7.650418090820313
16.445000000000007,7.23814697265625,-0.0106170654296875,6.811819458007813
16.455,6.726434326171876,-0.437841796875,6.503775024414063
16.465000000000003,6.206646728515626,-0.505133056640625,6.621459960937501
16.47500000000001,7.039114379882813,-0.596649169921875,7.569219970703125
16.485,7.335943603515625,-0.7675689697265625,7.275082397460938
16.495000000000005,7.115676879882813,-0.5416198730468751,6.252853393554688
16.50500000000001,6.480895996093751,0.1607513427734375,6.304443359375001
16.515,6.609497070312501,0.784466552734375,7.161285400390626
16.525000000000006,7.1908935546875,0.8391967773437501,7.788290405273438
16.534999999999997,6.776977539062501,0.6228179931640625,7.00845947265625
16.545,6.377267456054688,0.470440673828125,6.276031494140626
16.555000000000007,6.733612060546876,0.160003662109375,6.926513671875001
16.564999999999998,7.138854980468751,-0.32957763671875,7.452731323242188
16.575000000000003,7.011300659179688,-0.6658843994140625,7.156799316406251
16.585000000000008,6.581683349609375,-0.6772491455078126,6.402239990234375
16.595,6.633871459960938,-0.5505920410156251,6.359771728515626
16.605000000000004,7.401141357421875,-0.3398956298828125,7.169061279296876
16.61500000000001,7.315756225585938,-0.0154022216796875,6.970477294921875
16.62400000000001,6.566729736328125,0.357989501953125,6.5798889160156255
16.634,6.369940185546875,0.5827423095703126,6.599029541015626
16.644000000000005,6.7697998046875005,0.5794525146484375,7.562789916992188
16.655,6.833352661132813,0.462066650390625,7.720700073242188
16.664,6.548635864257813,0.2572021484375,6.942214965820313
16.674000000000007,6.731518554687501,-0.0904693603515625,6.264068603515626
16.683999999999997,7.224240112304688,-0.466851806640625,6.52396240234375
16.694000000000003,7.422225952148438,-0.579901123046875,7.021768188476563
16.704000000000008,6.753500366210938,-0.4960113525390625,6.851596069335938
16.714,6.542355346679688,-0.3653167724609375,6.5664306640625005
16.724000000000004,6.779519653320313,-0.246136474609375,6.788491821289063
16.73400000000001,7.023861694335938,-0.0227294921875,7.169808959960938
16.744,6.6352172851562505,0.34991455078125,7.213772583007813
16.754000000000005,6.47611083984375,0.439337158203125,6.74228515625
16.76400000000001,6.881802368164063,0.3506622314453125,6.930850219726563
16.774,7.468582153320313,0.2409027099609375,6.980346679687501
16.784000000000006,7.160836791992188,0.2723052978515625,7.057357788085938
16.793999999999997,6.274237060546875,0.2735015869140625,6.549084472656251
