time,ax,ay,az
0.0,6.676190185546876,-0.0216827392578125,7.954873657226563
0.009999999999998,7.029095458984376,0.2513702392578125,6.951934814453126
0.019999999999996,6.986477661132813,0.5187408447265626,6.676788330078126
0.029999999999994,6.798809814453126,0.9706390380859377,7.045693969726563
0.0399999999999991,6.396258544921875,1.0165466308593751,7.640698242187501
0.0509999999999948,6.663180541992188,0.5908172607421875,7.641146850585938
0.0609999999999999,7.127191162109376,-0.2080047607421875,6.599627685546875
0.0709999999999979,7.176388549804688,-0.8865997314453126,6.415100097656251
0.0809999999999959,7.182220458984376,-0.8982635498046876,6.21890869140625
0.0909999999999939,6.713574218750001,-0.8525054931640625,7.618865966796876
0.100999999999999,7.24771728515625,-0.3431854248046875,7.290933227539063
0.1109999999999971,6.749612426757813,0.1137969970703125,7.297811889648438
0.1209999999999951,7.166519165039063,0.458477783203125,5.643194580078125
0.1310000000000002,7.30992431640625,1.0174438476562502,7.028945922851563
0.1409999999999982,6.899597167968751,1.3568908691406252,6.717013549804688
0.1509999999999962,6.880456542968751,1.4691925048828125,7.662979125976563
0.161999999999999,6.590655517578125,0.6886138916015625,6.942514038085938
0.1709999999999993,7.013394165039063,-0.1619476318359375,6.966140747070313
0.181999999999995,6.921429443359376,-0.7382598876953126,7.175640869140626
0.1920000000000001,6.7937255859375005,-0.9362457275390624,6.886737060546875
0.2019999999999981,6.999188232421876,-0.9257781982421877,7.131826782226563
0.2119999999999962,7.546640014648438,-1.0157989501953126,6.078643798828125
0.2219999999999942,7.497891235351563,-0.74169921875,6.363958740234375
0.2319999999999993,7.144088745117188,-0.1184326171875,6.184664916992188
0.2419999999999973,6.605908203125001,0.6705200195312501,7.619763183593751
0.2519999999999953,6.569122314453126,1.0319488525390623,7.513143920898438
0.2620000000000004,6.499887084960938,1.015350341796875,7.854385375976563
0.2719999999999984,6.592449951171876,0.863720703125,7.05272216796875
0.2819999999999965,6.73271484375,0.6326873779296875,7.114031982421875
0.2919999999999945,6.968533325195313,0.198883056640625,7.114031982421875
0.3019999999999996,7.24173583984375,-0.365765380859375,6.660638427734376
0.3119999999999976,7.382748413085938,-0.6975860595703125,6.339733886718751
0.3219999999999956,7.438824462890626,-0.7086517333984376,6.03946533203125
0.3329999999999984,7.066180419921875,-0.573919677734375,6.969281005859376
0.3429999999999964,6.726284790039063,-0.3026611328125,7.067825317382813
0.3529999999999944,6.572113037109376,0.1006378173828125,7.788589477539063
0.3629999999999995,6.624899291992188,0.2498748779296875,7.047637939453126
0.3729999999999975,7.032534790039063,0.36427001953125,7.158743286132813
0.3829999999999955,7.051824951171875,0.5046844482421875,6.803894042968751
0.3930000000000007,6.760079956054688,0.6660339355468751,7.070217895507813
0.4029999999999987,6.449792480468751,0.6500335693359376,7.4086181640625
0.4129999999999967,6.84097900390625,0.20037841796875,7.371832275390625
0.4229999999999947,7.126742553710938,-0.3207550048828125,6.922775268554688
0.4329999999999998,7.17294921875,-0.665435791015625,6.252554321289063
0.4429999999999978,6.710284423828125,-0.63343505859375,6.534878540039063
0.4529999999999958,7.620062255859375,-0.6494354248046875,6.328219604492188
0.4639999999999986,7.7642150878906255,-1.1849243164062502,6.8864379882812505
0.472999999999999,7.308728027343751,-1.6614959716796875,5.3551879882812505
0.4839999999999946,7.398150634765625,-0.5594146728515625,7.651614379882813
0.4939999999999998,5.48558349609375,1.0516876220703126,8.473016357421876
0.5039999999999978,5.593548583984376,2.1156372070312504,8.541802978515626
0.5150000000000006,6.772042846679688,2.273846435546876,8.173944091796876
0.5239999999999938,7.362710571289063,1.370648193359375,5.373880004882813
0.5339999999999989,7.841824340820313,0.420794677734375,5.9029388427734375
0.5439999999999969,7.3679443359375005,-0.4927215576171875,5.886190795898438
0.5539999999999949,6.941317749023438,-1.2368133544921875,7.984332275390625
0.5640000000000001,6.357827758789063,-1.7595916748046876,7.480245971679688
0.5739999999999981,7.20943603515625,-1.753909301757813,7.073507690429688
0.5839999999999961,6.656750488281251,-1.0742675781250002,6.453530883789063
0.5939999999999941,7.003674316406251,0.1184326171875,6.698471069335938
0.6039999999999992,7.356280517578125,1.33326416015625,7.511648559570313
0.6149999999999949,7.036721801757813,1.699627685546875,6.461904907226563
0.625,6.726434326171876,1.5014923095703123,6.593945312500001
0.634999999999998,7.085769653320313,0.9497039794921877,6.665573120117188
0.644999999999996,6.60411376953125,0.24822998046875,8.024258422851563
0.654999999999994,6.255245971679688,-0.33914794921875,7.662979125976563
0.6649999999999991,6.575552368164063,-0.8504119873046876,7.524209594726563
0.6749999999999972,6.815557861328125,-0.9601715087890624,6.853390502929688
0.6849999999999952,7.148574829101563,-0.5314514160156251,6.826025390625
0.6950000000000003,7.236053466796876,0.1359283447265625,6.79312744140625
0.7049999999999983,7.33743896484375,0.5226287841796875,6.196777343750001
0.7149999999999963,7.2483154296875005,0.424981689453125,6.426315307617188
0.7249999999999943,7.436282348632813,0.012261962890625,6.372332763671875
0.7349999999999994,6.983486938476563,-0.3168670654296875,7.191641235351563
0.7449999999999974,6.607403564453126,-0.4601226806640625,7.313662719726563
0.7549999999999955,6.4557739257812505,-0.50662841796875,7.586865234375001
0.7659999999999982,6.660339355468751,-0.4251312255859375,7.234259033203125
0.7759999999999962,6.900494384765626,-0.2017242431640625,7.1481262207031255
0.7859999999999943,6.9791503906250005,0.11783447265625,6.744677734375
0.7959999999999994,6.834848022460938,0.4577301025390625,6.522616577148438
0.8059999999999974,7.364804077148438,0.444122314453125,6.6501708984375005
0.8159999999999954,7.247567749023438,0.125311279296875,6.569570922851563
0.8260000000000005,7.47261962890625,-0.212939453125,6.910064697265626
0.8359999999999985,6.794622802734375,-0.1813873291015625,7.211679077148438
0.8459999999999965,6.161636352539063,0.1734619140625,7.625595092773438
0.8559999999999945,6.1381591796875,0.441729736328125,7.98343505859375
0.8659999999999997,6.853988647460938,0.37025146484375,7.328765869140626
0.8759999999999977,7.733410644531251,0.31761474609375,6.24881591796875
0.8870000000000005,7.236352539062499,0.4270751953125,6.0968872070312505
0.8969999999999985,7.007113647460938,0.7381103515625,6.294873046875001
0.9069999999999964,7.021917724609375,0.5997894287109375,7.813262939453126
0.9169999999999944,6.744827270507813,-0.1140960693359375,7.195828247070313
0.9269999999999996,6.790286254882813,-0.6392669677734375,7.154556274414063
0.9369999999999976,6.82841796875,-0.8855529785156251,6.667816162109376
0.9469999999999956,6.9447570800781255,-0.7367645263671876,7.081582641601563
0.9570000000000008,7.190145874023438,-0.480609130859375,7.109994506835938
0.9669999999999987,6.9253173828125005,-0.0877777099609375,6.733462524414063
0.9769999999999968,7.143490600585938,0.3437835693359375,6.499588012695313
0.9869999999999948,6.890026855468751,0.5997894287109375,6.779669189453125
0.997,7.031488037109376,0.6735107421875001,7.219454956054688
1.006999999999998,6.657348632812501,0.40494384765625,7.447348022460938
1.016999999999996,6.472970581054688,0.2175750732421875,7.402935791015626
1.026999999999994,6.445007324218751,-0.05682373046875,7.356579589843751
1.036999999999999,6.833502197265625,-0.328680419921875,7.281512451171875
1.046999999999997,7.31351318359375,-0.4673004150390625,6.6995178222656255
1.0579999999999998,7.532733154296875,-0.5289093017578126,6.161636352539063
1.0679999999999978,7.353439331054688,-0.353802490234375,6.0592041015625
1.077999999999996,6.993206787109376,-0.0468048095703125,6.7832580566406255
1.087999999999994,6.641348266601563,0.423486328125,7.713671875
1.097999999999999,6.329266357421876,0.6512298583984375,7.75614013671875
1.107999999999997,6.507363891601563,0.6796417236328125,7.508807373046875
1.117999999999995,6.816156005859376,0.5947052001953126,7.108947753906251
1.128,7.092349243164063,0.48868408203125,6.905429077148438
1.137999999999998,6.974066162109375,0.26976318359375,6.690097045898438
1.147999999999996,6.972271728515626,-0.1628448486328125,6.5724121093750005
1.157999999999994,7.193734741210938,-0.6901092529296875,6.687106323242188
1.1679999999999993,7.4890686035156255,-1.4056396484375,6.109298706054688
1.178999999999995,7.570565795898438,-1.6540191650390623,6.384295654296875
1.189,7.048385620117188,-1.4198455810546875,6.471026611328125
1.198999999999998,6.922775268554688,-0.357989501953125,7.920928955078126
1.208999999999996,6.275881958007813,1.1122497558593751,8.187252807617188
1.218999999999994,5.703607177734376,2.052682495117188,7.711129760742188
1.2289999999999992,6.657199096679688,2.394073486328125,7.237997436523438
1.2389999999999972,7.522116088867188,1.511212158203125,6.365304565429688
1.2489999999999952,7.865151977539063,0.478814697265625,6.321041870117188
1.2590000000000003,7.106704711914063,-0.5538818359375001,6.291134643554688
1.2689999999999984,6.557757568359375,-1.3190582275390623,7.053768920898438
1.2789999999999964,6.619815063476563,-1.8011627197265627,7.713522338867188
1.2889999999999944,6.96060791015625,-1.7788818359375,7.69034423828125
1.2989999999999997,6.880606079101563,-0.9437225341796877,6.853091430664063
1.3089999999999975,6.832754516601563,0.1852752685546875,6.329116821289063
1.3200000000000005,7.278521728515625,1.3697509765625,6.907073974609376
1.3299999999999983,7.251007080078126,1.7815734863281252,6.891522216796876
1.3399999999999963,6.9567199707031255,1.5810455322265626,6.706695556640626
1.3499999999999943,6.864007568359376,0.8230468750000001,6.602917480468751
1.3599999999999994,6.579440307617188,-0.22789306640625,7.434786987304688
1.3699999999999974,6.717611694335938,-0.872991943359375,7.836590576171876
1.3799999999999957,6.449493408203126,-1.1662322998046877,7.706942749023438
1.3900000000000006,6.6696105957031255,-0.9244323730468752,6.866848754882813
1.3999999999999986,7.076498413085938,-0.4909271240234375,6.582580566406251
1.4099999999999966,7.532135009765626,0.15013427734375,6.522167968750001
1.4199999999999946,7.4540771484375,0.744091796875,6.459213256835938
1.4299999999999995,7.130331420898438,0.8511596679687501,6.319097900390625
1.4399999999999975,7.022067260742188,0.6356781005859375,6.723593139648438
1.4499999999999955,6.8071838378906255,0.18841552734375,7.391571044921876
1.4600000000000009,6.313116455078125,-0.06220703125,7.974462890625
1.4709999999999963,6.291433715820313,-0.314923095703125,7.527050781250001
1.4809999999999943,6.735107421875001,-0.4957122802734375,7.282110595703125
1.4909999999999997,7.273587036132813,-0.4541412353515625,6.547589111328126
1.5009999999999977,7.409963989257813,-0.189910888671875,6.644787597656251
1.5109999999999957,7.032833862304688,0.14893798828125,6.371136474609376
1.5210000000000008,6.833801269531251,0.2663238525390625,6.730471801757813
1.5309999999999988,7.011001586914063,0.15731201171875,6.778921508789063
1.5409999999999968,7.331756591796876,-0.2959320068359375,6.7309204101562505
1.5509999999999948,6.93309326171875,-0.469244384765625,6.781314086914063
1.5629999999999953,6.82901611328125,-0.4164581298828125,7.447796630859376
1.570999999999998,6.708639526367188,-0.027215576171875,8.057156372070313
1.580999999999996,6.369192504882813,0.418701171875,7.224240112304688
1.590999999999994,6.741836547851563,0.7913452148437501,7.077545166015626
1.600999999999999,7.307681274414063,0.8414398193359376,6.2075439453125005
1.6119999999999948,7.832403564453125,0.5956024169921875,6.419586181640626
1.622,6.759033203125001,0.3614288330078125,6.848904418945313
1.631999999999998,6.468933105468751,0.09749755859375,7.398898315429688
1.641999999999996,6.438876342773438,-0.3404937744140625,8.211477661132813
1.651999999999994,6.861764526367188,-0.8928802490234375,6.839184570312501
1.6629999999999967,7.254147338867188,-0.82484130859375,6.999636840820313
1.671999999999997,7.319345092773438,-0.45518798828125,5.888882446289063
1.681999999999995,7.218258666992188,-0.035888671875,6.686358642578125
1.6920000000000002,7.311270141601563,0.2543609619140625,6.69981689453125
1.7019999999999982,6.665722656250001,0.545208740234375,7.204052734375001
1.7119999999999962,6.48209228515625,0.71478271484375,7.338635253906251
1.7219999999999942,6.395211791992188,0.6886138916015625,7.63052978515625
1.732999999999997,6.776828002929688,0.4342529296875,7.603164672851563
1.741999999999997,6.814810180664063,0.1924530029296875,7.078143310546875
1.7519999999999951,6.883148193359376,-0.0671417236328125,6.71776123046875
1.762999999999998,7.044796752929688,-0.381317138671875,6.579141235351563
1.772999999999996,7.403683471679688,-0.62745361328125,6.819894409179688
1.782999999999994,7.36136474609375,-0.7273437500000001,6.531588745117188
1.7929999999999993,7.1301818847656255,-0.6957916259765625,6.322088623046875
1.8029999999999973,7.01683349609375,-0.40015869140625,6.676040649414063
1.8129999999999955,6.809277343750001,0.0321502685546875,7.467834472656251
1.8230000000000004,6.590655517578125,0.5259185791015626,7.794869995117188
1.8329999999999984,6.360220336914063,0.9603210449218752,7.454824829101563
1.8429999999999964,6.672750854492188,1.0166961669921877,7.047189331054688
1.8529999999999944,7.133920288085938,0.7520172119140626,6.872232055664063
1.8629999999999995,7.316055297851563,0.1966400146484375,6.622955322265626
1.8729999999999976,7.001431274414063,-0.42408447265625,6.490615844726563
1.882999999999996,7.028048706054688,-1.0986419677734376,6.270648193359375
1.893000000000001,7.548583984375001,-1.5095672607421875,6.644937133789063
1.9029999999999987,6.949841308593751,-1.5755126953125,6.9507385253906255
1.9139999999999944,6.637460327148438,-0.8145233154296876,7.414749145507813
1.924,6.755145263671875,0.7221099853515626,8.133419799804688
1.9339999999999973,6.117373657226563,1.6975341796875,7.5043212890625
1.9439999999999955,6.922177124023438,2.160198974609376,6.737649536132813
1.9540000000000008,7.264315795898438,1.8116302490234373,6.519924926757813
1.9639999999999984,7.425665283203125,0.8913848876953125,6.393267822265625
1.9739999999999969,6.998141479492188,-0.2080047607421875,7.19986572265625
1.9839999999999949,6.565682983398438,-1.2622344970703123,7.126742553710938
1.994,6.392071533203126,-1.7217590332031252,7.854086303710938
2.003999999999998,6.78714599609375,-1.7039642333984375,7.109695434570313
2.013999999999996,7.271044921875,-0.890936279296875,7.097134399414063
2.023999999999994,7.143341064453126,0.1374237060546875,6.001632690429688
2.033999999999999,7.204650878906251,1.3115814208984375,6.712677001953126
2.043999999999997,7.139004516601563,1.8352569580078129,6.831857299804688
2.055,6.546243286132813,1.6733093261718752,7.45946044921875
2.0649999999999977,6.666470336914063,0.95164794921875,7.227081298828126
2.074999999999996,6.491812133789063,-0.1703216552734375,7.402487182617188
2.085000000000001,6.8071838378906255,-1.0294067382812502,7.236801147460938
2.094999999999999,6.979000854492188,-1.454986572265625,7.188800048828125
2.104999999999997,7.044796752929688,-1.256103515625,6.728677368164063
2.114999999999995,7.008609008789063,-0.7868591308593751,6.315658569335938
2.125,7.486376953125,-0.0779083251953125,6.634320068359376
2.134999999999998,7.44151611328125,0.569134521484375,6.4408203125000005
2.144999999999996,7.009805297851563,0.9544891357421876,6.759481811523438
2.154999999999994,6.582131958007813,1.0277618408203126,6.86490478515625
2.165999999999997,6.5440002441406255,0.6419586181640625,7.885040283203126
2.174999999999997,6.645385742187501,0.2385101318359375,7.802795410156251
2.186,6.453829956054688,-0.215631103515625,7.446450805664063
2.195999999999998,6.837689208984376,-0.4858428955078125,6.612637329101563
2.205999999999996,7.263717651367188,-0.5987426757812501,6.580038452148438
2.215999999999994,7.425515747070313,-0.539227294921875,6.561196899414063
2.225999999999999,7.0951904296875,-0.2428466796875,6.584823608398438
2.235999999999997,6.856231689453126,-0.0034393310546875,6.533981323242188
2.245999999999995,6.902737426757813,0.1146942138671875,7.002627563476563
2.256,7.104312133789063,0.0719268798828125,7.287344360351563
2.2659999999999982,7.215267944335938,0.23028564453125,7.430599975585938
2.275999999999996,6.347210693359376,0.348419189453125,6.889129638671876
2.2859999999999943,6.38040771484375,0.5625549316406251,7.364505004882813
2.296,6.789089965820313,0.489581298828125,7.571463012695313
2.3059999999999974,7.433291625976563,-0.0432159423828125,6.787295532226563
2.3159999999999954,7.49893798828125,-0.2619873046875,6.183468627929688
2.3260000000000005,6.569570922851563,-0.251519775390625,6.427511596679688
2.336999999999996,6.764266967773438,0.104376220703125,7.667614746093751
2.346999999999994,6.733163452148438,-0.0228790283203125,7.956668090820313
2.357,7.067974853515626,-0.21353759765625,6.963897705078126
2.3669999999999973,6.866250610351563,-0.170172119140625,5.94017333984375
2.376999999999996,7.203604125976563,0.036187744140625,6.603216552734375
2.3870000000000005,7.247268676757813,0.145947265625,7.355831909179688
2.3969999999999985,7.047039794921876,-0.01256103515625,7.173696899414063
2.4069999999999965,6.71536865234375,0.01136474609375,6.555664062500001
2.4169999999999945,6.504821777343751,0.04246826171875,6.916644287109375
2.427,6.731518554687501,0.273651123046875,7.785598754882813
2.4369999999999976,6.993505859375,0.3611297607421875,7.717559814453126
2.446999999999996,6.731668090820313,0.288006591796875,6.769052124023438
2.4570000000000007,6.853240966796876,0.2271453857421875,6.144290161132813
2.4679999999999964,7.242932128906251,-0.016448974609375,6.92412109375
2.4779999999999944,7.30513916015625,-0.222808837890625,7.219754028320313
2.4879999999999995,6.96658935546875,-0.5124603271484376,6.836492919921875
2.4979999999999976,6.8311096191406255,-0.6313415527343751,6.3286682128906255
2.507999999999996,6.909765625,-0.5281616210937501,6.871932983398438
2.5180000000000007,7.045394897460938,-0.1182830810546875,7.656100463867188
2.5279999999999987,6.744079589843751,0.4206451416015625,7.427758789062499
2.5379999999999967,6.578842163085938,0.7230072021484375,6.868493652343751
2.5479999999999947,6.786099243164063,0.88345947265625,6.786996459960938
2.558,7.131826782226563,0.6522766113281251,7.134817504882813
2.567999999999998,7.132275390625001,0.28411865234375,7.060498046875001
2.577999999999996,6.922027587890626,-0.4379913330078125,6.342425537109375
2.587999999999994,7.044497680664063,-1.0821929931640626,6.314163208007813
2.597999999999999,7.4427124023437505,-1.32369384765625,6.8012023925781255
2.607999999999997,6.836492919921875,-1.2381591796875,7.361663818359376
2.619,6.935336303710938,-0.401953125,7.316055297851563
2.628999999999998,6.551028442382813,0.7677185058593751,7.619763183593751
2.638999999999996,6.280068969726563,1.5906158447265626,7.066180419921875
2.648999999999994,7.092648315429688,1.8985107421875,7.170855712890625
2.658999999999999,7.260128784179688,1.386199951171875,6.569720458984375
2.668999999999997,7.296316528320313,0.4984039306640625,6.557458496093751
2.68,6.739593505859376,-0.398065185546875,6.953878784179688
2.689,6.6830688476562505,-1.1249603271484376,7.292279052734376
2.698999999999998,6.661386108398438,-1.592410278320313,7.749560546875
2.708999999999996,7.107302856445313,-1.4910247802734375,6.830810546875001
2.718999999999994,6.949392700195313,-0.61549072265625,6.762023925781251
2.728999999999999,6.978701782226563,0.4574310302734375,6.405828857421875
2.738999999999997,7.232763671875,1.323394775390625,7.215567016601563
2.7489999999999952,7.076947021484376,1.55936279296875,6.885989379882813
2.7590000000000003,6.55028076171875,1.4087799072265623,7.024758911132813
2.769999999999996,6.643142700195313,0.8004669189453125,7.16337890625
2.779999999999994,6.633422851562501,-0.1496856689453125,7.588211059570313
2.789999999999999,6.845016479492188,-1.0285095214843751,7.343869018554688
2.799999999999997,7.019076538085938,-1.3844055175781251,6.8610168457031255
2.809999999999995,7.030740356445313,-1.2208129882812502,6.427511596679688
2.8200000000000003,7.212875366210938,-0.72913818359375,6.537570190429688
2.8299999999999983,7.507162475585938,-0.130694580078125,6.712228393554688
2.8399999999999963,7.279867553710938,0.4508514404296875,6.437081909179688
2.8499999999999943,6.767257690429688,0.9410308837890624,6.736004638671876
2.8599999999999994,6.492559814453125,1.0860809326171876,7.270745849609375
2.869999999999997,6.473568725585938,0.8456268310546876,8.220150756835938
2.881,6.7458740234375005,0.377728271484375,7.611239624023438
2.8909999999999982,6.679779052734376,-0.110955810546875,6.962103271484375
2.900999999999996,6.913653564453125,-0.5181427001953125,6.337341308593751
2.9109999999999943,7.277175903320313,-0.612799072265625,6.8942138671875
2.921,7.427310180664063,-0.6643890380859375,6.698770141601563
2.9309999999999974,7.115826416015626,-0.5404235839843751,6.579739379882813
2.9409999999999954,6.647329711914063,-0.2552581787109375,6.375473022460938
2.9510000000000005,6.846661376953126,0.1263580322265625,7.230072021484376
2.9609999999999985,6.950439453125001,0.37025146484375,7.568771362304688
2.9709999999999965,7.106405639648438,0.373541259765625,7.111041259765625
2.9809999999999945,7.115228271484376,0.38580322265625,6.844866943359375
2.991,6.495999145507813,0.4577301025390625,6.538916015625
3.0009999999999977,6.719256591796875,0.6192291259765625,7.857077026367188
3.010999999999996,6.686358642578125,0.143853759765625,7.439572143554688
3.021000000000001,7.5521728515625,-0.4376922607421875,6.6277404785156255
3.030999999999999,7.086666870117188,-0.545806884765625,6.209487915039063
3.0419999999999945,6.389678955078126,-0.2095001220703125,6.87926025390625
3.052,7.115377807617188,0.2917449951171875,8.157345581054688
3.0619999999999976,6.824679565429688,-0.00657958984375,7.14603271484375
3.071999999999996,7.188949584960938,-0.0300567626953125,6.33255615234375
3.0820000000000007,6.973767089843751,0.085235595703125,6.060250854492188
3.0919999999999987,7.075152587890625,0.2017242431640625,7.307830810546876
3.1019999999999968,7.127938842773438,0.01016845703125,7.449740600585938
3.1119999999999948,6.736154174804688,-0.2361175537109375,7.164126586914063
3.122,6.680227661132813,-0.1293487548828125,6.289190673828125
3.131999999999998,6.514691162109376,0.09630126953125,7.429104614257813
3.141999999999996,7.109844970703126,0.34991455078125,7.667614746093751
3.151999999999994,7.0533203125,0.27275390625,7.258932495117188
3.161999999999999,6.8191467285156255,0.3037078857421875,6.066232299804688
3.171999999999997,6.893017578125001,0.241949462890625,6.547140502929688
3.183,7.129733276367188,-0.034991455078125,7.468283081054688
3.192999999999998,7.131527709960938,-0.2806793212890625,7.257138061523438
3.202999999999996,6.8385864257812505,-0.5873779296875,6.6935363769531255
3.212999999999994,6.728826904296875,-0.57960205078125,6.180328369140626
3.222999999999999,7.059750366210938,-0.28651123046875,7.385589599609376
3.232999999999997,7.120312500000001,0.15252685546875,7.62095947265625
3.242999999999995,6.691741943359376,0.4909271240234375,7.066479492187501
3.253,6.613833618164063,0.7064086914062501,6.4677368164062505
3.262999999999998,6.931149291992188,0.705810546875,7.026104736328126
3.272999999999996,7.177285766601563,0.47552490234375,7.455572509765625
3.282999999999994,6.905279541015625,0.04366455078125,7.003823852539063
3.293,6.804342651367188,-0.6153411865234375,6.187506103515625
3.3029999999999973,7.095788574218751,-0.9957611083984376,6.548785400390625
3.312999999999996,7.406674194335938,-1.15322265625,6.867147827148438
3.3230000000000004,7.077395629882813,-0.9483581542968752,7.2169128417968755
3.333999999999996,6.759930419921876,-0.279632568359375,6.79910888671875
3.343999999999994,6.566281127929688,0.858038330078125,7.789187622070313
3.353999999999999,6.338088989257813,1.6356262207031251,7.669259643554688
3.363999999999997,6.971075439453125,1.804751586914063,7.230221557617188
3.3739999999999952,7.071414184570313,1.1943450927734376,6.364706420898438
3.3840000000000003,7.394412231445313,0.1736114501953125,6.169113159179688
3.3939999999999984,7.123153686523438,-0.5920135498046876,7.0616943359375
3.4039999999999964,6.744528198242188,-1.245037841796875,7.313662719726563
3.4139999999999944,6.533383178710938,-1.5094177246093752,7.672848510742188
3.4239999999999995,6.819595336914063,-1.334161376953125,6.7243408203125
3.433999999999997,7.089657592773438,-0.4137664794921875,7.14842529296875
3.4439999999999955,6.984384155273438,0.7382598876953126,6.545495605468751
3.4540000000000006,7.078292846679688,1.5133056640625,7.101022338867188
3.463999999999998,7.026254272460938,1.645196533203125,6.648526000976563
3.4749999999999943,6.7234436035156255,1.27943115234375,7.115228271484376
3.4849999999999994,6.759780883789063,0.5821441650390625,7.284054565429688
3.494999999999997,6.618469238281251,-0.425579833984375,7.402337646484375
3.5049999999999955,6.795370483398438,-1.2797302246093751,7.19388427734375
3.515000000000001,7.067526245117188,-1.5660919189453126,6.748416137695313
3.5249999999999986,6.995748901367188,-1.2140838623046877,6.816903686523438
3.5349999999999966,7.204949951171876,-0.4701416015625,6.5209716796875
3.5449999999999946,7.398449707031251,0.17764892578125,6.600674438476563
3.555,7.384243774414063,0.6703704833984375,6.234759521484375
3.5649999999999977,6.9516357421875,1.02462158203125,6.85234375
3.574999999999996,6.429605102539063,1.1073150634765625,7.5402099609375
3.585000000000001,6.151467895507813,0.8363555908203125,8.190093994140625
3.594999999999999,6.475961303710938,0.191107177734375,7.850048828125001
3.6059999999999945,6.898999023437501,-0.3623260498046875,6.90916748046875
3.616,7.36375732421875,-0.6989318847656251,6.20335693359375
3.6259999999999977,7.267904663085938,-0.7337738037109376,6.385342407226563
3.635999999999996,7.364056396484376,-0.6089111328125001,6.564486694335938
3.646000000000001,7.096087646484375,-0.2989227294921875,6.941467285156251
3.655999999999999,6.5927490234375,-0.15491943359375,6.547738647460938
3.665999999999997,6.881503295898438,0.1131988525390625,7.138555908203125
3.675999999999995,6.893615722656251,0.2779876708984375,7.214520263671876
3.686,7.062142944335938,0.36905517578125,7.424917602539063
3.695999999999998,7.138256835937501,0.4406829833984375,7.115975952148438
3.705999999999996,6.455923461914063,0.483001708984375,6.678732299804688
3.715999999999994,6.670956420898438,0.60711669921875,7.309774780273438
3.725999999999999,6.814511108398438,0.15850830078125,7.380654907226563
3.735999999999997,7.602716064453125,-0.401654052734375,6.81944580078125
3.747,7.009954833984375,-0.5191894531250001,6.386688232421876
3.756999999999998,6.3570800781250005,-0.121124267578125,6.817950439453125
3.766999999999996,6.881054687500001,0.231781005859375,8.050875854492189
3.776999999999994,7.0114501953125,-0.06041259765625,7.185958862304688
3.786999999999999,7.263568115234375,-0.0623565673828125,6.452334594726563
3.796999999999997,6.933840942382813,0.0623565673828125,5.975314331054688
3.806999999999995,7.014889526367188,0.1921539306640625,7.069171142578125
3.817,7.13646240234375,0.01375732421875,7.584472656250001
3.826999999999998,6.7961181640625,-0.14654541015625,7.224987792968751
3.836999999999996,6.469082641601563,-0.0189910888671875,6.5843750000000005
3.846999999999994,6.50242919921875,0.1478912353515625,7.264315795898438
3.8569999999999993,7.296466064453125,0.3369049072265625,7.629333496093751
3.866999999999997,7.069320678710938,0.20635986328125,7.090255737304688
3.8769999999999953,6.84337158203125,0.25301513671875,6.155056762695313
3.887000000000001,6.854885864257813,0.127105712890625,6.555215454101563
3.897999999999996,7.162631225585938,-0.1691253662109375,7.439871215820313
3.907999999999994,7.136911010742188,-0.4027008056640625,7.287643432617188
3.9179999999999993,6.887933349609376,-0.6096588134765626,6.5440002441406255
3.927999999999997,6.850997924804688,-0.4655059814453125,6.258236694335938
3.9379999999999953,7.0763488769531255,-0.1867706298828125,7.315457153320313
3.948,6.9540283203125,0.3337646484375,7.678530883789063
3.9579999999999984,6.639105224609375,0.6675292968750001,7.117022705078125
3.967999999999997,6.645086669921875,0.7466339111328125,6.626693725585938
3.9779999999999935,6.9659912109375,0.5650970458984376,6.8505493164062505
3.988,7.243380737304688,0.297576904296875,7.42117919921875
3.9979999999999976,6.9061767578125,-0.0704315185546875,6.930999755859376
4.007999999999996,6.6202636718750005,-0.724652099609375,6.3241821289062505
4.018000000000001,7.341177368164063,-1.048248291015625,6.376071166992188
4.027999999999999,7.555462646484376,-1.24354248046875,6.822137451171876
4.037999999999997,6.912606811523438,-1.0340423583984375,7.04375
4.049,7.000534057617188,0.1443023681640625,7.449591064453125
4.0589999999999975,5.956921386718751,1.3582366943359376,8.020669555664064
4.068999999999996,6.404034423828126,1.874435424804688,7.176986694335938
4.079000000000001,7.224090576171876,1.7425445556640626,7.357327270507813
4.088999999999999,7.370785522460938,0.837103271484375,5.744580078125001
4.098999999999997,7.292129516601563,-0.0315521240234375,6.568374633789063
4.108999999999995,6.873876953125,-0.8563934326171876,7.00546875
4.119,6.6352172851562505,-1.4629119873046876,7.746868896484376
4.128999999999998,6.539364624023438,-1.594952392578125,7.5040222167968755
4.138999999999996,6.997991943359375,-1.1011840820312502,6.769949340820313
4.148999999999994,6.968383789062501,-0.060711669921875,6.802847290039063
4.158999999999999,7.082778930664063,1.0424163818359375,6.60172119140625
4.168999999999997,7.312316894531251,1.7585449218750002,7.123901367187501
4.180999999999997,6.730322265625,1.670169067382813,6.726583862304688
4.189999999999998,6.643142700195313,1.1521759033203125,7.116873168945313
4.199999999999996,6.916943359375001,0.1383209228515625,7.339981079101563
4.210000000000001,6.680676269531251,-0.9096282958984376,7.373477172851563
4.219999999999999,6.747967529296876,-1.5074737548828123,7.094741821289063
4.229999999999997,7.081433105468751,-1.4805572509765623,6.858474731445313
4.239999999999995,7.007861328125,-1.0403228759765626,6.625198364257813
4.25,7.3933654785156255,-0.2160797119140625,6.481643676757813
4.259999999999998,7.452880859375001,0.459075927734375,6.34990234375
4.269999999999996,7.2273803710937505,0.9606201171875,6.471624755859375
4.280999999999999,6.547589111328126,1.227691650390625,7.1242004394531255
4.289999999999999,6.342425537109375,1.063052368164063,8.041754150390625
4.299999999999997,6.287844848632813,0.6042755126953125,8.096035766601563
4.309999999999995,6.704452514648438,-0.081646728515625,7.358074951171876
4.320999999999998,6.947000122070313,-0.6791931152343751,6.4874755859375
4.330999999999996,7.412506103515626,-0.9114227294921876,6.2509094238281255
4.340999999999994,7.389926147460938,-0.7316802978515625,6.6636291503906255
4.350999999999999,6.996047973632813,-0.5845367431640626,6.604263305664063
4.360999999999997,6.950888061523438,-0.2887542724609375,6.692639160156251
4.370999999999995,7.102966308593751,0.0303558349609375,6.775033569335938
4.381999999999998,7.035226440429688,0.3146240234375,7.140350341796876
4.390999999999998,7.007412719726563,0.5987426757812501,7.516433715820313
4.400999999999996,6.204702758789063,0.7612884521484375,7.157098388671876
4.410999999999994,6.452035522460938,0.86671142578125,7.608248901367188
4.420999999999999,6.808679199218751,0.454290771484375,7.427609252929688
4.430999999999997,7.628286743164063,-0.179742431640625,6.511700439453126
4.440999999999995,7.409963989257813,-0.4864410400390625,6.192889404296875
4.4510000000000005,6.555664062500001,-0.462664794921875,6.422128295898438
4.461999999999996,6.943112182617188,-0.2166778564453125,7.826272583007813
4.471999999999994,6.772790527343751,-0.300567626953125,7.649072265625
4.481999999999999,6.935784912109376,-0.1311431884765625,6.945953369140626
4.491999999999997,6.755145263671875,0.216827392578125,6.333901977539063
4.501999999999995,7.124649047851563,0.4673004150390625,6.761425781250001
4.5120000000000005,7.314709472656251,0.38699951171875,7.247119140625
4.521999999999999,7.149771118164063,0.078656005859375,6.734210205078125
4.5319999999999965,6.66990966796875,-0.073870849609375,6.52994384765625
4.5419999999999945,6.595291137695313,-0.164190673828125,7.138854980468751
4.552,6.841278076171876,-0.0800018310546875,7.944256591796876
4.561999999999998,6.785949707031251,-0.0758148193359375,7.479946899414063
4.571999999999996,6.759182739257813,0.1167877197265625,6.585421752929688
4.582000000000001,6.947598266601563,0.2612396240234375,6.410763549804688
4.591999999999999,7.204501342773438,0.2842681884765625,7.003823852539063
4.602999999999994,7.298260498046876,0.1410125732421875,7.075750732421875
4.613,7.032235717773438,-0.1861724853515625,6.582730102539063
4.6229999999999976,6.828866577148438,-0.471038818359375,6.398800659179688
4.632999999999996,6.9806457519531255,-0.5191894531250001,7.273587036132813
4.643000000000001,6.771145629882813,-0.2190704345703125,7.735205078125
4.652999999999999,6.617422485351563,0.12501220703125,7.333401489257813
4.662999999999997,6.618618774414063,0.4188507080078125,6.798361206054688
4.672999999999995,6.995150756835938,0.596051025390625,6.705200195312501
4.683,7.289886474609376,0.6461456298828125,7.178482055664063
4.692999999999998,7.199118041992188,0.436346435546875,6.738247680664063
4.702999999999996,6.702508544921876,-0.1296478271484375,6.600225830078125
4.712999999999994,6.872531127929688,-0.6791931152343751,6.474166870117188
4.722999999999999,7.242184448242188,-1.0786041259765626,7.139752197265626
4.732999999999997,7.141397094726563,-1.1924011230468752,7.037020874023438
4.742999999999995,6.792678833007813,-0.8679077148437501,6.835894775390625
4.753999999999998,6.978701782226563,0.3503631591796875,7.5608459472656255
4.763999999999996,6.325228881835938,1.3854522705078125,7.643389892578125
4.773999999999994,6.7243408203125,1.8101348876953127,7.129434204101563
4.783999999999999,7.071713256835938,1.5397735595703126,6.629385375976563
4.793999999999997,7.343270874023438,0.5639007568359375,6.281564331054688
4.803999999999995,7.226931762695313,-0.1813873291015625,7.045544433593751
4.814,6.653759765625001,-0.9052917480468752,7.319345092773438
4.823999999999998,6.459063720703125,-1.3277313232421877,7.511648559570313
4.833999999999996,6.858624267578126,-1.484295654296875,6.937130737304688
4.843999999999994,7.321289062500001,-0.920843505859375,6.927261352539063
4.853999999999999,7.007412719726563,0.17705078125,6.593945312500001
4.863999999999997,6.925018310546876,1.1985321044921875,6.896606445312501
4.873999999999995,7.023712158203126,1.6803375244140626,7.037319946289063
4.884,6.746771240234375,1.4237335205078123,7.147378540039063
4.893999999999998,6.758435058593751,0.9343017578125,7.165621948242188
4.904999999999994,6.724490356445313,-0.0174957275390625,7.155303955078126
4.914999999999999,6.756491088867188,-0.972882080078125,7.209585571289063
4.924999999999997,7.098928833007813,-1.502688598632813,6.980795288085938
4.934999999999995,7.062142944335938,-1.394573974609375,6.82542724609375
4.945,6.951486206054688,-0.8750854492187501,6.401940917968751
4.954999999999998,7.4205810546875,-0.2271453857421875,6.655105590820313
4.964999999999996,7.42955322265625,0.4246826171875,6.484634399414063
4.974999999999994,6.982589721679688,0.96480712890625,6.741537475585938
4.984999999999999,6.4252685546875,1.332666015625,7.310671997070313
4.994999999999997,6.315957641601563,1.1451477050781251,8.027996826171876
5.004999999999996,6.552374267578125,0.5964996337890626,7.907919311523438
5.015000000000001,6.759930419921876,-0.1215728759765625,7.0748535156250005
5.024999999999999,7.078591918945313,-0.65496826171875,6.443960571289063
5.034999999999997,7.280166625976563,-0.8961700439453125,6.383547973632813
5.045999999999999,7.379010009765626,-0.9555358886718752,6.782211303710938
5.055999999999997,7.30753173828125,-0.6410614013671876,6.6429931640625
5.065999999999995,6.874325561523438,-0.279034423828125,6.517831420898438
5.0760000000000005,6.515289306640626,0.161798095703125,6.863110351562501
5.085999999999999,6.875222778320313,0.4667022705078125,7.395159912109375
5.0959999999999965,6.916943359375001,0.6271545410156251,7.579388427734376
5.1059999999999945,6.996795654296876,0.4376922607421875,6.878512573242188
5.116,7.413552856445313,0.2947357177734375,6.867446899414063
5.125999999999998,6.512747192382813,0.41451416015625,6.789987182617188
5.135999999999996,6.496746826171876,0.3087921142578125,7.450338745117188
5.146000000000001,6.829165649414063,-0.1496856689453125,7.370187377929688
5.155999999999999,7.513742065429688,-0.7183715820312501,6.579589843750001
5.165999999999997,6.990216064453126,-0.4592254638671875,6.979598999023438
5.175999999999995,6.264965820312501,0.227294921875,6.603665161132813
5.186999999999998,7.013394165039063,0.5671905517578125,8.128933715820313
5.196999999999996,7.195230102539063,0.176153564453125,6.610842895507813
5.207000000000001,7.289886474609376,0.0258697509765625,6.473269653320313
5.216999999999999,6.9181396484375,0.1586578369140625,6.244180297851563
5.226999999999997,6.643890380859376,-0.0037384033203125,7.372131347656251
5.236999999999995,7.130780029296876,-0.2746978759765625,7.8240295410156255
5.247,6.795071411132813,-0.450103759765625,6.936233520507813
5.256999999999998,6.482989501953125,-0.1475921630859375,6.5568603515625
5.266999999999996,6.770248413085938,0.27215576171875,7.028347778320313
5.276999999999994,7.38887939453125,0.4502532958984375,7.6359130859375
5.286999999999999,7.071414184570313,0.3970184326171875,6.694284057617188
5.297999999999995,6.754995727539063,0.3629241943359375,6.299359130859376
5.306999999999995,6.724789428710938,0.197088623046875,6.84337158203125
5.317999999999998,6.9627014160156255,-0.1526763916015625,7.842123413085938
5.327999999999996,7.034179687500001,-0.459075927734375,7.386337280273438
5.337999999999994,6.854437255859375,-0.6153411865234375,6.356631469726563
5.347999999999999,6.940270996093751,-0.5046844482421875,6.124700927734375
5.357999999999997,7.3488037109375,-0.191705322265625,7.175192260742188
5.367999999999995,7.121209716796876,0.20576171875,7.424917602539063
5.378,6.5679260253906255,0.5953033447265625,7.061395263671876
5.387999999999998,6.442166137695313,0.703717041015625,6.68546142578125
5.398999999999994,6.869241333007813,0.560162353515625,7.359570312500001
5.407999999999994,7.237100219726563,0.304156494140625,7.464694213867188
5.417999999999999,6.983636474609376,-0.0252716064453125,6.870736694335938
5.427999999999997,6.7114807128906255,-0.3910369873046875,6.278872680664063
5.437999999999995,7.049581909179688,-0.5793029785156251,6.852044677734376
5.448,7.21182861328125,-0.5722747802734376,7.357177734375001
5.457999999999998,6.857278442382813,-0.5685363769531251,6.740191650390625
5.468999999999994,7.056460571289063,-0.3862518310546875,6.108999633789063
5.478999999999999,7.328616333007813,-0.256903076171875,6.434988403320313
5.488999999999997,6.7099853515625005,-0.06878662109375,7.424319458007813
5.498999999999995,7.134518432617188,0.72913818359375,8.070315551757814
5.509,6.194235229492188,1.3917327880859376,7.955770874023438
5.518999999999998,6.060250854492188,1.1743072509765626,6.438427734375001
5.528999999999996,7.518527221679688,0.6978851318359376,7.021469116210938
5.538999999999994,7.583724975585938,-0.12501220703125,6.317153930664063
5.549,7.320391845703125,-0.6074157714843751,6.8415771484375005
5.5589999999999975,6.621609497070313,-0.9171051025390624,6.629385375976563
5.568999999999996,6.510803222656251,-0.9712371826171876,7.469329833984376
5.579000000000001,6.743930053710938,-0.603826904296875,7.92720947265625
5.588999999999999,7.089956665039063,-0.0411224365234375,7.008758544921876
5.599999999999994,6.887783813476563,0.6477905273437501,6.548336791992188
5.609999999999999,6.966140747070313,1.0950531005859376,6.224441528320313
5.619999999999997,7.315756225585938,1.289898681640625,7.471572875976563
5.629999999999996,6.791033935546875,0.8987121582031251,7.219305419921875
5.640000000000001,6.423324584960938,0.23626708984375,7.146331787109376
5.649999999999999,6.941915893554688,-0.5686859130859375,6.886886596679688
5.659999999999997,6.814212036132813,-1.130792236328125,7.176837158203125
5.669999999999995,7.042254638671875,-1.091912841796875,7.213024902343751
5.68,7.079489135742188,-0.7140350341796875,6.819744873046876
5.689999999999998,6.98692626953125,-0.2980255126953125,6.278125
5.699999999999996,7.425515747070313,0.2193695068359375,6.3774169921875
5.710000000000001,7.309027099609375,0.5825927734375,6.861764526367188
5.719999999999999,6.942813110351563,0.7943359375000001,6.996945190429688
5.729999999999997,6.303994750976563,0.7419982910156251,7.344317626953125
5.739999999999995,6.341378784179688,0.437542724609375,7.705148315429688
5.750999999999998,6.616973876953126,0.1167877197265625,7.875918579101563
5.760999999999996,7.076049804687501,-0.1810882568359375,7.093994140625001
5.771000000000001,7.096087646484375,-0.4224395751953125,6.244180297851563
5.780999999999999,7.266708374023438,-0.529058837890625,6.135018920898438
5.790999999999997,7.297064208984375,-0.313726806640625,6.886138916015626
5.800999999999995,7.083526611328126,-0.22789306640625,6.955673217773438
5.811,6.923373413085938,-0.1463958740234375,6.967486572265625
5.820999999999998,6.85234375,-0.0174957275390625,6.6549560546875
5.830999999999996,6.599478149414063,0.2583984375,7.460507202148438
5.840999999999994,6.473269653320313,0.5763122558593751,7.556808471679688
5.850999999999999,6.59573974609375,0.5339935302734375,7.356579589843751
5.860999999999997,7.2154174804687505,0.130096435546875,6.373080444335938
5.870999999999995,7.551724243164063,-0.319708251953125,6.227581787109376
5.881,7.778720092773438,-0.471337890625,6.648226928710938
5.890999999999998,6.782659912109375,-0.2818756103515625,7.307382202148438
5.901999999999994,6.025708007812501,0.0394775390625,7.356729125976563
5.911999999999999,6.164028930664063,0.237164306640625,7.885638427734375
5.921999999999997,7.232315063476563,0.1425079345703125,7.256689453125
5.931999999999995,7.661334228515625,0.290399169921875,6.74527587890625
5.942,6.665722656250001,0.5444610595703125,6.0838775634765625
5.951999999999998,6.903634643554688,0.7457366943359376,6.70938720703125
5.961999999999996,7.022216796875001,0.1855743408203125,7.812515258789063
5.972999999999999,7.183117675781251,-0.5147033691406251,6.897653198242188
5.981999999999999,6.718807983398438,-0.65137939453125,6.944158935546875
5.991999999999997,6.579739379882813,-0.51859130859375,6.5807861328125
6.001999999999995,7.0018798828125,-0.321502685546875,7.6694091796875
6.0120000000000005,7.312466430664063,-0.1583587646484375,7.063638305664063
6.022999999999996,7.012496948242188,0.274249267578125,6.362313842773438
6.032999999999994,6.741836547851563,0.5659942626953125,6.259283447265625
6.042999999999999,6.994552612304688,0.6778472900390625,7.171005249023438
6.052999999999997,7.080087280273438,0.3805694580078125,7.832254028320313
6.062999999999995,6.629983520507813,0.124114990234375,7.139752197265626
6.073,6.377865600585938,-0.01256103515625,6.775631713867188
6.082999999999998,6.778622436523438,-0.281427001953125,7.129284667968751
6.092999999999996,7.28360595703125,-0.356195068359375,7.483834838867188
6.102999999999994,7.280764770507813,-0.4098785400390625,6.595440673828126
6.113,7.046890258789063,-0.2717071533203125,5.95572509765625
6.1229999999999976,7.067974853515626,-0.14893798828125,6.373529052734376
6.132999999999996,7.220352172851563,0.084637451171875,7.640548706054688
6.143000000000001,6.688153076171876,0.3431854248046875,7.564883422851563
6.152999999999999,6.300555419921875,0.442926025390625,7.194033813476563
6.162999999999997,6.638955688476563,0.4161590576171875,6.83798828125
6.172999999999995,7.1466308593750005,0.2256500244140625,7.277325439453126
6.1839999999999975,7.20943603515625,0.1981353759765625,7.137210083007813
6.193999999999996,6.898101806640626,-0.0578704833984375,6.371734619140626
6.204000000000001,6.921578979492188,-0.4128692626953125,6.391473388671876
6.213999999999999,7.310073852539063,-0.756353759765625,6.530392456054688
6.223999999999997,7.273138427734375,-0.8433837890625001,7.194631958007813
6.233999999999995,6.722097778320313,-0.6889129638671876,6.778622436523438
6.244,6.695928955078125,-0.160302734375,7.37572021484375
6.253999999999998,6.815856933593751,0.8169158935546875,7.9206298828125
6.263999999999996,6.472821044921876,1.3600311279296875,7.506564331054688
6.273999999999994,6.821389770507813,1.478912353515625,6.715219116210938
6.283999999999999,7.20225830078125,0.8312713623046876,6.083279418945313
6.293999999999997,7.533032226562501,-0.007177734375,6.724490356445313
6.303999999999995,7.163079833984376,-0.6298461914062501,7.063787841796875
6.314999999999998,6.350350952148438,-0.9872375488281252,7.465740966796876
6.323999999999998,6.337789916992188,-0.9942657470703126,7.379608154296876
6.335000000000001,6.976010131835938,-0.9023010253906252,7.264016723632813
6.344999999999999,7.383795166015625,-0.1816864013671875,6.909765625
6.354999999999997,7.063937377929688,0.668426513671875,6.235656738281251
6.364999999999995,6.959262084960938,1.3186096191406251,6.756192016601563
6.375,6.937579345703125,1.26627197265625,6.996047973632813
6.384999999999998,6.8625122070312505,0.820654296875,7.631277465820313
6.394999999999996,6.66392822265625,0.2071075439453125,7.065582275390626
6.404999999999994,6.473568725585938,-0.5176940917968751,7.096536254882813
6.414999999999999,6.892718505859375,-0.9953125,7.112088012695313
6.424999999999997,7.217510986328126,-1.0786041259765626,7.267007446289063
6.434999999999995,6.932196044921875,-0.6232666015625,6.715518188476563
6.445,6.987374877929688,-0.12979736328125,6.206646728515626
6.455999999999996,7.411758422851563,0.26019287109375,6.644039916992188
6.465999999999994,7.429403686523438,0.4777679443359375,6.637161254882813
6.475999999999999,6.889279174804688,0.6207244873046875,7.055563354492188
6.485999999999997,6.413754272460938,0.6024810791015626,7.064086914062501
6.495999999999995,6.386239624023438,0.257501220703125,7.864105224609376
6.506,6.746173095703125,-0.007476806640625,7.760925292968751
6.515999999999998,6.913204956054688,-0.2429962158203125,7.061245727539063
6.525999999999996,7.066928100585938,-0.2977264404296875,6.250012207031251
6.535999999999994,7.222146606445313,-0.30086669921875,6.32298583984375
6.545999999999999,7.349102783203126,-0.15611572265625,7.052572631835938
6.555999999999997,7.053619384765626,0.007177734375,6.925466918945313
6.565999999999995,6.764715576171875,0.00418701171875,6.8714843750000005
6.5760000000000005,6.639105224609375,0.0399261474609375,6.864605712890626
6.585999999999999,6.5951416015625,0.044561767578125,7.434637451171875
6.5959999999999965,6.944308471679688,0.10706787109375,7.200762939453125
6.606999999999999,7.141845703125001,-0.1780975341796875,6.564337158203125
6.616999999999997,7.33743896484375,-0.5136566162109375,6.454727172851563
6.626999999999995,7.87576904296875,-0.167181396484375,6.887783813476563
6.6370000000000005,6.170608520507813,0.4305145263671875,7.450787353515626
6.646999999999999,6.067428588867188,0.8059997558593751,7.36973876953125
6.6569999999999965,6.513195800781251,0.579901123046875,7.766308593750001
6.6669999999999945,7.4666381835937505,0.1718170166015625,6.863858032226563
6.677,7.2408386230468755,0.24105224609375,6.947747802734376
6.686999999999998,6.528897094726563,0.3348114013671875,6.285900878906251
6.698999999999998,7.037020874023438,0.0662445068359375,7.283905029296876
6.707000000000001,7.142593383789063,-0.6784454345703126,6.939373779296876
6.716999999999999,7.342224121093751,-0.7852142333984375,6.9540283203125
6.726999999999997,6.624899291992188,-0.569134521484375,6.49345703125
6.736999999999995,6.6456848144531255,-0.198284912109375,7.162930297851563
6.747,7.198071289062501,0.0788055419921875,7.55576171875
6.757999999999996,6.9013916015625005,0.4239349365234375,7.083377075195313
6.768000000000001,6.601272583007813,0.8762817382812501,6.501681518554688
6.777999999999999,6.859970092773438,0.8360565185546875,6.849502563476563
6.787999999999997,7.215866088867188,0.5049835205078126,7.375570678710938
6.799,6.947747802734376,0.0136077880859375,7.171902465820313
6.808,6.581533813476563,-0.20277099609375,6.910064697265626
6.817999999999998,6.522167968750001,-0.56763916015625,6.828567504882813
6.827999999999996,7.220651245117188,-0.7301849365234375,7.483087158203125
6.837999999999994,7.346560668945313,-0.692352294921875,6.768902587890626
6.847999999999999,7.159790039062501,-0.344830322265625,6.2912841796875005
6.857999999999997,7.019076538085938,0.0755157470703125,5.981594848632813
6.867999999999995,7.213772583007813,0.343634033203125,7.294223022460938
6.878,6.844418334960938,0.626556396484375,7.585818481445313
6.888999999999996,6.381753540039063,0.6972869873046875,7.464843750000001
6.898999999999994,6.330911254882813,0.6332855224609375,7.181472778320313
6.908999999999999,6.867596435546876,0.2415008544921875,7.175341796875
6.918999999999997,7.217959594726563,-0.06280517578125,7.36375732421875
6.928999999999995,7.178631591796876,-0.3276336669921875,6.315957641601563
6.939,7.065582275390626,-0.573919677734375,6.328219604492188
6.948999999999998,7.141995239257813,-0.7705596923828125,6.267059326171876
6.958999999999996,7.351943969726563,-0.8125793457031251,7.111938476562501
6.968999999999994,7.111788940429688,-0.5969482421875001,6.743630981445313
6.978999999999999,6.472372436523438,-0.3536529541015625,6.970925903320313
6.988999999999997,6.677087402343751,0.418701171875,7.622305297851563
6.998999999999995,6.600524902343751,1.327880859375,8.344564819335938
7.009,6.532635498046876,1.6142425537109375,7.380355834960938
7.018999999999998,7.150668334960938,1.3334136962890626,6.239694213867188
7.028999999999996,7.1421447753906255,0.4852447509765625,6.002828979492188
7.038999999999994,7.610342407226563,-0.34752197265625,6.626693725585938
7.049999999999997,7.028347778320313,-1.126007080078125,7.47501220703125
7.059999999999995,6.421829223632813,-1.4721832275390625,7.347906494140625
7.07,6.294723510742188,-1.158755493164063,7.427459716796876
7.079999999999998,6.888381958007813,-0.5504425048828125,7.127041625976563
7.089999999999996,7.405029296875001,0.37025146484375,7.111639404296875
7.099999999999994,7.231268310546875,1.059613037109375,6.021670532226563
7.109999999999999,7.098928833007813,1.6211212158203123,6.573010253906251
7.119999999999997,6.670358276367188,1.425079345703125,7.059600830078126
7.129999999999996,6.643740844726563,0.8140747070312501,7.996295166015625
7.140000000000001,6.674694824218751,-0.133685302734375,7.4744140625
7.150999999999996,6.519625854492188,-1.006228637695313,6.933840942382813
7.159999999999997,6.926663208007813,-1.3423858642578126,6.745724487304688
7.169999999999995,7.398150634765625,-1.2224578857421875,7.081283569335938
7.180999999999997,7.25968017578125,-0.633734130859375,6.562393188476563
7.190999999999995,7.2139221191406255,-0.0656463623046875,6.1078033447265625
7.2010000000000005,7.285549926757813,0.442626953125,6.293377685546876
7.2109999999999985,7.20943603515625,0.6993804931640626,6.856530761718751
7.2209999999999965,6.651367187500001,0.8851043701171876,7.750607299804688
7.230999999999994,6.116476440429688,0.7591949462890626,7.522265625
7.241,6.271096801757813,0.4062896728515625,7.888031005859376
7.250999999999998,6.821389770507813,-0.012860107421875,7.295718383789063
7.260999999999996,7.1496215820312505,-0.2917449951171875,6.9926086425781255
7.271000000000001,7.292279052734376,-0.420794677734375,6.034381103515625
7.280999999999999,7.374822998046875,-0.569134521484375,6.25120849609375
7.290999999999997,7.332803344726563,-0.5121612548828125,6.581982421875001
7.302,6.975112915039063,-0.3150726318359375,7.084872436523438
7.311,6.581384277343751,0.011065673828125,7.3344482421875
7.321999999999996,6.420932006835938,0.1900604248046875,7.143939208984375
7.332000000000001,6.595440673828126,0.38580322265625,7.369589233398438
7.341999999999999,7.233511352539063,0.3895416259765625,6.792678833007813
7.351999999999997,7.352542114257813,0.1766021728515625,6.904830932617188
7.361999999999995,7.556060791015626,-0.006878662109375,6.237750244140625
7.372,6.590057373046876,0.0970489501953125,7.218557739257813
7.381999999999998,6.2841064453125,0.279931640625,7.331008911132813
7.391999999999996,6.506317138671876,0.1389190673828125,8.030538940429688
7.401999999999994,7.278372192382813,-0.304156494140625,6.916494750976563
7.411999999999999,7.296914672851563,-0.1662841796875,6.522018432617188
7.421999999999997,6.5754028320312505,0.35230712890625,6.5090087890625
7.431999999999995,6.926962280273438,0.575714111328125,7.356430053710938
7.442,7.272091674804688,0.0596649169921875,7.332205200195313
7.451999999999998,7.267904663085938,-0.3689056396484375,6.295321655273438
7.462999999999994,6.7697998046875005,-0.285015869140625,6.6262451171875005
7.472999999999999,6.600076293945313,-0.2047149658203125,6.984683227539063
7.482999999999997,7.089508056640626,-0.1894622802734375,8.102465820312501
7.492999999999995,6.966888427734376,-0.1607513427734375,6.935336303710938
7.503,6.653610229492188,0.213836669921875,6.363659667968751
7.512999999999998,6.856231689453126,0.5227783203125,6.676040649414063
7.522999999999996,7.243829345703125,0.5553771972656251,7.474713134765626
7.532999999999994,7.1454345703125,0.2902496337890625,7.241586303710938
7.542999999999999,6.578244018554688,0.069384765625,6.5679260253906255
7.552999999999997,6.602169799804688,-0.123516845703125,6.810174560546876
7.562999999999995,6.999038696289063,-0.400457763671875,7.485778808593751
7.573,7.266857910156251,-0.5688354492187501,7.321139526367188
7.582999999999998,7.080685424804688,-0.5163482666015625,6.320294189453126
7.592999999999996,6.859222412109376,-0.193499755859375,6.200216674804688
7.603999999999999,6.969729614257813,0.19080810546875,7.168911743164063
7.613999999999997,6.975711059570313,0.5274139404296876,7.778570556640625
7.623999999999995,6.704901123046875,0.637921142578125,7.2028564453125
7.634,6.636413574218751,0.4894317626953125,6.545944213867188
7.643999999999998,6.924569702148438,0.2726043701171875,6.911260986328125
7.653999999999996,7.115078735351563,0.0692352294921875,7.54140625
7.663999999999994,6.865802001953125,-0.2500244140625,7.007113647460938
7.673999999999999,6.837240600585938,-0.6660339355468751,6.24881591796875
7.683999999999997,7.348205566406251,-0.9893310546875,6.08731689453125
7.6939999999999955,7.565780639648438,-0.94566650390625,6.753051757812501
7.704000000000001,6.940869140625001,-0.500946044921875,7.243829345703125
7.713999999999999,6.534729003906251,0.2896514892578125,7.54320068359375
7.723999999999997,6.324331665039063,1.1539703369140626,7.94993896484375
7.733999999999995,6.346163940429688,1.5373809814453123,7.4681335449218755
7.744,7.007412719726563,1.5370819091796877,6.989468383789063
7.7549999999999955,7.438525390625,0.662445068359375,6.0415588378906255
7.765000000000001,7.641146850585938,-0.3500640869140625,6.178982543945313
7.774999999999999,7.052124023437501,-0.9655548095703126,6.976010131835938
7.784999999999997,6.363360595703125,-1.1711669921875,7.524807739257813
7.794999999999995,6.429156494140625,-1.14544677734375,7.780215454101563
7.805,6.949841308593751,-0.9194976806640626,7.118667602539063
7.815999999999995,7.127490234375,0.07357177734375,6.761126708984375
7.824999999999996,7.012945556640625,1.1787933349609376,6.534878540039063
7.835000000000001,7.039413452148438,1.73282470703125,6.885092163085938
7.844999999999999,7.101620483398438,1.3944244384765625,6.947897338867188
7.854999999999997,6.920980834960938,0.7020721435546875,7.071563720703126
7.864999999999995,6.543701171875001,-0.03409423828125,7.110443115234376
7.875,6.498242187500001,-0.8459259033203126,7.492657470703126
7.884999999999998,6.825726318359376,-1.3625732421875,7.447198486328125
7.896000000000001,7.181472778320313,-1.3583862304687502,6.951934814453126
7.905999999999999,7.063339233398438,-0.701025390625,6.256143188476563
7.915999999999997,7.246221923828125,0.0103179931640625,6.168963623046875
7.925999999999995,7.642791748046876,0.4892822265625,6.620114135742188
7.936,7.35,0.7280914306640626,6.654357910156251
7.945999999999998,6.52396240234375,0.8616271972656251,7.02879638671875
7.955999999999996,6.062344360351563,0.784765625,7.679428100585938
7.965999999999994,6.365155029296876,0.3647186279296875,8.4039306640625
7.975999999999999,6.880307006835938,-0.1052734375,7.645932006835938
7.985999999999997,6.982739257812501,-0.424383544921875,6.378463745117188
7.995999999999995,7.170108032226563,-0.447711181640625,6.028399658203125
8.006,7.403982543945313,-0.35111083984375,6.516635131835938
8.016999999999996,7.379458618164063,-0.2787353515625,7.097882080078126
8.025999999999996,6.992160034179688,-0.1918548583984375,6.617123413085938
8.036999999999999,6.736752319335938,-0.1543212890625,6.5831787109375
8.046999999999997,6.531439208984375,0.0707305908203125,7.2632690429687505
8.056999999999995,6.610693359375,0.2447906494140625,7.678231811523438
8.067,7.050030517578126,0.2429962158203125,7.334896850585938
8.076999999999998,7.103713989257813,-0.07476806640625,6.316107177734375
8.086999999999996,7.5997253417968755,-0.1063201904296875,6.562393188476563
8.096999999999994,6.787893676757813,0.3760833740234375,7.149920654296875
8.107,6.355435180664063,0.6168365478515625,7.609744262695313
8.116999999999997,6.492260742187501,0.4287200927734375,7.406076049804688
8.126999999999995,7.283157348632813,-0.1897613525390625,6.726882934570313
8.137,7.272988891601563,-0.1009368896484375,6.973916625976563
8.146999999999998,6.515438842773438,0.2059112548828125,6.782809448242188
8.156999999999996,6.811221313476563,0.2859130859375,7.515386962890625
8.166999999999994,7.075003051757813,-0.2452392578125,6.8176513671875005
8.177,7.3963562011718755,-0.512908935546875,6.510504150390625
8.187999999999995,7.040908813476563,-0.2899505615234375,6.450689697265625
8.198,6.70340576171875,-0.1882659912109375,6.969580078125
8.207999999999998,7.030441284179688,-0.0677398681640625,7.61796875
8.217999999999996,6.840679931640626,0.0073272705078125,7.115377807617188
8.227999999999994,6.471624755859375,0.4882354736328125,6.9447570800781255
8.238,6.635964965820313,0.7227081298828125,6.991412353515625
8.247999999999998,7.234707641601563,0.5594146728515625,7.392767333984375
8.257999999999996,7.237997436523438,0.1792938232421875,6.7626220703125
8.268999999999998,6.789089965820313,-0.066693115234375,6.559402465820313
8.277999999999999,6.679928588867188,-0.23028564453125,6.8191467285156255
8.287999999999997,6.963449096679688,-0.57960205078125,7.533181762695313
8.297999999999995,7.260128784179688,-0.735418701171875,7.099826049804688
8.308999999999997,7.038516235351563,-0.6670806884765625,6.25479736328125
8.318999999999996,6.953878784179688,-0.14833984375,6.421380615234376
8.329,6.9193359375000005,0.34453125,7.197622680664063
8.338999999999999,6.897354125976563,0.720166015625,7.894012451171876
8.348999999999997,6.663031005859375,0.8571411132812501,7.056610107421876
8.358999999999995,6.596188354492188,0.6703704833984375,6.723294067382813
8.369,6.8535400390625005,0.3467742919921875,6.8822509765625
8.378999999999998,7.203604125976563,-0.180340576171875,7.282708740234375
8.388999999999996,7.11851806640625,-0.6622955322265626,6.710882568359375
8.398999999999994,7.077993774414063,-1.125408935546875,6.062344360351563
8.408999999999999,7.269400024414063,-1.182681274414063,6.523663330078126
8.418999999999997,7.1062561035156255,-0.7271942138671875,7.240988159179688
8.428999999999995,6.653909301757813,0.273052978515625,8.028594970703125
8.439,6.178384399414063,1.1961395263671877,7.400991821289063
8.448999999999998,6.557308959960938,1.505230712890625,7.134967041015625
8.458999999999996,7.291082763671875,1.445864868164063,6.7937255859375005
8.469999999999999,7.289288330078126,0.7838684082031251,6.680526733398438
8.479999999999997,7.271792602539063,0.0348419189453125,6.52037353515625
8.489999999999995,6.741836547851563,-0.887646484375,6.815707397460938
8.5,6.777725219726563,-1.3808166503906252,7.512545776367188
8.509999999999998,6.761724853515625,-1.34283447265625,7.452581787109375
8.519999999999996,6.718658447265626,-0.8441314697265626,7.149172973632813
8.529999999999994,7.034030151367188,0.0753662109375,6.624749755859376
8.54,7.087564086914063,0.8885437011718751,6.769052124023438
8.549999999999997,7.129733276367188,1.6049713134765626,6.906475830078126
8.559999999999995,6.842474365234375,1.553530883789063,7.054217529296875
8.57,6.767108154296875,0.963909912109375,7.038067626953126
8.579999999999998,6.828567504882813,-0.0279632568359375,7.033282470703125
8.589999999999996,6.7473693847656255,-0.8510101318359375,7.410711669921875
8.599999999999994,6.761874389648438,-1.2451873779296876,7.145135498046876
8.610999999999997,6.8583251953125,-1.3346099853515625,7.12210693359375
8.620999999999995,7.304092407226563,-0.8857025146484375,6.395660400390626
8.631,7.318148803710938,-0.283221435546875,6.40074462890625
8.640999999999998,7.337139892578126,0.468048095703125,6.353790283203126
8.650999999999996,7.13048095703125,0.9166564941406252,6.763369750976563
8.660999999999994,6.699667358398438,1.0489959716796875,7.282260131835938
8.671,6.3047424316406255,0.8851043701171876,7.620062255859375
8.680999999999997,6.381604003906251,0.4607208251953125,7.982687377929688
8.690999999999995,6.684414672851563,-0.014056396484375,7.39127197265625
8.701,7.026702880859376,-0.5057312011718751,6.815408325195313
8.710999999999999,7.171752929687501,-0.6793426513671875,6.224142456054688
8.720999999999997,7.426861572265626,-0.672314453125,6.417343139648438
8.730999999999995,7.318746948242188,-0.447711181640625,6.707592773437501
8.741999999999997,6.847708129882813,-0.25540771484375,6.72972412109375
8.751999999999995,6.657498168945313,0.025421142578125,6.971524047851563
8.762,6.761425781250001,0.2462860107421875,7.079489135742188
8.771999999999998,7.064236450195313,0.264080810546875,7.319943237304688
8.781999999999996,7.2393432617187505,0.3098388671875,7.235305786132813
8.791999999999994,6.953430175781251,0.4320098876953125,6.948196411132813
8.802,6.227880859375,0.7562042236328126,6.985281372070313
8.811999999999998,6.491812133789063,0.54371337890625,7.560995483398438
8.821999999999996,7.557257080078125,-0.100787353515625,7.033282470703125
8.832,7.618865966796876,-0.6718658447265625,6.214422607421875
8.841999999999999,6.3825012207031255,-0.4406829833984375,6.758135986328125
8.851999999999997,6.3122192382812505,0.17884521484375,7.343869018554688
8.861999999999995,6.976907348632813,0.128302001953125,8.334246826171876
8.872,7.42117919921875,-0.2624359130859375,6.535775756835938
8.881999999999998,7.224838256835938,-0.17645263671875,5.77030029296875
8.893,6.99290771484375,0.2280426025390625,6.07415771484375
8.902999999999999,6.926214599609375,0.2364166259765625,7.801898193359375
8.912999999999997,7.10416259765625,-0.0465057373046875,7.965640258789063
8.922999999999995,6.538168334960938,-0.133685302734375,6.691293334960938
8.933,6.265115356445313,0.0509918212890625,6.61607666015625
8.942999999999998,6.942813110351563,0.307147216796875,7.367794799804688
8.952999999999996,7.437927246093751,0.2848663330078125,7.876217651367188
8.962999999999994,6.980795288085938,0.224603271484375,6.476260375976563
8.972999999999999,6.629684448242188,0.2029205322265625,5.9347900390625
8.982999999999997,6.919934082031251,0.0133087158203125,6.923373413085938
8.992999999999995,7.31590576171875,-0.282623291015625,7.802496337890625
9.003,7.103414916992188,-0.536834716796875,7.175640869140626
9.012999999999998,6.632376098632813,-0.547003173828125,5.891424560546875
9.023999999999994,6.7772766113281255,-0.3324188232421875,6.741238403320313
9.034,7.1346679687500005,0.136077880859375,7.8368896484375
9.043999999999995,6.922625732421875,0.551788330078125,7.63651123046875
9.053999999999997,6.568524169921876,0.7224090576171875,6.587515258789063
9.064,6.8669982910156255,0.5685363769531251,6.2242919921875
9.073999999999998,7.278521728515625,0.2836700439453125,7.209286499023438
9.083999999999996,7.013394165039063,-0.0399261474609375,7.377813720703125
9.093999999999994,6.754995727539063,-0.497357177734375,6.791931152343751
9.104,6.973318481445313,-1.0349395751953123,6.1190185546875
9.113999999999995,7.368542480468751,-1.205560302734375,6.830062866210938
9.123999999999995,7.185360717773438,-0.5160491943359375,7.528396606445313
9.134,6.457418823242188,0.5211334228515625,7.646978759765625
9.143999999999998,6.226385498046875,1.09998779296875,7.084124755859375
9.153999999999996,6.920980834960938,1.2771881103515623,6.938925170898438
9.163999999999994,7.296316528320313,1.140960693359375,7.117471313476563
9.174999999999995,7.248614501953125,0.7035675048828125,6.654656982421876
9.184999999999995,6.775033569335938,-0.039776611328125,6.786697387695313
9.195,6.803594970703125,-0.8227478027343751,6.7578369140625005
9.204999999999998,6.911560058593751,-1.212588500976563,7.590304565429688
9.215999999999994,6.893017578125001,-1.1435028076171876,7.159490966796875
9.224999999999994,6.796417236328126,-0.6074157714843751,7.010702514648438
9.235,6.946850585937501,0.1303955078125,6.492260742187501
9.244999999999996,7.126293945312501,0.9232360839843752,7.085470581054688
9.254999999999995,6.961953735351563,1.36077880859375,7.029843139648438
9.265,6.766360473632813,1.3224975585937502,7.066629028320313
9.275,6.781613159179688,0.7627838134765625,6.964346313476563
9.284999999999997,6.81107177734375,-0.037982177734375,7.151864624023438
9.294999999999996,6.858474731445313,-0.7183715820312501,7.334597778320313
9.305,6.805239868164063,-1.11195068359375,7.106854248046876
9.315999999999995,6.915896606445313,-1.1325866699218752,6.773388671875001
9.326,7.25010986328125,-0.8231964111328126,6.537869262695313
9.336,7.367645263671876,-0.2619873046875,6.519625854492188
9.345999999999997,7.315457153320313,0.29368896484375,6.4491943359375
9.355999999999996,6.981842041015626,0.7499237060546875,6.75963134765625
9.366,6.555514526367188,0.9191986083984376,7.209884643554688
9.375999999999998,6.417193603515625,0.8599822998046875,7.984182739257813
9.386000000000005,6.558804321289063,0.527862548828125,7.696624755859376
9.395999999999994,6.702059936523438,0.074169921875,7.298410034179688
9.406,7.027899169921875,-0.3623260498046875,6.424819946289063
9.416000000000004,7.307681274414063,-0.5580688476562501,6.581832885742188
9.425999999999997,7.216613769531251,-0.6078643798828125,6.612786865234376
9.436,7.067077636718751,-0.5075256347656251,6.890625000000001
9.44599999999999,6.814511108398438,-0.3360076904296875,6.663778686523438
9.455999999999996,6.922625732421875,-0.1012359619140625,6.856829833984375
9.466999999999992,7.096087646484375,0.081048583984375,6.9791503906250005
9.476999999999997,7.223941040039063,0.1957427978515625,7.07724609375
9.487000000000002,6.9312988281250005,0.40015869140625,7.260876464843751
9.496999999999993,6.222348022460938,0.7494750976562501,7.278970336914063
9.506999999999998,6.3989501953125005,0.8809173583984375,7.723690795898438
9.517000000000005,7.081283569335938,0.4053924560546875,7.096536254882813
9.526999999999994,7.657147216796876,-0.2729034423828125,6.486727905273438
9.537,7.055862426757813,-0.4015045166015625,6.143841552734376
9.547000000000004,6.464596557617188,-0.1589569091796875,7.038067626953126
9.556999999999997,6.816754150390626,-0.0949554443359375,8.070465087890625
9.567,7.03238525390625,-0.4364959716796875,7.3224853515625
9.576999999999993,7.108050537109375,-0.3668121337890625,6.243881225585938
9.586999999999996,6.966140747070313,0.027813720703125,6.106457519531251
9.597,7.197772216796875,0.2023223876953125,7.063339233398438
9.606999999999992,7.279867553710938,0.1320404052734375,7.330261230468751
9.618000000000002,6.793576049804688,0.0811981201171875,6.905877685546876
9.627999999999991,6.370986938476563,0.2400054931640625,6.630282592773438
9.637999999999998,6.5173828125,0.32957763671875,7.591949462890626
9.648000000000003,7.051226806640625,0.31043701171875,7.934536743164063
9.657999999999994,6.97197265625,0.162994384765625,7.043002319335938
9.668,6.700714111328126,0.1706207275390625,6.165524291992188
9.678000000000004,6.920083618164063,0.0384307861328125,6.578842163085938
9.687999999999995,7.431796264648438,-0.26019287109375,7.395458984375001
9.698,7.361514282226563,-0.5299560546875001,6.815856933593751
9.707999999999991,6.916345214843751,-0.7161285400390626,6.133822631835938
9.717999999999996,6.783856201171876,-0.5342926025390625,6.555065917968751
9.728000000000002,6.866250610351563,-0.118133544921875,7.768402099609376
9.738999999999995,6.718359375,0.4514495849609375,8.01513671875
9.749000000000002,6.4782043457031255,0.7926910400390625,7.035824584960938
9.758999999999991,6.752752685546875,0.9093292236328124,6.506317138671876
9.768999999999998,7.17294921875,0.7189697265625,6.751406860351563
9.779000000000003,7.182220458984376,0.29967041015625,7.244427490234376
9.788999999999994,7.101022338867188,-0.403448486328125,6.447549438476563
9.799,7.081134033203125,-1.2297851562500002,6.100924682617188
9.80899999999999,7.196875,-1.5843353271484375,6.676937866210938
9.818999999999996,6.943859863281251,-1.1752044677734377,7.671353149414063
9.829,6.596936035156251,0.0647491455078125,8.231515502929689
9.838999999999992,6.121261596679688,1.024322509765625,7.212875366210938
9.848999999999997,6.748864746093751,1.612896728515625,6.756491088867188
9.859000000000002,7.467086791992188,1.7111419677734376,6.633871459960938
9.868999999999993,7.495050048828125,1.2193176269531252,6.740341186523438
9.878999999999998,6.989617919921876,0.41571044921875,6.691143798828126
9.889999999999992,6.470278930664063,-0.6836791992187501,6.9387756347656255
9.9,6.629833984375001,-1.3887420654296876,7.751953125000001
9.910000000000004,6.883746337890625,-1.6754028320312502,7.515835571289063
9.919999999999996,7.006665039062501,-1.2327758789062502,7.083676147460938
9.93,6.910662841796875,-0.2815765380859375,6.1013732910156255
9.93999999999999,7.227679443359375,0.76502685546875,6.724041748046876
9.949999999999996,7.296615600585938,1.5245208740234375,6.928906250000001
9.96,6.825576782226563,1.6224670410156252,7.186257934570313
9.969999999999992,6.620712280273438,1.2541595458984376,6.942364501953126
9.979999999999997,6.540560913085938,0.331671142578125,7.268203735351563
9.990000000000002,6.752154541015625,-0.5172454833984376,7.7432800292968755
9.999999999999991,6.807632446289063,-1.1103057861328125,7.36973876953125
10.009999999999998,6.88284912109375,-1.3064971923828126,6.74168701171875
10.020999999999994,7.195529174804688,-1.0705291748046877,6.1345703125
10.031,7.553219604492188,-0.588873291015625,6.49644775390625
10.041000000000004,7.601968383789063,0.1284515380859375,6.422427368164063
10.050999999999997,7.015786743164063,0.5902191162109376,6.513644409179688
10.061,6.644937133789063,0.907086181640625,6.960757446289063
10.07099999999999,6.394314575195313,0.9233856201171876,7.917041015625
10.080999999999996,6.377716064453126,0.754559326171875,8.239889526367188
10.091,6.48209228515625,0.4077850341796875,7.487872314453125
10.100999999999992,6.875671386718751,-0.1825836181640625,6.5448974609375
10.110999999999995,7.428656005859375,-0.4918243408203125,6.386239624023438
10.121000000000002,7.438375854492188,-0.6675292968750001,6.507363891601563
10.130999999999991,7.255194091796875,-0.5395263671875,6.78953857421875
10.140999999999998,6.871932983398438,-0.4792633056640625,6.570019531250001
10.151000000000003,6.649423217773438,-0.269464111328125,6.995599365234376
10.160999999999994,6.818997192382813,0.03529052734375,6.945654296875
10.172000000000004,6.948794555664063,0.204266357421875,7.434487915039063
10.181999999999997,7.186557006835938,0.2409027099609375,6.830661010742188
10.192,7.207043457031251,0.2920440673828125,7.163827514648438
10.201999999999993,6.4970458984375,0.6407623291015625,6.848904418945313
10.211999999999996,6.5173828125,0.7792327880859375,7.489666748046876
10.222,6.635665893554688,0.3240447998046875,7.483087158203125
10.232999999999995,7.676437377929688,-0.2687164306640625,6.448745727539063
10.241999999999996,6.962402343750001,-0.362176513671875,6.94864501953125
10.252000000000002,6.363211059570313,-0.0234771728515625,6.5365234375000005
10.261999999999992,6.9223266601562505,0.1562652587890625,8.259628295898438
10.271999999999998,6.971075439453125,-0.1996307373046875,6.778323364257813
10.282000000000004,7.3230834960937505,-0.281427001953125,6.613235473632813
10.291999999999994,7.087115478515625,-0.0979461669921875,5.935687255859375
10.302,6.973019409179688,-0.0629547119140625,6.957916259765626
10.31199999999999,7.268353271484376,-0.1990325927734375,7.462002563476563
10.323,6.808679199218751,-0.14176025390625,7.075601196289063
10.332999999999991,6.293228149414063,0.1664337158203125,6.875521850585938
10.342999999999996,6.580487060546876,0.4966094970703125,7.290335083007813
10.353000000000002,7.153509521484375,0.6150421142578125,7.831057739257813
10.362999999999992,6.9985900878906255,0.49466552734375,6.828118896484376
10.372999999999998,6.738098144531251,0.40972900390625,6.38280029296875
10.383000000000004,6.905578613281251,0.0794036865234375,6.653460693359375
10.392999999999994,7.202706909179688,-0.3856536865234375,7.404431152343751
10.403,7.318447875976563,-0.8169158935546875,6.9516357421875
10.413000000000004,7.000085449218751,-1.0039855957031252,6.236404418945313
10.422999999999996,6.898849487304688,-0.7544097900390625,6.3654541015625
10.43399999999999,6.932345581054688,-0.17047119140625,7.553967285156251
10.44299999999999,6.809426879882813,0.48629150390625,7.722793579101563
10.454,6.650619506835938,0.9462646484375,7.125546264648438
10.463999999999992,6.639404296875001,1.0974456787109377,6.560150146484376
10.473999999999997,6.9791503906250005,0.9561340332031252,7.095938110351563
10.484000000000002,7.012048339843751,0.4821044921875,7.325625610351563
10.493999999999993,6.982888793945313,-0.369952392578125,6.6815734863281255
10.503999999999998,7.2408386230468755,-1.1580078125000002,5.938079833984375
10.514000000000005,7.2513061523437505,-1.8403411865234376,6.499288940429688
10.523999999999994,7.263568115234375,-1.5119598388671875,7.323980712890625
10.534,6.704751586914063,-0.11962890625,8.173345947265625
10.544000000000004,5.612539672851563,0.9491058349609376,7.411010742187501
10.553999999999997,6.993206787109376,1.600335693359375,6.993356323242188
10.564,7.389178466796875,1.809686279296875,6.862362670898438
10.573999999999993,7.426412963867188,1.4563323974609377,6.287844848632813
10.583999999999996,6.793875122070313,0.8010650634765626,6.970477294921875
10.594,6.7506591796875,-0.5055816650390625,6.656750488281251
10.603999999999992,6.753051757812501,-1.475323486328125,8.089157104492188
10.615000000000002,6.872531127929688,-1.8454254150390623,7.015637207031251
10.624999999999991,6.735556030273438,-1.3343109130859376,7.395758056640625
10.634999999999998,6.758285522460938,-0.5236755371093751,6.150271606445313
10.645000000000003,7.480245971679688,0.5558258056640626,7.087564086914063
10.654999999999994,7.424169921875,1.4286682128906252,6.71776123046875
10.665,6.6525634765625,1.7649749755859376,6.587664794921875
10.675000000000004,6.853839111328125,1.476220703125,7.019674682617188
10.684999999999995,6.770697021484375,0.4200469970703125,7.308428955078125
10.695,6.6166748046875,-0.488385009765625,7.931396484375001
10.704999999999991,6.562841796875,-1.1177825927734375,7.035824584960938
10.714999999999996,6.748565673828126,-1.361077880859375,7.1908935546875
10.725,7.259231567382813,-1.2517669677734375,6.282012939453126
10.734999999999992,7.657296752929688,-0.6437530517578125,6.73271484375
10.744999999999996,7.480545043945313,0.1060211181640625,5.70689697265625
10.755999999999991,7.109695434570313,0.6974365234375001,6.653311157226563
10.765999999999998,6.815707397460938,1.0277618408203126,6.984832763671876
10.776000000000003,6.360220336914063,1.0276123046875,8.209384155273439
10.785999999999994,6.223394775390625,0.8079437255859375,7.917340087890626
10.796,6.406127929687501,0.293389892578125,7.485629272460938
10.80599999999999,6.9926086425781255,-0.2486785888671875,6.81346435546875
10.815999999999995,7.313961791992188,-0.6006866455078126,6.421081542968751
10.826,7.351196289062501,-0.6612487792968751,6.515887451171875
10.835999999999991,6.984683227539063,-0.6228179931640625,6.339733886718751
10.845999999999997,7.246969604492188,-0.5929107666015625,6.622805786132813
10.856000000000002,7.328765869140626,-0.4897308349609375,6.586767578125
10.865999999999993,7.352243041992188,-0.2358184814453125,7.035675048828126
10.875999999999998,6.335696411132813,0.366961669921875,7.618417358398438
10.886000000000005,5.99759521484375,0.9730316162109376,7.549032592773438
10.896999999999998,6.437680053710938,1.2897491455078125,8.314358520507813
10.907000000000004,7.072311401367188,0.759344482421875,6.798361206054688
10.916999999999994,7.891918945312501,0.2779876708984375,6.098681640625
10.927,6.970028686523438,-0.021234130859375,6.043203735351563
10.93699999999999,6.772491455078126,-0.212640380859375,6.866549682617188
10.946999999999996,6.9253173828125005,-0.5658447265625001,8.403033447265626
10.957,6.581832885742188,-0.9440216064453124,6.978103637695313
10.966999999999992,6.780416870117188,-0.5453582763671876,7.162780761718751
10.976999999999997,6.875820922851563,-0.073272705078125,6.219207763671876
10.987000000000002,7.375869750976563,0.3087921142578125,7.204351806640625
10.996999999999993,7.681072998046876,0.292791748046875,6.369940185546875
11.006999999999998,7.078292846679688,0.2830718994140625,6.213824462890625
11.017999999999994,6.611441040039063,0.303558349609375,6.594692993164063
11.028,6.405978393554688,0.2519683837890625,8.100222778320314
11.038000000000004,6.692190551757813,0.15611572265625,8.339630126953125
11.047999999999996,6.478054809570313,0.049945068359375,7.298858642578126
11.058,6.583328247070313,0.19798583984375,6.423773193359375
11.06799999999999,7.1765380859375005,0.1969390869140625,6.66392822265625
11.077999999999996,7.509704589843751,0.06519775390625,7.1526123046875005
11.088,7.523461914062499,-0.2400054931640625,6.273788452148438
11.097999999999992,7.088162231445313,-0.6160888671875,6.0448486328125
11.107999999999995,7.022067260742188,-0.7763916015625001,6.302798461914063
11.118000000000002,6.931448364257813,-0.6014343261718751,7.956069946289063
11.127999999999991,6.424072265625001,-0.12022705078125,7.824627685546876
11.137999999999998,6.363510131835938,0.427972412109375,7.515087890625001
11.148000000000003,6.5209716796875,0.8735900878906251,6.734509277343751
11.157999999999994,7.159790039062501,1.035986328125,6.977804565429688
11.168,7.355981445312499,0.7995697021484376,6.674395751953125
11.178999999999997,7.534976196289063,0.091217041015625,5.918490600585938
11.189,7.1705566406250005,-0.922039794921875,6.1919921875
11.198999999999993,6.923373413085938,-1.5962982177734375,7.008160400390626
11.208999999999996,6.911111450195313,-0.8842071533203125,8.748760986328126
11.219,5.4962005615234375,-0.0327484130859375,7.972817993164063
11.228999999999992,6.401940917968751,0.5363861083984376,7.039712524414063
11.238999999999995,7.687652587890626,0.9592742919921876,6.303546142578125
11.249000000000002,7.916741943359375,1.1758026123046876,6.0831298828125
11.258999999999991,7.222296142578125,1.3544982910156251,6.685311889648438
11.268999999999998,6.4216796875,0.701324462890625,6.761724853515625
11.279000000000003,6.462353515625001,-0.348419189453125,8.001977539062501
11.288999999999994,6.618170166015625,-1.1728118896484376,7.6849609375
11.299,6.802548217773438,-1.230532836914063,7.696624755859376
11.30899999999999,6.615628051757813,-0.808392333984375,6.414801025390625
11.318999999999996,7.296017456054688,-0.2531646728515625,6.47850341796875
11.329999999999991,7.771841430664063,0.41331787109375,6.611889648437501
11.339999999999996,7.074703979492188,0.9224884033203126,6.476260375976563
11.35,6.731219482421875,1.2188690185546875,6.842474365234375
11.359999999999992,6.708041381835938,0.7481292724609375,7.213323974609375
11.369999999999996,6.5724121093750005,0.113348388671875,7.912255859375
11.380000000000004,6.609945678710938,-0.2956329345703125,7.476806640625001
11.389999999999992,6.548635864257813,-0.5555267333984375,7.188201904296876
11.4,6.965243530273438,-0.7213623046875001,6.519476318359375
11.410000000000004,7.63890380859375,-0.6836791992187501,6.563140869140626
11.419999999999996,7.5892578125,-0.38819580078125,6.166271972656251
11.43,7.122256469726563,-0.0043365478515625,6.215469360351563
11.43999999999999,6.848754882812501,0.289501953125,6.971673583984376
11.451,6.752005004882813,0.4029998779296875,7.616772460937501
11.460999999999991,6.432595825195313,0.526068115234375,7.934088134765625
11.470999999999997,6.384594726562501,0.56165771484375,7.398748779296875
11.481000000000002,6.721649169921876,0.36307373046875,7.070816040039063
11.490999999999993,7.228128051757813,0.0955535888671875,6.779220581054688
11.500999999999998,7.338784790039063,-0.16807861328125,6.525607299804688
11.511000000000005,7.220950317382813,-0.3384002685546875,6.444558715820313
11.520999999999994,6.71776123046875,-0.5552276611328125,6.631329345703126
11.531,6.9133544921875005,-0.5455078125,7.102816772460938
11.541000000000004,7.020721435546876,-0.50184326171875,7.220053100585938
11.550999999999997,7.089358520507813,-0.3437835693359375,6.932345581054688
11.561,7.452282714843751,0.0109161376953125,6.804940795898438
11.57099999999999,6.325677490234376,0.5860321044921876,6.983935546875
11.580999999999996,6.4408203125000005,1.188662719726563,7.566378784179688
11.591,6.6023193359375005,1.0253692626953126,7.790383911132813
11.600999999999992,7.448394775390626,0.2705108642578125,6.602767944335938
11.612000000000002,7.321139526367188,-0.07955322265625,6.507064819335938
11.621999999999993,6.373977661132813,-0.052337646484375,6.609945678710938
11.633000000000004,6.781463623046876,-0.0346923828125,7.976257324218751
11.642000000000005,7.021469116210938,-0.681585693359375,7.370785522460938
11.651999999999994,7.360617065429688,-0.81287841796875,6.471774291992188
11.662,6.817501831054688,-0.3386993408203125,6.22489013671875
11.672000000000004,6.9073730468750005,0.13876953125,6.791482543945313
11.681999999999997,7.374374389648438,0.1987335205078125,7.522564697265626
11.692,7.204351806640625,0.10706787109375,6.821240234375001
11.701999999999993,6.580935668945313,0.3437835693359375,6.368295288085938
11.711999999999996,6.311322021484376,0.5872283935546876,7.287792968750001
11.722,6.862960815429688,0.5417694091796875,8.153607177734376
11.732999999999995,7.031338500976563,0.1906585693359375,7.610491943359375
11.741999999999996,6.638656616210938,0.056524658203125,6.288891601562501
11.752999999999991,6.8012023925781255,-0.0396270751953125,6.291583251953125
11.762999999999998,7.286148071289063,-0.2585479736328125,7.270596313476563
11.773000000000003,7.526153564453126,-0.5492462158203125,7.099078369140625
11.782999999999994,7.129434204101563,-0.73870849609375,6.357528686523438
11.793,6.8550354003906255,-0.63343505859375,5.783609008789063
11.803000000000004,6.901989746093751,-0.2459869384765625,7.415347290039063
11.812999999999995,6.863110351562501,0.2618377685546875,8.063287353515626
11.823,6.540710449218751,0.6998291015625,7.648922729492188
11.832999999999991,6.426614379882813,0.9281707763671876,6.507662963867188
11.842999999999996,6.875521850585938,0.8833099365234376,6.908270263671875
11.853000000000002,7.233212280273438,0.65496826171875,7.365402221679688
11.862999999999992,7.086367797851563,0.032598876953125,6.801950073242188
11.872999999999998,6.976757812500001,-0.896917724609375,5.869293212890625
11.883000000000004,7.805038452148438,-1.5589141845703127,5.910714721679688
11.892999999999994,6.8849426269531255,-1.825985717773437,7.247119140625
11.904000000000003,6.999038696289063,-0.9799102783203124,7.80997314453125
11.913999999999994,6.319546508789063,0.6625946044921875,8.438174438476564
11.924,5.618521118164063,1.4793609619140626,6.8583251953125
11.93399999999999,7.365701293945313,2.0158966064453128,7.002627563476563
11.943999999999996,7.626342773437501,1.856640625,6.468783569335938
11.954,7.390823364257813,1.1355773925781252,6.472671508789063
11.963999999999992,6.6112915039062505,0.1040771484375,6.722396850585938
11.973999999999997,6.624749755859376,-1.1870178222656251,7.12210693359375
11.984000000000002,6.694882202148438,-1.919894409179688,8.326321411132813
11.993999999999993,6.952682495117188,-2.0111114501953127,7.011749267578126
12.003999999999998,6.83499755859375,-1.0795013427734377,6.941915893554688
12.014000000000005,6.899746704101563,-0.016748046875,5.836245727539063
12.023999999999994,7.581930541992188,1.2206634521484376,7.167864990234375
12.035000000000004,7.35538330078125,1.8886413574218752,6.864007568359376
12.044999999999996,6.410165405273438,1.926324462890625,6.905130004882813
12.055,6.578094482421876,1.3455261230468751,7.102517700195313
12.06499999999999,6.618319702148438,0.10048828125,7.762570190429688
12.074999999999996,6.695629882812501,-0.8545989990234376,7.872030639648438
12.085,6.740939331054688,-1.447509765625,6.874624633789063
12.094999999999992,6.981692504882813,-1.5382781982421876,6.5353271484375
12.104999999999997,7.467086791992188,-1.2075042724609375,6.170907592773438
12.115000000000002,7.764813232421876,-0.4916748046875,6.684713745117188
12.124999999999991,7.413104248046875,0.3159698486328125,6.037222290039063
12.134999999999998,6.890774536132813,0.8662628173828125,6.583627319335938
12.145000000000003,6.568524169921876,1.2070556640625,7.306036376953125
12.154999999999994,6.186160278320313,1.12451171875,8.401837158203126
12.165,6.3295654296875,0.8326171875,8.090353393554688
12.175000000000004,6.524411010742188,0.2190704345703125,7.234109497070313
12.186,7.273287963867188,-0.4523468017578125,6.327471923828125
12.19599999999999,7.365551757812501,-0.7008758544921876,6.389678955078126
12.205999999999996,7.335794067382813,-0.7804290771484376,6.613833618164063
12.216,7.047787475585938,-0.646893310546875,6.751107788085938
12.225999999999992,6.881802368164063,-0.6412109375,6.4874755859375
12.235999999999995,7.099526977539063,-0.3647186279296875,6.6397033691406255
12.246000000000002,7.087115478515625,-0.0055328369140625,6.925616455078125
12.255999999999991,6.847409057617188,0.322998046875,7.458114624023438
12.265999999999998,7.126593017578125,0.6380706787109376,7.444357299804688
12.276000000000003,6.365902709960938,0.9292175292968752,7.547088623046876
12.285999999999994,6.2254882812500005,1.2137847900390626,6.99051513671875
12.296,6.662731933593751,0.760540771484375,7.4636474609375005
12.30599999999999,7.826721191406251,-0.21533203125,6.455474853515626
12.317,7.61258544921875,-0.7705596923828125,6.451885986328126
12.326999999999993,6.075802612304688,-0.5935089111328126,6.722695922851563
12.336999999999996,6.627291870117188,-0.1804901123046875,7.675689697265626
12.347,6.894064331054688,-0.48330078125,8.057754516601562
12.356999999999992,7.533630371093751,-0.489581298828125,6.223095703125001
12.366999999999996,7.049133300781251,0.0097198486328125,6.0783447265625
12.377000000000002,6.9157470703125,0.50662841796875,6.118121337890625
12.386999999999992,7.244876098632813,0.4583282470703125,7.857525634765626
12.396999999999998,7.108648681640625,0.186920166015625,7.516433715820313
12.407000000000004,6.317453002929688,0.2095001220703125,6.592599487304688
12.416999999999994,6.132476806640626,0.3016143798828125,7.23814697265625
12.427,6.961953735351563,0.30924072265625,7.750906372070313
12.43699999999999,7.280166625976563,0.0107666015625,7.75972900390625
12.446999999999996,6.923373413085938,-0.006878662109375,5.970977783203125
12.457999999999991,6.84097900390625,-0.0179443359375,5.995202636718751
12.467999999999996,7.332803344726563,-0.3046051025390625,6.87926025390625
12.478000000000002,7.550527954101563,-0.552984619140625,7.446600341796875
12.487999999999992,7.0210205078125005,-0.67291259765625,6.724490356445313
12.497999999999998,6.481643676757813,-0.4738800048828125,6.05980224609375
12.508000000000004,6.632077026367188,-0.053533935546875,7.508059692382813
12.517999999999994,6.983337402343751,0.494964599609375,8.183364868164062
12.528,6.657348632812501,0.91575927734375,7.564883422851563
12.538000000000004,6.564785766601563,1.012210083007813,6.190347290039063
12.547999999999996,7.061993408203126,0.7285400390625001,6.548037719726563
12.558,7.450637817382813,0.2749969482421875,7.204949951171876
12.568999999999996,6.966888427734376,-0.2743988037109375,7.1182189941406255
12.577999999999996,6.626843261718751,-1.031201171875,6.245675659179688
12.588,7.350897216796875,-1.52108154296875,6.261227416992188
12.598999999999997,7.434039306640625,-1.6718139648437502,6.917391967773438
12.609000000000002,7.120611572265625,-0.8429351806640626,7.485031127929688
12.618999999999993,6.494503784179688,0.725250244140625,7.701260375976563
12.628999999999998,5.66741943359375,1.6471405029296875,7.3245788574218755
12.639000000000005,7.051226806640625,2.022027587890625,7.281063842773438
12.65,7.35,1.693048095703125,7.004272460937501
12.659,7.3703369140625,0.80869140625,6.151467895507813
12.669000000000004,6.9396728515625,-0.11962890625,6.680377197265625
12.678999999999997,6.651068115234375,-1.1940460205078125,7.066629028320313
12.689,6.81107177734375,-1.7694610595703126,7.906274414062499
12.698999999999993,6.950888061523438,-1.8171630859375,7.093695068359375
12.708999999999996,6.8296142578125005,-1.06290283203125,6.741836547851563
12.719,6.98453369140625,0.1365264892578125,6.481793212890626
12.728999999999992,7.247418212890626,1.355096435546875,7.124050903320313
12.738999999999995,7.062591552734376,1.9127166748046875,6.951336669921876
12.749999999999991,6.692190551757813,1.7373107910156251,6.84337158203125
12.759999999999998,6.775033569335938,1.1512786865234377,7.083975219726563
12.770000000000003,6.626843261718751,0.1096099853515625,7.545892333984375
12.779999999999994,6.650021362304688,-0.8359069824218751,7.664923095703125
12.79,6.839035034179688,-1.4974548339843752,7.003823852539063
12.800000000000004,6.945654296875,-1.5548767089843751,6.632974243164063
12.809999999999995,7.3006530761718755,-1.111053466796875,6.378164672851563
12.82,7.677035522460938,-0.3576904296875,6.600524902343751
12.829999999999991,7.496096801757813,0.260791015625,5.988473510742188
12.839999999999996,7.131228637695313,0.7659240722656251,6.432296752929688
12.85,6.5927490234375,1.1028289794921875,7.14842529296875
12.859999999999992,6.139505004882813,1.0787536621093752,8.447146606445314
12.869999999999996,6.143692016601563,0.77698974609375,8.230169677734375
12.880000000000004,6.522616577148438,0.1933502197265625,7.478152465820313
12.890999999999998,7.007263183593751,-0.294586181640625,6.54429931640625
12.901000000000003,7.4546752929687505,-0.50543212890625,6.225189208984376
12.910999999999994,7.390524291992188,-0.5935089111328126,6.524859619140625
12.921,7.287344360351563,-0.6223693847656251,6.463848876953126
12.93099999999999,6.941467285156251,-0.5791534423828125,6.758435058593751
12.940999999999995,6.817501831054688,-0.4272247314453125,6.530392456054688
12.951,6.917391967773438,-0.110357666015625,7.45108642578125
12.960999999999991,6.943112182617188,0.15611572265625,7.155303955078126
12.970999999999997,7.173846435546875,0.375335693359375,7.32607421875
12.981000000000002,6.501232910156251,0.7352691650390626,6.906475830078126
12.990999999999993,6.371734619140626,1.0477996826171876,7.282708740234375
13.000999999999998,6.781314086914063,0.8629730224609375,7.770944213867188
13.011000000000005,7.376467895507813,0.0586181640625,6.614880371093751
13.020999999999994,7.463348388671876,-0.42169189453125,6.503475952148438
13.032000000000004,6.478652954101563,-0.4442718505859375,6.471176147460938
13.041999999999994,6.696975708007813,-0.2364166259765625,7.672998046875
13.052,6.908120727539063,-0.4215423583984375,7.811019897460938
13.06199999999999,7.176837158203125,-0.512908935546875,6.618319702148438
13.071999999999996,7.043002319335938,-0.073870849609375,6.166421508789063
13.082,6.983187866210938,0.318511962890625,6.411810302734375
13.091999999999992,7.219903564453125,0.4335052490234375,7.565481567382813
13.101999999999997,7.109396362304688,0.2540618896484375,7.138107299804688
13.112000000000002,6.540411376953125,0.218621826171875,6.6950317382812505
13.121999999999993,6.334350585937501,0.2570526123046875,7.047039794921876
13.131999999999998,6.818099975585938,0.2696136474609375,7.890423583984376
13.142000000000005,7.103414916992188,0.00478515625,7.537069702148438
13.151999999999994,6.880606079101563,-0.1257598876953125,6.343621826171876
13.162,6.920083618164063,-0.0970489501953125,6.16148681640625
13.172999999999996,7.214370727539063,-0.203668212890625,6.932196044921875
13.183,7.379608154296876,-0.3138763427734375,7.348654174804688
13.19299999999999,7.046591186523438,-0.468048095703125,6.623852539062501
13.202999999999996,6.797015380859375,-0.4122711181640625,6.180029296875
13.213,6.775332641601563,-0.09271240234375,7.153359985351563
13.222999999999992,6.814810180664063,0.329876708984375,8.092147827148438
13.232999999999995,6.545346069335938,0.69803466796875,7.655352783203125
13.243000000000002,6.608450317382813,0.7666717529296876,6.657498168945313
13.252999999999991,7.019973754882813,0.6282012939453125,6.548785400390625
13.262999999999998,7.328317260742188,0.294586181640625,6.934439086914063
13.273000000000003,7.231268310546875,-0.0669921875,7.083078002929688
13.282999999999994,6.721798706054688,-0.7418487548828125,6.284555053710938
13.293,7.102816772460938,-1.262384033203125,6.316256713867188
13.303000000000004,7.523013305664063,-1.364666748046875,6.73271484375
13.312999999999995,6.752453613281251,-1.053631591796875,7.486526489257813
13.323999999999993,6.953878784179688,0.2237060546875,7.59404296875
13.333999999999996,6.0390167236328125,1.4527435302734375,7.873226928710938
13.344,6.303845214843751,1.9770172119140623,6.906924438476563
13.353999999999992,7.411010742187501,1.909426879882813,7.121209716796876
13.363999999999995,7.474862670898438,0.8882446289062501,6.160739135742188
13.374000000000002,7.410562133789063,-0.0916656494140625,6.5185791015625005
13.383999999999991,6.442016601562501,-0.9374420166015626,7.068572998046876
13.393999999999998,6.523214721679688,-1.4780151367187502,7.627090454101563
13.404000000000003,6.796566772460938,-1.7823211669921877,7.766009521484375
13.413999999999994,7.244427490234376,-1.3364044189453126,6.614431762695313
13.424,6.9567199707031255,-0.0435150146484375,6.491213989257813
13.43399999999999,6.891671752929688,1.1764007568359376,6.520822143554688
13.443999999999996,7.365103149414063,1.8693511962890623,7.313214111328126
13.454999999999991,6.934439086914063,1.6393646240234376,7.065283203125
13.463999999999992,6.490017700195313,1.215130615234375,6.94864501953125
13.475,6.555813598632813,0.3108856201171875,7.192388916015625
13.484999999999992,6.728976440429688,-0.7375122070312501,7.790084838867188
13.494999999999996,6.971673583984376,-1.477716064453125,7.2617736816406255
13.505000000000004,7.0150390625000005,-1.5316986083984376,6.695480346679688
13.514999999999992,6.969131469726563,-1.0358367919921876,6.070568847656251
13.525,7.45946044921875,-0.3624755859375,6.64598388671875
13.535000000000004,7.681820678710938,0.3150726318359375,6.628338623046876
13.544999999999996,7.1825195312500005,0.7439422607421875,6.312518310546875
13.555,6.565533447265626,1.0848846435546875,6.850250244140626
13.56499999999999,6.284555053710938,1.035986328125,7.802047729492188
13.574999999999996,6.208740234375001,0.6984832763671875,8.719003295898439
13.585,6.582730102539063,0.122320556640625,7.585818481445313
13.594999999999992,6.925765991210938,-0.413018798828125,6.452484130859376
13.606000000000002,7.4157958984375005,-0.6899597167968751,5.908621215820313
13.615999999999993,7.518826293945313,-0.730633544921875,6.589907836914063
13.625999999999998,7.353738403320313,-0.4792633056640625,6.839334106445313
13.636000000000005,6.560000610351563,-0.31881103515625,6.7069946289062505
13.645999999999994,6.710433959960938,-0.180340576171875,6.724041748046876
13.656,7.223941040039063,-0.0058319091796875,7.240539550781251
13.666000000000004,7.174594116210938,0.3001190185546875,7.341625976562501
13.675999999999997,7.013543701171876,0.5082733154296876,7.080984497070313
13.686,6.243582153320313,0.6844268798828126,6.856231689453126
13.69599999999999,6.479849243164063,0.7692138671875001,7.371084594726563
13.705999999999996,6.944458007812501,0.417205810546875,7.873974609375001
13.716,7.554266357421875,-0.2732025146484375,6.414651489257813
13.725999999999992,7.198519897460938,-0.4975067138671875,6.437530517578126
13.735999999999995,6.283657836914063,-0.2495758056640625,6.456222534179688
13.746000000000002,6.916345214843751,0.0665435791015625,8.13297119140625
13.756999999999998,7.171603393554688,-0.2103973388671875,7.561892700195313
13.767000000000005,7.117321777343751,-0.3315216064453125,6.123355102539063
13.776999999999994,6.843222045898438,0.09989013671875,6.228628540039063
13.787,6.9301025390625,0.395074462890625,6.854885864257813
13.797000000000004,7.239193725585938,0.2178741455078125,7.954724121093751
13.806999999999997,7.10416259765625,-0.054132080078125,6.794772338867188
13.817,6.5140930175781255,-0.0758148193359375,6.236105346679688
13.826999999999993,6.529644775390626,0.152825927734375,7.114031982421875
13.836999999999996,7.034628295898438,0.2905487060546875,8.127288818359375
13.847,6.979449462890625,0.1428070068359375,7.545593261718751
13.856999999999992,6.717013549804688,0.0910675048828125,5.947201538085938
13.866999999999996,6.894064331054688,0.1170867919921875,6.463848876953126
13.877999999999991,7.286297607421876,-0.0459075927734375,7.168463134765625
13.887999999999998,7.281512451171875,-0.284716796875,7.439422607421876
13.898000000000003,7.000234985351563,-0.5387786865234375,6.367098999023438
13.907999999999994,6.690097045898438,-0.5507415771484375,6.148028564453125
13.918,6.868643188476563,-0.228192138671875,7.40562744140625
13.928000000000004,6.871783447265625,0.2465850830078125,8.101119995117188
13.937999999999995,6.604562377929688,0.602630615234375,7.423422241210938
13.948,6.614581298828125,0.7137359619140625,6.230572509765626
13.957999999999991,7.090554809570313,0.6256591796875001,6.73271484375
13.967999999999996,7.363458251953125,0.40015869140625,7.1167236328125005
13.978000000000002,6.848156738281251,-0.0844879150390625,7.051376342773438
13.987999999999992,6.970626831054688,-0.8273834228515625,6.0464935302734375
13.997999999999998,7.380953979492188,-1.4048919677734375,6.6202636718750005
14.008000000000004,6.978103637695313,-1.3881439208984376,7.093096923828125
14.017999999999994,7.057058715820313,-0.2358184814453125,8.055810546875001
14.028,5.962902832031251,0.880169677734375,7.595687866210938
14.038999999999994,6.385043334960938,1.3718444824218752,6.786099243164063
14.050000000000004,7.485479736328125,1.5488952636718751,7.03836669921875
14.05899999999999,7.506414794921875,1.1810363769531251,6.37681884765625
14.068999999999996,7.123751831054688,0.6276031494140626,6.980496215820313
14.079,6.481344604492188,-0.3049041748046875,6.461904907226563
14.088999999999992,6.765762329101563,-1.188662719726563,7.830908203125
14.098999999999997,6.938925170898438,-1.5796997070312502,7.321737670898438
14.109000000000002,6.967337036132813,-1.310235595703125,7.286447143554688
14.118999999999993,6.683966064453125,-0.4079345703125,6.388183593750001
14.128999999999998,7.07724609375,0.5036376953125,6.619815063476563
14.139000000000005,7.4744140625,1.287506103515625,7.296615600585938
14.15,6.919784545898438,1.5227264404296876,6.705947875976563
14.159,6.577047729492188,1.3724426269531251,7.072610473632813
14.169999999999996,6.736453247070313,0.593658447265625,6.929803466796876
14.18,6.778024291992188,-0.378326416015625,7.893862915039063
14.18999999999999,6.773239135742188,-1.026715087890625,7.150668334960938
14.199999999999996,6.761874389648438,-1.3075439453125002,6.972122192382813
14.21,7.075302124023438,-1.0917633056640623,6.3944641113281255
14.219999999999992,7.428356933593751,-0.6709686279296876,6.605160522460938
14.229999999999997,7.573257446289063,0.003887939453125,6.495999145507813
14.240000000000002,7.162332153320313,0.5689849853515625,6.239096069335938
14.249999999999991,6.758883666992188,0.9302642822265624,6.935186767578125
14.259999999999998,6.501831054687501,1.0283599853515626,7.638305664062501
14.270000000000003,6.2135253906250005,0.7807281494140625,8.351742553710938
14.279999999999994,6.526205444335938,0.3961212158203125,7.541705322265625
14.29,6.877764892578125,-0.225201416015625,6.75364990234375
14.300000000000004,7.340280151367188,-0.593658447265625,6.311471557617188
14.309999999999995,7.361962890625,-0.702520751953125,6.452334594726563
14.32099999999999,7.300054931640625,-0.5716766357421875,6.753201293945313
14.330999999999996,6.61368408203125,-0.4747772216796875,6.620114135742188
14.341,6.984832763671876,-0.3677093505859375,6.922775268554688
14.350999999999992,7.197921752929688,-0.075067138671875,7.024908447265625
14.360999999999995,7.056161499023438,0.2438934326171875,7.046142578125001
14.371000000000002,7.0987792968750005,0.605322265625,7.358673095703126
14.380999999999991,6.203805541992188,0.7941864013671875,6.95701904296875
14.390999999999998,6.395660400390626,0.948956298828125,7.576547241210938
14.401000000000003,6.857727050781251,0.5147033691406251,7.491012573242188
14.410999999999994,7.6116882324218755,-0.258697509765625,6.656600952148438
14.421,7.287942504882813,-0.506329345703125,6.261526489257813
14.43099999999999,6.238198852539063,-0.3273345947265625,6.626693725585938
14.440999999999995,6.946701049804688,-0.0471038818359375,7.964294433593751
14.451999999999993,7.124050903320313,-0.4230377197265625,7.42955322265625
14.461999999999996,7.270745849609375,-0.3979156494140625,6.4049316406250005
14.472,6.687704467773438,0.13697509765625,6.167767333984376
14.481999999999992,6.853689575195313,0.49825439453125,7.062741088867188
14.491999999999996,7.307232666015626,0.3194091796875,7.682568359375001
14.502000000000002,7.115078735351563,0.0306549072265625,6.986477661132813
14.511999999999992,6.581234741210938,0.0955535888671875,6.1567016601562505
14.521999999999998,6.407174682617188,0.1978363037109375,7.23216552734375
14.532000000000004,7.0703674316406255,0.173162841796875,8.030389404296876
14.541999999999994,7.007263183593751,-0.0213836669921875,7.563238525390625
14.552,6.737948608398438,0.0028411865234375,6.121710205078125
14.56199999999999,6.731069946289063,0.09989013671875,6.347360229492188
14.571999999999996,7.323980712890625,-0.102581787109375,7.21123046875
14.582,7.560098266601563,-0.298175048828125,7.211380004882813
14.591999999999992,6.985281372070313,-0.5055816650390625,6.310574340820313
14.603000000000002,6.692639160156251,-0.414215087890625,6.092251586914063
14.612999999999992,6.791033935546875,-0.153424072265625,7.570416259765626
14.622999999999998,6.918438720703126,0.258697509765625,8.2364501953125
14.633000000000004,6.514691162109376,0.61907958984375,7.441366577148438
14.642999999999994,6.516784667968751,0.7164276123046875,6.220553588867188
14.653,7.1361633300781255,0.6762023925781251,6.800006103515625
14.663000000000004,7.435833740234376,0.4224395751953125,7.212426757812499
14.672999999999996,7.010104370117188,0.0094207763671875,6.976608276367188
14.683,6.612637329101563,-0.7929901123046875,5.8969573974609375
14.69299999999999,7.390374755859375,-1.35479736328125,6.450390625000001
14.702999999999996,7.490115356445313,-1.4844451904296876,7.053469848632813
14.713,6.59573974609375,-1.002191162109375,7.554116821289063
14.722999999999992,6.854885864257813,0.3548492431640625,7.672848510742188
14.732999999999995,6.069821166992188,1.4700897216796875,7.447647094726563
14.743999999999993,6.568374633789063,2.0039337158203128,6.977056884765625
14.753999999999998,7.416394042968751,1.861575317382813,7.114031982421875
14.764000000000005,7.388430786132813,0.9281707763671876,6.258834838867188
14.773999999999994,7.167416381835938,-0.092413330078125,6.557308959960938
14.784,6.5783935546875005,-1.045257568359375,7.107901000976563
14.794000000000004,6.624002075195313,-1.5843353271484375,7.772738647460938
14.803999999999997,6.880456542968751,-1.8188079833984376,7.413403320312501
14.814,7.131677246093751,-1.271954345703125,6.625347900390626
14.823999999999993,6.958514404296875,-0.005084228515625,6.491513061523438
14.833999999999996,7.021319580078125,1.2737487792968751,6.754098510742188
14.844,7.178482055664063,1.947409057617188,7.192089843750001
14.853999999999992,6.819894409179688,1.7476287841796876,7.019973754882813
14.865000000000002,6.585720825195313,1.280926513671875,7.103414916992188
14.874999999999991,6.560748291015625,0.3348114013671875,7.352691650390626
14.884999999999998,6.738098144531251,-0.7330261230468751,7.686007690429688
14.895000000000003,6.902139282226563,-1.5639984130859377,7.0628906250000005
14.904999999999994,7.144537353515625,-1.6673278808593752,6.61966552734375
14.915,7.0419555664062505,-1.1979339599609375,6.21591796875
14.925000000000004,7.412057495117188,-0.4533935546875,6.562094116210938
14.934999999999995,7.668212890625001,0.28770751953125,6.581683349609375
14.945,7.099078369140625,0.7614379882812501,6.322537231445313
14.954999999999991,6.507214355468751,1.2897491455078125,7.09818115234375
14.966999999999992,6.172552490234375,1.271954345703125,7.974462890625
14.975,6.257489013671876,0.8882446289062501,8.527297973632812
14.984999999999992,6.647927856445313,0.173162841796875,7.479946899414063
14.994999999999996,7.061245727539063,-0.4990020751953125,6.28709716796875
15.005000000000004,7.4086181640625,-0.813177490234375,6.054867553710938
15.014999999999992,7.401440429687501,-0.91815185546875,6.6705078125
15.025,7.231268310546875,-0.7273437500000001,6.902587890625001
15.035999999999994,6.921578979492188,-0.494366455078125,6.587963867187501
15.046,6.680676269531251,-0.20755615234375,6.569869995117188
15.05599999999999,7.043600463867188,0.14774169921875,7.097732543945313
15.067,6.904830932617188,0.5767608642578126,7.651315307617188
15.076,6.973767089843751,0.7941864013671875,7.136911010742188
15.085999999999991,6.69742431640625,0.6458465576171876,7.266110229492188
15.095999999999997,6.538467407226563,0.5794525146484375,6.624899291992188
15.106000000000002,6.898699951171875,0.44501953125,7.765560913085938
15.115999999999993,6.960159301757813,-0.1682281494140625,6.955972290039063
15.125999999999998,7.613482666015625,-0.7430450439453126,6.385641479492188
15.136000000000005,6.856979370117188,-0.7345214843750001,6.582431030273438
15.145999999999994,6.44560546875,-0.12620849609375,7.023114013671876
15.157000000000004,6.869390869140625,0.265277099609375,8.414547729492188
15.166999999999994,7.068572998046876,0.0740203857421875,6.652264404296876
15.177,7.213323974609375,0.1541717529296875,6.354837036132813
15.18699999999999,6.925466918945313,0.4720855712890625,6.135317993164063
15.196999999999996,6.917990112304688,0.4296173095703125,7.535574340820313
15.207,7.181771850585938,-0.0632537841796875,7.464096069335938
15.216999999999992,6.897503662109376,-0.45040283203125,6.772341918945313
15.226999999999997,6.4901672363281255,-0.3552978515625,6.575851440429688
15.237000000000002,6.478952026367188,0.011065673828125,7.476358032226563
15.246999999999993,7.207043457031251,0.1918548583984375,7.928106689453125
15.256999999999998,7.087414550781251,0.183929443359375,6.858773803710938
15.267000000000005,6.842922973632813,0.3219512939453125,5.814712524414063
15.276999999999994,7.027749633789063,0.35230712890625,6.594842529296876
15.287,7.216314697265625,0.084637451171875,7.539163208007813
15.297000000000004,7.153509521484375,-0.2860626220703125,7.349700927734376
15.308,6.691891479492188,-0.6261077880859376,6.317153930664063
15.31799999999999,6.629235839843751,-0.5371337890625001,6.674246215820313
15.327999999999996,6.968234252929688,-0.175555419921875,7.627838134765626
15.338,6.947448730468751,0.233575439453125,7.792926025390625
15.347999999999992,6.722994995117188,0.5716766357421875,6.772491455078126
15.357999999999995,6.860418701171875,0.672613525390625,6.137860107421876
15.368000000000002,7.100723266601563,0.6404632568359375,6.979898071289063
15.377999999999991,7.20943603515625,0.344232177734375,7.377215576171875
15.387999999999998,6.703106689453126,-0.2160797119140625,6.977804565429688
15.398000000000003,6.809426879882813,-0.9703399658203126,5.95751953125
15.407999999999994,7.55516357421875,-1.3196563720703125,6.786398315429688
15.418,6.942214965820313,-1.227392578125,7.176388549804688
15.428000000000004,7.041207885742188,-0.32359619140625,7.684512329101563
15.437999999999995,6.517831420898438,0.9027496337890626,7.476806640625001
15.448,6.009408569335938,1.4353973388671877,6.863409423828125
15.457999999999991,7.208837890625,1.7802276611328127,7.246221923828125
15.469,7.334149169921876,1.2227569580078126,6.701312255859375
15.478999999999992,7.3589721679687505,0.3898406982421875,6.7279296875000005
15.488999999999995,6.6083007812500005,-0.4667022705078125,6.591702270507813
15.499000000000002,6.639852905273438,-1.1152404785156251,7.348355102539063
15.508999999999991,6.912606811523438,-1.47562255859375,7.673446655273438
15.518999999999998,7.123303222656251,-1.4830993652343751,7.034030151367188
15.529000000000003,6.945654296875,-0.5166473388671875,6.498541259765625
15.538999999999994,6.734509277343751,0.55926513671875,6.472073364257813
15.549,7.23336181640625,1.4811553955078125,7.489666748046876
15.55899999999999,7.079040527343751,1.567437744140625,7.113433837890626
15.568999999999996,6.621459960937501,1.31771240234375,6.902438354492188
15.579,6.641647338867188,0.7331756591796875,6.752752685546875
15.589999999999996,6.750958251953126,-0.2205657958984375,7.726083374023438
15.598999999999997,6.904830932617188,-1.0340423583984375,7.419833374023438
15.609999999999992,6.905877685546876,-1.473828125,6.923971557617188
15.619999999999996,7.0138427734375,-1.22918701171875,6.261227416992188
15.630000000000004,7.168911743164063,-0.7301849365234375,6.479998779296875
15.639999999999992,7.6326232910156255,-0.0155517578125,6.904232788085938
15.65,7.258334350585938,0.5283111572265625,6.378314208984375
15.660000000000004,6.73271484375,0.9740783691406252,6.7294250488281255
15.669999999999996,6.497793579101563,1.1783447265625,7.242483520507813
15.68,6.35947265625,0.87747802734375,8.430697631835939
15.68999999999999,6.563140869140626,0.4427764892578125,7.70828857421875
15.699999999999996,6.755444335937501,-0.2077056884765625,6.9061767578125
15.71,7.146929931640625,-0.6216217041015626,6.265264892578125
15.719999999999992,7.41519775390625,-0.7989715576171875,6.478952026367188
15.729999999999997,7.359570312500001,-0.704315185546875,6.901541137695313
15.740000000000002,7.040609741210938,-0.4699920654296875,6.502877807617188
15.750999999999998,6.605908203125001,-0.277239990234375,6.729873657226563
15.761000000000005,6.907821655273438,0.1024322509765625,6.9028869628906255
15.770999999999994,7.000982666015625,0.34632568359375,7.559948730468751
15.781,6.909466552734376,0.5480499267578125,7.14603271484375
15.791000000000004,7.118966674804688,0.4486083984375,6.892419433593751
15.800999999999997,6.624450683593751,0.449505615234375,6.9268127441406255
15.811,6.705050659179688,0.4747772216796875,7.358074951171876
15.82099999999999,6.734509277343751,0.193499755859375,7.606903076171876
15.830999999999996,7.312167358398438,-0.380718994140625,6.413754272460938
15.841,7.295120239257813,-0.5896209716796875,6.67349853515625
15.850999999999992,6.476409912109376,-0.2220611572265625,6.654208374023438
15.860999999999995,6.827969360351563,0.2507720947265625,7.899993896484376
15.871000000000002,6.925167846679688,0.144451904296875,7.354336547851563
15.881999999999998,7.159490966796875,-0.0465057373046875,6.434091186523438
15.892000000000005,6.992758178710938,0.1619476318359375,6.390127563476563
15.901999999999994,6.981243896484376,0.25780029296875,6.74168701171875
15.912,7.080984497070313,-0.0237762451171875,7.615725708007813
15.922000000000004,7.070965576171876,-0.3416900634765625,6.88883056640625
15.931999999999997,6.642694091796876,-0.285015869140625,6.688003540039063
15.942,6.500485229492188,0.0610107421875,7.061843872070313
15.951999999999993,6.866848754882813,0.3204559326171875,7.8389831542968755
15.961999999999996,7.155752563476563,0.2932403564453125,7.264166259765625
15.972,6.923373413085938,0.3218017578125,6.270947265625001
15.981999999999992,6.836642456054688,0.3575408935546875,6.399249267578125
15.991999999999996,7.033282470703125,0.118133544921875,7.221997070312501
16.002000000000002,7.194631958007813,-0.27215576171875,7.47501220703125
16.011999999999993,6.991412353515625,-0.6195281982421875,6.638357543945313
16.022,6.730770874023438,-0.7046142578125001,6.265115356445313
16.032000000000004,6.951336669921876,-0.381317138671875,7.126443481445313
16.043,7.000085449218751,0.0611602783203125,7.790234375000001
16.053000000000004,6.738845825195313,0.4988525390625,7.284353637695313
16.062999999999995,6.657348632812501,0.750372314453125,6.452484130859376
16.073,7.0090576171875005,0.7835693359375001,6.824380493164063
16.08299999999999,7.183416748046875,0.5375823974609375,7.148724365234376
16.092999999999996,6.900045776367188,0.0183929443359375,7.105209350585938
16.103,6.918887329101563,-0.6956420898437501,6.163131713867188
16.112999999999992,7.37572021484375,-1.3359558105468752,6.411212158203125
16.122999999999998,7.073208618164063,-1.4171539306640626,7.088909912109376
16.133000000000003,7.072311401367188,-0.7064086914062501,7.608847045898438
16.142999999999994,6.517083740234376,0.605322265625,7.866647338867188
16.153,5.889181518554688,1.283319091796875,6.873577880859376
16.163000000000004,7.108798217773438,1.69813232421875,7.117321777343751
16.174,7.519723510742188,1.4123687744140625,6.7267333984375
16.18399999999999,7.419833374023438,0.7624847412109376,6.733013916015626
16.193999999999996,6.6142822265625005,-0.030804443359375,6.608450317382813
16.204,6.567178344726563,-0.9215911865234376,7.104013061523438
16.21399999999999,6.939224243164063,-1.4865386962890623,7.787243652343751
16.223999999999997,7.034030151367188,-1.6626922607421877,7.187603759765626
16.234,6.924868774414063,-0.8426361083984376,6.720303344726563
16.243999999999993,6.738995361328126,0.2136871337890625,6.2628723144531255
16.253999999999998,7.231567382812501,1.1542694091796877,7.275531005859375
16.264000000000003,7.292279052734376,1.493865966796875,6.997543334960938
16.273999999999994,6.715817260742188,1.4449676513671876,6.955822753906251
16.285000000000004,6.566131591796876,1.0741180419921876,6.755593872070313
16.294000000000004,6.591702270507813,0.115740966796875,7.688400268554688
16.303999999999995,6.884494018554688,-0.7529144287109375,7.687054443359376
16.31499999999999,6.905429077148438,-1.3100860595703123,7.034030151367188
16.324999999999996,6.920233154296875,-1.2703094482421875,6.3002563476562505
16.335,7.237100219726563,-0.9428253173828126,6.335397338867188
16.34499999999999,7.628735351562501,-0.3647186279296875,6.869989013671876
16.354999999999997,7.381552124023438,0.3084930419921875,6.426614379882813
16.365000000000002,6.798959350585938,0.7722045898437501,6.543252563476563
16.374999999999993,6.5951416015625,1.05751953125,7.100424194335938
16.384999999999998,6.391921997070313,0.9562835693359376,8.24542236328125
16.395000000000003,6.45218505859375,0.7023712158203126,8.029193115234376
16.404999999999994,6.524411010742188,0.1495361328125,7.153060913085938
16.416000000000004,7.146182250976563,-0.4050933837890625,6.285601806640625
16.425000000000004,7.468582153320313,-0.6871185302734375,6.420483398437501
16.434999999999995,7.318746948242188,-0.7745971679687501,6.675741577148438
16.445,7.020870971679688,-0.5094696044921876,6.819744873046876
16.455999999999996,6.5963378906250005,-0.4115234375,6.641796875000001
16.46699999999999,6.999188232421876,-0.152227783203125,6.951187133789063
16.475999999999992,7.222296142578125,0.091217041015625,6.991711425781251
16.485999999999997,7.034927368164063,0.40135498046875,7.221249389648438
16.496000000000002,6.935784912109376,0.6120513916015625,7.03836669921875
16.505999999999993,6.256143188476563,0.7268951416015625,7.234259033203125
16.516,6.629684448242188,0.8453277587890625,7.605258178710938
16.526000000000003,6.793276977539063,0.3378021240234375,7.411459350585938
16.535999999999994,7.624099731445313,-0.3372039794921875,6.2912841796875005
16.546,7.350598144531251,-0.6153411865234375,6.411361694335938
16.55599999999999,6.309527587890625,-0.3533538818359375,6.755593872070313
16.567,6.894662475585938,0.0503936767578125,8.034426879882814
16.576,6.930252075195313,-0.2782867431640625,7.376318359375
16.586999999999996,7.281512451171875,-0.2504730224609375,6.217712402343751
16.595999999999997,6.900643920898438,0.167779541015625,6.350051879882813
16.606999999999992,6.9193359375000005,0.49705810546875,6.907223510742188
16.616999999999997,7.1550048828125,0.289801025390625,7.718905639648438
16.627000000000002,7.031188964843751,-0.0418701171875,6.888232421875
16.636999999999993,6.615927124023438,-0.0521881103515625,6.369342041015625
16.647,6.487924194335938,0.0560760498046875,7.233511352539063
16.657000000000004,7.050030517578126,0.1638916015625,7.901638793945313
16.666999999999994,7.084274291992188,-0.0303558349609375,7.388131713867188
16.677,6.833203125000001,0.06400146484375,6.084625244140625
16.68699999999999,6.842623901367188,0.155218505859375,6.44859619140625
16.696999999999996,7.203005981445313,0.075665283203125,7.304541015625
16.707,7.279269409179688,-0.13577880859375,7.285250854492188
16.71699999999999,6.914700317382813,-0.4140655517578125,6.532635498046876
16.726999999999997,6.726135253906251,-0.41092529296875,6.179580688476563
16.737999999999992,6.910064697265626,-0.1849761962890625,7.484881591796875
16.747999999999998,6.822586059570313,0.1801910400390625,7.959060668945313
16.758000000000003,6.671405029296875,0.4367950439453125,7.305886840820313
16.767999999999994,6.650918579101563,0.602032470703125,6.369790649414063
16.778,7.117620849609375,0.490777587890625,6.613534545898438
16.788000000000004,7.31710205078125,0.302362060546875,7.231866455078125
16.797999999999995,6.986029052734375,-0.04007568359375,6.906326293945313
16.808,6.699368286132813,-0.5927612304687501,6.386239624023438
16.81799999999999,7.175640869140626,-1.054229736328125,6.44620361328125
16.827999999999996,7.338635253906251,-1.1699707031250002,7.211679077148438
16.838,6.947897338867188,-0.58857421875,7.359869384765625
16.847999999999992,6.392819213867188,0.47432861328125,7.568771362304688
16.857999999999997,6.274237060546875,1.1722137451171877,7.216015625000001
16.868999999999993,6.986029052734375,1.4929687500000002,7.274334716796876
16.877999999999993,7.341326904296875,1.3242919921875,6.843222045898438
16.889000000000003,7.240539550781251,0.6721649169921875,6.259283447265625
16.898999999999994,6.944158935546875,-0.1314422607421875,6.676638793945313
16.909,6.782211303710938,-0.8747863769531251,7.220352172851563
16.919000000000004,6.707144165039063,-1.2940856933593752,7.795169067382813
16.928999999999995,6.878512573242188,-1.3307220458984377,7.068572998046876
16.939,6.917990112304688,-0.8013641357421876,6.797912597656251
16.94899999999999,6.9866271972656255,0.1843780517578125,6.605459594726563
16.958999999999996,7.1227050781250005,1.1279510498046876,7.155752563476563
16.969,7.0658813476562505,1.511810302734375,6.906326293945313
16.978999999999992,6.775631713867188,1.327880859375,6.896606445312501
16.988999999999997,6.764266967773438,0.816168212890625,7.027151489257813
16.999000000000002,6.700564575195313,0.04366455078125,7.475460815429688
17.008999999999993,6.73271484375,-0.750372314453125,7.432843017578126
17.020000000000003,6.871783447265625,-1.2610382080078126,6.973468017578125
