time,ax,ay,az
0.0,8.224038696289064,-2.37164306640625,4.450643920898438
0.0100000000000015,9.571060180664062,-1.4844451904296876,5.1866607666015625
0.0199999999999995,8.292077636718751,0.5522369384765625,6.5951416015625
0.0300000000000011,5.380758666992188,2.2886505126953125,6.027801513671875
0.0399999999999991,5.706298828125,3.335104370117188,7.223043823242188
0.0500000000000007,5.771047973632813,3.104071044921876,10.86170654296875
0.0600000000000022,5.964996337890625,1.8639678955078127,9.520068359375
0.0700000000000002,4.300509643554688,0.7940368652343751,8.848052978515625
0.0800000000000018,4.503579711914063,-0.67291259765625,7.676586914062501
0.0940000000000012,6.7413879394531255,-1.508819580078125,8.132373046875001
0.1000000000000014,7.588809204101563,-2.4307098388671875,7.955322265625001
0.1099999999999994,8.584271240234376,-3.1801849365234376,4.585675048828126
0.120000000000001,6.911560058593751,-3.925323486328125,5.016937255859375
0.1300000000000025,7.78245849609375,-3.2280364990234376,6.1261962890625
0.1400000000000005,7.188800048828125,-1.164886474609375,8.290432739257813
0.1500000000000021,5.994305419921876,1.1370727539062502,7.702456665039063
0.1600000000000001,6.437530517578126,2.9768157958984376,5.959912109375001
0.1700000000000017,7.015936279296875,3.3895355224609376,6.597683715820313
0.1799999999999997,8.019772338867188,3.12889404296875,6.421231079101563
0.1900000000000012,7.84227294921875,2.306295776367188,6.059353637695313
0.1999999999999993,7.754046630859375,1.323095703125,5.20684814453125
0.2100000000000008,7.330560302734375,0.424981689453125,4.990768432617188
0.2200000000000024,7.788888549804688,-0.9262268066406252,6.371435546875
0.2300000000000004,8.716162109375,-1.9734283447265624,5.253054809570313
0.240000000000002,8.550775146484376,-2.071673583984375,3.835302734375
0.25,9.324923706054689,-1.7335723876953126,3.0592102050781254
0.2600000000000015,8.734854125976563,-0.8058502197265626,4.322640991210938
0.2699999999999996,7.98343505859375,0.2139862060546875,5.206549072265625
0.2800000000000011,7.947097778320313,0.3937286376953125,5.6405029296875
0.2899999999999991,7.789187622070313,0.5057312011718751,5.411862182617188
0.3000000000000007,7.51329345703125,0.5908172607421875,5.263821411132813
0.3100000000000023,7.173696899414063,0.7535125732421876,6.7363037109375
0.3200000000000003,6.687704467773438,0.7720550537109375,7.754345703125001
0.3300000000000018,5.8322082519531255,0.2950347900390625,9.768447875976562
0.3399999999999998,2.202667236328125,-0.9008056640625,12.19317626953125
0.3500000000000014,0.6806884765625001,-3.2032135009765628,12.771282958984376
0.3599999999999994,3.760086059570313,-3.151473999023438,13.73280029296875
0.370000000000001,5.738897705078125,-0.0761138916015625,9.871478271484376
0.3800000000000025,7.4666381835937505,3.517538452148438,5.017385864257813
0.3900000000000005,7.036572265625001,5.019927978515625,4.7196594238281255
0.4000000000000021,7.590603637695313,3.3330108642578127,6.142495727539063
0.4090000000000025,7.8150573730468755,2.9077301025390625,7.201809692382813
0.4190000000000005,7.841674804687501,1.374087524414063,5.748318481445313
0.4299999999999997,8.539111328125001,0.5036376953125,3.7950775146484377
0.439,8.271142578125001,-0.4127197265625,3.641204833984376
0.4490000000000016,8.63660888671875,-2.772698974609375,4.8605224609375
0.4589999999999996,8.314358520507813,-4.497000122070313,6.253601074218751
0.4690000000000012,6.681124877929688,-5.490069580078125,6.44620361328125
0.4789999999999992,7.33145751953125,-4.449298095703125,6.07176513671875
0.4890000000000007,7.291830444335938,-2.7227539062500004,6.359024047851563
0.4990000000000023,7.464694213867188,-0.20277099609375,6.067129516601563
0.5090000000000003,7.175491333007813,2.6618927001953128,7.540957641601563
0.5190000000000019,5.663830566406251,4.9862823486328125,7.202108764648438
0.5289999999999999,5.9772583007812505,6.426763916015625,8.314208984375
0.5390000000000015,5.802001953125,5.462405395507813,9.239987182617188
0.5489999999999995,3.682925415039063,2.647238159179688,9.594537353515626
0.559000000000001,4.623806762695313,-1.230084228515625,9.093740844726565
0.5690000000000026,7.203005981445313,-4.313668823242188,8.112335205078125
0.5790000000000006,8.145831298828126,-5.053424072265625,6.6130859375
0.5890000000000022,5.88275146484375,-2.997152709960938,4.367950439453125
0.5990000000000002,8.118914794921876,-0.9784149169921876,6.474316406250001
0.6090000000000018,9.233856201171877,0.36187744140625,5.583978271484376
0.6189999999999998,9.743475341796875,1.7726013183593752,3.685018920898438
0.6290000000000013,7.352542114257813,3.0022369384765626,5.741589355468751
0.6389999999999993,5.640353393554688,3.3355529785156253,5.823385620117188
0.6490000000000009,5.5560150146484375,2.648883056640625,10.015032958984376
0.6590000000000025,4.985086059570313,0.3066986083984375,10.768395996093751
0.6690000000000005,5.4251708984375,-1.7522644042968751,8.875268554687501
0.679000000000002,4.972076416015625,-2.572918701171876,8.43204345703125
0.6890000000000001,6.471176147460938,-1.837649536132813,6.85892333984375
0.6990000000000016,7.777972412109375,-0.905889892578125,6.914700317382813
0.7089999999999996,8.589654541015626,-0.93489990234375,5.0366760253906255
0.7190000000000012,8.674740600585938,-1.0952026367187502,3.043807983398437
0.7289999999999992,8.956167602539063,-1.6256072998046875,3.9432678222656254
0.7390000000000008,8.890222167968751,-1.1189788818359376,4.4808502197265625
0.7490000000000023,8.455819702148439,0.2902496337890625,6.157299804687501
0.7590000000000003,6.296817016601563,1.4709869384765626,7.109844970703126
0.7690000000000019,4.1762451171875,1.955783081054688,8.798556518554689
0.7789999999999999,3.699972534179688,1.5607086181640626,11.162124633789062
0.7890000000000015,4.760632324218751,2.1066650390625004,11.054608154296876
0.7989999999999995,5.751608276367188,2.8897857666015625,8.767453002929688
0.809000000000001,7.355682373046876,2.2318267822265625,5.134622192382813
0.8180000000000014,8.26575927734375,0.6166870117187501,3.880462646484376
0.8279999999999994,9.093292236328123,-0.9992004394531252,5.149874877929688
0.838000000000001,7.6215576171875,-1.7272918701171875,6.147430419921876
0.8490000000000002,6.598281860351563,-2.1121978759765625,7.088162231445313
0.8580000000000005,6.203506469726563,-2.886495971679688,6.827670288085938
0.8680000000000021,6.607403564453126,-3.1821289062500004,7.496694946289063
0.8790000000000013,7.409066772460938,-2.776885986328125,7.02939453125
0.8880000000000017,7.581781005859375,-1.1713165283203126,5.827423095703125
0.8990000000000009,7.389627075195313,0.807196044921875,5.5570617675781255
0.9080000000000013,7.8512451171875,2.9824981689453125,6.356930541992188
0.9179999999999992,5.2355590820312505,4.243984985351563,7.545892333984375
0.9280000000000008,5.803646850585938,4.30364990234375,8.840426635742189
0.939,6.049334716796875,2.714828491210937,9.10660095214844
0.9480000000000004,6.223992919921876,0.2169769287109375,7.351046752929688
0.958000000000002,6.838436889648438,-1.4563323974609377,7.280764770507813
0.968,6.040661621093751,-2.1449462890625,6.648825073242188
0.9780000000000016,7.450039672851563,-2.076458740234376,7.089059448242188
0.9879999999999995,7.711428833007813,-2.1545166015625004,6.710882568359375
0.9980000000000012,8.447595214843751,-1.5551757812500002,4.293182373046875
1.0079999999999991,7.38887939453125,-0.4936187744140625,4.943215942382813
1.018000000000001,7.433889770507813,0.9464141845703126,5.891574096679688
1.0280000000000022,6.813763427734376,1.7009735107421875,8.114279174804688
1.0380000000000005,6.323284912109376,1.58448486328125,8.179177856445314
1.0480000000000018,5.845217895507813,1.11553955078125,6.961804199218751
1.0579999999999998,5.689999389648438,0.729736328125,8.045343017578126
1.0680000000000014,6.137860107421876,0.614593505859375,8.63421630859375
1.0779999999999994,6.564785766601563,0.0946563720703125,8.392565917968751
1.088000000000001,6.714321899414063,-0.416607666015625,6.446652221679688
1.0980000000000023,7.645632934570313,-0.8297760009765626,4.7809692382812505
1.1080000000000003,7.697970581054688,-0.705511474609375,5.9338928222656255
1.118000000000002,8.175439453125001,-0.305352783203125,6.442465209960938
1.128,6.5748046875,-0.3081939697265625,6.825726318359376
1.1380000000000017,7.046142578125001,-0.4311126708984375,6.106756591796875
1.1479999999999997,6.393267822265625,-0.7621856689453126,6.632824707031251
1.1580000000000013,6.303396606445313,-0.7283905029296875,8.147476196289062
1.1679999999999993,6.174496459960938,-0.456683349609375,8.15211181640625
1.1780000000000008,7.050628662109376,0.3733917236328125,8.215963745117188
1.1880000000000024,7.49654541015625,1.4419769287109376,4.998095703125
1.1980000000000004,6.529794311523438,2.119525146484375,5.7738891601562505
1.208000000000002,6.527102661132813,2.1136932373046875,7.386636352539063
1.218,6.928158569335938,1.3543487548828126,8.457015991210938
1.2280000000000015,6.020025634765625,-0.0261688232421875,8.064334106445314
1.2379999999999995,7.494152832031251,-1.1728118896484376,5.99998779296875
1.248000000000001,6.709237670898438,-1.4760711669921875,6.582879638671876
1.2579999999999991,7.150967407226563,-1.1650360107421875,6.280667114257813
1.268000000000001,7.7776733398437505,-0.816168212890625,7.013394165039063
1.2780000000000022,7.544546508789063,-1.0415191650390625,5.443862915039063
1.2880000000000005,7.590304565429688,-0.7183715820312501,5.439227294921875
1.2980000000000018,6.39835205078125,0.3712982177734375,7.534228515625
1.3079999999999998,5.56094970703125,1.8114807128906247,8.633767700195314
1.3170000000000002,5.590557861328126,2.294332885742188,9.578088378906251
1.3270000000000015,5.684616088867188,1.943820190429688,7.358074951171876
1.3369999999999995,6.922775268554688,1.3459747314453123,6.074606323242188
1.3470000000000013,6.932495117187501,0.57242431640625,6.673797607421876
1.356999999999999,8.384042358398439,-0.3744384765625,6.314163208007813
1.3670000000000009,7.151416015625,-2.074514770507813,6.421231079101563
1.3770000000000024,8.12698974609375,-3.296224975585938,5.2579895019531255
1.3870000000000005,6.423175048828125,-3.003134155273438,6.004025268554688
1.397000000000002,6.662283325195313,-1.358685302734375,8.01932373046875
1.407,7.034030151367188,0.015850830078125,6.8296142578125005
1.4170000000000016,8.081082153320313,1.1750549316406251,6.7219482421875005
1.4269999999999996,6.368743896484376,2.0196350097656253,5.2923828125000005
1.4370000000000012,5.817404174804688,2.9741241455078127,8.016781616210938
1.4469999999999992,6.010305786132813,2.9422729492187503,9.422570800781251
1.4570000000000007,5.961856079101563,1.6893096923828126,8.683413696289064
1.4670000000000023,5.969482421875,-0.117535400390625,6.492410278320313
1.4770000000000003,7.182818603515625,-1.9480072021484376,5.345767211914063
1.487000000000002,8.273236083984376,-3.3045989990234377,5.697775268554688
1.497,8.42008056640625,-3.4604156494140628,6.138308715820313
1.5070000000000014,7.98941650390625,-2.5024871826171875,4.918991088867188
1.5169999999999997,6.589608764648438,-0.6323883056640626,7.004721069335938
1.527000000000001,5.642446899414063,2.20177001953125,8.531784057617188
1.5370000000000026,4.5351318359375,4.146188354492188,10.046286010742188
1.5470000000000006,6.700265502929688,4.520028686523438,8.549728393554688
1.5570000000000022,6.7482666015625,3.508566284179688,5.44969482421875
1.5670000000000002,8.399295043945314,1.5991394042968752,4.844821166992188
1.5770000000000015,7.79442138671875,-0.3748870849609375,5.7481689453125
1.5869999999999995,7.126892089843751,-2.5966949462890625,7.170257568359376
1.5970000000000013,6.2090393066406255,-3.7306274414062495,8.468978881835938
1.606999999999999,5.644839477539063,-4.0003906250000005,7.045095825195313
1.6170000000000009,6.814212036132813,-2.612844848632813,7.470974731445313
1.6270000000000024,7.085171508789063,-0.5973968505859375,6.626544189453125
1.6370000000000005,7.84586181640625,1.82613525390625,6.0580078125000005
1.647000000000002,7.490713500976563,3.1967834472656254,5.484686279296875
1.657,6.862661743164063,3.426470947265625,6.331359863281251
1.6670000000000016,6.420034790039063,2.779876708984375,7.806683349609376
1.6769999999999996,5.375375366210938,1.29737548828125,8.78076171875
1.6870000000000012,5.984136962890625,-0.5102172851562501,8.038314819335938
1.6969999999999992,6.4482971191406255,-2.38240966796875,7.268203735351563
1.7070000000000007,7.828814697265625,-2.986236572265625,6.30863037109375
1.7170000000000023,7.201361083984375,-2.056570434570313,6.4133056640625
1.7270000000000003,6.927859497070313,-0.612799072265625,6.3406311035156255
1.737000000000002,7.41220703125,0.2956329345703125,5.690447998046875
1.747,8.781808471679689,0.6276031494140626,5.428460693359376
1.7570000000000014,7.532284545898438,0.7542602539062501,5.144790649414063
1.7669999999999997,7.048086547851563,1.0355377197265625,6.938327026367188
1.777000000000001,4.913458251953125,0.9794616699218752,8.842221069335938
1.7870000000000026,5.406179809570313,0.5356384277343751,9.809869384765626
1.7970000000000006,5.184866333007813,0.13458251953125,8.829510498046876
1.8070000000000024,6.879708862304688,0.0357391357421875,6.45457763671875
1.8160000000000025,7.302447509765625,0.038580322265625,5.591604614257813
1.8270000000000013,7.697073364257813,-0.117236328125,5.3885345458984375
1.837,8.669207763671876,-0.6193786621093751,5.047442626953125
1.846,8.545541381835939,-1.3393951416015626,6.167318725585938
1.8560000000000016,7.913153076171875,-1.410125732421875,5.6348205566406255
1.866,4.806390380859376,-0.2821746826171875,8.507858276367188
1.8770000000000024,3.967791748046875,0.9347503662109377,9.773382568359375
1.8859999999999992,6.149673461914063,1.6605987548828127,10.218103027343751
1.8960000000000008,7.032235717773438,1.5639984130859377,6.585720825195313
1.9060000000000024,8.529690551757813,1.0787536621093752,3.610101318359375
1.9160000000000004,7.977752685546876,1.110903930664063,5.2194091796875
1.926000000000002,6.985879516601563,0.8273834228515625,6.346014404296875
1.936,6.927410888671876,-0.4855438232421875,8.703750610351562
1.9460000000000013,5.9754638671875,-1.9669982910156247,7.500732421875001
1.9559999999999995,5.950491333007813,-2.247976684570313,6.703704833984376
1.966000000000001,6.284854125976563,-1.0184906005859375,8.349798583984375
1.975999999999999,6.28709716796875,0.5281616210937501,7.864703369140625
1.9860000000000009,6.738995361328126,1.2248504638671875,7.295419311523438
1.9960000000000024,7.817599487304688,1.4614166259765626,5.592501831054688
2.006,7.306784057617188,1.5992889404296875,4.715023803710938
2.016000000000002,7.602416992187501,1.284365844726563,6.20335693359375
2.026,7.895059204101563,-0.0258697509765625,6.511102294921876
2.0360000000000014,7.511199951171876,-1.7111419677734376,6.8559326171875
2.046,5.588015747070313,-2.4130645751953126,7.136761474609376
2.056000000000001,5.618820190429688,-1.2910949707031252,8.4111083984375
2.0660000000000025,4.566384887695313,-0.155517578125,9.420327758789064
2.0760000000000005,8.202355957031251,0.4086822509765625,7.351644897460938
2.086000000000002,7.799505615234375,0.8285797119140625,4.883251953125001
2.096,8.387780761718751,1.3728912353515623,3.3796661376953128
2.1060000000000016,7.472021484375,1.703067016601563,5.927761840820313
2.116,6.948495483398438,1.050640869140625,8.57679443359375
2.126000000000001,5.740093994140626,-0.1637420654296875,8.545092773437501
2.1359999999999992,4.829568481445313,-1.1294464111328126,7.779916381835938
2.146000000000001,6.256292724609375,-1.3823120117187502,6.870736694335938
2.1560000000000024,6.549832153320313,-1.2312805175781252,7.643688964843751
2.1660000000000004,8.530438232421876,-0.8332153320312501,6.26915283203125
2.176000000000002,8.291329956054689,-0.2758941650390625,5.056414794921875
2.186,9.044692993164062,0.34273681640625,4.38260498046875
2.196000000000001,5.947052001953125,1.4045928955078126,6.421829223632813
2.2059999999999995,4.639657592773438,1.846621704101563,9.54459228515625
2.216000000000001,5.7708984375000005,1.6142425537109375,10.473809814453126
2.225999999999999,5.464199829101563,0.7328765869140625,8.385238647460938
2.2360000000000007,7.679577636718751,-0.1957427978515625,5.268606567382813
2.246000000000002,7.627987670898438,-0.1526763916015625,5.825479125976563
2.256,7.584173583984375,-0.1413116455078125,5.31571044921875
2.266000000000002,7.830010986328125,-0.667828369140625,7.1191162109375
2.276,7.353439331054688,-1.7283386230468751,5.719308471679688
2.2860000000000014,6.834249877929688,-1.6160369873046876,6.5260559082031255
2.296,5.6931396484375005,-0.4486083984375,8.171102905273438
2.305,5.5092102050781255,0.91396484375,8.813958740234376
2.3150000000000013,6.558355712890625,1.4182006835937502,8.247515869140626
2.3260000000000005,6.768005371093751,1.3878448486328123,6.388632202148438
2.336000000000002,7.409963989257813,1.58328857421875,5.161688232421875
2.346,6.689349365234375,1.4950622558593751,6.911560058593751
2.3550000000000004,7.77169189453125,0.5464050292968751,6.667367553710938
2.365000000000002,7.162780761718751,-1.140960693359375,6.998440551757813
2.375,7.585220336914063,-2.339642333984376,5.682821655273438
2.3850000000000016,6.037371826171875,-2.068682861328125,6.676937866210938
2.395,5.9638000488281255,-0.923834228515625,8.70599365234375
2.405000000000001,6.626693725585938,-0.2412017822265625,7.83988037109375
2.414999999999999,8.016781616210938,0.3313720703125,6.382650756835938
2.4250000000000007,7.150219726562501,0.7953826904296876,3.857583618164063
2.4350000000000023,7.881600952148438,1.6559631347656252,6.523513793945313
2.4450000000000003,6.547738647460938,1.8025085449218752,7.780963134765625
2.455000000000002,6.0185302734375,1.0733703613281251,8.875268554687501
2.465,5.610446166992188,-0.0246734619140625,7.323980712890625
2.4750000000000014,6.018978881835938,-0.7720550537109375,6.760827636718751
2.4849999999999994,7.017880249023438,-0.9063385009765624,7.497143554687501
2.495000000000001,6.2882934570312505,-0.9666015625,6.90318603515625
2.5050000000000026,9.039758300781251,-0.9748260498046876,5.6955322265625
2.515000000000001,8.520867919921876,-1.16937255859375,4.536477661132813
2.525000000000002,8.630776977539064,-0.4270751953125,4.89940185546875
2.535,5.2330169677734375,0.945068359375,7.935433959960938
2.5450000000000017,4.377520751953125,1.7841156005859375,9.638800048828124
2.555,5.787945556640626,1.806396484375,10.686749267578126
2.5650000000000013,6.485531616210938,0.948956298828125,6.835745239257813
2.5760000000000005,7.903732299804688,0.6222198486328125,4.895364379882813
2.585000000000001,7.246371459960938,0.6234161376953126,5.85045166015625
2.5950000000000024,7.9466491699218755,0.2863616943359375,6.046942138671875
2.6050000000000004,7.140350341796876,-1.1819335937500002,7.279269409179688
2.615000000000002,7.674942016601563,-2.362969970703125,5.961856079101563
2.625,5.632427978515626,-1.9873352050781248,6.971823120117188
2.6350000000000016,5.988922119140625,-0.3683074951171875,8.926708984375
2.645,5.1074066162109375,0.9517974853515626,8.872726440429688
2.655000000000001,6.901242065429688,1.472930908203125,7.933789062500001
2.664999999999999,7.453030395507813,1.667626953125,5.079293823242188
2.6750000000000007,7.615875244140626,1.98583984375,4.968637084960938
2.6850000000000023,7.712026977539063,1.4854919433593752,5.694186401367188
2.6950000000000003,8.422622680664062,-0.2406036376953125,6.932046508789063
2.705000000000002,6.91873779296875,-2.1379180908203126,6.778323364257813
2.715,5.176492309570313,-2.4559814453125,7.20823974609375
2.7250000000000014,5.406628417968751,-1.3598815917968752,8.980392456054688
2.7349999999999994,5.562744140625,-0.7882049560546875,8.663226318359376
2.745000000000001,8.948541259765626,-0.13697509765625,6.735256958007813
2.7550000000000026,7.751803588867188,0.772802734375,4.13616943359375
2.765000000000001,7.629483032226563,1.97806396484375,3.5405670166015626
2.775000000000002,7.251904296875001,2.2593414306640627,7.564285278320313
2.785,7.498489379882813,1.1729614257812502,8.567074584960938
2.7950000000000017,4.895513916015625,-0.1454986572265625,8.217309570312501
2.804000000000002,5.051779174804688,-0.9362457275390624,7.134219360351563
2.814,5.995053100585938,-0.932806396484375,8.110092163085938
2.8240000000000016,7.303045654296875,-1.10955810546875,8.146878051757813
2.834,7.567276000976563,-1.0309020996093752,5.378216552734376
2.844000000000001,8.552719116210938,-0.5558258056640626,3.926968383789063
2.853999999999999,8.855828857421876,-0.38699951171875,4.201666259765625
2.8640000000000008,8.5427001953125,0.3416900634765625,7.066928100585938
2.875,5.0782470703125,1.24952392578125,9.096282958984377
2.8850000000000016,2.555123901367188,1.8023590087890624,9.239239501953126
2.894000000000002,5.557659912109376,1.658056640625,10.2797119140625
2.904,7.228277587890625,0.68607177734375,7.444058227539063
2.914000000000001,9.310418701171876,0.073272705078125,4.5137481689453125
2.9239999999999995,7.848403930664063,-0.035589599609375,4.05242919921875
2.934000000000001,6.965542602539063,-0.22310791015625,4.9354400634765625
2.9440000000000026,7.5728088378906255,-1.191653442382813,8.487969970703126
2.9540000000000006,6.660787963867188,-2.0158966064453128,8.351742553710938
2.964000000000002,5.599380493164063,-1.5622039794921876,6.843222045898438
2.9750000000000014,5.301055908203125,-0.16807861328125,7.8270202636718755
2.9840000000000018,6.976907348632813,1.1761016845703125,7.6685119628906255
2.994,7.680624389648438,1.8630706787109377,7.884442138671876
3.0040000000000013,6.869091796875001,1.935894775390625,5.221353149414063
3.014,6.898999023437501,1.743890380859375,5.340832519531251
3.024000000000001,6.930850219726563,0.8589355468750001,7.528546142578126
3.0340000000000025,6.672451782226563,-0.4158599853515625,7.516134643554688
3.0440000000000005,7.424020385742188,-1.6049713134765626,7.268801879882813
3.054000000000002,6.624002075195313,-2.5868255615234377,5.795870971679688
3.064,7.031787109375,-2.0197845458984376,6.2793212890625005
3.075,6.429754638671875,-0.5730224609375001,8.457315063476564
3.084,7.020721435546876,0.593359375,6.942364501953126
3.094000000000001,7.085321044921876,1.1303436279296877,6.029745483398438
3.103999999999999,8.219403076171876,1.0702301025390626,4.799511718750001
3.1140000000000008,7.172201538085938,1.1683258056640626,6.003875732421875
3.1240000000000023,6.354986572265625,1.27703857421875,8.816351318359375
3.1340000000000003,5.369244384765626,0.7437927246093751,8.812014770507814
3.144000000000002,5.261578369140626,-0.17406005859375,8.355181884765626
3.154,6.9001953125,-0.9281707763671876,6.435437011718751
3.164000000000001,7.469927978515625,-0.7482788085937501,6.712677001953126
3.1750000000000007,7.344616699218751,-0.1957427978515625,6.19498291015625
3.184000000000001,6.687704467773438,0.094207763671875,6.005072021484375
3.1940000000000026,7.944854736328126,-0.4412811279296875,5.009609985351563
3.2040000000000006,8.688198852539063,-1.2119903564453125,5.892919921875
3.214000000000002,8.222393798828126,-1.0256683349609377,6.172253417968751
3.224,5.4528350830078125,0.096002197265625,8.202206420898438
3.2340000000000018,3.4453125000000004,1.27344970703125,9.326568603515623
3.244,6.012548828125,1.7435913085937502,9.47864685058594
3.2540000000000013,6.752902221679688,1.41162109375,8.19996337890625
3.264,9.099124145507814,0.858038330078125,4.209890747070313
3.275000000000002,7.110592651367188,0.9757232666015626,4.6573028564453125
3.2840000000000025,6.9327941894531255,0.4966094970703125,5.815908813476563
3.2940000000000005,7.593444824218751,-0.7243530273437501,8.723489379882814
3.303000000000001,6.731668090820313,-2.122067260742188,7.517181396484376
3.3130000000000024,5.941220092773438,-2.2125366210937503,6.104962158203126
3.3230000000000004,5.758486938476563,-1.038677978515625,7.585369873046876
3.333000000000002,6.64359130859375,0.4329071044921875,8.267703247070314
3.343,7.359869384765625,1.239654541015625,7.796066284179688
3.353000000000001,7.001431274414063,1.57730712890625,5.6064086914062505
3.3629999999999995,7.276577758789063,1.8759307861328127,4.24503173828125
3.375,7.347906494140625,1.36317138671875,6.875671386718751
3.3840000000000003,8.058352661132814,0.1649383544921875,7.250259399414063
3.3930000000000007,6.4363342285156255,-1.2756927490234375,7.285848999023438
3.4030000000000022,5.665475463867188,-1.8582855224609376,7.204501342773438
3.4130000000000003,5.295074462890625,-1.4211914062500002,7.7163635253906255
3.423000000000002,6.501681518554688,-0.5585174560546875,9.153405761718751
3.433,8.046838378906251,0.0913665771484375,6.434689331054688
3.4430000000000014,7.859020996093751,0.5474517822265625,4.545001220703125
3.4529999999999994,7.803692626953126,1.200775146484375,3.934893798828125
3.463000000000001,7.171005249023438,1.419097900390625,6.917391967773438
3.4750000000000014,6.930551147460938,0.956732177734375,8.736199951171876
3.4830000000000005,5.740243530273438,-0.140264892578125,8.185458374023439
3.493000000000002,5.4064788818359375,-0.8957214355468751,7.135864257812501
3.503,5.953033447265625,-0.7434936523437501,7.537069702148438
3.5130000000000017,6.910064697265626,-0.1375732421875,8.132223510742188
3.523,7.527200317382813,0.043365478515625,6.4994384765625
3.5330000000000013,7.595388793945313,-0.216827392578125,4.178488159179688
3.543,8.915045166015625,-0.34034423828125,4.542010498046875
3.553000000000001,8.002276611328126,-0.152227783203125,6.3241821289062505
3.5630000000000024,6.667068481445313,0.3276336669921875,8.322882080078125
3.5730000000000004,3.507070922851563,0.5169464111328126,8.835043334960938
3.583000000000002,5.392572021484376,0.576910400390625,9.13052673339844
3.593,6.468783569335938,0.6781463623046875,8.705844116210939
3.6030000000000015,8.189944458007814,0.7375122070312501,5.690896606445313
3.613,7.955172729492188,0.8812164306640625,4.9469543457031255
3.623000000000001,7.229473876953126,0.4469635009765625,4.418194580078126
3.632999999999999,8.159738159179689,-0.2379119873046875,6.988571166992188
3.6430000000000007,6.173599243164063,-1.0733703613281251,8.288638305664064
3.653000000000002,6.215768432617188,-1.2747955322265625,7.664175415039063
3.663,5.10277099609375,-0.9094787597656252,7.916592407226563
3.673000000000002,6.979449462890625,-0.2322296142578125,7.095339965820313
3.683,7.234408569335938,0.6660339355468751,7.520620727539063
3.6930000000000014,7.420132446289063,1.2885528564453126,5.85882568359375
3.703,7.027450561523438,1.4917724609375,5.393170166015626
3.713000000000001,7.521817016601563,0.7787841796875,6.355435180664063
3.7230000000000025,7.267904663085938,-0.047552490234375,6.516485595703125
3.733000000000001,7.073208618164063,-1.0083221435546876,7.407272338867188
3.742000000000001,6.303546142578125,-1.561456298828125,6.821389770507813
3.753,5.840133666992188,-1.2043640136718752,8.12998046875
3.7630000000000017,5.963201904296875,-0.3698028564453125,8.058801269531251
3.773,6.803594970703125,0.6691741943359375,7.567724609375
3.783000000000001,8.026950073242189,1.06409912109375,5.435040283203126
3.7920000000000016,7.5384155273437505,1.1429046630859376,5.070770263671875
3.802,7.526901245117188,1.2448883056640625,6.274536132812501
3.812000000000001,6.102569580078125,0.96241455078125,7.732662963867188
3.821999999999999,6.639404296875001,-0.0710296630859375,8.181869506835938
3.833000000000002,6.1238037109375005,-1.3579376220703123,7.156350708007813
3.8420000000000014,6.668862915039063,-1.6018310546875,6.683367919921875
3.852,6.458316040039063,-0.8842071533203125,7.121209716796876
3.862000000000002,6.447998046875001,-0.1544708251953125,7.180725097656251
3.872,8.816650390625,0.140264892578125,6.225787353515625
3.8820000000000014,7.835394287109375,0.201275634765625,4.966394042968751
3.892,8.055960083007813,0.7367645263671876,5.148678588867188
3.902000000000001,4.844970703125,1.31890869140625,8.071661376953125
3.9120000000000026,5.633923339843751,1.1601013183593751,9.499133300781253
3.9220000000000006,5.92581787109375,0.3757843017578125,10.008453369140623
3.932000000000002,6.591702270507813,-0.3864013671875,6.183468627929688
3.942,7.759280395507813,-0.2726043701171875,5.168865966796876
3.9520000000000017,6.914550781250001,0.0650482177734375,6.162982177734375
3.962,8.495745849609376,0.186920166015625,6.3080322265625
3.972000000000001,6.860418701171875,-0.467449951171875,7.0658813476562505
3.9819999999999993,7.543499755859376,-0.8918334960937501,5.436535644531251
3.992000000000001,5.571118164062501,-0.45997314453125,7.422824096679688
4.002000000000002,6.162234497070313,0.3593353271484375,8.994598388671875
4.0120000000000005,5.649624633789063,0.8910858154296876,8.812313842773438
4.022000000000002,6.5843750000000005,0.8674591064453125,7.381851196289063
4.032,6.647778320312501,0.7678680419921876,5.057461547851563
4.042000000000002,8.195178222656251,0.6959411621093751,6.139953613281251
4.052,7.77169189453125,0.350811767578125,6.037969970703125
4.062000000000001,8.038314819335938,-0.6225189208984375,6.154159545898438
4.071999999999999,6.824230957031251,-1.5562225341796876,5.95452880859375
4.082000000000001,6.1806274414062505,-1.4778656005859376,7.342672729492188
4.092000000000002,5.525808715820313,-0.8139251708984375,8.706591796875001
4.102,6.557608032226563,0.0082244873046875,8.618066406250001
4.112000000000002,7.0584045410156255,0.35589599609375,6.103915405273438
4.122,7.382748413085938,0.867010498046875,5.530294799804688
4.1320000000000014,7.541107177734376,1.6875152587890627,5.789440917968751
4.142,6.596786499023438,1.7238525390625,7.66402587890625
4.152000000000001,7.203305053710938,0.9221893310546876,7.545443725585938
4.162000000000003,5.921630859375,-0.5357879638671875,6.919485473632813
4.172000000000001,6.675143432617188,-1.1381195068359375,6.823782348632813
4.182000000000002,6.141598510742188,-1.00189208984375,7.788888549804688
4.192,6.910812377929688,-0.69683837890625,7.673895263671875
4.202000000000002,7.042105102539063,-0.7146331787109376,5.937930297851563
4.212,7.806085205078125,-0.8227478027343751,4.6236572265625
4.222000000000001,8.564981079101564,-0.4164581298828125,5.3526458740234375
4.231999999999999,7.988070678710938,0.09869384765625,7.129434204101563
4.242000000000001,6.719854736328125,1.2063079833984376,7.992257690429688
4.252000000000002,2.844775390625,1.7292358398437502,8.535971069335938
4.2620000000000005,5.456573486328125,1.684075927734375,8.887979125976564
4.272000000000002,7.131677246093751,1.29139404296875,9.251950073242188
4.282,8.338284301757813,0.3213531494140625,5.237652587890626
4.292000000000002,8.195178222656251,-0.1806396484375,4.149777221679688
4.301000000000002,6.689797973632813,-0.5873779296875,5.0561157226562505
4.311,7.621856689453126,-0.9739288330078124,7.4412170410156255
4.3210000000000015,6.50841064453125,-1.57132568359375,9.390420532226564
4.331,6.397155761718751,-1.6420562744140623,6.408071899414063
4.341000000000001,5.6931396484375005,-0.6530242919921876,6.643142700195313
4.350999999999999,6.822286987304688,0.6838287353515625,7.435385131835938
4.361000000000001,7.45048828125,1.8681549072265624,7.606454467773438
4.371000000000002,7.0234130859375,2.0854309082031253,7.1873046875
4.381,6.181823730468751,1.7320770263671876,5.100527954101563
4.391000000000002,6.887036132812501,0.9787139892578126,7.121807861328126
4.401,6.602169799804688,0.02392578125,8.180374145507812
4.411000000000001,7.0045715332031255,-0.9820037841796876,7.226333618164063
4.420999999999999,7.114331054687501,-2.0588134765625004,6.380706787109376
4.431000000000001,7.489816284179688,-2.37164306640625,4.918542480468751
4.4410000000000025,7.087564086914063,-1.3672088623046876,7.201660156250001
4.4510000000000005,6.862811279296875,0.1260589599609375,7.505218505859376
4.461000000000002,6.455923461914063,0.7943359375000001,6.786248779296876
4.471,8.045343017578126,0.8833099365234376,5.813815307617188
4.481000000000002,6.897653198242188,0.9520965576171876,5.515640258789063
4.491,6.808978271484375,1.4237335205078123,8.200112915039064
4.501000000000001,5.260382080078125,1.4765197753906252,8.939868164062501
4.510999999999999,5.732916259765625,0.6183319091796875,8.576046752929688
4.521000000000001,6.526953125,-0.4797119140625,6.484933471679688
4.531000000000002,7.629333496093751,-0.9153106689453124,6.1644775390625
4.541,7.233212280273438,-0.63822021484375,6.152365112304688
4.551000000000002,7.255044555664063,-0.452496337890625,6.441418457031251
4.561,7.262969970703126,-0.9523956298828126,5.475115966796875
4.5710000000000015,8.702703857421875,-1.5432128906250002,5.373730468750001
4.581,7.198818969726563,-1.3603302001953126,6.126794433593751
4.591000000000001,7.147827148437501,-0.0752166748046875,7.990313720703125
4.600999999999999,4.942916870117188,1.7697601318359375,9.5858642578125
4.611000000000001,3.4538360595703126,2.3786712646484376,8.521166992187501
4.621000000000002,7.146929931640625,2.2784820556640626,8.356378173828126
4.631,7.937228393554688,1.4676971435546875,6.039315795898438
4.641000000000002,8.761621093750001,0.657659912109375,4.398007202148438
4.651,7.424618530273438,-0.2235565185546875,5.744879150390625
4.661000000000001,6.356631469726563,-1.2013732910156252,6.381753540039063
4.670999999999999,6.532186889648438,-1.9080810546875,9.078189086914064
4.681000000000001,6.035427856445313,-2.2497711181640625,8.075100708007813
4.6910000000000025,6.2721435546875,-1.2816741943359375,6.911111450195313
4.7010000000000005,6.844119262695313,0.197088623046875,6.946701049804688
4.711000000000002,7.3245788574218755,1.6475891113281251,6.179281616210938
4.721,7.340130615234376,2.288351440429688,6.876419067382813
4.731000000000002,6.554019165039063,2.184124755859376,6.603067016601563
4.741,6.727032470703126,1.633233642578125,6.815707397460938
4.75,6.423623657226563,0.5022918701171876,7.523910522460938
4.760999999999999,6.78056640625,-0.9821533203125,6.916494750976563
4.77,7.369589233398438,-2.2071533203125,6.927859497070313
4.781000000000002,6.995001220703125,-2.4345977783203128,6.662582397460938
4.791,6.630731201171876,-1.4506500244140623,6.669161987304688
4.800000000000001,6.304891967773438,-0.3512603759765625,7.203454589843751
4.810000000000002,8.22269287109375,0.20875244140625,5.8749755859375
4.82,8.006463623046876,0.5157501220703126,5.5089111328125
4.830000000000002,7.800253295898438,0.97078857421875,5.153463745117188
4.84,5.926565551757813,1.505679321289063,7.584622192382813
4.850000000000001,5.414553833007813,1.5523345947265623,9.52051696777344
4.859999999999999,5.2050537109375,0.9558349609375,9.40283203125
4.870000000000001,5.991314697265626,0.157611083984375,7.901339721679688
4.880000000000003,7.08262939453125,-0.260491943359375,5.758486938476563
4.890000000000001,7.390225219726563,-0.3386993408203125,6.137112426757813
4.900000000000002,8.286245727539063,-0.6316406250000001,5.374478149414063
4.91,7.817449951171875,-1.323394775390625,5.33245849609375
4.920000000000002,8.634814453125001,-1.9315582275390624,4.607208251953125
4.93,6.718658447265626,-2.05462646484375,6.434988403320313
4.940000000000001,7.0389648437500005,-0.8575897216796876,8.688348388671876
4.949999999999999,4.608105468750001,1.3335632324218751,10.06318359375
4.960000000000001,3.595297241210938,2.84178466796875,9.021066284179687
4.970000000000002,6.825726318359376,3.189157104492188,7.509704589843751
4.98,8.15570068359375,2.6221160888671875,6.0370727539062505
4.990000000000002,9.360513305664064,1.406536865234375,3.9991943359375
5.0,7.315756225585938,0.0647491455078125,5.552874755859375
5.010000000000002,6.404782104492188,-1.588372802734375,6.579440307617188
5.02,5.8251800537109375,-2.8320648193359377,9.400439453125
5.030000000000001,6.026007080078125,-3.308786010742188,8.511746215820313
5.039999999999999,6.335546875,-2.1259552001953126,7.462600708007813
5.050000000000001,6.863259887695313,-0.143255615234375,5.8869384765625
5.060000000000002,7.670306396484375,1.867257690429688,5.7369537353515625
5.07,8.318695068359375,2.80589599609375,6.054718017578125
5.080000000000002,7.144686889648438,2.802606201171875,6.394613647460938
5.09,6.332705688476563,2.126702880859375,6.564337158203125
5.100000000000001,5.414105224609376,0.68487548828125,8.339181518554689
5.109999999999999,6.276480102539063,-0.9547882080078126,8.491259765625001
5.120000000000001,6.4168945312500005,-2.277883911132813,7.946200561523438
5.130000000000003,7.560546875000001,-2.4824493408203128,6.328070068359375
5.140000000000001,6.449343872070313,-1.675701904296875,5.7279815673828125
5.150000000000002,7.764663696289063,-0.16448974609375,6.474615478515625
5.16,7.6595397949218755,0.6769500732421876,5.979351806640626
5.170000000000002,8.621505737304688,0.8626739501953126,5.5510803222656255
5.18,7.032833862304688,0.843084716796875,4.769903564453125
5.190000000000001,6.395660400390626,0.8282806396484376,7.730569458007813
5.199999999999999,5.373580932617188,0.8317199707031251,9.3884765625
5.210000000000001,5.1443420410156255,0.349017333984375,10.151858520507814
5.220000000000002,5.990267944335938,-0.0982452392578125,7.329214477539063
5.23,6.714620971679688,-0.238958740234375,5.723944091796875
5.240000000000002,8.05042724609375,-0.0886749267578125,5.573809814453125
5.249000000000002,7.802944946289063,-0.2606414794921875,5.5346313476562505
5.259,9.065777587890626,-0.6264068603515626,5.778524780273438
5.269000000000002,7.453030395507813,-1.18133544921875,5.301654052734375
5.279,6.907672119140625,-0.8747863769531251,7.003375244140625
5.289999999999999,4.137515258789063,0.315521240234375,9.3107177734375
5.299,4.796072387695313,1.193597412109375,9.809420776367189
5.309000000000001,6.780117797851563,1.2816741943359375,9.392663574218751
5.319000000000003,7.730270385742188,0.95045166015625,4.631433105468751
5.329000000000001,8.431594848632812,1.1695220947265623,4.093103027343751
5.339000000000002,7.175491333007813,1.0771087646484376,5.776132202148438
5.349,7.715466308593751,0.3108856201171875,7.247119140625
5.359000000000002,6.143392944335938,-1.2670196533203126,8.458361816406251
5.369,6.273489379882813,-1.9466613769531247,6.992758178710938
5.379000000000001,5.193688964843751,-1.1853729248046876,7.832403564453125
5.388999999999999,6.437979125976563,0.094805908203125,8.654852294921875
5.399000000000001,6.709536743164063,0.7587463378906251,7.226632690429688
5.4090000000000025,7.814309692382813,1.18133544921875,6.141000366210938
5.4190000000000005,7.015786743164063,1.2686645507812502,4.150076293945313
5.429000000000002,8.196673583984376,1.1032775878906251,6.154159545898438
5.439,7.64847412109375,0.2139862060546875,6.524710083007813
5.449000000000002,7.2004638671875005,-1.320254516601563,6.784454345703126
5.459,6.750360107421876,-1.9970550537109373,6.8251281738281255
5.469000000000001,4.593899536132813,-1.54141845703125,8.192337036132812
5.478999999999999,5.966641235351563,-0.338250732421875,9.101068115234376
5.489000000000001,6.615478515625001,0.51859130859375,8.435183715820314
5.499000000000002,8.415744018554689,0.8710479736328126,4.834503173828125
5.509,7.310971069335938,1.3725921630859377,4.246527099609375
5.519000000000002,7.836141967773438,1.75794677734375,6.039913940429688
5.529,6.735107421875001,1.3211517333984375,7.847207641601563
5.5390000000000015,6.555065917968751,-0.06041259765625,8.623748779296875
5.549,5.616128540039063,-1.3899383544921875,6.639254760742188
5.559000000000001,5.7578887939453125,-1.4682952880859377,7.514041137695313
5.569000000000003,6.749761962890625,-0.9018524169921877,7.844665527343751
5.579000000000001,7.407720947265625,-0.45877685546875,7.023562622070313
5.589000000000002,8.043997192382813,-0.47791748046875,4.476513671875001
5.599,8.168112182617188,-0.3434844970703125,4.016839599609376
5.609000000000002,8.061941528320313,0.07835693359375,6.337042236328125
5.619,7.1550048828125,0.9308624267578126,8.489614868164063
5.629000000000001,4.20914306640625,1.6643371582031252,9.754391479492188
5.638999999999999,3.704458618164063,1.4660522460937502,8.411557006835938
5.649000000000001,6.489868164062501,1.1988311767578126,8.575299072265626
5.6590000000000025,8.46494140625,0.5369842529296875,6.523663330078126
5.6690000000000005,9.005514526367188,-0.131591796875,4.1070098876953125
5.679000000000002,7.614080810546875,-0.6485382080078126,4.667022705078125
5.689,6.609945678710938,-1.0137054443359377,5.627941894531251
5.699000000000002,6.742135620117188,-1.2374114990234375,9.351092529296876
5.709,5.7481689453125,-1.38291015625,8.847454833984376
5.719000000000001,5.888433837890625,-0.6268554687500001,7.437030029296875
5.728999999999999,6.282910156250001,0.6527252197265625,6.644039916992188
5.738,7.424468994140626,1.8599304199218751,6.47012939453125
5.748000000000001,7.9586120605468755,2.1377685546875003,7.029843139648438
5.757999999999999,6.703256225585938,1.77469482421875,6.22728271484375
5.768000000000001,6.303097534179688,0.9532928466796876,6.184066772460938
5.778000000000002,6.441418457031251,-0.2112945556640625,8.314807128906251
5.7890000000000015,6.238647460937501,-1.2525146484375,7.657595825195313
5.798000000000002,7.222744750976563,-1.9587738037109377,7.131677246093751
5.808,7.642044067382813,-2.2653228759765627,5.121911621093751
5.818000000000001,7.723989868164063,-1.6380187988281252,5.436834716796875
5.827999999999999,7.59105224609375,-0.1335357666015625,6.711032104492188
5.838000000000001,6.404782104492188,0.9453674316406252,7.062591552734376
5.8480000000000025,7.170407104492188,1.2884033203125,6.578692626953125
5.8580000000000005,6.643142700195313,1.1255584716796876,6.811520385742188
5.868000000000002,6.701312255859375,1.0039855957031252,7.163079833984376
5.878,5.397506713867188,1.246533203125,8.966635131835938
5.888000000000002,6.176141357421876,0.861029052734375,8.647824096679688
5.898,5.874826049804688,0.0360382080078125,7.1720520019531255
5.908000000000001,7.8030944824218755,-0.67889404296875,5.8199462890625
5.917999999999999,7.58267822265625,-0.8725433349609376,5.497845458984376
5.928000000000001,7.829861450195313,-0.6956420898437501,6.190048217773438
5.938000000000002,6.8200439453125,-0.816168212890625,6.053671264648438
5.948,7.17235107421875,-1.15621337890625,5.893368530273438
5.958000000000002,8.062689208984375,-1.41102294921875,6.402090454101563
5.968,7.087115478515625,-0.8049530029296875,7.25609130859375
5.9780000000000015,6.565084838867188,0.9640594482421876,8.193533325195313
5.988,3.8357513427734378,2.391082763671875,9.007757568359375
5.998000000000001,5.739495849609376,2.63662109375,7.747317504882813
6.007999999999999,7.463348388671876,1.9041931152343752,7.861862182617188
6.018000000000001,8.581430053710939,0.5941070556640625,4.839437866210938
6.028000000000002,8.010052490234376,-0.1541717529296875,5.145687866210938
6.038,5.951239013671875,-0.858038330078125,6.720452880859376
6.048000000000002,6.829763793945313,-1.4303131103515625,7.773336791992188
6.058,6.205151367187501,-1.95712890625,8.873025512695314
6.068000000000001,7.162930297851563,-1.89552001953125,5.964996337890625
6.077999999999999,6.344967651367188,-0.5019927978515626,6.5245605468750005
6.088000000000001,7.353588867187501,1.2063079833984376,7.070068359375001
6.0980000000000025,6.617422485351563,2.2107421875,7.256390380859376
6.1080000000000005,6.713125610351563,2.164236450195313,7.365252685546875
6.118000000000002,6.336892700195313,1.59046630859375,6.181225585937501
6.128,7.16636962890625,0.8481689453125001,7.205697631835938
6.138000000000002,6.453381347656251,-0.1601531982421875,6.974066162109375
6.148,7.462750244140626,-1.4838470458984376,6.614730834960938
6.158000000000001,7.399047851562501,-2.342184448242188,6.856530761718751
6.167999999999999,6.842474365234375,-1.9288665771484377,6.116326904296876
6.178000000000001,6.034979248046875,-0.62745361328125,7.628884887695313
6.188000000000002,6.9791503906250005,0.236566162109375,6.9958984375
6.198,7.860366821289063,0.4843475341796875,6.130084228515625
6.208000000000002,8.348602294921875,0.6352294921875,5.225390625
6.218,6.66153564453125,1.0347900390625,5.376422119140625
6.2280000000000015,6.075503540039063,1.4054901123046877,8.845361328125001
6.237000000000002,5.5201263427734375,1.0667907714843752,9.314157104492187
6.247,5.545697021484376,0.326885986328125,8.921475219726563
6.2570000000000014,6.486279296875001,-0.3026611328125,6.12918701171875
6.268000000000001,7.093994140625001,-0.3529052734375,6.164627075195313
6.277000000000001,8.011846923828125,-0.3156707763671875,6.252853393554688
6.287000000000003,7.443310546875001,-0.6419586181640625,5.903237915039063
6.297000000000001,8.015286254882813,-1.074566650390625,4.693939208984375
6.307000000000002,7.585519409179688,-1.7805267333984376,5.815759277343751
6.317,7.996295166015625,-1.4382385253906251,7.217959594726563
6.327000000000002,5.8476104736328125,0.3234466552734375,8.855828857421876
6.337,3.339889526367188,1.9611663818359373,9.531732177734376
6.347000000000001,5.576950073242188,2.6186767578125,8.272937011718751
6.356999999999999,7.243829345703125,2.412615966796875,7.704101562500001
6.367000000000001,9.376663208007812,1.4611175537109375,4.440325927734375
6.377000000000002,7.814160156250001,0.673809814453125,4.690499877929688
6.3870000000000005,6.583627319335938,-0.4568328857421875,5.82353515625
6.397000000000002,6.7234436035156255,-1.75794677734375,8.170953369140626
6.407,6.021820068359375,-2.8353546142578128,9.090301513671877
6.417000000000002,6.477307128906251,-2.6690704345703127,7.109695434570313
6.427,6.225338745117188,-1.0623046875000002,6.756042480468751
6.437000000000001,6.909765625,0.959423828125,6.499139404296876
6.446999999999999,7.950088500976563,2.28192138671875,6.754397583007813
6.457000000000001,7.34102783203125,2.648733520507813,6.673797607421876
6.466999999999999,6.51798095703125,2.376577758789063,5.44072265625
6.477000000000004,6.274237060546875,1.463360595703125,7.744775390625
6.487000000000002,6.387136840820313,-0.0399261474609375,7.998837280273438
6.497,6.6322265625000005,-1.6535705566406251,7.779766845703126
6.506999999999998,7.546640014648438,-2.641256713867188,6.521270751953126
6.517000000000003,6.542803955078125,-2.445513916015625,5.685214233398438
6.527000000000001,6.767855834960938,-0.9834991455078126,7.395758056640625
6.536999999999999,7.290335083007813,0.3330169677734375,6.851895141601563
6.547000000000004,7.828814697265625,0.8653656005859376,6.037969970703125
6.557000000000002,8.162130737304688,0.9227874755859377,4.42088623046875
6.567999999999998,6.7907348632812505,1.1484375,6.010006713867188
6.576999999999998,6.082681274414063,1.4033966064453125,8.864352416992189
6.587000000000003,5.144790649414063,0.9381896972656252,9.842019653320314
6.597000000000001,5.685064697265625,0.005682373046875,8.536419677734376
6.606999999999999,6.323733520507813,-0.6585571289062501,6.251358032226563
6.616999999999997,7.502078247070313,-0.46236572265625,6.138458251953126
6.627000000000002,7.520770263671875,-0.1248626708984375,6.275732421875
6.6370000000000005,7.608847045898438,-0.2660247802734375,5.948098754882813
6.646999999999999,7.977304077148438,-0.88465576171875,4.591656494140626
6.657000000000004,8.290881347656251,-1.5249694824218751,5.762823486328125
6.667000000000002,7.717111206054688,-1.1571105957031251,6.834100341796876
6.677,5.41021728515625,0.445916748046875,9.174191284179688
6.686999999999998,3.2391021728515628,1.747479248046875,9.660931396484376
6.697000000000003,5.786898803710938,1.9979522705078123,8.506063842773438
6.706000000000003,7.552023315429688,1.6114013671875,7.16397705078125
6.716999999999999,9.239239501953126,0.8713470458984376,4.180880737304688
6.727000000000004,7.878012084960938,0.8302246093750001,5.088116455078126
6.736000000000004,6.188851928710938,0.0157012939453125,5.84207763671875
6.746000000000002,7.0524230957031255,-1.20047607421875,8.520269775390625
6.756,6.226235961914063,-2.2937347412109377,8.535372924804689
6.767000000000003,6.026156616210938,-2.032196044921875,7.103863525390626
6.777000000000001,6.148776245117188,-0.5806488037109375,7.144537353515625
6.786000000000001,6.824380493164063,0.9082824707031252,7.189398193359375
6.795999999999999,7.65206298828125,1.6121490478515623,6.7841552734375
6.805999999999997,7.317700195312501,1.9049407958984377,6.265115356445313
6.8160000000000025,6.655404663085938,1.827780151367188,5.070321655273438
6.8260000000000005,7.075003051757813,1.1129974365234376,7.501629638671876
6.835999999999999,7.273138427734375,-0.334063720703125,7.0748535156250005
6.846000000000004,6.764117431640625,-1.7557037353515623,7.14005126953125
6.856000000000002,6.951934814453126,-2.1916015625000003,7.097882080078126
6.866999999999997,4.8931213378906255,-1.5493438720703123,7.339083862304688
6.875999999999998,6.81107177734375,-0.1577606201171875,8.512045288085938
6.886000000000003,7.484732055664063,0.2848663330078125,6.629086303710938
6.896000000000001,9.000131225585939,0.4777679443359375,4.213180541992188
6.905999999999999,7.476358032226563,0.9136657714843752,4.187460327148438
6.916000000000004,7.13646240234375,1.325189208984375,6.872232055664063
6.926000000000002,5.6168762207031255,1.2477294921875002,9.308624267578123
6.936,5.639007568359375,0.225201416015625,9.686203002929688
6.945999999999998,5.744879150390625,-0.6216217041015626,6.871185302734376
6.956000000000003,6.204702758789063,-0.6298461914062501,6.999337768554688
6.966999999999999,7.318896484375,-0.008673095703125,7.076947021484376
6.975999999999999,7.510153198242188,0.20635986328125,6.365902709960938
6.986000000000004,8.236898803710938,-0.4379913330078125,4.5795440673828125
6.996000000000002,8.398995971679689,-1.208551025390625,3.921585083007813
7.006,7.628286743164063,-1.3876953125,6.382949829101563
7.015999999999998,7.136013793945313,-0.5389282226562501,8.748312377929688
7.026000000000003,4.658648681640625,0.9138153076171877,10.073202514648438
7.036000000000001,3.135025024414063,1.5861297607421876,8.339630126953125
7.045999999999999,6.565682983398438,1.907931518554688,7.945901489257813
7.055999999999997,8.645880126953125,1.7352172851562502,6.9671875000000005
7.067,9.031832885742189,1.1997283935546876,3.964950561523438
7.0760000000000005,7.613632202148438,0.3692047119140625,4.861270141601563
7.085999999999999,6.328070068359375,-0.7405029296875001,5.771496582031251
7.096000000000004,6.624151611328125,-1.7141326904296876,9.304885864257812
7.106000000000002,5.5735107421875005,-2.342034912109375,9.326419067382814
7.116,6.126943969726563,-1.7875549316406252,7.4053283691406255
7.125999999999998,6.325827026367188,-0.378924560546875,6.334500122070313
7.136000000000003,7.662380981445313,1.3295257568359375,6.06578369140625
7.146000000000001,8.180523681640626,2.2279388427734377,6.4252685546875
7.155999999999999,7.157696533203126,2.289846801757813,6.246124267578126
7.167000000000002,6.411511230468751,1.6329345703125002,5.788095092773438
7.176000000000002,6.442764282226563,0.4505523681640625,8.213720703125
7.186,5.9144531250000005,-0.7753448486328126,7.982388305664063
7.195,6.525158691406251,-1.7214599609375,8.145532226562501
7.204999999999998,7.142892456054688,-2.0852813720703125,6.275582885742188
7.216000000000001,7.120312500000001,-1.6564117431640626,5.918939208984376
7.225999999999999,7.556808471679688,-0.3384002685546875,6.286349487304688
7.234999999999999,7.279418945312501,0.7731018066406251,6.455325317382813
7.244999999999997,7.8270202636718755,1.0862304687500002,5.801852416992188
7.255000000000003,7.132275390625001,0.91875,5.990716552734376
7.267000000000003,6.695181274414063,0.7723541259765626,7.080685424804688
7.276000000000003,5.141949462890626,0.8137756347656251,8.935980224609375
7.285000000000004,6.09808349609375,0.4294677734375,9.159088134765623
7.295000000000002,5.936135864257813,-0.2585479736328125,7.542453002929688
7.305,7.183267211914063,-0.5045349121093751,6.193936157226563
7.314999999999998,7.189547729492188,-0.1867706298828125,5.54779052734375
7.325000000000003,8.001828002929688,0.10048828125,6.264218139648438
7.335000000000001,7.451235961914063,-0.325091552734375,5.836993408203125
7.344999999999999,7.422824096679688,-0.9900787353515624,5.615679931640625
7.355000000000004,7.611538696289063,-1.197186279296875,6.309976196289063
7.366999999999997,6.477606201171875,-0.7901489257812501,7.801150512695313
7.375,6.3810058593750005,0.4355987548828125,8.864202880859375
7.384999999999998,4.183572387695313,1.4527435302734375,8.686105346679689
7.395000000000003,6.372482299804688,1.7989196777343752,7.036721801757813
7.405000000000001,7.619314575195313,1.5822418212890623,7.027899169921875
7.414999999999999,8.759976196289063,0.747381591796875,5.038619995117188
7.425000000000004,7.742681884765625,0.363970947265625,5.846115112304688
7.435000000000002,5.690896606445313,-0.3158203125,6.405679321289063
7.445,6.69144287109375,-0.9393859863281252,8.321237182617189
7.454999999999998,6.059054565429688,-1.6653839111328126,8.796463012695312
7.465000000000003,7.111489868164063,-1.4051910400390626,6.714920043945313
7.475000000000001,6.148626708984375,-0.2331268310546875,6.441418457031251
7.484999999999999,7.151864624023438,0.8064483642578125,6.286947631835938
7.494999999999997,7.422824096679688,1.3873962402343751,7.211679077148438
7.505000000000003,7.416693115234375,1.40205078125,6.756790161132813
7.515000000000001,5.94974365234375,1.1805877685546875,5.975015258789063
7.524999999999999,6.981692504882813,0.4457672119140625,6.954925537109376
7.535000000000004,6.938476562500001,-0.4233367919921875,7.43314208984375
7.545000000000002,7.539462280273438,-1.271356201171875,7.045843505859375
7.555,6.461456298828126,-1.4096771240234376,6.756341552734376
7.564999999999998,5.993258666992188,-0.7448394775390625,6.9301025390625
7.575000000000003,6.158645629882813,0.0342437744140625,7.790982055664063
7.585000000000001,8.025454711914064,0.4708892822265625,7.203753662109375
7.594999999999999,7.828665161132813,0.33077392578125,4.918841552734375
7.605000000000004,7.537518310546876,0.3985137939453125,5.116079711914063
7.615000000000002,6.664675903320313,0.716278076171875,6.54429931640625
7.625,6.0405120849609375,0.6841278076171875,9.102264404296877
7.634999999999998,6.331060791015625,0.182135009765625,8.640347290039063
7.645000000000003,5.628240966796875,-0.4107757568359375,7.218258666992188
7.655000000000001,6.897354125976563,-0.2361175537109375,6.172402954101563
7.664999999999999,6.849951171875,0.1861724853515625,7.100723266601563
7.675000000000004,7.847805786132813,0.365765380859375,6.545346069335938
7.685000000000002,7.284652709960938,-0.294287109375,5.394665527343751
7.694000000000003,7.970425415039063,-0.9948638916015624,4.613339233398438
7.704000000000001,7.169210815429688,-1.3687042236328126,6.413754272460938
7.713999999999999,7.2976623535156255,-0.93968505859375,8.652011108398439
7.725000000000001,6.1919921875,0.5761627197265625,9.2437255859375
7.734000000000002,3.1851196289062504,1.5393249511718752,7.733709716796875
7.744,6.693984985351563,1.9649047851562504,7.125396728515626
7.753999999999998,7.904479980468751,1.9172027587890623,7.7073913574218755
7.764000000000003,9.061590576171875,1.1092590332031251,5.001535034179688
7.774000000000001,7.103564453125,0.4089813232421875,5.25888671875
7.783999999999999,5.988772583007813,-0.62027587890625,5.8654052734375
7.794000000000004,6.854885864257813,-1.51868896484375,8.739340209960938
7.804000000000002,6.240142822265626,-2.2686126708984378,9.276174926757813
7.814,6.645086669921875,-1.8826599121093752,6.452484130859376
7.823999999999998,6.265414428710938,-0.60113525390625,6.063241577148438
7.834000000000003,7.265512084960938,0.9658538818359376,6.186160278320313
7.844000000000001,8.141644287109376,2.0547760009765628,7.256988525390626
7.853999999999999,6.989468383789063,2.214630126953125,7.022665405273438
7.864000000000004,5.786300659179688,1.8629211425781247,5.609249877929688
7.874000000000002,6.319097900390625,0.911871337890625,7.954873657226563
7.884,6.504522705078125,-0.24822998046875,8.364901733398439
7.893999999999998,6.975711059570313,-1.430462646484375,7.392169189453125
7.9040000000000035,7.301101684570313,-2.1953399658203128,6.028698730468751
7.9140000000000015,7.263717651367188,-2.0318969726562504,5.021722412109376
7.923999999999999,6.940420532226563,-0.9666015625,7.089956665039063
7.933999999999997,7.630679321289063,0.2666229248046875,7.114181518554688
7.944000000000003,6.917242431640625,0.7469329833984375,6.269302368164063
7.954000000000001,7.7058959960937505,0.8544494628906251,5.4842376708984375
7.963999999999999,6.32657470703125,1.0898193359375,6.562393188476563
7.974000000000004,6.102120971679688,1.434051513671875,9.117816162109376
7.984000000000002,5.5440521240234375,1.2092987060546876,9.108395385742188
7.994,5.991314697265626,0.2412017822265625,7.792776489257813
8.003999999999998,7.118966674804688,-0.5911163330078125,5.560800170898438
8.014000000000003,7.212127685546876,-0.6945953369140625,6.164627075195313
8.024000000000001,7.832254028320313,-0.48868408203125,6.356182861328126
8.033999999999999,6.958514404296875,-0.89661865234375,6.210983276367188
8.044000000000004,8.490362548828125,-1.4795104980468752,4.944113159179688
8.054000000000002,7.175491333007813,-1.607363891601563,6.15849609375
8.064,7.707989501953126,-0.4990020751953125,7.579986572265626
8.073999999999998,5.140902709960938,1.5059783935546875,9.26466064453125
8.084000000000003,3.607559204101563,2.34173583984375,8.778668212890626
8.094000000000001,7.092648315429688,2.13597412109375,7.859768676757813
8.104,7.397702026367188,1.5269134521484375,6.492410278320313
8.114000000000004,8.924465942382813,0.6899597167968751,4.638909912109376
8.124000000000002,7.059451293945313,0.196490478515625,6.165972900390625
8.134,6.42227783203125,-0.8864501953125,6.166271972656251
8.143,6.647030639648438,-1.7407501220703123,8.698666381835938
8.154000000000003,6.418838500976563,-2.19578857421875,7.745822143554688
8.164000000000001,6.227133178710938,-1.2978240966796877,7.079489135742188
8.174,6.889279174804688,0.0485992431640625,6.955822753906251
8.183999999999997,6.853390502929688,1.2996185302734375,6.478802490234376
8.192999999999998,7.530191040039063,1.8454254150390623,6.778921508789063
8.203000000000003,6.645236206054688,1.8228454589843752,6.678283691406251
8.213000000000001,6.83798828125,1.5002960205078126,6.327023315429688
8.222999999999999,6.645535278320313,0.5525360107421875,7.416394042968751
8.233000000000004,7.218557739257813,-0.7961303710937501,6.784902954101563
8.243000000000002,6.863110351562501,-1.7548065185546875,6.838137817382813
8.253,6.937728881835938,-1.7586944580078123,7.251455688476563
8.262999999999998,5.5160888671875,-1.12750244140625,7.068722534179688
8.273000000000003,6.973617553710938,-0.0758148193359375,7.925863647460938
8.283000000000001,7.687802124023438,0.2400054931640625,5.619717407226563
8.293,8.56243896484375,0.4000091552734375,5.12310791015625
8.303000000000004,7.480545043945313,0.734222412109375,4.9100189208984375
8.313000000000002,6.460110473632813,0.9842468261718752,7.422674560546875
8.323,5.681326293945313,0.9359466552734376,9.217556762695311
8.332999999999998,5.565585327148438,0.25421142578125,9.148770141601563
8.343000000000004,6.152664184570313,-0.1454986572265625,7.219305419921875
8.353000000000002,6.340481567382813,-0.128302001953125,6.66153564453125
8.363,7.557705688476563,0.2986236572265625,6.71177978515625
8.372999999999998,7.607052612304688,0.114544677734375,5.9014434814453125
8.383000000000003,7.972369384765625,-0.7636810302734376,4.686911010742188
8.393,8.405874633789063,-1.5331939697265626,4.693341064453126
8.402999999999999,7.057357788085938,-1.8279296875,6.8822509765625
8.413000000000004,7.302597045898438,-0.8369537353515626,8.678030395507813
8.423000000000002,4.561300659179688,0.9284698486328126,9.845608520507811
8.433,3.629690551757813,1.9495025634765624,7.872030639648438
8.442999999999998,6.945355224609376,2.4511962890625,7.921975708007813
8.453000000000003,8.424716186523439,2.1080108642578126,6.496298217773438
8.463000000000001,9.109292602539064,1.3295257568359375,4.266714477539063
8.472999999999999,7.034927368164063,0.32120361328125,5.469433593750001
8.483000000000004,6.296817016601563,-0.9381896972656252,6.124850463867188
8.493000000000002,6.295022583007813,-2.044158935546875,9.700408935546877
8.503,5.906079101562501,-2.747427368164063,8.561242675781251
8.512999999999998,6.305191040039063,-1.9731292724609373,7.079638671875
8.523000000000003,6.7721923828125,-0.4367950439453125,6.079840087890625
8.533000000000001,7.712774658203125,1.4515472412109376,5.905780029296875
8.543,7.999435424804688,2.4272705078125,6.730770874023438
8.553000000000004,6.770098876953125,2.5862274169921875,6.5843750000000005
8.563000000000002,6.243133544921876,2.0359344482421875,6.290536499023438
8.573,5.999539184570313,0.7976257324218751,8.470474243164062
8.582999999999998,6.325079345703125,-0.6160888671875,7.602865600585938
8.593000000000004,6.786996459960938,-1.91226806640625,7.734906005859376
8.603000000000002,7.650418090820313,-2.520281982421875,5.74039306640625
8.613,6.841427612304688,-2.05941162109375,5.977557373046875
8.622999999999998,7.534677124023438,-0.5872283935546876,6.760379028320313
8.633000000000003,6.947897338867188,0.41331787109375,6.363360595703125
8.643,8.276226806640626,0.8362060546875001,5.835946655273438
8.652000000000001,7.001580810546876,0.8780761718750001,5.333505249023438
8.663000000000004,7.051376342773438,1.1506805419921875,7.3822998046875
8.673000000000002,4.9683380126953125,1.422088623046875,8.955419921875
8.683,5.57530517578125,0.9658538818359376,9.668258666992188
8.692999999999998,5.9403228759765625,0.1311431884765625,7.613333129882813
8.701999999999998,7.047937011718751,-0.483001708984375,6.148626708984375
8.712000000000003,7.617370605468751,-0.40494384765625,5.63212890625
8.722000000000001,7.518527221679688,-0.3473724365234375,6.179281616210938
8.732,7.664923095703125,-0.696240234375,5.712130737304688
8.741999999999997,7.966986083984375,-1.4542388916015625,5.251260375976563
8.752000000000002,7.768850708007813,-1.7652740478515627,5.925518798828126
8.762,7.010104370117188,-1.0430145263671875,7.497741699218751
8.771999999999998,5.637063598632813,0.92772216796875,9.48477783203125
8.782000000000004,3.47581787109375,2.249920654296876,9.113479614257812
8.792000000000002,6.429006958007813,2.511907958984376,8.017080688476563
8.802,7.802944946289063,1.922286987304688,6.624749755859376
8.811999999999998,8.903082275390625,1.0352386474609376,4.378268432617188
8.822000000000003,7.539013671875001,0.538330078125,5.603268432617188
8.832,5.814413452148438,-0.62506103515625,6.402539062500001
8.841999999999999,7.097732543945313,-1.822247314453125,8.792874145507813
8.852000000000004,6.069671630859375,-2.638116455078125,8.189645385742189
8.862000000000002,6.591702270507813,-1.8561920166015624,6.7189575195312505
8.872,6.029446411132813,-0.2833709716796875,6.8954101562500005
8.881999999999998,7.51748046875,1.1714660644531252,6.729125976562501
8.892000000000003,7.426861572265626,1.872491455078125,6.83499755859375
8.902000000000001,7.3709350585937505,2.0492431640625,6.09808349609375
8.911999999999999,6.248516845703126,1.7791809082031251,5.592202758789063
8.922000000000004,7.351495361328125,0.7388580322265625,7.471722412109376
8.932000000000002,6.834100341796876,-0.7898498535156251,7.278820800781251
8.942,7.066928100585938,-1.8412384033203129,7.503573608398438
8.951999999999998,5.613287353515625,-1.81776123046875,7.135864257812501
8.962000000000003,5.677438354492188,-0.92054443359375,7.808776855468751
8.972000000000001,7.0748535156250005,-0.04246826171875,7.583425903320313
8.982,8.373574829101564,0.2423980712890625,5.9294067382812505
8.991999999999997,8.576495361328126,0.5007965087890626,3.753057861328125
9.002000000000002,7.126742553710938,0.93848876953125,5.148977661132813
9.012,6.922625732421875,1.0742675781250002,7.5264526367187505
9.021999999999998,5.474667358398438,0.54730224609375,9.750653076171876
9.032000000000004,5.972024536132813,-0.2165283203125,8.564682006835938
9.042000000000002,5.33006591796875,-0.5299560546875001,7.065582275390626
9.052,6.697125244140626,-0.168975830078125,7.114480590820313
9.061999999999998,7.35478515625,0.256005859375,6.6097961425781255
9.072000000000005,8.022763061523438,-0.002392578125,5.574856567382813
9.082,8.421575927734375,-0.6984832763671875,4.059307861328126
9.092,7.7642150878906255,-1.2069061279296875,5.674746704101563
9.102000000000004,8.087960815429689,-0.7557556152343751,7.495947265625
9.112000000000002,5.152416992187501,0.61907958984375,9.496292114257812
9.122,2.9217864990234377,1.23995361328125,8.736499023437501
9.131999999999998,6.243731689453125,1.3815643310546877,8.6551513671875
9.142000000000005,7.778121948242188,1.26986083984375,7.371084594726563
9.152,9.103759765625,1.045108032226563,4.419989013671875
9.162,7.573406982421876,0.7858123779296876,4.777230834960938
9.172000000000004,6.769500732421876,-0.116339111328125,5.271298217773438
9.180999999999996,7.1376586914062505,-1.170269775390625,8.615673828125
9.191000000000004,5.903088378906251,-2.06539306640625,8.757882690429689
9.201,5.67340087890625,-1.7494232177734377,7.659390258789063
9.211,6.160290527343751,-0.6805389404296875,7.161883544921875
9.221000000000004,7.210781860351563,0.8007659912109376,6.696377563476563
9.231000000000002,8.10306396484375,1.7223571777343751,6.477008056640625
9.241,6.8798583984375,2.136273193359376,6.057858276367188
9.250999999999998,6.706845092773438,1.9012023925781247,5.610745239257813
9.261000000000005,6.806735229492188,0.8837585449218751,8.159588623046876
9.271,6.403436279296876,-0.3877471923828125,7.407720947265625
9.281,6.477008056640625,-1.559512329101563,7.381851196289063
9.291000000000004,7.323233032226563,-2.159002685546876,6.3839965820312505
9.301000000000002,6.714172363281251,-1.95533447265625,6.516186523437501
9.311,7.425515747070313,-0.6944458007812501,7.191491699218751
9.320999999999998,6.756491088867188,0.374139404296875,6.5320373535156255
9.331000000000005,7.855731201171875,0.9363952636718752,5.679830932617188
9.341,7.280914306640626,1.08682861328125,5.651119995117188
9.351,7.268502807617188,1.152923583984375,7.103414916992188
9.361000000000004,5.375674438476563,1.2676177978515626,8.437576293945312
9.371000000000002,5.839984130859375,0.6720153808593751,8.915045166015625
9.381,6.091204833984375,-0.2169769287109375,7.574902343750001
9.390999999999998,6.9277099609375,-0.7602416992187501,6.847259521484376
9.401000000000003,7.115826416015626,-0.5229278564453126,6.0011840820312505
9.411,7.337289428710938,-0.0992919921875,6.538168334960938
9.421,7.732662963867188,-0.3074462890625,5.656503295898438
9.430999999999996,7.09219970703125,-0.8282806396484376,5.564239501953125
9.441000000000004,8.438323974609375,-1.1115020751953126,5.356832885742188
9.451,6.630880737304688,-0.9087310791015626,7.4744140625
9.461,7.5249572753906255,-0.0988433837890625,8.184561157226563
9.471000000000004,4.491018676757813,1.3073944091796876,9.172994995117188
9.481000000000002,4.239349365234375,2.0493927001953125,7.621408081054688
9.491,7.554864501953125,2.167227172851563,8.003771972656251
9.500999999999998,7.883993530273438,1.0549774169921875,5.8476104736328125
9.511000000000005,9.10615234375,0.0195892333984375,4.6786865234375
9.521,6.303994750976563,-0.211444091796875,6.279769897460938
9.531,5.752206420898438,-0.5849853515625001,6.831707763671876
9.541000000000004,6.72972412109375,-1.454986572265625,9.769046020507814
9.551000000000002,7.190744018554688,-2.07735595703125,7.189846801757813
9.561,6.242684936523438,-1.100885009765625,5.691046142578125
9.570999999999998,6.723892211914063,0.4861419677734375,6.595291137695313
9.581000000000005,6.92471923828125,1.65267333984375,7.25369873046875
9.591,7.372879028320313,1.8049011230468752,7.933489990234375
9.601,6.492410278320313,1.4416778564453123,6.334350585937501
9.611000000000004,6.762322998046876,1.0854827880859377,5.41739501953125
9.621000000000002,6.626992797851563,0.2325286865234375,7.349700927734376
9.631,7.889526367187501,-0.9677978515625,7.331906127929688
9.64,7.086517333984376,-1.8819122314453127,7.2387451171875
9.65,6.048886108398438,-1.6294952392578126,6.35289306640625
9.661,5.539715576171876,-0.747381591796875,6.9133544921875005
9.671,7.594342041015626,0.1224700927734375,8.343069458007813
9.680999999999996,8.270843505859375,0.290997314453125,5.91026611328125
9.689999999999998,7.688848876953125,0.4382904052734375,4.831512451171875
9.700000000000005,6.780267333984376,1.0555755615234377,4.8038482666015625
9.71,6.261676025390625,1.236962890625,8.469577026367189
9.72,6.481494140625,0.8252899169921876,9.851589965820311
9.730000000000004,5.333804321289063,0.0155517578125,8.305834960937501
9.740000000000002,6.0509796142578125,-0.2714080810546875,6.0236145019531255
9.75,6.713723754882813,-0.204266357421875,6.5425048828125005
9.759999999999998,8.1311767578125,-0.179443359375,6.898550415039063
9.770000000000003,7.736849975585938,-0.6352294921875,5.6876068115234375
9.78,8.0390625,-1.13468017578125,4.2879486083984375
9.79,7.259381103515626,-1.505828857421875,5.51788330078125
9.800000000000004,7.785598754882813,-0.9416290283203126,8.298358154296876
9.810000000000002,6.078942871093751,0.858038330078125,9.71925048828125
9.82,2.6164337158203126,2.0061767578125003,8.437277221679688
9.829999999999998,6.2972656250000005,2.233023071289063,7.561294555664063
9.840000000000003,7.683316040039063,1.7731994628906251,7.291381835937501
9.85,9.557003784179688,0.999798583984375,5.075106811523438
9.86,7.473965454101563,0.3892425537109375,5.1093505859375
9.869999999999996,6.0011840820312505,-0.6984832763671875,5.359375
9.880000000000004,6.948794555664063,-1.7844146728515626,8.604010009765625
9.89,6.251806640625,-2.480953979492188,9.264959716796875
9.9,6.094793701171875,-1.762432861328125,7.208389282226563
9.910000000000004,6.062493896484376,-0.34273681640625,6.45218505859375
9.920000000000002,7.393963623046876,1.1491851806640625,6.144888305664063
9.93,8.467782592773439,2.1361236572265625,6.82303466796875
9.939999999999998,6.832455444335938,2.3966156005859376,6.4396240234375
9.950000000000005,6.0938964843750005,2.032943725585937,5.90428466796875
9.96,6.3226867675781255,0.7360168457031251,8.221795654296876
9.97,6.489718627929688,-0.7035675048828125,8.198617553710939
9.980000000000004,6.4303527832031255,-1.68856201171875,7.411160278320313
9.990000000000002,7.144686889648438,-2.1114501953125,6.298162841796875
10.0,7.247866821289063,-1.8599304199218751,5.52147216796875
10.009999999999998,7.649969482421875,-0.843084716796875,6.929953002929688
10.020000000000003,7.856628417968751,0.3449798583984375,6.114382934570313
10.03,6.692489624023438,0.898114013671875,5.921182250976563
10.04,7.6550537109375005,1.0024902343750002,5.77867431640625
10.050000000000004,6.345715332031251,0.9888824462890624,7.539761352539063
10.060000000000002,6.126046752929688,1.0166961669921877,8.764163208007814
10.07,5.111444091796876,0.8015136718750001,8.88184814453125
10.079999999999998,6.2165161132812505,0.2232574462890625,7.745971679687501
10.090000000000003,6.791333007812501,-0.227593994140625,6.362911987304688
10.1,7.795767211914063,-0.3835601806640625,6.133374023437501
10.11,7.508358764648438,-0.2452392578125,5.835198974609376
10.119999999999996,7.434188842773438,-0.33675537109375,6.127691650390625
10.130000000000004,7.036422729492188,-0.8306732177734376,5.69493408203125
10.14,7.369589233398438,-1.2804779052734376,6.214721679687501
10.15,7.5593505859375005,-1.2101959228515626,7.099975585937501
10.160000000000004,6.606805419921876,-0.480908203125,7.60062255859375
10.170000000000002,6.27872314453125,0.8477203369140626,8.27054443359375
10.18,4.1817779541015625,2.0212799072265626,8.065081787109376
10.189,6.882101440429688,2.3702972412109378,7.534378051757813
10.198999999999998,7.541705322265625,1.6404113769531252,7.285250854492188
10.209000000000003,8.556307983398439,0.3632232666015625,4.735360717773438
10.219,7.274932861328126,-0.1882659912109375,5.906228637695313
10.229,5.695831298828125,-0.6519775390625,7.165621948242188
10.239000000000004,6.750360107421876,-1.2637298583984375,8.367294311523438
10.249000000000002,6.522766113281251,-1.9324554443359376,8.304638671875
10.259,7.24412841796875,-1.6022796630859375,5.365805053710938
10.268999999999998,6.554766845703125,-0.0838897705078125,6.539215087890626
10.279000000000003,7.171453857421875,1.26627197265625,6.765762329101563
10.289,7.21123046875,1.7431427001953126,7.579388427734376
10.299,6.848455810546875,1.5382781982421876,6.735107421875001
10.308999999999996,6.012997436523438,1.1961395263671877,5.950939941406251
10.319000000000004,6.650619506835938,0.5894714355468751,7.751205444335938
10.329,6.929953002929688,-0.22908935546875,7.813412475585938
10.339,7.133621215820313,-1.23756103515625,6.897802734375
10.349000000000004,6.924868774414063,-1.5399230957031251,6.3047424316406255
10.359000000000002,6.514840698242188,-1.0528839111328123,6.1058593750000005
10.369,6.612039184570313,-0.27694091796875,7.896405029296876
10.378999999999998,7.977603149414063,0.21114501953125,6.833950805664063
10.389000000000005,7.251754760742188,0.14176025390625,5.499490356445313
10.399,7.815655517578126,0.28052978515625,4.974468994140626
10.409,6.066082763671876,0.6895111083984375,7.058255004882813
10.419000000000004,6.545196533203126,0.9893310546875,9.356027221679687
10.429000000000002,5.594894409179688,0.6350799560546876,8.633917236328125
10.439,6.269451904296876,0.045458984375,6.944458007812501
10.448999999999998,6.62205810546875,-0.01375732421875,5.961557006835938
10.459000000000003,7.408468627929688,0.2480804443359375,7.2028564453125
10.469,7.268801879882813,0.2666229248046875,6.681274414062501
10.479,7.40323486328125,-0.43126220703125,5.966940307617188
10.489000000000004,7.278671264648438,-1.3166656494140625,4.2767333984375
10.499000000000002,7.9529296875,-1.6525238037109375,6.490765380859376
10.509,7.119265747070313,-1.3047027587890625,7.801150512695313
10.518999999999998,6.723593139648438,-0.0091217041015625,8.740386962890625
10.529000000000003,4.245480346679688,1.3648162841796876,8.10904541015625
10.539,5.235110473632813,2.200872802734376,7.112088012695313
10.549,7.683166503906251,2.5401702880859376,8.530886840820314
10.560000000000002,8.503372192382812,1.5663909912109375,5.5328369140625
10.569000000000004,7.782009887695313,0.6889129638671876,5.186959838867188
10.579,6.12918701171875,-0.3720458984375,5.608502197265626
10.589,6.812268066406251,-1.3241424560546875,7.66103515625
10.599000000000004,6.17943115234375,-2.355194091796875,9.566873168945314
10.609000000000002,6.958813476562501,-2.380465698242188,7.412655639648438
10.619,6.199618530273438,-1.1270538330078126,5.456872558593751
10.628,7.015936279296875,0.4903289794921875,6.178085327148438
10.637999999999998,7.952630615234375,1.8049011230468752,6.870437622070313
10.649,7.663278198242188,2.2617340087890625,7.436282348632813
10.659,6.088214111328125,2.1277496337890627,5.29776611328125
10.669000000000004,5.916696166992188,1.152325439453125,7.289736938476563
10.678000000000004,6.701910400390625,0.021234130859375,8.3680419921875
10.688000000000002,6.557458496093751,-1.079949951171875,8.376565551757814
10.698,7.147677612304688,-1.9148101806640627,6.349154663085938
10.707999999999998,6.545495605468751,-1.961764526367188,5.480648803710938
10.718000000000004,7.517779541015625,-1.02821044921875,6.7028076171875
10.728000000000002,7.139154052734376,0.174658203125,7.236352539062499
10.738,8.0474365234375,0.8140747070312501,6.159991455078125
10.747999999999998,6.815258789062501,0.7692138671875001,5.119967651367188
10.759,7.286746215820313,0.8628234863281251,6.3107238769531255
10.768,5.7010650634765625,1.134381103515625,8.6910400390625
10.778,5.941818237304688,0.9673492431640626,9.394009399414063
10.788000000000004,5.85882568359375,0.0587677001953125,7.639053344726563
10.798000000000002,6.684265136718751,-0.67410888671875,6.171804809570313
10.808,7.68436279296875,-0.575115966796875,5.85284423828125
10.817999999999998,7.014141845703126,-0.1435546875,6.774884033203126
10.828000000000005,7.464694213867188,-0.078057861328125,6.381753540039063
10.838,6.980795288085938,-0.7947845458984376,5.700466918945313
10.848,8.50262451171875,-1.1017822265625,5.528948974609375
10.859000000000002,6.953280639648438,-0.6311920166015625,6.947299194335938
10.868000000000002,6.617123413085938,0.5043853759765625,8.499484252929689
10.878,4.051531982421875,1.429864501953125,8.651263427734376
10.887999999999998,5.888882446289063,1.4102752685546875,8.004968261718751
10.898000000000003,7.5010314941406255,1.0654449462890625,7.467684936523438
10.908,8.431146240234376,0.49107666015625,5.1298370361328125
10.918,7.629333496093751,0.5012451171875001,5.720056152343751
10.928000000000004,5.890078735351563,-0.0061309814453125,6.130831909179688
10.938000000000002,7.293774414062501,-0.65736083984375,8.04324951171875
10.948,6.446353149414063,-1.3941253662109376,8.148522949218751
10.959000000000003,6.842025756835938,-1.1953918457031252,6.631777954101563
10.968000000000004,5.799908447265626,-0.206658935546875,6.901092529296876
10.978000000000002,7.010253906250001,0.6255096435546875,7.120761108398438
10.988,7.11851806640625,1.0379302978515623,7.592697143554688
10.997999999999998,7.212277221679688,1.1687744140625,6.504522705078125
11.008000000000004,6.163729858398438,1.0187896728515626,5.541510009765625
11.018,7.615576171875,0.461468505859375,6.740939331054688
11.028,7.489218139648438,-0.4233367919921875,6.789089965820313
11.038000000000004,7.564883422851563,-1.227691650390625,6.724191284179688
11.048000000000002,6.2123291015625,-1.320254516601563,6.705648803710938
11.058999999999996,5.446554565429688,-0.640911865234375,7.839581298828126
11.067999999999998,6.289340209960938,0.117236328125,8.333200073242189
11.078000000000005,7.553817749023438,0.4086822509765625,7.511349487304688
11.088,7.934387207031251,0.4460662841796875,4.615731811523438
11.098,7.131826782226563,0.7584472656250001,5.190249633789063
11.108000000000004,7.195379638671875,1.0011444091796875,6.797164916992188
11.118000000000002,6.283956909179688,0.6732116699218751,8.684609985351564
11.128,6.713125610351563,-0.176751708984375,7.801449584960938
11.137,5.693289184570313,-0.8531036376953126,6.533383178710938
11.146999999999998,6.754248046875,-0.6111541748046876,7.033731079101563
11.159,6.44022216796875,-0.0586181640625,7.658343505859375
11.168,7.770645141601563,0.2636322021484375,6.911859130859376
11.177,6.974813842773438,-0.306549072265625,4.8427276611328125
11.186999999999998,8.319143676757813,-0.7091003417968751,4.679135131835938
11.197000000000005,7.629333496093751,-0.6711181640625,6.861166381835938
11.207,7.661782836914063,0.0007476806640625,8.256039428710938
11.217,4.8078857421875005,1.0205841064453125,8.799453735351562
11.227000000000004,3.5021362304687504,1.2522155761718752,7.655203247070313
11.237000000000002,7.092349243164063,1.4395843505859376,8.464193725585938
11.247,8.031585693359375,1.0398742675781252,7.316952514648438
11.259,8.766107177734376,0.4681976318359375,4.450045776367188
11.267000000000005,6.84696044921875,0.04127197265625,5.045648193359376
11.277,6.6023193359375005,-0.4773193359375,6.0176330566406255
11.287,6.94864501953125,-1.164886474609375,9.192584228515626
11.297000000000004,6.391174316406251,-1.7936859130859375,8.406472778320314
11.307000000000002,6.010305786132813,-1.4267242431640623,6.0484375
11.317,6.545046997070313,-0.2241546630859375,6.884045410156251
11.326999999999998,7.309475708007813,1.2182708740234376,6.9387756347656255
11.337000000000003,7.701110839843751,2.009466552734376,7.4531799316406255
11.347,6.225189208984376,2.0037841796875,6.323883056640626
11.359000000000002,6.5484863281250005,1.4922210693359377,5.911462402343751
11.366999999999996,6.719107055664063,0.5852844238281251,8.063137817382813
11.377000000000002,6.716265869140625,-0.4684967041015625,7.594940185546876
11.387,6.770697021484375,-1.5759613037109377,6.915447998046876
11.396999999999998,7.518078613281251,-2.24603271484375,5.956472778320313
11.407000000000004,7.177883911132813,-1.94576416015625,5.750112915039063
11.417000000000002,7.170706176757813,-0.6911560058593751,7.490115356445313
11.427,6.919036865234376,0.3931304931640625,6.55985107421875
11.436999999999998,7.1944824218750005,0.8345611572265625,6.388931274414063
11.447000000000005,7.5856689453125,1.0023406982421876,5.643942260742188
11.457,6.252255249023438,1.3218994140625,7.353588867187501
11.467,6.0509796142578125,1.62874755859375,8.767153930664064
11.477000000000004,5.546145629882813,1.0473510742187502,8.73829345703125
11.487000000000002,6.593945312500001,-0.0264678955078125,7.285549926757813
11.497,6.747070312500001,-0.7968780517578126,5.9996887207031255
11.506999999999998,7.584024047851563,-0.68427734375,6.319097900390625
11.517000000000005,7.11014404296875,-0.6062194824218751,6.419436645507813
11.527,7.455871582031251,-0.9172546386718752,6.069522094726563
11.537,7.67239990234375,-1.35599365234375,4.985983276367188
11.547000000000004,8.124896240234376,-1.2792816162109375,6.366650390625001
11.557000000000002,7.30394287109375,-0.3928314208984375,6.838885498046875
11.567,5.622409057617188,1.131988525390625,9.0882080078125
11.576999999999998,3.927267456054688,2.109954833984375,8.7532470703125
11.586,6.067129516601563,2.303903198242188,8.377911376953126
11.596000000000004,7.397103881835938,1.681085205078125,7.123901367187501
11.606000000000002,8.88543701171875,0.492572021484375,4.75584716796875
11.616999999999996,7.550079345703126,0.0354400634765625,5.480947875976563
11.625999999999998,6.146234130859376,-0.6829315185546876,5.9817443847656255
11.636000000000005,7.038516235351563,-1.424929809570313,8.575299072265626
11.646,6.2524047851562505,-2.194891357421876,8.008706665039064
11.656,6.857727050781251,-1.68916015625,6.827520751953125
11.667000000000002,6.018081665039063,-0.11185302734375,6.664675903320313
11.676000000000002,6.969580078125,1.3426849365234377,6.88524169921875
11.686,7.314410400390625,1.8152191162109377,7.405776977539063
11.695999999999998,7.33385009765625,1.776788330078125,6.569570922851563
11.706000000000005,6.281265258789063,1.5107635498046876,5.427264404296875
11.716,7.029693603515626,0.72794189453125,7.304690551757813
11.726,6.827072143554688,-0.5239746093750001,7.346560668945313
11.736000000000004,7.317550659179688,-1.6215698242187502,7.483984375
11.746000000000002,6.518728637695313,-1.9026977539062504,6.608450317382813
11.756,5.751010131835938,-1.14783935546875,7.000982666015625
11.765999999999998,6.6112915039062505,-0.0949554443359375,7.817749023437501
11.776000000000003,7.907171630859375,0.347222900390625,6.90079345703125
11.786,8.359219360351563,0.4281219482421875,4.568328857421875
11.796,7.32547607421875,0.6305938720703126,4.796520996093751
11.805999999999996,6.936831665039063,0.9308624267578126,6.763668823242188
11.816000000000004,5.673550415039063,0.858038330078125,9.381149291992188
11.826,6.299508666992188,0.195294189453125,9.001028442382813
11.836,5.194287109375001,-0.3718963623046875,7.255343627929688
11.846000000000004,6.8236328125000005,-0.2361175537109375,6.639852905273438
11.856000000000002,6.799407958984376,0.331671142578125,7.160537719726563
11.866,8.185906982421876,0.4245330810546875,6.321490478515625
11.875999999999998,7.389776611328125,-0.3213531494140625,4.921682739257813
11.886000000000005,8.174542236328126,-1.1174835205078126,4.279873657226563
11.896,7.514938354492188,-1.4801086425781251,6.3558837890625
11.906,7.111340332031251,-1.19449462890625,8.690142822265626
11.916000000000004,5.984585571289063,0.142657470703125,9.14248962402344
11.926000000000002,3.1236602783203127,1.3627227783203126,8.419781494140626
11.936,6.222048950195313,2.100384521484376,7.155603027343751
11.945999999999998,8.002276611328126,2.2467803955078125,8.006463623046876
11.956000000000005,9.3442138671875,1.379620361328125,4.5375244140625
11.966,7.525555419921876,0.5994903564453126,4.760931396484375
11.976,5.9806976318359375,-0.356793212890625,5.989520263671875
11.986000000000004,6.590954589843751,-1.3624237060546875,8.620758056640625
11.996000000000002,6.060549926757813,-2.32379150390625,10.029986572265626
12.006,6.557907104492188,-2.3191558837890627,6.362164306640626
12.015999999999998,6.390725708007813,-0.9939666748046876,5.883050537109376
12.026000000000003,7.218258666992188,0.7768402099609376,6.312667846679688
12.036,8.227328491210939,2.1068145751953127,6.9181396484375
12.046,7.165621948242188,2.357138061523438,7.228277587890625
12.055999999999996,6.169412231445313,1.927072143554688,5.1492767333984375
12.066000000000004,6.075503540039063,0.9419281005859376,7.664773559570313
12.076,6.619216918945313,-0.1924530029296875,8.595635986328126
12.085,6.554766845703125,-1.3032073974609375,7.866796875
12.095,7.236801147460938,-2.108758544921875,6.384893798828125
12.105000000000004,6.9970947265625005,-2.0891693115234378,4.8871398925781255
12.116,7.312167358398438,-0.9093292236328124,7.175491333007813
12.125,7.212127685546876,0.4723846435546875,6.971224975585938
12.134999999999998,7.266708374023438,0.9981536865234376,6.592001342773438
12.145000000000003,7.6933349609375,0.8291778564453126,5.0291992187500005
12.155,6.536822509765625,0.8465240478515625,6.252255249023438
12.165,6.306088256835938,1.1847747802734376,8.862857055664064
12.175000000000004,5.259933471679688,0.9823028564453126,9.405972290039063
12.185000000000002,6.195730590820313,0.0070281982421875,7.938275146484376
12.195,6.701910400390625,-0.762335205078125,5.891873168945313
12.204999999999998,7.719055175781251,-0.6491363525390625,5.749813842773438
12.215000000000003,7.151565551757813,-0.2062103271484375,6.587515258789063
12.225,7.606903076171876,-0.21533203125,6.344369506835938
12.235,7.1780334472656255,-0.9066375732421876,5.258139038085938
12.244999999999996,8.20474853515625,-1.3425354003906251,5.961407470703126
12.255000000000004,6.89481201171875,-0.8202056884765626,6.988720703125001
12.265,6.564337158203125,0.666632080078125,8.974859619140625
12.275,4.034185791015625,1.8104339599609376,8.947344970703126
12.285000000000004,5.649624633789063,1.801461791992188,7.474264526367188
12.295000000000002,7.56832275390625,1.484744262695313,7.369290161132813
12.305,8.669805908203125,0.614593505859375,5.144192504882813
12.314999999999998,7.954724121093751,0.374139404296875,5.701962280273438
12.325000000000005,5.903536987304688,-0.318511962890625,6.092401123046876
12.335,6.853390502929688,-0.97198486328125,7.9589111328125
12.345,6.202160644531251,-1.642205810546875,8.526699829101563
12.355000000000004,6.947000122070313,-1.4153594970703125,7.21182861328125
12.365000000000002,6.06339111328125,-0.246435546875,6.498242187500001
12.375,6.888531494140626,0.81168212890625,6.638806152343751
12.384999999999998,7.450936889648438,1.3075439453125002,7.028198242187501
12.395000000000003,7.2985595703125,1.4241821289062502,7.002029418945313
12.405,5.991015625,1.2797302246093751,5.7833099365234375
12.415,7.055862426757813,0.6898101806640625,7.2647644042968755
12.425000000000004,7.195080566406251,-0.32838134765625,6.8071838378906255
12.435000000000002,7.304241943359376,-1.346722412109375,6.9223266601562505
12.445,7.218109130859376,-1.60721435546875,6.6130859375
12.454999999999998,5.2672607421875,-0.9989013671875,7.219305419921875
12.465000000000003,6.684115600585938,-0.101983642578125,7.798907470703125
12.475,7.2172119140625,0.2130889892578125,7.456619262695313
12.485,8.456716918945313,0.225201416015625,4.842279052734376
12.494999999999996,7.036721801757813,0.5643493652343751,5.11533203125
12.505000000000004,7.403384399414063,0.9380401611328124,6.4587646484375005
12.515,5.726785278320313,0.8982635498046876,8.739938354492189
12.525,6.393417358398438,0.3428863525390625,9.0164306640625
12.535000000000004,5.431301879882813,-0.138470458984375,6.973617553710938
12.545000000000002,6.628338623046876,-0.17764892578125,7.061843872070313
12.555,7.031787109375,0.0442626953125,6.880905151367188
12.564999999999998,7.613781738281251,0.1987335205078125,6.767706298828125
12.575000000000005,7.806683349609376,-0.28770751953125,4.878915405273438
12.585,7.485479736328125,-1.1126983642578123,4.458270263671875
12.594,8.018276977539063,-1.4973052978515626,5.9276123046875
12.604,6.479400634765626,-1.378125,8.606552124023438
12.615000000000002,6.970776367187501,-0.085235595703125,8.911605834960938
12.624000000000002,4.027755737304688,1.4570800781250002,8.624945068359375
12.634,4.850503540039063,2.24005126953125,6.841128540039063
12.643999999999998,8.093942260742189,2.5175903320312503,7.9325927734375
12.654000000000003,8.44879150390625,1.77529296875,5.862713623046876
12.664,8.321087646484376,0.6447998046875001,4.565936279296875
12.674,5.990118408203125,-0.49705810546875,6.039315795898438
12.683999999999996,6.623553466796875,-1.4825012207031252,7.409814453125
12.694000000000004,6.042605590820313,-2.260986328125,10.115521240234376
12.704,6.480596923828125,-2.421737670898437,7.269400024414063
12.714,6.527401733398438,-1.2589447021484377,5.96649169921875
12.724000000000004,7.292279052734376,0.378924560546875,5.923574829101563
12.734000000000002,7.794122314453125,2.0712249755859378,6.347210693359376
12.744,7.693783569335938,2.547796630859376,7.234558105468751
12.753999999999998,5.988772583007813,2.212985229492188,6.335397338867188
12.764000000000005,6.128738403320313,1.3585357666015625,7.088760375976563
12.774,5.878414916992188,0.19678955078125,8.846408081054689
12.784,6.683517456054688,-0.968994140625,7.840328979492188
12.794000000000004,6.82901611328125,-2.0362335205078126,6.977206420898438
12.804000000000002,8.031137084960939,-2.258294677734375,4.9562255859375
12.814,6.967486572265625,-1.6405609130859375,5.7589355468750005
12.823999999999998,7.821038818359375,-0.1909576416015625,6.9327941894531255
12.834000000000003,6.96300048828125,0.5745178222656251,6.379510498046876
12.844,7.966537475585938,0.6519775390625,6.0304931640625
12.854,6.524859619140625,0.7792327880859375,5.720504760742188
12.864000000000004,6.1166259765625,1.2267944335937502,8.510549926757813
12.874000000000002,5.2696533203125,1.5786529541015626,9.438571166992189
12.884,5.7457763671875,0.9292175292968752,9.155499267578126
12.893999999999998,6.785800170898438,-0.06400146484375,6.010006713867188
12.904000000000003,7.326223754882813,-0.49466552734375,5.53941650390625
12.914,7.764065551757813,-0.4533935546875,5.825927734375
12.924,7.395309448242188,-0.706707763671875,6.485531616210938
12.933999999999996,7.783355712890626,-1.4591735839843751,5.376422119140625
12.944000000000004,7.86978759765625,-2.032644653320313,5.816058349609375
12.954,6.911709594726563,-1.523773193359375,6.551776123046875
12.964,6.402090454101563,0.384906005859375,8.909213256835939
12.974000000000004,4.2456298828125005,2.221209716796875,9.825271606445312
12.984000000000002,5.714373779296875,2.5628997802734377,7.664474487304688
12.994,7.053021240234376,2.2950805664062504,6.860867309570313
13.003999999999998,8.669058227539063,1.349713134765625,4.959814453125
13.014000000000005,8.064035034179689,0.7019226074218751,5.689401245117188
13.024,6.5724121093750005,-0.4762725830078125,6.4372314453125
13.034,6.398651123046876,-1.67001953125,7.676736450195313
13.044000000000004,5.918191528320313,-2.370147705078125,8.288339233398439
13.054000000000002,6.572561645507813,-1.846621704101563,7.766757202148438
13.064,6.538467407226563,-0.3916351318359375,7.301998901367188
13.073999999999998,6.823931884765625,0.8658142089843751,5.951986694335938
13.084000000000003,7.722045898437501,1.6499816894531252,5.988772583007813
13.093000000000004,7.598529052734375,1.9050903320312504,6.641049194335938
13.103000000000002,6.287246704101563,1.7536102294921876,6.430950927734376
13.113,6.618768310546876,0.9138153076171877,7.517779541015625
13.122999999999998,6.862213134765626,-0.5102172851562501,7.0593017578125
13.133000000000004,6.747817993164063,-1.6912536621093752,6.98094482421875
13.143,7.4325439453125,-1.7477783203125,7.202108764648438
13.153,5.189501953125,-1.0983428955078125,7.380355834960938
13.163000000000004,6.839782714843751,-0.088226318359375,7.374972534179688
13.173000000000002,7.475460815429688,0.3312225341796875,6.658993530273438
13.183,8.880801391601564,0.335858154296875,4.619320678710938
13.192999999999998,7.363159179687501,0.58438720703125,4.888336181640625
13.203000000000005,6.961804199218751,0.7723541259765626,6.900942993164063
13.213,5.8621154785156255,0.6646881103515625,8.615075683593751
13.223,5.692242431640626,0.0662445068359375,9.490011596679688
13.233000000000004,5.7997589111328125,-0.2669219970703125,7.202706909179688
13.243000000000002,6.160290527343751,0.0276641845703125,7.244427490234376
13.253,7.344168090820313,0.430364990234375,6.725537109375001
13.262999999999998,7.530191040039063,0.5797515869140626,6.480447387695313
13.273000000000003,8.098428344726564,-0.0210845947265625,4.7530059814453125
13.283,7.467086791992188,-0.9015533447265626,4.402792358398438
13.293,8.227627563476563,-1.5776062011718752,6.02630615234375
13.303000000000004,6.198571777343751,-1.7874053955078126,8.25738525390625
13.313000000000002,6.772940063476563,-0.6910064697265625,9.261968994140624
13.323,4.187759399414063,1.0427154541015626,8.934185791015626
13.332999999999998,4.771697998046875,2.189059448242188,7.102966308593751
13.343000000000004,8.277871704101564,2.6340789794921875,7.510601806640626
13.353000000000002,8.615225219726563,2.0458038330078128,5.381655883789063
13.363,8.554513549804689,1.0986419677734376,4.40294189453125
13.372999999999998,5.901144409179688,-0.03648681640625,6.280517578125001
13.383000000000004,6.336593627929688,-1.2746459960937502,7.785897827148438
13.393,5.759683227539063,-2.397512817382813,10.339675903320312
13.403,6.432894897460938,-2.6553131103515626,7.429852294921876
13.413000000000004,6.426913452148438,-1.50732421875,5.9099670410156255
13.423000000000002,7.456320190429688,0.1673309326171875,5.867349243164063
13.433,8.045642089843751,1.804302978515625,6.1261962890625
13.442999999999998,7.913601684570313,2.406634521484375,6.711032104492188
13.453000000000005,6.095989990234376,2.1993774414062504,6.0958404541015625
13.463,6.138757324218751,1.4404815673828126,7.313812255859376
13.473,5.700765991210938,0.3156707763671875,8.918185424804689
13.483000000000004,6.841876220703125,-0.9224884033203126,8.030838012695312
13.493000000000002,6.736901855468751,-2.028158569335938,6.837689208984376
13.503,7.5623413085937505,-2.0902160644531254,5.43773193359375
13.512999999999998,6.69443359375,-1.245635986328125,6.126345825195313
13.523000000000003,7.856628417968751,0.064898681640625,7.156799316406251
13.533,7.484432983398438,0.5342926025390625,5.882901000976563
13.542000000000002,7.920181274414063,0.46356201171875,5.541210937500001
13.552,6.707891845703125,0.7135864257812501,5.605810546875
13.561999999999998,5.974417114257813,1.1001373291015626,8.827716064453126
13.573,5.5184814453125,1.150830078125,9.473562622070313
13.582,5.555715942382813,0.4640106201171875,8.925064086914062
13.592,6.857278442382813,-0.1484893798828125,5.939425659179688
13.602000000000004,7.039562988281251,-0.2476318359375,5.762973022460938
13.612000000000002,7.885040283203126,-0.0991424560546875,6.189300537109376
13.622,7.1885009765625005,-0.478515625,6.414801025390625
13.631999999999998,8.473464965820312,-1.1593536376953126,5.173501586914063
13.642000000000005,7.211380004882813,-1.6655334472656251,5.83848876953125
13.652,7.592098999023438,-1.02821044921875,7.092498779296876
13.662,5.106509399414063,0.677099609375,9.080731201171876
13.672000000000004,4.076504516601563,1.7371612548828126,9.236099243164062
13.682000000000002,6.935037231445313,1.8389953613281247,8.044595336914064
13.692,7.227230834960938,1.3755828857421877,6.128738403320313
13.701999999999998,9.055010986328126,0.964208984375,4.655209350585938
13.712000000000003,6.917242431640625,0.8387481689453126,6.184216308593751
13.722,6.5724121093750005,-0.1356292724609375,6.415399169921876
13.732,6.752304077148438,-1.452294921875,8.666665649414064
13.741999999999996,6.531439208984375,-2.1066650390625004,7.379458618164063
13.752000000000002,5.695233154296876,-1.2643280029296875,7.131677246093751
13.762,6.686358642578125,-0.1184326171875,7.5384155273437505
13.771999999999998,7.014291381835938,0.8569915771484375,7.041806030273438
13.782000000000004,7.634567260742188,1.314273071289063,6.247320556640625
13.792000000000002,6.796417236328126,1.5128570556640626,5.912060546875001
13.802,6.945504760742188,1.32489013671875,6.071316528320313
13.811999999999998,7.331008911132813,0.4681976318359375,7.356130981445313
13.822000000000005,7.5384155273437505,-0.8903381347656251,6.788641357421875
13.832,6.656002807617188,-1.7431427001953126,6.325378417968751
13.842,6.036325073242188,-1.3634704589843751,7.7555419921875
13.852000000000004,5.232119750976563,-0.533544921875,8.354882812500001
13.862000000000002,7.037469482421876,0.3707000732421875,8.556756591796876
13.872,7.703802490234375,0.442327880859375,5.252157592773438
13.881999999999998,8.3823974609375,0.5514892578125,4.2647705078125
13.892000000000005,7.5249572753906255,1.0276123046875,5.3357482910156255
13.902,6.530841064453125,1.0358367919921876,7.79442138671875
13.912,6.19139404296875,0.354400634765625,8.967083740234376
13.922000000000004,5.7728424072265625,-0.7307830810546876,7.964743041992188
13.932000000000002,6.266311645507813,-0.9615173339843752,6.363958740234375
13.942,6.353640747070313,-0.4750762939453125,7.421926879882813
13.951999999999998,7.586865234375001,0.1662841796875,7.005767822265626
13.962000000000003,7.047039794921876,0.0873291015625,6.085073852539063
13.972,8.377612304687501,-0.32957763671875,4.745828247070313
13.982,7.658941650390625,-0.4538421630859375,5.691644287109376
13.991999999999996,7.7432800292968755,0.1463958740234375,7.663876342773438
14.002000000000002,5.044302368164063,0.8936279296875,8.624496459960938
14.012,4.027456665039063,0.90379638671875,8.572756958007814
14.021999999999998,6.744827270507813,0.7662231445312501,8.519821166992188
14.032000000000004,7.339083862304688,0.6323883056640626,6.814810180664063
14.042000000000002,8.577841186523438,0.5453582763671876,5.1682678222656255
14.052,7.036123657226563,0.3443817138671875,5.291485595703126
14.061999999999998,7.410412597656251,-0.1251617431640625,5.8438720703125
14.072000000000005,6.592898559570313,-0.8393463134765625,8.232562255859376
14.081000000000005,6.832455444335938,-1.3878448486328123,7.684213256835938
14.091,5.68656005859375,-1.131988525390625,7.256988525390626
14.101,6.553720092773438,-0.3796722412109375,7.212426757812499
14.111000000000004,6.761724853515625,0.7049133300781251,7.240390014648438
14.121000000000002,7.638305664062501,1.343731689453125,6.993804931640626
14.131,6.48448486328125,1.6166351318359375,6.0089599609375
14.140999999999998,6.929504394531251,1.3307220458984377,6.495849609375001
14.151000000000003,6.672750854492188,0.698333740234375,7.31351318359375
14.161,7.1585937500000005,-0.230584716796875,7.336242675781251
14.171,6.672601318359376,-1.2924407958984376,6.420034790039063
14.180999999999996,7.494152832031251,-1.827630615234375,6.338986206054688
14.191000000000004,6.608599853515625,-1.557568359375,6.795968627929688
14.201,6.800604248046875,-0.530255126953125,7.649072265625
14.211,6.728079223632813,0.3087921142578125,6.750808715820313
14.221000000000004,7.313064575195313,0.6922027587890626,6.255245971679688
14.231000000000002,7.643988037109375,0.9666015625,5.533285522460938
14.241,6.706246948242188,1.3126281738281251,7.390225219726563
14.250999999999998,6.2135253906250005,1.374087524414063,7.830908203125
14.261000000000005,5.654110717773438,0.663641357421875,8.521914672851564
14.271,6.860269165039063,-0.2504730224609375,7.083975219726563
14.281,6.570169067382813,-0.8865997314453126,6.5440002441406255
14.291000000000004,7.263119506835938,-0.7337738037109376,6.668264770507813
14.301000000000002,6.77518310546875,-0.4317108154296875,6.564636230468751
14.311,7.4187866210937505,-0.5046844482421875,6.250460815429688
14.320999999999998,7.622604370117188,-0.9343017578125,4.980899047851563
14.331000000000005,8.37701416015625,-0.8720947265625001,6.359024047851563
14.341,7.282409667968751,-0.2205657958984375,6.5140930175781255
14.351,5.7833099365234375,0.9721343994140624,8.756387329101564
14.361000000000004,4.0494384765625,1.666729736328125,8.85194091796875
14.371000000000002,6.097784423828125,1.7243011474609375,8.498437500000001
14.381,7.208837890625,1.2517669677734375,7.405926513671876
14.390999999999998,8.7030029296875,0.3748870849609375,4.690200805664063
14.401000000000003,7.64249267578125,0.103179931640625,5.465396118164063
14.411,6.3510986328125005,-0.3911865234375,6.0210723876953125
14.421,7.168762207031251,-0.8695526123046876,8.345611572265625
14.430999999999996,6.0150909423828125,-1.6477386474609377,7.946200561523438
14.441000000000004,6.875820922851563,-1.424929809570313,6.810623168945313
14.451999999999998,6.118719482421875,-0.2528656005859375,7.095938110351563
14.461,6.854287719726563,1.0833892822265625,6.985430908203125
14.471000000000004,6.919934082031251,1.5447082519531252,7.463198852539063
14.481000000000002,7.258483886718751,1.448406982421875,6.664675903320313
14.491,6.491513061523438,1.2000274658203125,5.561846923828125
14.500999999999998,7.373626708984376,0.596649169921875,7.0299926757812505
14.511000000000005,7.042703247070313,-0.3524566650390625,6.715219116210938
14.521,7.434637451171875,-1.484893798828125,6.97197265625
14.53,6.741088867187501,-1.825238037109375,6.773388671875001
14.541000000000004,5.718112182617188,-1.0756134033203126,7.392318725585938
14.551000000000002,6.158047485351563,-0.084039306640625,7.994650268554688
14.561,7.554565429687501,0.3844573974609375,7.195230102539063
14.570999999999998,8.150018310546876,0.40015869140625,4.882354736328125
14.579999999999998,7.458114624023438,0.7615875244140625,5.000936889648438
14.590000000000003,7.054666137695313,1.0703796386718751,6.586917114257813
14.6,5.728579711914063,0.96361083984375,8.854931640625
14.61,6.47252197265625,0.27454833984375,8.701956176757813
14.619999999999996,5.5141448974609375,-0.4807586669921875,7.281961059570313
14.630000000000004,6.820193481445313,-0.485394287109375,6.529495239257813
14.64,6.624749755859376,-0.03050537109375,7.279269409179688
14.651000000000003,7.947845458984376,0.1957427978515625,6.484634399414063
14.660000000000004,7.118368530273438,-0.4079345703125,5.137463378906251
14.670000000000002,8.572906494140625,-1.0433135986328126,4.531243896484376
14.68,7.331158447265626,-1.299169921875,6.085223388671875
14.689999999999998,7.60301513671875,-0.6645385742187501,8.486026000976564
14.700000000000005,5.2704010009765625,0.7973266601562501,9.159686279296876
14.71,3.126052856445313,1.559063720703125,8.489913940429688
14.72,6.919635009765625,1.8953704833984373,7.853488159179688
14.730000000000004,7.677334594726563,1.7612365722656251,7.269400024414063
14.740000000000002,9.344961547851565,0.9951629638671876,4.368099975585938
14.750999999999998,7.106854248046876,0.292193603515625,5.160491943359375
14.759999999999998,6.439474487304688,-0.6159393310546876,5.862564086914063
14.770000000000003,6.646432495117188,-1.493267822265625,9.141293334960938
14.78,6.171804809570313,-2.2829681396484376,8.660385131835938
14.79,6.277676391601563,-1.9272216796875,6.684115600585938
14.800000000000004,6.64658203125,-0.560760498046875,6.475064086914063
14.810000000000002,6.997244262695313,1.1955413818359375,6.541009521484376
14.82,7.907620239257813,2.2276397705078126,7.144088745117188
14.829999999999998,6.6501708984375005,2.313473510742188,6.844268798828126
14.840000000000003,6.521420288085938,1.8530517578125,5.703607177734376
14.851,6.2643676757812505,0.8614776611328125,7.775729370117188
14.86,6.795071411132813,-0.4127197265625,7.677932739257813
14.869999999999996,6.781314086914063,-1.7563018798828127,7.331607055664063
14.880000000000004,7.808776855468751,-2.4668975830078126,6.080288696289063
14.89,6.587515258789063,-2.12520751953125,5.703756713867188
14.9,6.922027587890626,-0.6957916259765625,7.4445068359375
14.910000000000004,6.871334838867188,0.51260986328125,6.9779541015625
14.920000000000002,7.949789428710938,0.94088134765625,6.327322387695313
14.93,7.437628173828125,0.95643310546875,4.738351440429688
14.939999999999998,6.782510375976563,1.215130615234375,6.767855834960938
14.951,5.820843505859376,1.552484130859375,8.830258178710938
14.96,5.435787963867188,0.9962097167968752,9.670950317382813
14.97,6.0879150390625005,-0.1323394775390625,7.594491577148438
14.980000000000004,6.656600952148438,-0.9135162353515626,6.037371826171875
14.990000000000002,7.672250366210938,-0.6829315185546876,6.04425048828125
15.0,7.2172119140625,-0.3313720703125,6.625347900390626
15.009999999999998,7.5877624511718755,-0.4272247314453125,5.989520263671875
15.020000000000003,7.553967285156251,-1.082940673828125,4.845718383789063
15.029000000000003,8.645281982421876,-1.4391357421875002,5.425619506835938
15.039,6.820791625976563,-1.072024536132813,6.907821655273438
15.051000000000002,6.489569091796875,0.515301513671875,9.424066162109376
15.060000000000002,3.5882690429687503,1.9699890136718752,9.74676513671875
15.069000000000004,5.069573974609376,2.3459228515625004,7.972369384765625
15.079,7.470077514648438,2.0360839843750003,7.350299072265625
15.089,8.935980224609375,0.98035888671875,4.699472045898438
15.099000000000004,8.6695068359375,0.3967193603515625,4.990469360351563
15.109000000000002,6.132177734375,-0.4526458740234375,5.864208984375001
15.119,6.596636962890625,-1.3259368896484376,7.816104125976563
15.128999999999998,5.698373413085938,-2.187863159179688,9.334494018554688
15.139000000000005,6.952682495117188,-2.014251708984375,7.601071166992188
15.151000000000003,5.911312866210938,-0.5450592041015625,6.611141967773438
15.159,6.967486572265625,0.9064880371093752,6.201712036132813
15.169000000000004,7.645333862304688,1.7886016845703123,6.752902221679688
15.179000000000002,7.767654418945313,2.0009429931640628,6.738098144531251
15.189,6.142495727539063,1.8244903564453123,5.832955932617188
15.198999999999998,6.7757812500000005,1.0068267822265626,7.144088745117188
15.209000000000003,6.4916625976562505,-0.265277099609375,7.398449707031251
15.219,7.462152099609375,-1.5962982177734375,7.469329833984376
15.229,6.897952270507813,-2.12042236328125,6.789389038085938
15.239000000000004,5.7604309082031255,-1.460818481445313,6.880456542968751
15.250999999999998,6.098681640625,-0.3856536865234375,7.431945800781251
15.259,7.960705566406251,0.3817657470703125,7.366448974609375
15.268999999999998,8.554962158203125,0.41630859375,4.578198242187501
15.279000000000003,7.828964233398438,0.539227294921875,4.65775146484375
15.289,6.725238037109375,0.9649566650390624,5.91385498046875
15.299,5.658148193359375,1.1185302734375,9.297259521484376
15.308999999999996,5.905630493164063,0.5214324951171876,9.866094970703124
15.319000000000004,5.194735717773438,-0.237762451171875,7.947695922851563
15.329,6.728527832031251,-0.2938385009765625,6.210684204101563
15.339,6.816455078125,0.0937591552734375,6.581683349609375
15.349000000000004,8.231515502929689,0.2824737548828125,6.211282348632813
15.359000000000002,7.825225830078126,-0.471038818359375,5.314813232421876
15.369,8.320639038085938,-1.2970764160156252,4.114636230468751
15.378999999999998,7.205099487304688,-1.6994781494140627,6.024960327148438
15.389000000000005,6.90318603515625,-1.1094085693359377,8.879904174804688
15.399,5.82652587890625,0.6271545410156251,9.83050537109375
15.409,3.0294525146484377,1.687664794921875,8.665469360351564
15.419000000000004,6.455026245117188,2.125506591796875,6.792230224609376
15.429000000000002,8.103363037109375,2.121917724609375,7.270446777343751
15.439,9.36499938964844,1.48160400390625,4.739248657226563
15.448999999999998,7.590454101562501,0.63223876953125,4.990618896484375
15.459000000000003,6.115429687500001,-0.7331756591796875,5.926116943359375
15.469,6.465643310546875,-1.8023590087890624,8.519223022460938
15.479,5.820095825195313,-2.4142608642578125,9.816149902343753
15.489000000000004,6.193487548828125,-1.992120361328125,7.281063842773438
15.499000000000002,6.469979858398438,-0.7418487548828125,6.209637451171876
15.509,7.656698608398438,0.8976654052734375,5.7601318359375
15.518999999999998,8.395556640625001,2.206854248046876,6.218609619140626
15.528,7.073358154296876,2.468991088867188,6.579440307617188
15.538000000000004,6.230123901367188,1.9813537597656248,6.087765502929688
15.548000000000002,6.127990722656251,0.7442413330078126,8.194879150390626
15.558999999999996,6.06937255859375,-0.461767578125,8.441912841796876
15.567999999999998,6.159393310546876,-1.3697509765625,7.916143798828125
15.578000000000005,7.087265014648438,-1.926324462890625,6.676638793945313
15.588,7.3724304199218755,-1.759442138671875,5.415899658203125
15.598,7.789187622070313,-0.8228973388671875,6.353939819335938
15.608000000000004,7.691390991210938,0.3159698486328125,5.84207763671875
15.618000000000002,7.183267211914063,0.7804290771484376,6.160140991210938
15.628,7.713073730468751,0.649884033203125,5.77508544921875
15.637999999999998,6.333004760742188,0.5746673583984375,7.194183349609376
15.648000000000003,5.87796630859375,0.7879058837890626,8.669656372070314
15.658,5.071966552734375,0.8303741455078125,9.136209106445314
15.668,6.337939453125,0.3671112060546875,8.234805297851564
15.678000000000004,6.831259155273438,-0.0442626953125,6.171804809570313
15.688000000000002,7.606454467773438,-0.04127197265625,5.621212768554688
15.698,7.4684326171875,0.045458984375,5.860470581054688
15.707999999999998,7.86619873046875,-0.26976318359375,6.222348022460938
15.718000000000004,6.841876220703125,-1.1360260009765626,5.743234252929688
15.728000000000002,7.956967163085938,-1.6330841064453123,6.365155029296876
15.738,6.426165771484375,-1.3414886474609375,7.250259399414063
15.747999999999998,6.768902587890626,-0.1568634033203125,8.316152954101563
15.758000000000004,5.251110839843751,1.3011138916015623,8.684759521484375
15.768,5.109948730468751,1.930810546875,7.191043090820313
15.778,7.777822875976563,2.116085815429688,7.440319824218751
15.788000000000004,7.9206298828125,1.4421264648437502,5.802450561523438
15.798000000000002,7.98642578125,0.8270843505859375,5.5450988769531255
15.808,6.284405517578126,-0.0892730712890625,6.577645874023438
15.817999999999998,6.456222534179688,-0.9667510986328126,7.326223754882813
15.828000000000005,6.228329467773438,-1.7406005859375002,8.733807373046876
15.838,6.881054687500001,-1.8629211425781247,7.409066772460938
15.848,6.435586547851563,-0.8551971435546876,6.334500122070313
15.858000000000004,7.087115478515625,0.3327178955078125,6.3765197753906255
15.868000000000002,7.234408569335938,1.3126281738281251,6.488821411132813
15.878,7.554266357421875,1.5657928466796875,7.036871337890625
15.887999999999998,6.383248901367188,1.493865966796875,6.268405151367188
15.898000000000003,6.641049194335938,0.8462249755859376,6.737649536132813
15.908,6.866549682617188,0.026318359375,7.324728393554688
15.918,6.90079345703125,-0.96600341796875,7.491760253906251
15.928000000000004,7.03836669921875,-1.44033203125,6.94505615234375
15.938000000000002,5.919686889648438,-1.0457061767578126,7.075750732421875
15.948,6.578692626953125,-0.4053924560546875,7.010104370117188
15.957999999999998,7.091302490234376,0.1786956787109375,7.281512451171875
15.968000000000004,8.512344360351562,0.28292236328125,5.43115234375
15.978000000000002,7.399795532226563,0.3361572265625,5.104116821289063
15.987000000000002,7.264315795898438,0.524273681640625,6.0592041015625
15.997999999999998,5.767907714843751,0.6747070312500001,8.261572265625
16.006999999999998,6.303546142578125,0.46715087890625,9.130078125
16.017000000000003,5.67459716796875,-0.107965087890625,7.710980224609376
16.027,6.479849243164063,-0.174359130859375,6.767556762695313
16.037,6.905130004882813,0.163592529296875,6.414801025390625
16.047000000000004,7.636062622070313,0.29727783203125,6.544149780273438
16.057000000000002,7.764663696289063,-0.248828125,5.5331359863281255
16.067999999999998,7.518527221679688,-1.0226776123046877,5.193240356445313
16.076999999999998,7.672848510742188,-1.3005157470703126,6.301602172851563
16.087000000000003,6.9779541015625,-0.8155700683593751,8.090951538085939
16.097,5.9029388427734375,0.5229278564453126,8.81007080078125
16.107,3.831564331054688,1.33984375,8.214767456054688
16.116999999999997,6.705648803710938,1.7551055908203126,7.673895263671875
16.127000000000002,7.713522338867188,1.7921905517578127,7.095788574218751
16.137,8.66651611328125,1.0953521728515625,4.938580322265626
16.147,7.622753906250001,0.404345703125,5.382254028320313
16.157000000000004,6.130682373046875,-0.49466552734375,6.055316162109375
16.167,6.7653137207031255,-1.3597320556640626,8.654852294921875
16.177,5.962155151367188,-2.088571166992188,8.773583984375001
16.186999999999998,6.629983520507813,-1.819705200195313,6.8012023925781255
16.197000000000003,6.354537963867188,-0.5869293212890625,6.538766479492188
16.207,7.427011108398438,0.9120208740234376,6.250161743164063
16.217,7.856927490234375,1.9650543212890623,6.958963012695313
16.227000000000004,6.832754516601563,2.1814331054687504,6.597982788085938
16.237000000000002,6.055017089843751,1.9291656494140623,6.300405883789063
16.247,6.429904174804688,0.9603210449218752,8.198019409179688
16.256999999999998,6.212478637695313,-0.210546875,7.993154907226563
16.267000000000003,6.839932250976563,-1.33804931640625,7.0987792968750005
16.277,7.550527954101563,-2.212088012695313,5.908023071289063
16.287,7.7044006347656255,-2.123114013671876,5.380758666992188
16.297000000000004,7.096087646484375,-1.1417083740234375,6.849203491210938
16.307000000000002,7.240689086914063,0.0949554443359375,6.677835083007813
16.317,6.761425781250001,0.6388183593750001,6.425119018554688
16.326999999999998,7.977304077148438,0.820654296875,6.052923583984375
16.337000000000003,6.134869384765626,1.1017822265625,6.761575317382813
16.347,6.104214477539063,1.6348785400390626,8.737545776367188
16.357,5.421133422851563,1.4466125488281252,8.858819580078126
16.366999999999997,6.286499023437501,0.4777679443359375,8.0235107421875
16.377000000000002,6.962551879882813,-0.4152618408203125,5.9802490234375005
16.387,7.448394775390626,-0.66513671875,6.026156616210938
16.397,7.314859008789063,-0.6041259765625,6.258386230468751
16.407000000000004,7.348953247070313,-0.745587158203125,6.879708862304688
16.417,7.121658325195313,-1.0578186035156252,5.691046142578125
16.427,7.279718017578125,-1.2404022216796875,5.468685913085938
16.436999999999998,7.942761230468751,-1.006378173828125,6.377716064453126
16.447000000000003,7.052871704101563,-0.3457275390625,7.594192504882813
16.457,6.799407958984376,0.8707489013671875,8.43323974609375
16.467,3.4686401367187503,2.236911010742188,8.3225830078125
16.477000000000004,5.736654663085938,2.595648193359376,7.9197326660156255
16.487000000000002,7.743728637695313,1.7023193359375002,8.176785278320313
16.496000000000002,8.792874145507813,0.27813720703125,4.942019653320313
16.506999999999998,7.780514526367188,-0.3177642822265625,4.909121704101563
16.517000000000003,5.679083251953125,-0.648388671875,6.234609985351563
16.526000000000003,6.836791992187501,-1.2314300537109375,8.220449829101563
16.536,6.854437255859375,-2.0039337158203128,9.461151123046877
16.546,6.874026489257813,-1.710992431640625,5.585623168945313
16.555999999999997,5.911013793945313,-0.14893798828125,6.110345458984376
16.566000000000003,7.091302490234376,1.2737487792968751,7.006216430664063
16.576,7.652362060546875,1.8681549072265624,7.920181274414063
16.586,6.942214965820313,1.8244903564453123,6.967935180664063
16.596000000000004,5.804244995117188,1.3836578369140626,5.294625854492188
16.606,6.724041748046876,0.6271545410156251,7.129583740234375
16.616,7.440917968750001,-0.3805694580078125,8.162579345703126
16.625999999999998,7.3787109375,-1.44451904296875,6.982290649414063
16.636000000000003,6.5380187988281255,-1.8363037109375,6.313415527343751
16.646,6.045297241210938,-1.250421142578125,6.0460449218750005
16.656,6.516036987304688,-0.342138671875,8.214468383789063
16.666000000000004,8.24542236328125,0.381317138671875,7.422824096679688
16.676000000000002,7.361514282226563,0.322998046875,5.001834106445313
16.686,7.923171997070313,0.496160888671875,4.34671630859375
16.695999999999998,6.217263793945313,0.86671142578125,6.70938720703125
16.706000000000003,6.600375366210938,1.02581787109375,9.653903198242189
16.716,5.464199829101563,0.6279022216796876,9.182116699218753
16.726,5.759234619140625,-0.116937255859375,7.021917724609375
16.736000000000004,6.718508911132813,-0.2495758056640625,5.9448089599609375
16.746000000000002,7.191790771484375,0.067291259765625,7.321737670898438
16.756,7.68795166015625,0.40494384765625,6.734658813476563
16.766,7.260726928710938,-0.2450897216796875,5.684616088867188
16.776000000000003,7.896554565429688,-1.2851135253906252,3.4671447753906253
16.786,7.836740112304688,-1.9046417236328128,6.354238891601563
16.796,7.42357177734375,-1.5212310791015626,8.286245727539063
16.805999999999997,6.310574340820313,0.2564544677734375,9.373373413085938
16.816000000000003,3.1564086914062504,1.5840362548828126,8.45477294921875
16.826,5.811422729492188,2.2503692626953127,6.9001953125
16.836,7.866049194335938,2.5389739990234377,8.366397094726564
16.846000000000004,9.09463806152344,1.6961883544921876,4.867999267578125
16.856,7.535275268554688,0.8523559570312501,4.969683837890625
16.866,6.127392578125001,-0.5369842529296875,5.652166748046875
16.875999999999998,6.8535400390625005,-1.6037750244140627,8.127587890625001
16.886000000000003,5.891125488281251,-2.5534790039062503,9.923815917968753
16.896,6.482989501953125,-2.3655120849609377,7.219454956054688
16.906,6.293527221679688,-1.1032775878906251,5.8834991455078125
16.916000000000004,7.268801879882813,0.61429443359375,5.9612579345703125
16.926000000000002,8.33634033203125,1.992718505859375,6.487924194335938
16.936,7.425067138671875,2.4565795898437504,7.222146606445313
16.945999999999998,5.943463134765626,2.284014892578125,5.381356811523438
16.956000000000003,6.1806274414062505,1.1958404541015626,7.776327514648438
16.966,6.655404663085938,-0.1015350341796875,8.304190063476563
16.975,6.343023681640625,-1.4032470703125002,7.882348632812499
16.985,7.436581420898438,-2.1211700439453125,6.692340087890625
16.994999999999997,6.303695678710938,-2.025167846679688,5.609997558593751
17.006,7.413253784179688,-0.9075347900390626,6.993954467773438
17.015,7.182369995117188,0.22490234375,6.812417602539063
17.025,8.221945190429688,0.731231689453125,5.805441284179688
17.035000000000004,7.387384033203125,0.7659240722656251,4.856484985351563
17.045,6.9462524414062505,0.8934783935546876,6.473419189453126
17.055,5.661737060546876,1.1750549316406251,8.945101928710939
17.064999999999998,5.46405029296875,0.911871337890625,9.6767822265625
17.075000000000003,5.9946044921875,0.0743194580078125,7.8629089355468755
17.085,6.3570800781250005,-0.57362060546875,6.2673583984375005
17.095,7.633969116210938,-0.354400634765625,5.854489135742188
17.105000000000004,7.0883117675781255,-0.096600341796875,6.442465209960938
17.115000000000002,8.056857299804689,-0.5745178222656251,5.566183471679688
17.125,8.716012573242189,-1.270458984375,5.67340087890625
17.134999999999998,7.701260375976563,-1.3254882812500002,5.150921630859376
17.145000000000003,6.200665283203126,-0.136676025390625,7.894610595703125
17.155,3.663784790039063,1.32130126953125,10.1050537109375
17.165,5.591305541992188,1.6677764892578126,9.332550048828123
17.175000000000004,6.6950317382812505,1.2706085205078126,8.126242065429688
17.185000000000002,8.628085327148439,0.8154205322265625,4.035830688476563
17.195,7.869039916992188,1.1062683105468751,4.967291259765625
17.205,6.991711425781251,0.653173828125,6.290835571289063
17.215000000000003,7.254446411132813,-0.597845458984375,7.503424072265625
17.225,6.48209228515625,-1.929315185546875,7.925714111328125
17.235,5.9742675781250005,-2.031298828125,6.624600219726563
17.244999999999997,5.9279113769531255,-0.7701110839843751,8.3584716796875
17.255000000000003,6.400296020507813,0.5339935302734375,7.984481811523438
17.265,7.298709106445313,1.1551666259765625,6.840530395507813
17.275,7.43553466796875,1.4371917724609375,5.579791259765625
17.285000000000004,7.028347778320313,1.5180908203125,4.9681884765625
17.295,7.431048583984375,1.1121002197265626,7.166668701171876
