time,ax,ay,az
0.0,7.192089843750001,0.5897705078125001,6.106906127929688
0.0090000000000003,7.368692016601563,0.1078155517578125,5.986828613281251
0.0190000000000019,7.772140502929688,-0.8545989990234376,5.5926513671875
0.0289999999999999,7.785150146484375,-1.493865966796875,6.429455566406251
0.0390000000000014,7.012796020507813,-1.3124786376953126,6.899896240234376
0.049000000000003,6.154309082031251,-0.86671142578125,7.2447265625
0.059000000000001,6.076699829101563,-0.08314208984375,7.240090942382813
0.0690000000000026,6.534579467773438,0.68009033203125,7.718905639648438
0.0790000000000006,7.077545166015626,0.9051422119140624,7.599874877929688
0.0890000000000021,6.920532226562501,1.5228759765625002,6.994253540039063
0.0990000000000002,5.8202453613281255,2.080197143554688,7.305438232421875
0.1090000000000017,6.127392578125001,1.8630706787109377,7.197921752929688
0.1189999999999997,7.000085449218751,0.9616668701171877,7.5967346191406255
0.1290000000000013,7.486077880859375,-0.6945953369140625,7.024908447265625
0.1390000000000029,6.995300292968751,-1.9623626708984376,6.106158447265625
0.1490000000000009,6.385940551757813,-2.1319366455078126,6.516784667968751
0.1590000000000024,7.154705810546876,-1.7337219238281252,6.813763427734376
0.1690000000000004,7.514340209960938,-1.1938964843750002,7.005618286132813
0.179000000000002,7.668661499023438,-0.69683837890625,5.836245727539063
0.189,7.196875,-0.177947998046875,5.573809814453125
0.1990000000000016,6.8116699218750005,0.7155303955078125,6.652713012695313
0.2089999999999996,7.020272827148438,1.4973052978515626,7.717559814453126
0.2190000000000012,6.5155883789062505,1.7645263671875002,7.859170532226563
0.2290000000000027,6.1776367187500005,1.71248779296875,6.969430541992188
0.2390000000000007,5.879312133789063,1.0733703613281251,7.502227783203126
0.2490000000000023,6.321490478515625,0.40494384765625,8.233609008789063
0.2590000000000003,6.696078491210938,-0.215032958984375,8.004818725585938
0.2690000000000019,6.96060791015625,-0.6742584228515626,6.441268920898438
0.2789999999999999,7.1406494140625005,-0.7206146240234376,5.4827423095703125
0.2890000000000015,7.698269653320313,-0.9389373779296876,6.001333618164063
0.299000000000003,8.17962646484375,-0.8433837890625001,6.090905761718751
0.309000000000001,7.750906372070313,-0.2450897216796875,5.462704467773438
0.3190000000000026,7.511349487304688,0.329876708984375,4.972225952148438
0.3290000000000006,7.573257446289063,0.5976959228515626,5.767907714843751
0.3390000000000022,7.635165405273438,0.349615478515625,6.8625122070312505
0.3490000000000002,7.419833374023438,-0.5770599365234376,7.125546264648438
0.3590000000000017,5.992959594726563,-1.4862396240234377,6.2458251953125
0.3689999999999998,6.486877441406251,-2.185171508789063,6.7294250488281255
0.3790000000000013,6.344818115234376,-1.7739471435546876,8.843417358398439
0.3890000000000029,5.48797607421875,0.4397857666015625,9.082077026367188
0.3990000000000009,5.566632080078126,2.477215576171876,7.90328369140625
0.4090000000000025,6.904830932617188,3.3868438720703127,6.93668212890625
0.4190000000000005,7.471572875976563,3.5498382568359377,6.090905761718751
0.429000000000002,7.592547607421875,2.757296752929688,6.299209594726563
0.439,6.90677490234375,1.0105651855468751,6.213226318359376
0.4480000000000004,6.756491088867188,-1.071875,7.412506103515626
0.4580000000000019,6.342874145507813,-2.7957275390625003,7.866796875
0.4679999999999999,6.191543579101563,-3.459368896484375,7.945602416992188
0.4790000000000027,6.345266723632813,-2.886346435546875,7.522714233398438
0.4880000000000031,7.172799682617188,-1.3002166748046875,5.9383789062500005
0.4980000000000011,7.956817626953126,0.207855224609375,5.908172607421875
0.5090000000000003,8.06239013671875,1.4551361083984375,5.091107177734376
0.5180000000000007,7.718756103515625,2.301510620117188,5.835049438476563
0.5280000000000022,6.705648803710938,2.476019287109376,6.976608276367188
0.5380000000000003,5.557659912109376,1.9501007080078123,8.205645751953126
0.5480000000000018,5.290737915039063,0.7535125732421876,9.842019653320314
0.5579999999999998,5.487078857421875,-0.3940277099609375,8.988467407226564
0.5680000000000014,6.277975463867188,-0.9812561035156252,7.205697631835938
0.578000000000003,6.888232421875,-1.179840087890625,6.480596923828125
0.588000000000001,8.056558227539064,-1.0187896728515626,5.518032836914063
0.5980000000000025,8.329013061523439,-0.6449493408203125,5.525808715820313
0.6080000000000005,8.16407470703125,-0.4900299072265625,4.519580078125
0.6180000000000021,7.708737182617188,-0.47911376953125,5.2672607421875
0.6280000000000001,7.046890258789063,-0.48389892578125,6.701013183593751
0.6380000000000017,6.0729614257812505,-0.189013671875,8.439669799804689
0.6479999999999997,5.057012939453125,0.6014343261718751,9.484478759765626
0.6580000000000013,5.100228881835938,1.310235595703125,8.624945068359375
0.6680000000000028,6.330313110351563,1.7740966796875002,7.771243286132813
0.6780000000000008,7.309774780273438,1.6749542236328123,6.034381103515625
0.6880000000000024,7.78843994140625,1.0754638671875,5.510406494140625
0.6980000000000004,7.964892578125,0.1351806640625,5.902639770507813
0.708000000000002,7.282858276367188,-0.9894805908203126,6.239096069335938
0.718,6.797463989257813,-1.8967163085937504,7.131976318359375
0.7280000000000015,6.509158325195313,-2.1555633544921875,7.392767333984375
0.7380000000000031,6.508261108398438,-1.4778656005859376,7.835394287109375
0.7480000000000011,6.35947265625,-0.256903076171875,7.014141845703126
0.7580000000000027,6.99051513671875,1.041668701171875,6.646432495117188
0.7680000000000007,7.730718994140625,1.8892395019531247,6.276480102539063
0.7780000000000022,7.205548095703126,2.0691314697265626,6.1919921875
0.7880000000000003,6.7772766113281255,1.8878936767578127,7.08023681640625
0.7980000000000018,5.8474609375,1.036135864257813,7.736550903320313
0.8079999999999998,6.361566162109376,-0.2540618896484375,8.029193115234376
0.8180000000000014,6.575701904296875,-1.399658203125,7.473666381835938
0.828000000000003,6.950289916992188,-1.8180603027343751,6.576300048828125
0.838000000000001,6.849652099609376,-1.3833587646484375,6.366201782226563
0.8480000000000025,7.459011840820313,-0.6959411621093751,6.421978759765626
0.8580000000000005,7.611090087890625,-0.003289794921875,6.199917602539063
0.8680000000000021,7.6685119628906255,0.3964202880859375,5.636166381835938
0.8780000000000001,7.174594116210938,0.7745971679687501,6.045745849609375
0.8880000000000017,6.313415527343751,1.0026397705078125,7.522265625
0.8979999999999997,5.713626098632813,1.0594635009765625,8.712573242187501
0.9080000000000013,5.586071777343751,0.8324676513671876,8.827117919921875
0.9180000000000028,6.206646728515626,0.274249267578125,7.276577758789063
0.9270000000000032,7.406076049804688,-0.1407135009765625,6.3869873046875005
0.9380000000000024,7.658642578125001,-0.2720062255859375,6.028848266601563
0.9470000000000028,7.129882812500001,-0.2767913818359375,6.053970336914063
0.958000000000002,7.332354736328125,-0.366363525390625,6.553121948242188
0.9670000000000024,7.268951416015626,-0.7520172119140626,6.359024047851563
0.9780000000000016,7.203005981445313,-0.8574401855468751,6.453829956054688
0.9880000000000032,6.659591674804688,-0.481207275390625,7.103265380859376
0.9980000000000012,6.282611083984375,0.2373138427734375,7.733410644531251
1.0070000000000014,6.097784423828125,0.8149719238281251,7.892068481445313
1.018000000000001,6.670208740234376,0.94566650390625,7.13048095703125
1.027000000000001,7.137060546875,0.9541900634765624,6.534579467773438
1.0370000000000026,6.882699584960938,0.7556060791015625,6.16507568359375
1.0470000000000006,6.933840942382813,0.3218017578125,6.590505981445313
1.0570000000000022,7.397552490234376,-0.48031005859375,6.87626953125
1.0670000000000002,6.987225341796876,-1.2581970214843752,6.6071044921875
1.0770000000000015,7.215716552734375,-1.3277313232421877,6.993057250976563
1.088000000000001,6.520223999023438,-0.5595642089843751,7.361215209960938
1.0970000000000013,5.658297729492188,0.4451690673828125,7.380654907226563
1.1070000000000029,6.917092895507813,0.8919830322265626,7.461105346679688
1.1170000000000009,7.383496093750001,0.9645080566406252,6.722845458984375
1.1270000000000024,7.418038940429688,0.94925537109375,5.889031982421876
1.1370000000000005,6.691592407226563,1.0355377197265625,6.710134887695313
1.147000000000002,6.800753784179688,0.5894714355468751,7.126443481445313
1.157,6.5329345703125,-0.3552978515625,7.782308959960938
1.1670000000000016,6.957916259765626,-1.0466033935546877,7.047637939453126
1.1770000000000032,6.439474487304688,-1.008770751953125,6.58616943359375
1.1880000000000024,6.713873291015625,-0.4738800048828125,7.094143676757813
1.1970000000000027,7.1466308593750005,-0.042169189453125,6.974813842773438
1.2070000000000007,7.364205932617188,0.27694091796875,6.813763427734376
1.2170000000000023,7.12808837890625,0.6374725341796875,5.70450439453125
1.2270000000000003,6.767257690429688,0.8329162597656251,6.713723754882813
1.237000000000002,6.803594970703125,0.7532135009765626,7.365103149414063
1.247,6.389230346679688,0.3291290283203125,7.975958251953125
1.2570000000000014,6.315060424804688,-0.0805999755859375,7.268801879882813
1.267000000000003,6.486578369140625,-0.32120361328125,6.875073242187501
1.277000000000001,6.876568603515626,-0.3458770751953125,6.926065063476563
1.2880000000000005,7.220950317382813,-0.2498748779296875,6.923822021484376
1.2970000000000006,7.12808837890625,-0.1093109130859375,6.623104858398438
1.3070000000000022,6.989617919921876,0.0267669677734375,6.043801879882813
1.3170000000000002,7.272839355468751,0.0743194580078125,6.357229614257813
1.3270000000000015,7.149771118164063,-0.046356201171875,6.801800537109376
1.3369999999999995,6.998291015625001,-0.0683380126953125,7.102368164062501
1.3470000000000013,6.152066040039063,0.009869384765625,7.168313598632813
1.3570000000000029,6.337640380859376,0.1481903076171875,7.403683471679688
1.3670000000000009,6.660339355468751,0.260791015625,7.520022583007813
1.3770000000000024,6.975860595703126,0.2875579833984375,6.970028686523438
1.3870000000000005,6.752603149414063,0.324493408203125,6.273937988281251
1.397000000000002,7.234109497070313,0.1493865966796875,5.934341430664063
1.407,7.385440063476563,-0.2504730224609375,6.773837280273438
1.4170000000000016,7.222894287109375,-0.6204254150390626,6.758435058593751
1.4270000000000032,6.813314819335938,-0.3481201171875,7.301101684570313
1.4370000000000012,6.119467163085938,-0.0228790283203125,7.244876098632813
1.4460000000000015,6.017483520507813,0.3150726318359375,7.371084594726563
1.456000000000003,6.938925170898438,0.4711883544921875,7.887283325195313
1.466000000000001,7.330560302734375,0.606817626953125,6.6576477050781255
1.4760000000000026,7.110293579101563,0.710296630859375,5.934640502929688
1.488000000000003,6.9821411132812505,0.4200469970703125,6.052774047851563
1.4960000000000022,7.355981445312499,0.098095703125,7.304391479492188
1.5060000000000002,6.561047363281251,-0.1942474365234375,7.5399108886718755
1.5160000000000018,6.315658569335938,-0.3665130615234375,7.220352172851563
1.5259999999999998,6.405828857421875,-0.4813568115234375,6.9037841796875
1.5360000000000014,6.851745605468751,-0.2954833984375,7.074105834960938
1.546000000000003,7.454226684570313,0.13338623046875,7.006665039062501
1.556000000000001,6.915597534179688,0.4690948486328125,6.520223999023438
1.5660000000000025,7.13646240234375,0.47313232421875,5.871685791015626
1.5760000000000003,6.99051513671875,0.340045166015625,6.9791503906250005
1.588000000000001,6.82901611328125,0.23267822265625,7.294223022460938
1.596,6.054568481445313,0.1757049560546875,7.703802490234375
1.6060000000000016,6.483288574218751,-0.0608612060546875,7.347756958007813
1.6159999999999997,6.707891845703125,-0.129498291015625,6.9821411132812505
1.6260000000000012,6.820193481445313,0.0004486083984375,6.978103637695313
1.6360000000000028,6.910513305664063,0.3049041748046875,6.803894042968751
1.6460000000000008,7.02879638671875,0.33675537109375,6.702508544921876
1.6560000000000024,7.363458251953125,0.0213836669921875,6.101821899414063
1.6660000000000004,7.576397705078126,-0.4200469970703125,6.100775146484375
1.676000000000002,7.256689453125,-0.6627441406250001,6.247619628906251
1.6880000000000024,6.582879638671876,-0.512908935546875,7.2830078125
1.6960000000000015,6.181524658203125,-0.3138763427734375,7.619613647460938
1.706000000000003,6.384893798828125,0.043365478515625,7.837786865234375
1.716000000000001,6.614880371093751,0.41092529296875,7.0404602050781255
1.7260000000000026,6.913803100585938,0.9381896972656252,6.795968627929688
1.7360000000000009,6.918438720703126,1.1182312011718751,6.471624755859375
1.7460000000000022,7.2148193359375,0.7215118408203125,6.422128295898438
1.7560000000000002,7.089657592773438,-0.1748077392578125,6.144290161132813
1.7660000000000018,7.45048828125,-1.0280609130859375,6.52994384765625
1.7759999999999998,6.4796997070312505,-1.3823120117187502,7.230819702148438
1.7880000000000005,6.858175659179688,-1.1781951904296877,7.567276000976563
1.796000000000003,6.928158569335938,-0.32718505859375,7.623800659179688
1.806000000000001,5.991912841796875,0.5704803466796875,6.6382080078125005
1.8160000000000025,6.627441406250001,1.3399932861328123,6.831857299804688
1.8260000000000003,7.197622680664063,1.7377593994140623,7.3111206054687505
1.836000000000002,7.179379272460938,1.5438110351562502,6.850848388671875
1.846,6.733612060546876,0.9034973144531252,6.700115966796876
1.8560000000000016,6.685162353515626,-0.0183929443359375,6.556710815429688
1.866,7.012796020507813,-0.805401611328125,7.450338745117188
1.8760000000000008,6.83739013671875,-1.3824615478515625,7.111938476562501
1.8860000000000028,6.9133544921875005,-1.4662017822265625,6.7069946289062505
1.8960000000000008,6.741088867187501,-1.0338928222656252,6.482839965820313
1.9060000000000024,6.808679199218751,-0.0465057373046875,6.871633911132813
1.9160000000000004,7.154705810546876,0.9772186279296876,7.452731323242188
1.9250000000000007,6.722546386718751,1.5197357177734376,6.802398681640626
1.9350000000000025,6.845315551757813,1.6326354980468751,6.566879272460938
1.9460000000000013,6.725686645507813,1.3099365234375,6.92471923828125
1.9550000000000016,6.477307128906251,0.68487548828125,7.626641845703125
1.965,6.417642211914063,-0.2516693115234375,7.678829956054688
1.9760000000000024,6.489868164062501,-1.0255187988281251,7.271194458007813
1.985000000000003,6.6262451171875005,-1.2647766113281251,6.920083618164063
1.9960000000000024,6.740640258789063,-0.947760009765625,6.973767089843751
2.0050000000000026,7.339532470703125,-0.3147735595703125,6.572561645507813
2.015000000000001,7.640997314453125,0.0145050048828125,5.651867675781251
2.025000000000002,8.211776733398438,0.102880859375,4.928860473632813
2.035,7.9565185546875,0.0638519287109375,5.641848754882813
2.0450000000000017,6.662432861328125,0.1697235107421875,7.129434204101563
2.055,5.3964599609375,0.408233642578125,8.711227416992188
2.0650000000000013,5.287747192382813,0.4041961669921875,8.997888183593751
2.075000000000003,5.9892211914062505,0.2549591064453125,8.034725952148438
2.085000000000001,7.211978149414063,0.2842681884765625,6.685012817382813
2.0950000000000024,7.443908691406251,0.613995361328125,5.9706787109375
2.1050000000000004,7.359869384765625,0.7325775146484376,5.893069458007813
2.115000000000002,7.350149536132813,0.395074462890625,6.330163574218751
2.125,7.352691650390626,-0.3886444091796875,6.46055908203125
2.1350000000000016,6.488970947265625,-1.0993896484375,6.414950561523438
2.145000000000003,6.818249511718751,-1.3224975585937502,6.924270629882813
2.155000000000001,6.274237060546875,-1.2735992431640626,7.743429565429688
2.1650000000000027,7.54678955078125,-0.755157470703125,7.482040405273438
2.1750000000000007,6.945953369140626,0.361279296875,6.862063598632813
2.1850000000000023,6.228329467773438,1.4530426025390626,6.435287475585938
2.1950000000000003,6.584225463867188,2.211639404296875,7.021469116210938
2.205000000000002,6.945803833007813,1.8358551025390624,7.500433349609375
2.215,7.471572875976563,0.8016632080078125,6.871783447265625
2.2250000000000014,6.671554565429688,-0.1185821533203125,6.660638427734376
2.235000000000003,5.94017333984375,-0.631939697265625,6.597683715820313
2.245000000000001,6.965692138671876,-0.978863525390625,8.202804565429688
2.2550000000000026,7.121359252929688,-1.4077331542968752,7.11851806640625
2.265000000000001,7.400094604492188,-1.305450439453125,5.860321044921875
2.275000000000002,7.058554077148438,-0.5740692138671876,5.534930419921875
2.285,6.905728149414063,0.5540313720703125,6.787445068359376
2.2950000000000017,7.067526245117188,1.185821533203125,7.877413940429688
2.305,6.380706787109376,1.2267944335937502,7.64189453125
2.3150000000000013,6.3176025390625,1.1001373291015626,6.513195800781251
2.325,6.223843383789063,0.8540008544921875,7.155752563476563
2.3350000000000044,7.1974731445312505,0.4750762939453125,7.758831787109376
2.3450000000000024,6.89481201171875,-0.203070068359375,7.304391479492188
2.3550000000000004,6.517532348632813,-0.68487548828125,6.222497558593751
2.3649999999999984,6.768005371093751,-0.7898498535156251,6.402090454101563
2.375000000000004,6.984234619140626,-0.6108551025390625,7.522564697265626
2.3850000000000016,7.158444213867188,-0.264080810546875,7.025506591796876
2.395,7.195678710937501,-0.1526763916015625,6.215469360351563
2.4050000000000047,7.485180664062501,-0.1164886474609375,5.100228881835938
2.413999999999998,7.427310180664063,0.0644500732421875,6.380108642578126
2.424000000000003,6.836941528320313,0.3354095458984375,7.558453369140626
2.434000000000001,6.15311279296875,0.552984619140625,8.0689697265625
2.443999999999999,5.6886535644531255,0.4810577392578125,7.625296020507813
2.454000000000004,6.328817749023438,0.4254302978515625,7.372280883789063
2.464000000000002,7.078890991210938,0.441131591796875,7.323532104492188
2.474,7.225735473632813,0.469842529296875,6.587515258789063
2.483999999999998,7.0150390625000005,0.0803009033203125,5.828170776367188
2.494000000000004,7.507461547851563,-0.5597137451171875,5.453732299804688
2.5040000000000013,7.7675048828125,-1.1572601318359377,6.3361450195312505
2.514,6.819894409179688,-1.493865966796875,7.080087280273438
2.5240000000000045,6.442913818359376,-0.88465576171875,7.913153076171875
2.5340000000000025,6.073410034179688,0.1843780517578125,7.961602783203125
2.5440000000000005,5.7499633789062505,1.191802978515625,7.5114990234375005
2.5539999999999985,6.87327880859375,1.7157775878906252,7.171603393554688
2.564000000000004,7.602416992187501,1.8210510253906247,6.6047119140625
2.5740000000000016,7.4564697265625,1.4294158935546877,5.778225708007813
2.584,6.97257080078125,0.44801025390625,6.267657470703125
2.5940000000000047,6.854437255859375,-0.7026702880859376,7.030889892578125
2.6040000000000028,6.505270385742188,-1.544110107421875,7.9346862792968755
2.6140000000000008,6.441717529296875,-1.6857208251953126,7.590902709960938
2.6239999999999988,6.46953125,-1.3588348388671876,6.790435791015626
2.634000000000004,7.113583374023438,-0.50782470703125,6.6202636718750005
2.644000000000002,7.42476806640625,0.697735595703125,6.362014770507813
2.654,7.348205566406251,1.6111022949218752,6.620413208007813
2.663999999999998,6.83140869140625,1.8747344970703128,6.450540161132813
2.674000000000003,6.540261840820313,1.4904266357421876,7.204052734375001
2.684000000000001,6.477008056640625,0.7705596923828125,7.721896362304688
2.693999999999999,6.216366577148438,-0.0992919921875,7.748663330078125
2.704000000000004,6.232666015625001,-0.96480712890625,7.309176635742188
2.714000000000002,7.101022338867188,-1.4563323974609377,6.718209838867188
2.724,7.273437500000001,-1.31890869140625,6.480148315429688
2.733999999999998,7.109844970703126,-0.63343505859375,6.247470092773438
2.744000000000004,7.149771118164063,0.1134979248046875,6.5081115722656255
2.7540000000000013,7.386038208007813,0.5640502929687501,6.4037353515625
2.764,7.1825195312500005,0.8049530029296875,6.291732788085938
2.775000000000002,6.819744873046876,0.7579986572265626,6.71776123046875
2.7840000000000025,6.455026245117188,0.6386688232421875,7.612884521484376
2.7940000000000005,5.9652954101562505,0.356494140625,8.184710693359376
2.8039999999999985,6.158645629882813,0.0551788330078125,7.897451782226563
2.814000000000004,6.6696105957031255,-0.2172760009765625,6.919784545898438
2.8240000000000016,7.361215209960938,-0.4029998779296875,6.194683837890626
2.834,7.567276000976563,-0.331072998046875,6.047689819335938
2.8440000000000047,7.316204833984376,-0.1535736083984375,6.314761352539063
2.8540000000000028,6.994253540039063,0.0189910888671875,6.636264038085938
2.8640000000000008,6.87088623046875,-0.101385498046875,6.655853271484376
2.8739999999999988,6.296218872070313,-0.2021728515625,7.197024536132813
2.884000000000004,6.7697998046875005,-0.099591064453125,7.214071655273438
2.894000000000002,6.150720214843751,0.1308441162109375,7.773336791992188
2.904,7.508807373046875,0.28770751953125,6.980795288085938
2.913999999999998,7.150668334960938,0.44322509765625,6.586767578125
2.924000000000003,6.723892211914063,0.5582183837890625,6.026904296875
2.934000000000001,6.774136352539063,0.6510803222656251,6.993206787109376
2.9430000000000014,6.699218750000001,0.2930908203125,7.713372802734375
2.9529999999999994,7.171154785156251,-0.2280426025390625,7.123751831054688
2.9630000000000045,6.540560913085938,-0.4616180419921875,6.952383422851563
2.9730000000000025,6.423474121093751,-0.1878173828125,6.305789184570313
2.9830000000000005,6.977355957031251,0.1435546875,7.793673706054688
2.9929999999999986,7.522415161132813,0.0632537841796875,6.773986816406251
3.003000000000004,7.079788208007813,-0.0354400634765625,6.010305786132813
3.0130000000000017,6.90079345703125,0.06759033203125,6.1970764160156255
3.023,6.446652221679688,0.3802703857421875,7.189398193359375
3.033000000000005,6.800155639648438,0.3479705810546875,8.266506958007813
3.043000000000003,6.5140930175781255,0.0880767822265625,7.243380737304688
3.053000000000001,6.717163085937501,-0.0602630615234375,6.408520507812501
3.062999999999999,6.593646240234375,0.0575714111328125,6.475213623046876
3.073000000000004,7.318597412109375,0.2441925048828125,7.329214477539063
3.083000000000002,7.068722534179688,0.1287506103515625,7.243081665039063
3.093,6.583627319335938,-0.00418701171875,6.31162109375
3.102999999999998,6.642694091796876,-0.01435546875,6.558505249023438
3.113000000000003,6.69742431640625,0.097198486328125,7.568920898437501
3.123000000000001,6.852493286132813,0.2193695068359375,7.490264892578126
3.132999999999999,6.844418334960938,-0.001495361328125,6.761276245117188
3.143000000000004,7.285250854492188,-0.2594451904296875,5.551229858398438
3.1530000000000022,7.320840454101563,-0.3170166015625,6.382650756835938
3.1630000000000003,7.102517700195313,-0.093310546875,7.2528015136718755
3.1729999999999983,6.348855590820313,0.141461181640625,7.5617431640625
3.1830000000000034,6.347958374023438,0.1460968017578125,7.183267211914063
3.1930000000000014,6.728228759765625,0.0873291015625,6.731967163085938
3.2029999999999994,7.094442749023438,0.219219970703125,7.031188964843751
3.2130000000000045,6.914401245117188,0.496160888671875,6.944607543945313
3.2230000000000025,6.562094116210938,0.3787750244140625,6.6023193359375005
3.2330000000000005,6.967935180664063,-0.0566741943359375,6.357528686523438
3.2429999999999986,7.24412841796875,-0.60950927734375,6.791781616210938
3.253000000000004,7.119564819335938,-0.6739593505859376,7.015338134765625
3.2630000000000017,7.113284301757813,-0.1915557861328125,7.244277954101563
3.273,6.376220703125001,0.12919921875,6.880157470703126
3.283000000000005,6.304144287109375,0.478216552734375,6.8822509765625
3.293000000000003,6.738845825195313,0.70281982421875,7.541555786132813
3.303000000000001,7.092050170898438,0.8525054931640625,7.346859741210938
3.312999999999999,6.999188232421876,0.5580688476562501,6.413006591796876
3.323000000000004,6.791333007812501,0.0515899658203125,6.21890869140625
3.333000000000002,7.216165161132813,-0.191705322265625,6.917541503906251
3.343,6.749014282226563,-0.3491668701171875,7.443759155273438
3.352999999999998,6.881054687500001,-0.509619140625,7.169509887695313
3.363000000000003,6.552673339843751,-0.59156494140625,6.465792846679688
3.373000000000001,6.686209106445313,-0.1254608154296875,6.977505493164063
3.382999999999999,7.127041625976563,0.4607208251953125,7.181771850585938
3.393000000000004,6.775482177734376,0.7841674804687501,7.265811157226563
3.4030000000000022,7.134817504882813,0.7285400390625001,6.253002929687501
3.4120000000000026,6.703854370117188,0.5016937255859375,6.601123046875
3.4220000000000006,6.9627014160156255,0.2860626220703125,6.894662475585938
3.4319999999999986,6.580935668945313,-0.11783447265625,7.582379150390626
3.442000000000004,6.7219482421875005,-0.5994903564453126,7.166220092773438
3.4520000000000017,6.759182739257813,-0.7677185058593751,6.730471801757813
3.462,6.621609497070313,-0.4535430908203125,6.934738159179688
3.472000000000005,6.784005737304688,0.1631439208984375,7.103713989257813
3.482000000000003,6.9612060546875005,0.515899658203125,7.1705566406250005
3.492000000000001,7.185958862304688,0.6186309814453126,6.163580322265625
3.501999999999999,7.230969238281251,0.5295074462890625,6.066979980468751
3.512000000000004,7.123303222656251,0.277838134765625,6.447698974609375
3.522000000000002,6.800155639648438,0.0237762451171875,7.6478759765625
3.532,6.220254516601563,-0.2966796875,7.635464477539063
3.541999999999998,6.332406616210938,-0.4236358642578125,7.276278686523438
3.552000000000003,6.776080322265625,-0.4822540283203125,6.743032836914063
3.562000000000001,7.3404296875,-0.2627349853515625,6.69383544921875
3.571999999999999,7.204800415039063,0.1849761962890625,6.535476684570313
3.5820000000000043,6.958514404296875,0.541021728515625,6.387286376953125
3.5920000000000023,6.701910400390625,0.6316406250000001,6.667068481445313
3.6020000000000003,6.495849609375001,0.225201416015625,6.931896972656251
3.6119999999999983,7.073358154296876,-0.0109161376953125,7.667614746093751
3.622000000000003,6.504522705078125,-0.31163330078125,6.972869873046876
3.6320000000000014,7.317999267578125,-0.133685302734375,7.137210083007813
3.642,6.804193115234376,-0.067889404296875,6.460409545898438
3.652000000000005,6.616226196289063,0.114544677734375,6.525756835937501
3.6620000000000026,6.952682495117188,0.286810302734375,7.487423706054688
3.6720000000000006,6.96898193359375,0.162994384765625,6.952532958984375
3.681999999999999,7.160836791992188,0.1535736083984375,6.677984619140625
3.692000000000004,6.508560180664063,0.01495361328125,6.727780151367188
3.7020000000000017,6.958813476562501,0.393280029296875,7.074105834960938
3.712,6.474465942382813,0.3886444091796875,7.629034423828125
3.722000000000005,7.288839721679688,0.0776092529296875,6.7114807128906255
3.732000000000003,6.849203491210938,-0.1763031005859375,6.277377319335938
3.742000000000001,6.926214599609375,-0.2086029052734375,6.607254028320313
3.751999999999999,6.750808715820313,0.11065673828125,7.292578125
3.762000000000004,6.65196533203125,0.08194580078125,7.7675048828125
3.772000000000002,6.807632446289063,-0.0151031494140625,6.4491943359375
3.782,6.998291015625001,-0.103778076171875,6.702359008789063
3.791999999999998,6.787594604492188,0.1088623046875,6.422726440429688
3.802000000000003,7.012945556640625,0.3078948974609375,7.50133056640625
3.812000000000001,6.7099853515625005,0.202471923828125,7.2647644042968755
3.821999999999999,6.562841796875,0.15970458984375,6.6755920410156255
3.832000000000004,6.65196533203125,0.188714599609375,7.042553710937501
3.8420000000000014,6.702209472656251,0.2746978759765625,7.216314697265625
3.852,6.910812377929688,0.2971282958984375,7.260128784179688
3.8619999999999983,6.932943725585938,-0.0462066650390625,6.443511962890626
3.872000000000003,7.367645263671876,-0.2678192138671875,5.964398193359376
3.8820000000000014,7.176239013671876,-0.4478607177734375,6.479400634765626
3.892,7.189697265625001,-0.34752197265625,7.020721435546876
3.902000000000005,6.303695678710938,-0.172265625,7.361813354492188
3.911000000000005,6.521420288085938,-0.046356201171875,7.08621826171875
3.921000000000003,6.705947875976563,0.1783966064453125,7.046142578125001
3.931000000000001,7.009207153320313,0.338848876953125,6.9671875000000005
3.940999999999999,6.972720336914063,0.7005767822265625,6.952084350585938
3.951000000000004,6.600524902343751,0.6208740234375001,6.587515258789063
3.961000000000002,6.784603881835938,0.251220703125,6.563888549804688
3.971,7.290335083007813,-0.35350341796875,6.695779418945313
3.980999999999998,6.960458374023438,-0.8211029052734375,6.853988647460938
3.991000000000003,6.797164916992188,-0.8218505859375,7.009356689453125
4.001000000000001,7.082928466796876,-0.439935302734375,7.112387084960938
4.010999999999999,6.523812866210938,0.169573974609375,7.138854980468751
4.021000000000004,6.372183227539063,0.6323883056640626,6.767556762695313
4.031000000000002,6.897802734375,1.0412200927734376,7.548434448242188
4.041,7.063488769531251,1.106866455078125,6.893316650390625
4.050999999999998,6.790585327148438,0.8418884277343751,6.782659912109375
4.061000000000004,6.789837646484376,0.353204345703125,6.53592529296875
4.0710000000000015,7.084124755859375,-0.2201171875,6.966738891601563
4.081,6.851446533203125,-0.66334228515625,7.276428222656251
4.091000000000005,6.838287353515626,-0.9135162353515626,6.774884033203126
4.101000000000003,6.671405029296875,-0.7686157226562501,6.8311096191406255
4.111000000000001,6.735855102539063,-0.2833709716796875,6.864306640625
4.120999999999999,6.98453369140625,0.3530548095703125,7.255493164062501
4.131000000000004,6.872830200195313,0.861029052734375,7.000833129882813
4.141000000000002,6.851596069335938,1.0322479248046876,6.384594726562501
4.151,6.942214965820313,0.9410308837890624,6.88524169921875
4.161000000000005,6.8355957031250005,0.54132080078125,6.986029052734375
4.171000000000003,6.425717163085938,0.05682373046875,7.544546508789063
4.181000000000001,6.634619140625,-0.497955322265625,7.1047607421875005
4.190999999999999,6.809426879882813,-0.8673095703125001,6.914102172851563
4.201000000000004,6.875820922851563,-0.858038330078125,6.637908935546876
4.211000000000002,7.093844604492188,-0.4502532958984375,6.768154907226563
4.221,6.983038330078125,0.07835693359375,6.827371215820313
4.230999999999998,7.055712890625,0.4305145263671875,6.306686401367188
4.241000000000003,7.356878662109375,0.5256195068359375,6.354837036132813
4.251000000000001,7.205697631835938,0.3913360595703125,6.475064086914063
4.260999999999999,6.592001342773438,0.382513427734375,7.379608154296876
4.271000000000004,5.968585205078125,0.294586181640625,7.778570556640625
4.281000000000002,6.223992919921876,0.09989013671875,7.827767944335938
4.291,6.836044311523438,-0.222808837890625,7.054217529296875
4.300999999999998,7.344766235351563,-0.33316650390625,6.384893798828125
4.311000000000004,7.1526123046875005,-0.0861328125,6.055764770507813
4.3210000000000015,6.82303466796875,0.0916656494140625,6.407174682617188
4.331,7.3846923828125,-0.0327484130859375,6.531289672851563
4.341000000000005,6.926663208007813,-0.5012451171875001,6.9387756347656255
4.351000000000003,7.055862426757813,-0.504833984375,6.720153808593751
4.361000000000001,6.550579833984376,0.094805908203125,7.521218872070313
4.370999999999999,6.1447387695312505,0.538330078125,7.721896362304688
4.381000000000004,6.451736450195313,0.7891021728515626,7.450936889648438
4.391000000000002,6.8296142578125005,0.70401611328125,6.949990844726563
4.401,7.503723144531251,0.5570220947265625,6.0759521484375005
4.41,7.433291625976563,0.279632568359375,6.409567260742188
4.419999999999998,6.756341552734376,-0.0797027587890625,6.514242553710938
4.430000000000003,6.784005737304688,-0.224005126953125,7.674642944335938
4.440000000000001,6.157449340820313,-0.380718994140625,7.444058227539063
4.449999999999999,6.771743774414063,-0.389093017578125,7.204949951171876
4.460000000000004,6.948196411132813,-0.293988037109375,6.816903686523438
4.470000000000002,6.934887695312501,0.1146942138671875,6.4916625976562505
4.48,7.244876098632813,0.5079742431640626,6.686209106445313
4.489999999999998,6.877764892578125,0.5191894531250001,6.664675903320313
4.500000000000004,7.234558105468751,0.2906982421875,6.617272949218751
4.510000000000002,6.513943481445313,0.0785064697265625,7.114630126953125
4.52,6.417193603515625,0.0653472900390625,7.276428222656251
4.530000000000005,6.382052612304688,-0.0007476806640625,7.820590209960938
4.540000000000003,6.738247680664063,-0.0450103759765625,7.192089843750001
4.550000000000001,6.84935302734375,0.0478515625,6.620413208007813
4.559999999999999,6.916494750976563,0.1801910400390625,6.542056274414063
4.570000000000004,7.131378173828126,0.3052032470703125,6.572561645507813
4.580000000000002,7.240988159179688,0.1194793701171875,6.943411254882813
4.59,7.0898071289062505,-0.20576171875,6.18302001953125
4.599999999999998,7.099676513671875,-0.4598236083984375,6.526953125
4.610000000000003,6.707592773437501,-0.49945068359375,6.788940429687501
4.620000000000001,6.641647338867188,-0.260491943359375,7.729672241210938
4.629999999999999,6.411062622070313,0.1048248291015625,7.539611816406251
4.640000000000004,6.492858886718751,0.4487579345703125,7.035675048828126
4.650000000000002,6.975262451171876,0.679791259765625,6.710284423828125
4.66,7.090853881835938,0.8104858398437501,6.629235839843751
4.669999999999998,7.021469116210938,0.5945556640625,6.589459228515626
4.680000000000003,6.811520385742188,-0.04246826171875,6.335546875
4.690000000000001,7.302746582031251,-0.7943359375000001,6.4423156738281255
4.699999999999999,6.744079589843751,-1.3567413330078126,6.999337768554688
4.710000000000004,6.924868774414063,-1.071875,7.470077514648438
4.720000000000002,6.926513671875001,-0.2157806396484375,7.592996215820313
4.73,6.070120239257813,0.6690246582031251,6.834848022460938
4.739999999999998,6.486578369140625,1.2577484130859375,6.682470703125
4.750000000000004,7.2632690429687505,1.5716247558593752,7.28599853515625
4.760000000000002,7.235604858398438,1.334161376953125,6.7219482421875005
4.77,6.750210571289063,0.6784454345703126,6.816455078125
4.780000000000005,6.611740112304688,-0.12860107421875,6.554019165039063
4.790000000000003,6.785800170898438,-0.7527648925781251,7.532135009765626
4.800000000000001,6.949990844726563,-1.1903076171875,7.176239013671876
4.809999999999999,6.922625732421875,-1.3006652832031251,6.756939697265626
4.820000000000004,6.846212768554688,-0.8064483642578125,6.417492675781251
4.830000000000002,6.820642089843751,0.172265625,6.6352172851562505
4.84,7.120013427734375,0.9843963623046876,7.457965087890625
4.849999999999998,6.927560424804688,1.30634765625,6.8655029296875005
4.860000000000003,6.697274780273438,1.2706085205078126,6.627890014648438
4.870000000000001,6.606207275390625,0.98095703125,6.831707763671876
4.879999999999999,6.549682617187501,0.4151123046875,7.597183227539063
4.890000000000004,6.660339355468751,-0.4248321533203125,7.5503784179687505
4.900000000000002,6.878662109375001,-1.0226776123046877,6.839035034179688
4.9090000000000025,6.743780517578125,-1.1509796142578126,6.414651489257813
4.919999999999998,6.867745971679688,-0.78895263671875,6.735107421875001
4.928999999999999,7.200912475585938,-0.1437042236328125,7.151565551757813
4.939000000000004,7.215866088867188,0.3043060302734375,6.576000976562501
4.949000000000002,7.131826782226563,0.5997894287109375,5.79063720703125
4.959,7.215118408203126,0.6434539794921875,6.361865234375
4.969000000000005,6.824380493164063,0.5842376708984376,7.251156616210938
4.979000000000003,6.279620361328125,0.409130859375,8.047137451171876
4.989999999999998,6.130682373046875,0.0731231689453125,7.642642211914063
4.998999999999999,6.424819946289063,-0.2651275634765625,6.995748901367188
5.009000000000004,7.161883544921875,-0.39776611328125,6.763369750976563
5.019000000000002,7.267306518554688,-0.237762451171875,6.514242553710938
5.029,7.158743286132813,0.037982177734375,6.410015869140626
5.038999999999998,6.686956787109375,0.0360382080078125,6.209637451171876
5.049000000000003,7.246221923828125,-0.1208251953125,6.524411010742188
5.059000000000001,7.016235351562501,-0.2947357177734375,7.120761108398438
5.068999999999999,6.966140747070313,-0.1996307373046875,7.025207519531251
5.080000000000002,6.591253662109375,0.2026214599609375,7.512545776367188
5.089000000000002,6.206048583984376,0.4768707275390625,7.32547607421875
5.099,6.366500854492188,0.8019622802734375,7.206744384765625
5.108999999999998,6.90916748046875,0.6542205810546875,7.231118774414063
5.119000000000003,7.640249633789063,0.30924072265625,6.255545043945313
5.129000000000001,7.244876098632813,-0.0264678955078125,6.270797729492188
5.138999999999999,6.634918212890626,-0.1697235107421875,6.430950927734376
5.1490000000000045,6.762921142578126,-0.09031982421875,7.861264038085938
5.1590000000000025,6.423623657226563,-0.30086669921875,7.4546752929687505
5.1690000000000005,6.965243530273438,-0.4151123046875,6.892868041992188
5.180000000000003,6.890475463867188,-0.232379150390625,6.384295654296875
5.189000000000004,6.780267333984376,0.3162689208984375,6.616226196289063
5.199000000000002,7.2139221191406255,0.5800506591796876,7.237548828125001
5.209,6.845614624023438,0.4332061767578125,6.9073730468750005
5.219000000000005,7.054217529296875,0.239556884765625,6.374575805664063
5.229000000000003,6.342276000976563,0.136376953125,6.932046508789063
5.239000000000001,6.7518554687500005,0.1176849365234375,7.511349487304688
5.248999999999999,6.587515258789063,0.021832275390625,7.8225341796875005
5.259000000000004,6.632824707031251,-0.074468994140625,6.879559326171876
5.269000000000002,6.704901123046875,0.01734619140625,6.393118286132813
5.280000000000005,6.940719604492188,0.128302001953125,6.879708862304688
5.288999999999998,7.226632690429688,0.2238555908203125,6.930850219726563
5.299000000000003,7.137060546875,0.0441131591796875,6.79552001953125
5.309000000000001,7.132275390625001,-0.2492767333984375,5.727532958984376
5.318999999999999,7.122406005859376,-0.4110748291015625,6.558355712890625
5.329000000000004,6.808828735351563,-0.384307861328125,7.15201416015625
5.339000000000002,6.494503784179688,-0.0844879150390625,7.823132324218751
5.349,6.253750610351563,0.1589569091796875,7.317550659179688
5.358999999999998,6.626843261718751,0.3617279052734375,6.8116699218750005
5.369000000000003,7.061395263671876,0.6107055664062501,6.909466552734376
5.379999999999999,7.165921020507813,0.756353759765625,6.766360473632813
5.388999999999999,6.790884399414063,0.5950042724609376,6.645535278320313
5.398,6.84097900390625,-0.0617584228515625,6.064587402343751
5.408000000000005,7.412954711914063,-0.7985229492187501,6.497195434570313
5.418000000000003,6.913055419921876,-1.3524047851562502,7.045693969726563
5.428000000000001,6.63760986328125,-1.0125091552734375,7.464544677734375
5.437999999999999,6.707293701171875,-0.1160400390625,7.753298950195313
5.448000000000004,6.359323120117188,0.6361267089843751,6.915597534179688
5.458000000000002,6.579290771484375,1.2580474853515626,6.590655517578125
5.468,7.36375732421875,1.475323486328125,6.978701782226563
5.48,7.150070190429688,1.4030975341796876,6.787594604492188
5.488000000000003,6.849502563476563,0.6760528564453125,6.816305541992188
5.498000000000001,6.584075927734376,-0.24583740234375,6.7506591796875
5.507999999999999,6.763070678710938,-0.9293670654296876,7.379757690429688
5.518000000000004,6.749014282226563,-1.22021484375,7.318597412109375
5.528000000000002,7.044049072265626,-1.2110931396484377,6.7482666015625
5.538,6.953878784179688,-0.8222991943359376,6.2314697265625005
5.547999999999998,6.917840576171876,0.1709197998046875,6.609646606445313
5.558000000000003,7.109097290039063,1.0956512451171876,7.250259399414063
5.568000000000001,6.679330444335938,1.5014923095703123,7.156649780273438
5.580000000000002,6.765014648437501,1.332666015625,6.768304443359376
5.5880000000000045,6.570468139648438,0.916357421875,7.0045715332031255
5.5980000000000025,6.58018798828125,0.3349609375,7.31590576171875
5.6080000000000005,6.575851440429688,-0.4849456787109375,7.471722412109376
5.617999999999999,7.031488037109376,-1.164288330078125,6.884643554687501
5.628000000000004,6.962103271484375,-1.331170654296875,6.318948364257813
5.638000000000002,6.871932983398438,-0.9103759765625,6.490914916992188
5.648,7.216613769531251,-0.2026214599609375,6.863259887695313
5.658000000000005,7.166220092773438,0.3563446044921875,6.886288452148438
5.668000000000003,7.023114013671876,0.7760925292968751,6.178384399414063
5.678999999999999,6.791781616210938,0.9826019287109377,6.675442504882813
5.687999999999999,6.570468139648438,0.98095703125,7.348654174804688
5.698000000000004,6.435586547851563,0.677099609375,7.997940063476563
5.708000000000002,6.390277099609375,0.088525390625,7.470526123046875
5.718,6.773837280273438,-0.44083251953125,6.562542724609376
5.727999999999998,7.1047607421875005,-0.70999755859375,6.509606933593751
5.738000000000003,7.282559204101563,-0.6787445068359376,6.498840332031251
5.748000000000001,7.173696899414063,-0.433056640625,6.621908569335938
5.757999999999999,6.788491821289063,-0.270062255859375,6.320294189453126
5.768000000000004,6.858624267578126,-0.1782470703125,6.363809204101563
5.780000000000005,7.140350341796876,0.061907958984375,7.363607788085938
5.788,6.693386840820313,0.448309326171875,7.272988891601563
5.797999999999998,6.7174621582031255,0.8596832275390626,7.557107543945313
5.808000000000003,6.357379150390625,0.928021240234375,7.011300659179688
5.818000000000001,6.343771362304688,0.838299560546875,6.727032470703126
5.827999999999999,7.045993041992188,0.35948486328125,7.5264526367187505
5.8380000000000045,7.466488647460938,-0.2217620849609375,6.560598754882813
5.8480000000000025,7.0524230957031255,-0.7050628662109375,6.2793212890625005
5.8580000000000005,6.767257690429688,-0.8082427978515626,6.531289672851563
5.867999999999999,6.9301025390625,-0.3838592529296875,7.38828125
5.879000000000001,6.539364624023438,-0.03887939453125,7.531387329101563
5.888000000000002,7.054965209960938,0.17166748046875,6.810772705078126
5.897000000000002,6.8490539550781255,0.3904388427734375,6.255993652343751
5.908000000000005,6.816006469726563,0.7805786132812501,6.733462524414063
5.916999999999998,7.009805297851563,0.889141845703125,7.428955078125001
5.927000000000003,6.590206909179688,0.5710784912109376,7.374374389648438
5.937000000000001,6.88284912109375,-0.01614990234375,6.401791381835938
5.946999999999999,6.648974609375,-0.435748291015625,6.892419433593751
5.957000000000004,6.869540405273438,-0.4888336181640625,7.0105529785156255
5.967000000000002,6.781314086914063,-0.389691162109375,7.558154296875
5.977,6.768753051757813,-0.2543609619140625,6.859820556640625
5.986999999999998,6.7745849609375,0.01854248046875,6.32896728515625
5.997000000000003,6.988571166992188,0.3342132568359375,6.78056640625
6.0070000000000014,7.167565917968751,0.57242431640625,6.944158935546875
6.017,6.909017944335938,0.5221801757812501,7.042404174804688
6.027000000000005,6.812567138671875,0.14893798828125,6.318798828125001
6.037000000000003,6.87088623046875,-0.122918701171875,6.899597167968751
6.047000000000001,6.72374267578125,-0.3069976806640625,7.140200805664063
6.056999999999999,6.745574951171876,-0.2385101318359375,7.518228149414063
6.067000000000004,6.533383178710938,-0.1972381591796875,6.971673583984376
6.077000000000002,6.896008300781251,-0.053533935546875,6.612338256835938
6.087,7.077993774414063,0.2181732177734375,6.7294250488281255
6.097000000000005,7.23037109375,0.397467041015625,6.710134887695313
6.107000000000003,6.8834472656250005,0.4643096923828125,6.780715942382813
6.117000000000001,6.7578369140625005,0.1266571044921875,6.461904907226563
6.126999999999999,6.592449951171876,-0.2630340576171875,6.724041748046876
6.137000000000004,7.246371459960938,-0.60352783203125,6.9755615234375
6.147000000000002,6.551327514648438,-0.7346710205078125,7.27164306640625
6.157,6.883297729492188,-0.5447601318359375,7.076199340820313
6.166999999999998,7.333700561523438,0.1287506103515625,7.076498413085938
6.177000000000003,6.562841796875,0.85953369140625,6.751107788085938
6.187000000000001,6.4438110351562505,1.182232666015625,6.619515991210938
6.196999999999999,6.826922607421875,1.15142822265625,7.512844848632813
6.207000000000004,7.076947021484376,0.679791259765625,7.116275024414063
6.217000000000002,6.741238403320313,0.1969390869140625,7.108349609375001
6.227,6.571514892578126,-0.3183624267578125,6.474615478515625
6.236999999999998,7.1346679687500005,-0.6796417236328125,6.979449462890625
6.247000000000003,7.143640136718751,-0.853253173828125,6.854138183593751
6.2570000000000014,7.074105834960938,-0.735418701171875,6.687106323242188
6.267,6.719406127929688,-0.272454833984375,6.622207641601563
6.277000000000005,6.477606201171875,0.3907379150390625,7.015338134765625
6.287000000000003,6.880456542968751,0.9706390380859377,7.760626220703125
6.297000000000001,6.636563110351563,1.1195770263671876,7.13406982421875
6.306999999999999,6.901690673828125,0.9830505371093752,6.556710815429688
6.317000000000004,6.90916748046875,0.60950927734375,6.557757568359375
6.327000000000002,6.962103271484375,0.0841888427734375,7.042852783203125
6.337,6.587216186523438,-0.481207275390625,7.318447875976563
6.347000000000005,6.819744873046876,-0.97318115234375,7.003225708007813
6.355999999999998,6.747967529296876,-1.04256591796875,6.719854736328125
6.367000000000001,6.830361938476563,-0.7310821533203126,6.743630981445313
6.376999999999999,7.0927978515625005,-0.0264678955078125,7.003375244140625
6.387000000000004,7.036871337890625,0.5375823974609375,6.76322021484375
6.397000000000002,7.005020141601563,0.86551513671875,6.263619995117188
6.406000000000002,7.047787475585938,0.8511596679687501,6.576898193359376
6.416,6.946401977539063,0.6323883056640626,7.001730346679688
6.425999999999998,6.456372070312501,0.3243438720703125,7.6475769042968755
6.436000000000004,6.325677490234376,-0.1021331787109375,7.4205810546875
6.4460000000000015,6.437829589843751,-0.4714874267578125,7.186856079101563
6.456,7.243081665039063,-0.6787445068359376,6.7294250488281255
6.466000000000005,7.237997436523438,-0.5022918701171876,6.462503051757813
6.476000000000003,7.171902465820313,-0.2020233154296875,6.183917236328125
6.486000000000001,7.059600830078126,0.113348388671875,6.442764282226563
6.495999999999999,6.80748291015625,0.139068603515625,6.672451782226563
6.506000000000004,6.985729980468751,0.1015350341796875,6.88524169921875
6.516000000000002,6.658395385742188,0.0478515625,7.2528015136718755
6.526,6.430203247070313,0.04964599609375,7.163229370117188
6.536000000000005,7.07425537109375,0.3213531494140625,7.660885620117188
6.546000000000003,6.520223999023438,0.4966094970703125,7.098629760742188
6.556000000000001,6.525158691406251,0.6075653076171875,6.454428100585938
6.565999999999999,6.992010498046875,0.3138763427734375,6.872830200195313
6.576000000000004,7.521368408203125,-0.028411865234375,6.700115966796876
6.586000000000002,7.059899902343751,-0.2253509521484375,6.892868041992188
6.596,6.3917724609375,-0.183331298828125,6.786398315429688
6.605999999999998,6.6097961425781255,-0.0189910888671875,7.322933959960938
6.616000000000003,6.711032104492188,-0.007177734375,7.388131713867188
6.626000000000001,7.252203369140625,0.041571044921875,6.839633178710938
6.635999999999999,6.941915893554688,0.150433349609375,6.28111572265625
6.646000000000004,6.731219482421875,0.3919342041015625,6.4916625976562505
6.656000000000002,6.968533325195313,0.411822509765625,7.282858276367188
6.666,6.7458740234375005,0.2417999267578125,7.508209228515626
6.675999999999998,6.789987182617188,0.033795166015625,6.711032104492188
6.686000000000004,6.45457763671875,-0.069683837890625,6.7841552734375
6.6960000000000015,6.900942993164063,-0.09271240234375,6.94864501953125
6.706,6.950289916992188,-0.045458984375,7.459310913085938
6.716000000000005,6.852194213867188,0.03887939453125,6.855783081054688
6.726000000000003,6.682171630859376,0.136676025390625,6.363809204101563
6.736000000000001,6.901541137695313,0.1036285400390625,6.769052124023438
6.745999999999999,7.170257568359376,0.1323394775390625,7.102517700195313
6.756000000000004,6.8610168457031255,0.06519775390625,7.116424560546876
6.766000000000002,6.678283691406251,-0.03170166015625,6.420034790039063
6.776,6.890325927734375,-0.124713134765625,6.771893310546876
6.786000000000005,6.977505493164063,-0.162396240234375,6.980795288085938
6.796000000000003,6.837838745117188,0.04844970703125,7.345065307617188
6.806000000000001,6.565982055664063,0.165386962890625,6.867446899414063
6.815999999999999,6.747967529296876,0.2380615234375,6.775631713867188
6.826000000000004,7.019375610351563,0.1909576416015625,6.822735595703126
6.836000000000002,7.163677978515626,0.237164306640625,6.932046508789063
6.846,6.750958251953126,0.159405517578125,6.64598388671875
6.855,6.607852172851563,-0.1888641357421875,6.491363525390626
6.866000000000003,7.111938476562501,-0.445916748046875,6.667367553710938
6.875000000000004,7.110592651367188,-0.7472320556640626,7.087414550781251
6.885000000000002,6.7473693847656255,-0.50543212890625,7.052871704101563
6.896000000000004,7.020272827148438,0.0453094482421875,7.123901367187501
6.905000000000005,6.6130859375,0.6748565673828125,7.171603393554688
6.915000000000003,6.330761718750001,1.0658935546875,6.788641357421875
6.925000000000001,6.824829101562501,1.0914642333984377,7.428356933593751
6.934999999999999,7.094143676757813,0.8466735839843751,6.948794555664063
6.945000000000004,6.946551513671875,0.2966796875,6.695779418945313
6.955000000000002,6.754397583007813,-0.2118927001953125,6.615328979492188
6.965,7.019674682617188,-0.67410888671875,6.91275634765625
6.974999999999998,6.857128906250001,-0.8070465087890626,7.302297973632813
6.985000000000003,7.052273559570313,-0.7813262939453126,6.792379760742188
6.995000000000001,6.670806884765626,-0.397467041015625,6.688302612304688
7.004999999999999,6.714321899414063,0.2749969482421875,6.833352661132813
7.015000000000004,6.928756713867188,0.8671600341796876,7.302297973632813
7.025000000000002,6.773089599609375,1.140362548828125,7.146331787109376
7.035,6.912606811523438,0.9872375488281252,6.6023193359375005
7.044999999999998,6.66751708984375,0.6993804931640626,6.885391235351563
7.055000000000003,6.85294189453125,0.1912567138671875,6.939822387695313
7.065000000000001,6.614431762695313,-0.4009063720703125,7.422525024414063
7.074999999999999,6.84097900390625,-0.9223388671875,6.863259887695313
7.085000000000004,6.922027587890626,-1.0501922607421876,6.742584228515626
7.095000000000002,6.912307739257813,-0.743194580078125,6.61966552734375
7.105,6.982888793945313,-0.1499847412109375,6.763668823242188
7.114999999999998,6.923971557617188,0.3680084228515625,7.022665405273438
7.125000000000004,7.070217895507813,0.748876953125,6.497793579101563
7.135000000000002,6.765164184570313,0.9401336669921876,6.755892944335938
7.145,6.871633911132813,0.7714569091796876,6.802099609375
7.155000000000005,6.700115966796876,0.4493560791015625,7.5638366699218755
7.165000000000003,6.456521606445313,-0.017047119140625,7.366598510742188
7.175000000000001,6.420034790039063,-0.3084930419921875,7.129733276367188
7.184999999999999,6.850399780273438,-0.5935089111328126,6.733163452148438
7.195000000000004,7.4803955078125,-0.6748565673828125,6.5514770507812505
7.205000000000002,7.234558105468751,-0.5375823974609375,6.219207763671876
7.215,6.981243896484376,-0.1431060791015625,6.312069702148438
7.224999999999998,6.439175415039063,0.124713134765625,6.749612426757813
7.235000000000003,7.254446411132813,0.1819854736328125,7.27822265625
7.245000000000001,6.553720092773438,0.289202880859375,7.32607421875
7.254999999999999,6.95462646484375,0.478216552734375,7.011749267578126
7.265000000000004,6.569570922851563,0.7880554199218751,7.1693603515625
7.275000000000002,6.21292724609375,0.7330261230468751,6.930551147460938
7.285,7.035226440429688,0.4006072998046875,7.5159851074218755
7.294999999999998,7.08861083984375,-0.119927978515625,6.617871093750001
7.305000000000003,7.208688354492188,-0.5112640380859376,6.19139404296875
7.314000000000004,7.071115112304688,-0.5993408203125,6.801800537109376
7.324999999999999,6.713125610351563,-0.363372802734375,6.81944580078125
7.334,6.653460693359375,0.00538330078125,7.733111572265625
7.345000000000002,6.902587890625001,0.1359283447265625,6.838885498046875
7.354000000000003,6.742135620117188,0.337054443359375,6.512149047851563
7.364000000000001,7.061843872070313,0.5680877685546876,6.857876586914063
7.373999999999999,6.718658447265626,0.7479797363281251,7.00247802734375
7.384000000000004,6.78355712890625,0.548797607421875,7.380206298828125
7.394000000000002,6.8146606445312505,-0.0013458251953125,6.582730102539063
7.404,6.949392700195313,-0.34931640625,6.866101074218751
7.413999999999998,6.747219848632813,-0.41810302734375,6.751556396484376
7.424000000000003,6.755294799804688,-0.3156707763671875,7.404879760742188
7.434000000000001,6.75125732421875,-0.237164306640625,7.026553344726563
7.443999999999999,6.8894287109375005,-0.049346923828125,6.706246948242188
7.454000000000004,6.8942138671875,0.299371337890625,6.6561523437500005
7.464000000000002,6.810623168945313,0.5429656982421875,6.864157104492188
7.474,6.902139282226563,0.5824432373046875,7.170108032226563
7.483999999999998,7.006814575195313,0.25899658203125,6.756640625
7.494000000000003,6.875222778320313,-0.0180938720703125,6.5544677734375005
7.504000000000001,6.76920166015625,-0.265576171875,6.788043212890625
7.513999999999999,6.845315551757813,-0.3389984130859375,7.286447143554688
7.524000000000004,6.647030639648438,-0.270062255859375,7.319195556640626
7.534000000000002,6.721200561523438,-0.1206756591796875,6.8191467285156255
7.544,6.81346435546875,0.1099090576171875,6.641946411132813
7.5539999999999985,7.282260131835938,0.3075958251953125,6.725985717773438
7.564000000000004,6.996795654296876,0.467449951171875,6.842474365234375
7.574000000000002,6.826174926757813,0.36427001953125,6.694882202148438
7.584,6.471923828125001,0.0849365234375,6.667218017578126
7.594000000000005,6.897802734375,-0.3916351318359375,6.791183471679688
7.604000000000003,7.195080566406251,-0.7415496826171876,7.067227172851563
7.614000000000001,6.599627685546875,-0.77698974609375,6.968084716796875
7.623999999999999,7.191192626953126,-0.244342041015625,7.16038818359375
7.634000000000004,7.045993041992188,0.4852447509765625,7.096237182617188
7.644000000000002,6.1197662353515625,1.0436126708984377,6.627590942382813
7.654,6.743182373046875,1.1761016845703125,7.13048095703125
7.663999999999998,7.002926635742188,0.91575927734375,7.234109497070313
7.674000000000003,7.22020263671875,0.36905517578125,6.849502563476563
7.684000000000001,6.5021301269531255,-0.127105712890625,6.802398681640626
7.693999999999999,6.786996459960938,-0.4966094970703125,6.6516662597656255
7.704000000000004,6.9028869628906255,-0.7804290771484376,7.393963623046876
7.714000000000002,7.307382202148438,-0.8979644775390626,6.811520385742188
7.724,6.821838378906251,-0.5339935302734375,6.501232910156251
7.733999999999998,6.5634399414062505,0.147442626953125,6.7533508300781255
7.744000000000003,6.710134887695313,0.844281005859375,7.23336181640625
7.754000000000001,6.899896240234376,1.05751953125,7.583724975585938
7.763999999999999,6.944158935546875,0.914862060546875,6.636563110351563
7.774000000000004,6.721798706054688,0.6747070312500001,6.593048095703126
7.784000000000002,6.840530395507813,0.271856689453125,6.713574218750001
7.794,6.718508911132813,-0.275445556640625,7.502377319335938
7.803000000000001,6.834249877929688,-0.8374023437500001,7.212576293945313
7.812999999999999,6.780715942382813,-0.9423767089843752,6.675143432617188
7.823000000000004,6.71177978515625,-0.7070068359375,6.559701538085938
7.833000000000002,7.034030151367188,-0.162396240234375,6.900942993164063
7.843,7.184164428710938,0.4055419921875,7.165023803710938
7.852999999999998,6.796566772460938,0.7686157226562501,6.491961669921875
7.863000000000003,6.818997192382813,0.9177032470703126,6.51439208984375
7.873000000000001,6.884194946289063,0.66334228515625,6.856381225585938
7.882999999999999,6.959561157226563,0.33675537109375,7.479946899414063
7.893000000000004,6.487774658203126,-0.11484375,7.201361083984375
7.903000000000002,6.483139038085938,-0.4840484619140625,6.937579345703125
7.913,6.880456542968751,-0.6464447021484375,6.836193847656251
7.922999999999998,7.1974731445312505,-0.6193786621093751,6.853091430664063
7.933000000000003,7.295269775390626,-0.2117431640625,6.629235839843751
7.943000000000001,6.757388305664063,0.0940582275390625,6.225936889648438
7.952999999999999,6.736154174804688,0.3596343994140625,6.620861816406251
7.963000000000004,6.9552246093750005,0.3437835693359375,6.931149291992188
7.973000000000002,6.935336303710938,0.212939453125,7.430599975585938
7.983,6.653460693359375,0.07955322265625,6.835745239257813
7.9929999999999986,6.9396728515625,0.185125732421875,7.186108398437501
8.003000000000004,6.643142700195313,0.33316650390625,7.318896484375
8.013000000000002,6.428558349609376,0.3552978515625,6.740640258789063
8.023,6.845315551757813,0.1652374267578125,7.234857177734375
8.033000000000005,7.490264892578126,-0.1828826904296875,6.399249267578125
8.043000000000003,7.083377075195313,-0.2112945556640625,6.718209838867188
8.053,6.612637329101563,-0.03050537109375,6.800454711914063
8.062999999999999,6.7662109375,0.2546600341796875,7.371832275390625
8.073000000000004,6.567178344726563,0.2142852783203125,7.245175170898438
8.083000000000002,7.222146606445313,0.0575714111328125,6.749313354492188
8.093,6.888082885742188,0.109161376953125,6.545645141601563
8.102999999999998,6.656750488281251,0.33197021484375,6.716864013671875
8.113000000000003,6.780416870117188,0.3146240234375,7.352841186523438
8.123000000000001,6.845016479492188,0.0396270751953125,7.273587036132813
8.133,7.00546875,-0.143853759765625,6.4886718750000005
8.143000000000004,6.755743408203125,-0.1481903076171875,6.707592773437501
8.153000000000002,6.9073730468750005,-0.034393310546875,6.824081420898438
8.163,6.727182006835938,0.0210845947265625,7.514190673828126
8.172999999999998,6.782958984375001,0.1212738037109375,7.018478393554688
8.183000000000003,6.614431762695313,0.25899658203125,6.740042114257813
8.193000000000001,6.750061035156251,0.2558563232421875,6.693386840820313
8.203,7.184912109375,0.2175750732421875,7.01982421875
8.213000000000005,6.968234252929688,0.095703125,6.953131103515625
8.223000000000003,6.780416870117188,-0.0578704833984375,6.465045166015625
8.233,6.843521118164063,-0.1978363037109375,6.750958251953126
8.242999999999999,6.932196044921875,-0.2797821044921875,6.993505859375
8.253000000000004,6.947000122070313,-0.138470458984375,7.3583740234375
8.263000000000002,6.528747558593751,0.02452392578125,6.793875122070313
8.273,6.763967895507813,0.2208648681640625,6.856979370117188
8.283000000000005,6.9612060546875005,0.3026611328125,6.857577514648438
8.293000000000003,7.0883117675781255,0.4151123046875,7.045843505859375
8.303,6.838137817382813,0.3668121337890625,6.725985717773438
8.312999999999999,6.68187255859375,0.1131988525390625,6.58916015625
8.322,6.711032104492188,-0.3040069580078125,6.6549560546875
8.332000000000004,7.407870483398438,-0.6794921875000001,6.786248779296876
8.342000000000002,6.78056640625,-0.8125793457031251,6.978103637695313
8.352,6.840829467773438,-0.6208740234375001,6.811819458007813
8.363000000000003,7.132275390625001,0.2172760009765625,7.473516845703125
8.372000000000003,6.378463745117188,0.913067626953125,7.097732543945313
8.382000000000001,6.335696411132813,1.2948333740234377,6.871035766601563
8.392,6.898999023437501,1.21842041015625,7.188351440429688
8.402000000000005,7.288241577148438,0.683380126953125,6.737200927734375
8.412000000000003,6.955523681640625,0.2002288818359375,6.991711425781251
8.422,6.55386962890625,-0.3617279052734375,6.484335327148438
8.431999999999999,6.862213134765626,-0.7331756591796875,7.269848632812501
8.442000000000004,7.054217529296875,-1.0672393798828126,6.935784912109376
8.452000000000002,7.024908447265625,-0.8634216308593751,6.885989379882813
8.462,6.758734130859375,-0.238360595703125,6.569122314453126
8.472000000000005,6.48448486328125,0.5558258056640626,6.867596435546876
8.482000000000003,7.056460571289063,1.064996337890625,7.463497924804688
8.492,6.871185302734376,1.131689453125,7.026702880859376
8.501999999999999,6.84337158203125,1.04017333984375,6.651516723632813
8.512000000000004,6.604861450195313,0.5860321044921876,6.626095581054688
8.522000000000002,6.857577514648438,-0.0264678955078125,7.309774780273438
8.532,6.647628784179688,-0.6763519287109375,7.359420776367188
8.541999999999998,6.769650268554688,-1.0492950439453126,6.911709594726563
8.552000000000003,6.856680297851563,-0.9453674316406252,6.50003662109375
8.562000000000001,6.958065795898438,-0.6494354248046875,6.536972045898438
8.572,7.319943237304688,-0.0100189208984375,6.893167114257813
8.582000000000004,6.964047241210938,0.490179443359375,6.7243408203125
8.592000000000002,6.804940795898438,0.9266754150390626,6.566879272460938
8.602,6.7458740234375005,0.9571807861328124,6.918289184570313
8.611999999999998,6.669311523437501,0.6757537841796876,7.290783691406251
8.622000000000003,6.75364990234375,0.3265869140625,7.616772460937501
8.632000000000001,6.348406982421875,-0.141461181640625,7.020721435546876
8.642,6.757687377929688,-0.4248321533203125,6.878811645507813
8.652000000000005,7.123901367187501,-0.6883148193359375,6.678582763671876
8.662000000000003,7.344317626953125,-0.599639892578125,6.529046630859376
8.672,7.056759643554688,-0.356793212890625,6.301602172851563
8.681999999999999,6.570169067382813,-0.1777984619140625,6.358126831054688
8.692000000000004,7.327569580078125,0.0623565673828125,6.940570068359375
8.702000000000002,6.658694458007813,0.120526123046875,7.285848999023438
8.712,7.053619384765626,0.437542724609375,7.205099487304688
8.722000000000005,6.479550170898438,0.7108947753906251,7.174145507812501
8.732000000000003,6.168215942382813,0.8149719238281251,7.179827880859375
8.742,6.821688842773438,0.6587066650390625,7.342523193359375
8.751999999999999,6.994552612304688,0.1481903076171875,6.966888427734376
8.762000000000004,7.42177734375,-0.275445556640625,6.258236694335938
8.772000000000002,7.023562622070313,-0.5467041015625,6.474914550781251
8.782,6.732116699218751,-0.3434844970703125,6.736602783203126
8.791999999999998,6.781463623046876,-0.152227783203125,7.715615844726563
8.802000000000003,6.7428833007812505,-0.043365478515625,7.096835327148438
8.811000000000003,6.740789794921875,0.1136474609375,6.594393920898438
8.821000000000002,6.976309204101563,0.3672607421875,6.74228515625
8.831,6.793276977539063,0.6954925537109375,6.927261352539063
8.842000000000002,6.939822387695313,0.5688354492187501,7.337289428710938
8.852,6.816305541992188,0.227593994140625,6.6935363769531255
8.861,6.925466918945313,-0.1332366943359375,6.599029541015626
8.872000000000003,6.646881103515626,-0.2376129150390625,6.935934448242188
8.882000000000001,6.798959350585938,-0.261090087890625,7.400244140625
8.891000000000002,6.6456848144531255,-0.212042236328125,7.363009643554688
8.901,6.696676635742188,-0.0514404296875,6.673947143554688
8.911000000000005,6.93668212890625,0.199481201171875,6.557308959960938
8.921000000000003,7.081283569335938,0.3552978515625,6.742434692382813
8.931000000000001,7.143640136718751,0.3650177001953125,6.902288818359375
8.940999999999999,6.859970092773438,0.152227783203125,6.750360107421876
8.951000000000004,6.808230590820313,-0.0013458251953125,6.631927490234376
8.961000000000002,6.674993896484375,-0.153125,7.174893188476563
8.971,6.749911499023438,-0.2080047607421875,7.275381469726563
8.980999999999998,6.7243408203125,-0.103179931640625,7.238296508789063
8.991000000000003,6.681423950195313,0.0287109375,6.654058837890625
9.001000000000001,6.925167846679688,0.243145751953125,6.728079223632813
9.011,7.15440673828125,0.29488525390625,6.798660278320313
9.021000000000004,7.103863525390626,0.3482696533203125,6.7907348632812505
9.031000000000002,6.800903320312501,0.169573974609375,6.6262451171875005
9.041,6.579739379882813,-0.0587677001953125,6.732116699218751
9.050999999999998,6.708489990234376,-0.2767913818359375,7.210781860351563
9.061000000000003,6.711630249023438,-0.4912261962890625,6.948495483398438
9.071000000000002,7.0927978515625005,-0.5127593994140626,6.951336669921876
9.081,6.872082519531251,-0.4098785400390625,6.504971313476563
9.091000000000005,7.62095947265625,0.176751708984375,6.936233520507813
9.101000000000004,6.782510375976563,0.7902984619140626,7.092349243164063
9.111,5.909069824218751,1.1384185791015626,6.806735229492188
9.121,6.542205810546876,1.0137054443359377,7.603912353515626
9.131000000000004,7.100424194335938,0.3796722412109375,7.184762573242188
9.141000000000002,7.188351440429688,-0.0985443115234375,6.873876953125
9.151,6.594842529296876,-0.3422882080078125,6.487326049804688
9.161000000000003,6.904531860351563,-0.3895416259765625,6.568374633789063
9.171000000000005,7.108349609375001,-0.629248046875,7.163229370117188
9.181,7.42177734375,-0.6742584228515626,6.788940429687501
9.191,6.600823974609376,-0.191107177734375,6.519177246093751
9.201000000000004,6.272442626953126,0.4966094970703125,6.995748901367188
9.211000000000002,6.764865112304688,0.9042449951171876,7.628286743164063
9.221,6.915298461914063,0.8510101318359375,7.534677124023438
9.230999999999998,7.002926635742188,0.744091796875,6.3152099609375005
9.241000000000003,6.672152709960938,0.488983154296875,6.400894165039063
9.251,7.016683959960938,0.063702392578125,6.793426513671876
9.261,6.867745971679688,-0.5034881591796876,7.569369506835938
9.271000000000004,6.777127075195313,-0.8598327636718751,7.065133666992188
9.281000000000002,6.568524169921876,-0.7923919677734376,6.555215454101563
9.290000000000004,6.697573852539063,-0.4821044921875,6.804342651367188
9.3,7.173995971679688,0.0183929443359375,7.145135498046876
9.31,7.156948852539063,0.518292236328125,6.993655395507813
9.320000000000004,6.775332641601563,0.8255889892578125,6.118569946289063
9.330000000000002,6.942364501953126,0.7850646972656251,6.448446655273438
9.34,7.090405273437501,0.459075927734375,7.178781127929688
9.349999999999998,6.724490356445313,0.15372314453125,7.587612915039063
9.360000000000005,6.13157958984375,-0.1230682373046875,7.315158081054688
9.371,6.409866333007813,-0.3923828125,6.963150024414063
9.38,7.108648681640625,-0.549993896484375,6.949392700195313
9.390000000000004,7.467684936523438,-0.4182525634765625,6.713723754882813
9.400000000000002,7.007562255859376,-0.0417205810546875,6.176290893554688
9.41,6.868194580078126,0.2624359130859375,6.268106079101563
9.419999999999998,6.706546020507813,0.2978759765625,6.871035766601563
9.430000000000003,6.88524169921875,0.1577606201171875,7.353439331054688
9.44,6.674545288085938,0.1123016357421875,7.342672729492188
9.45,6.744079589843751,0.1254608154296875,6.721649169921876
9.460000000000004,7.010104370117188,0.212939453125,7.240689086914063
9.471,6.742733764648438,0.2893524169921875,6.963897705078126
9.48,6.469082641601563,0.48509521484375,6.825875854492188
9.489999999999998,6.856680297851563,0.183929443359375,7.031338500976563
9.500000000000004,7.54918212890625,-0.259893798828125,6.454428100585938
9.510000000000002,7.210482788085938,-0.4487579345703125,6.65196533203125
9.52,6.411810302734375,-0.1830322265625,6.768753051757813
9.530000000000005,6.544598388671876,0.2624359130859375,7.737298583984375
9.540000000000004,6.663180541992188,0.1861724853515625,7.218258666992188
9.55,7.437927246093751,0.0013458251953125,6.6740966796875005
9.56,6.9671875000000005,0.154022216796875,6.129037475585938
9.572,6.53831787109375,0.5330963134765625,6.712078857421876
9.580000000000002,6.850997924804688,0.463262939453125,7.629333496093751
9.59,6.861764526367188,0.0538330078125,7.467385864257813
9.599999999999998,6.934738159179688,-0.18363037109375,6.377117919921876
9.610000000000005,6.424969482421876,-0.247930908203125,6.470877075195313
9.62,7.079040527343751,-0.107666015625,7.044049072265626
9.63,6.898101806640626,-0.129498291015625,7.6236511230468755
9.640000000000004,6.901092529296876,-0.0417205810546875,6.749761962890625
9.650000000000002,6.612188720703125,0.2304351806640625,6.3466125488281255
9.66,6.775930786132813,0.3404937744140625,6.753799438476563
9.672,7.136761474609376,0.3895416259765625,7.385589599609376
9.680000000000003,6.893914794921876,0.2109954833984375,7.211529541015626
9.69,6.673348999023438,0.08074951171875,6.338836669921876
9.7,6.699218750000001,-0.0883758544921875,6.731967163085938
9.710000000000004,7.010104370117188,-0.2093505859375,7.157098388671876
9.720000000000002,7.001132202148438,-0.1194793701171875,7.396057128906251
9.73,6.603515625000001,-0.09869384765625,6.554916381835938
9.739999999999998,6.770697021484375,0.039776611328125,6.512448120117188
9.750000000000004,7.018478393554688,0.128302001953125,6.916345214843751
9.760000000000002,7.119863891601563,0.2872589111328125,7.156649780273438
9.772000000000002,6.742135620117188,0.2776885986328125,6.725537109375001
9.780000000000005,6.480895996093751,-0.021234130859375,6.313565063476563
9.790000000000004,7.137060546875,-0.26976318359375,6.852642822265626
9.8,6.844567871093751,-0.5132080078125001,7.398150634765625
9.809,7.205996704101563,-0.229986572265625,7.1959777832031255
9.819,6.877615356445313,0.1724151611328125,6.7386962890625
9.829000000000004,6.275732421875,0.5277130126953126,6.4482971191406255
9.839000000000002,6.772491455078126,0.7547088623046876,7.224838256835938
9.849,6.992010498046875,0.7206146240234376,7.683016967773438
9.858999999999998,6.882998657226563,0.5292083740234376,6.836642456054688
9.869000000000003,6.634320068359376,0.0692352294921875,6.486279296875001
9.879,6.934439086914063,-0.1215728759765625,6.568374633789063
9.889,7.110891723632813,-0.33197021484375,7.385140991210938
9.899000000000004,7.111340332031251,-0.485992431640625,6.910064697265626
9.909000000000002,6.647778320312501,-0.5286102294921875,6.40672607421875
9.919,6.759780883789063,-0.2782867431640625,6.781463623046876
9.928999999999998,6.669161987304688,0.3695037841796875,7.34102783203125
9.939000000000004,6.873727416992188,0.6950439453125,7.641146850585938
9.949000000000002,6.723144531250001,0.811383056640625,6.74228515625
9.959,6.886886596679688,0.6649871826171876,6.411511230468751
9.970000000000002,6.898999023437501,0.5356384277343751,6.718658447265626
9.979000000000005,6.979299926757813,0.1407135009765625,7.294223022460938
9.989,6.610543823242188,-0.4248321533203125,7.1496215820312505
9.999,6.803594970703125,-0.8646179199218751,6.613833618164063
10.009000000000004,6.916195678710938,-0.8794219970703125,6.760678100585938
10.019000000000002,6.9635986328125,-0.499151611328125,6.890176391601563
10.029,6.969430541992188,-0.007177734375,6.996646118164063
10.038999999999998,6.832754516601563,0.3721954345703125,6.724639892578126
10.049000000000005,6.95462646484375,0.7781860351562501,6.5927490234375
10.059,6.6995178222656255,0.9486572265625,7.039862060546875
10.069,6.833651733398438,0.8402435302734376,7.256838989257813
10.079000000000004,6.631478881835938,0.390289306640625,7.2617736816406255
10.089000000000002,6.740191650390625,-0.1804901123046875,6.820791625976563
10.099,6.734658813476563,-0.5061798095703125,6.858026123046876
10.108999999999998,7.0464416503906255,-0.7061096191406251,6.86729736328125
10.119000000000003,7.121658325195313,-0.6346313476562501,6.774435424804688
10.129,6.989318847656251,-0.5156005859375,6.3451171875000005
10.139,6.828567504882813,-0.0952545166015625,6.50601806640625
10.149000000000004,6.752752685546875,0.166583251953125,6.6815734863281255
10.159000000000002,7.21422119140625,0.340643310546875,7.23814697265625
10.169,6.667666625976563,0.3303253173828125,6.989318847656251
10.178999999999998,6.916046142578126,0.483599853515625,7.077096557617188
10.189000000000004,6.5754028320312505,0.7599426269531251,7.48697509765625
10.199000000000002,6.102420043945313,0.7141845703125,6.9941040039062505
10.209,6.8909240722656255,0.3282318115234375,7.425067138671875
10.219000000000005,7.342373657226563,-0.2663238525390625,6.424520874023438
10.229000000000005,7.3335510253906255,-0.491375732421875,6.299807739257813
10.239,6.751705932617188,-0.4062896728515625,6.769351196289063
10.249,6.780416870117188,-0.1389190673828125,6.962402343750001
10.259000000000004,6.601123046875,0.004486083984375,7.660586547851563
10.269000000000002,7.073208618164063,0.0142059326171875,6.801651000976563
10.279,6.662283325195313,0.32957763671875,6.715667724609376
10.288999999999998,6.839782714843751,0.6017333984375001,6.786398315429688
10.297999999999998,6.856381225585938,0.6730621337890625,7.117620849609375
10.308000000000003,6.953280639648438,0.3659149169921875,7.211978149414063
10.318,6.8714843750000005,0.0145050048828125,6.426913452148438
10.328,6.681274414062501,-0.1818359375,6.948794555664063
10.338000000000005,6.73929443359375,-0.2998199462890625,6.93369140625
10.348000000000004,6.915896606445313,-0.328082275390625,7.539163208007813
10.358,6.6860595703125005,-0.1981353759765625,6.850250244140626
10.368,6.714321899414063,0.0668426513671875,6.495849609375001
10.378000000000004,7.000683593750001,0.2606414794921875,6.809725952148438
10.388000000000002,7.1454345703125,0.32718505859375,6.871334838867188
10.398,7.019525146484376,0.3210540771484375,6.889279174804688
10.408000000000005,6.768603515625,0.1332366943359375,6.452334594726563
10.418000000000005,6.752453613281251,-0.0240753173828125,6.896606445312501
10.428,6.825875854492188,-0.17884521484375,7.290484619140625
10.438,6.737500000000001,-0.15133056640625,7.356579589843751
10.448000000000004,6.534429931640625,-0.042767333984375,6.904830932617188
10.458000000000002,6.79910888671875,0.0610107421875,6.661236572265626
10.468,7.128836059570313,0.1792938232421875,6.761575317382813
10.477999999999998,7.262969970703126,0.2154815673828125,6.76920166015625
10.488000000000005,6.930850219726563,0.1736114501953125,6.423025512695313
10.498,6.531140136718751,-0.15611572265625,6.43125
10.508,7.150219726562501,-0.444720458984375,6.696527099609376
10.518000000000004,6.796267700195313,-0.675604248046875,7.520022583007813
10.528000000000002,6.619515991210938,-0.518292236328125,7.163079833984376
10.538,7.045245361328125,0.1543212890625,7.304840087890626
10.547999999999998,6.636862182617188,0.7523162841796875,6.887783813476563
10.558000000000003,6.451736450195313,1.1189788818359376,6.471774291992188
10.568,6.998739624023438,1.0406219482421877,7.302297973632813
10.578,7.162780761718751,0.7092498779296875,7.00546875
10.588000000000005,6.740939331054688,0.270361328125,6.962551879882813
10.598000000000004,6.483438110351563,-0.219219970703125,6.705947875976563
10.608,7.048236083984375,-0.6201263427734376,7.041357421875
10.618,6.9387756347656255,-0.813177490234375,7.151565551757813
10.628000000000004,7.19627685546875,-0.7198669433593751,6.571963500976563
10.638000000000002,6.729873657226563,-0.3186614990234375,6.491812133789063
10.648,6.727032470703126,0.270361328125,6.91275634765625
10.658000000000005,6.876119995117188,0.8345611572265625,7.445404052734376
10.668000000000005,6.613534545898438,1.0518371582031252,7.32786865234375
10.678,6.732864379882813,0.9633117675781252,6.644039916992188
10.688,6.825726318359376,0.6655853271484375,6.8744750976562505
10.698000000000004,7.011001586914063,0.1816864013671875,6.853240966796876
10.708000000000002,6.752902221679688,-0.363970947265625,7.198220825195313
10.718,6.766061401367188,-0.7850646972656251,6.874325561523438
10.727999999999998,6.826473999023438,-0.9423767089843752,6.734808349609375
10.738000000000005,6.961355590820313,-0.8034576416015625,6.720901489257813
10.748,7.128836059570313,-0.34512939453125,6.71776123046875
10.758,6.97257080078125,0.1945465087890625,6.857577514648438
10.768000000000004,6.802548217773438,0.7049133300781251,6.643740844726563
10.778000000000002,6.697573852539063,1.0250701904296875,7.107003784179688
10.787000000000004,6.756640625,0.92353515625,7.080087280273438
10.797,6.820492553710938,0.6271545410156251,7.292727661132813
10.807,6.554916381835938,0.1550689697265625,6.9755615234375
10.817000000000004,6.607852172851563,-0.28232421875,6.995001220703125
10.828,6.934439086914063,-0.5997894287109375,6.959112548828125
10.837,7.185360717773438,-0.7662231445312501,6.725836181640625
10.847000000000005,7.273587036132813,-0.7360168457031251,6.198422241210938
10.857000000000005,6.927859497070313,-0.49287109375,6.2135253906250005
10.867,6.86729736328125,-0.155218505859375,6.485531616210938
10.877,7.229623413085938,0.1721160888671875,7.325326538085938
10.887000000000004,6.399847412109375,0.33795166015625,7.181173706054688
10.897000000000002,6.839782714843751,0.69683837890625,7.376617431640626
10.907,6.4961486816406255,1.0726226806640626,7.529742431640625
10.916999999999998,6.146084594726563,1.0981933593750002,6.850997924804688
10.927000000000003,7.040161132812501,0.5462554931640625,7.236502075195313
10.937,7.45108642578125,-0.1969390869140625,6.377716064453126
10.947,7.317999267578125,-0.6171356201171876,6.274087524414063
10.957000000000004,6.645385742187501,-0.7690643310546875,6.833352661132813
10.967000000000002,6.771145629882813,-0.5537322998046875,7.11612548828125
10.977,6.459512329101563,-0.3225494384765625,7.793823242187501
10.986999999999998,7.11253662109375,0.0052337646484375,6.832604980468751
10.997000000000003,6.6561523437500005,0.523077392578125,6.500933837890625
11.007,7.015786743164063,0.8957214355468751,6.705349731445313
11.017,6.939971923828126,0.9712371826171876,6.951785278320313
11.027000000000005,6.851147460937501,0.5564239501953125,7.248764038085938
11.037000000000004,6.800903320312501,0.0668426513671875,6.592449951171876
11.047,6.6166748046875,-0.3841583251953125,7.137957763671875
11.057,6.777725219726563,-0.57362060546875,6.934738159179688
11.067000000000004,6.7593322753906255,-0.57362060546875,7.457366943359376
11.077000000000002,6.816305541992188,-0.3324188232421875,6.825875854492188
11.087,6.845315551757813,0.1368255615234375,6.543551635742188
11.097000000000005,7.019076538085938,0.412420654296875,6.584524536132813
11.107000000000005,7.152911376953125,0.5453582763671876,6.725537109375001
11.117,6.984085083007813,0.5100677490234375,7.025656127929688
11.127,6.625198364257813,0.240753173828125,6.681423950195313
11.137000000000004,6.658694458007813,0.0270660400390625,7.2267822265625
11.147000000000002,6.704452514648438,-0.2818756103515625,7.127938842773438
11.157,6.893765258789063,-0.3168670654296875,7.230670166015625
11.166999999999998,6.671853637695313,-0.219818115234375,6.74228515625
11.177000000000003,6.893167114257813,-0.0162994384765625,6.706546020507813
11.187,7.088760375976563,0.20635986328125,6.7626220703125
11.197,7.131677246093751,0.2827728271484375,6.725836181640625
11.207000000000004,6.998440551757813,0.319110107421875,6.685910034179688
11.217000000000002,6.660787963867188,0.129498291015625,6.5843750000000005
11.227,6.539663696289063,-0.1242645263671875,6.945654296875
11.236999999999998,7.142742919921876,-0.4215423583984375,7.063339233398438
11.246,6.658544921875,-0.6627441406250001,7.032235717773438
11.257,6.992010498046875,-0.475823974609375,6.828567504882813
11.266000000000002,7.2886901855468755,0.1783966064453125,7.108200073242188
11.277000000000005,6.489718627929688,0.8197570800781251,6.92471923828125
11.287000000000004,6.4396240234375,1.0501922607421876,6.768304443359376
11.296000000000005,6.766958618164063,0.9558349609375,7.377066040039063
11.306,7.125994873046875,0.548797607421875,6.969281005859376
11.316,6.781314086914063,0.1422088623046875,7.094741821289063
11.326000000000004,6.6456848144531255,-0.28172607421875,6.5440002441406255
11.336000000000002,7.044049072265626,-0.61907958984375,7.006515502929688
11.346,7.147079467773438,-0.8148223876953126,6.810623168945313
11.355999999999998,7.085919189453126,-0.6759033203125,6.667068481445313
11.366000000000003,6.6875549316406255,-0.20037841796875,6.718658447265626
11.376,6.5604492187500005,0.4031494140625,7.047937011718751
11.386,6.779968261718751,0.8668609619140626,7.609146118164063
11.396000000000004,6.6815734863281255,1.044659423828125,7.115826416015626
11.406000000000002,6.89122314453125,0.94925537109375,6.681723022460938
11.416,6.8678955078125,0.58438720703125,6.564038085937501
11.425999999999998,7.02281494140625,0.03768310546875,6.9462524414062505
11.436000000000003,6.717611694335938,-0.51739501953125,7.250558471679688
11.446000000000002,6.7174621582031255,-0.8972167968750001,6.9208312988281255
11.456,6.818698120117188,-0.96480712890625,6.85294189453125
11.466000000000005,6.980047607421875,-0.7469329833984375,6.580337524414063
11.476000000000004,7.250408935546876,-0.173162841796875,6.765014648437501
11.486,6.9312988281250005,0.3864013671875,6.650021362304688
11.496,6.789837646484376,0.8828613281250001,6.782958984375001
11.506000000000004,6.669760131835938,1.0488464355468752,7.191940307617188
11.516000000000002,6.647030639648438,0.8973663330078125,7.246670532226563
11.526,6.603366088867188,0.5606109619140626,7.3727294921875
11.536000000000003,6.613385009765626,-0.0052337646484375,6.88524169921875
11.546000000000005,6.811520385742188,-0.424981689453125,6.992758178710938
11.556,7.078591918945313,-0.7672698974609375,6.658993530273438
11.566,7.187753295898438,-0.7363159179687501,6.681274414062501
11.576000000000004,7.081582641601563,-0.578704833984375,6.275433349609376
11.586000000000002,6.975860595703126,-0.23746337890625,6.567776489257813
11.596,6.574505615234376,0.1257598876953125,6.839035034179688
11.605999999999998,6.961505126953125,0.38759765625,7.117471313476563
11.616000000000003,6.677087402343751,0.51739501953125,7.310671997070313
11.626,7.128237915039063,0.499749755859375,6.8140625
11.636,6.7189575195312505,0.6914550781250001,7.245474243164063
11.646000000000004,6.228329467773438,0.644500732421875,6.995001220703125
11.656000000000002,6.740789794921875,0.386700439453125,7.368243408203125
11.666,6.994702148437501,-0.2456878662109375,6.880007934570313
11.675999999999998,7.54140625,-0.7268951416015625,6.322088623046875
11.686000000000003,6.952981567382813,-0.6126495361328126,6.724041748046876
11.696000000000002,6.515737915039063,-0.169573974609375,6.6097961425781255
11.706,6.764266967773438,0.190509033203125,7.853488159179688
11.716000000000005,7.145285034179688,0.1682281494140625,6.869091796875001
11.726000000000004,6.766659545898438,0.3385498046875,6.393716430664063
11.736,6.869839477539063,0.5957519531250001,6.682919311523438
11.746,6.507064819335938,0.7303344726562501,7.240240478515625
11.756000000000004,6.976159667968751,0.3820648193359375,7.628735351562501
11.766000000000002,6.818847656250001,-0.1069183349609375,6.714172363281251
11.776,6.889129638671876,-0.3648681640625,6.402539062500001
11.785,6.719256591796875,-0.335858154296875,6.726284790039063
11.794999999999998,7.026702880859376,-0.2591461181640625,7.475909423828125
11.805000000000003,6.7712951660156255,-0.1888641357421875,7.201361083984375
11.815,6.723144531250001,0.014654541015625,6.4647460937500005
11.825,6.804043579101563,0.2954833984375,6.513943481445313
11.835000000000004,7.000085449218751,0.4486083984375,7.091900634765626
11.845000000000002,7.037319946289063,0.4427764892578125,7.182369995117188
11.855,6.833651733398438,0.18123779296875,6.752752685546875
11.864999999999998,6.666320800781251,-0.013458251953125,6.503326416015626
11.875000000000004,6.800006103515625,-0.1203765869140625,7.100723266601563
11.885000000000002,6.8191467285156255,-0.169873046875,7.393515014648438
11.895,6.793875122070313,-0.1303955078125,7.164724731445313
11.905000000000005,6.6549560546875,-0.0638519287109375,6.478054809570313
11.915000000000004,7.047937011718751,0.082244873046875,6.598281860351563
11.925,7.198818969726563,0.201873779296875,6.965542602539063
11.935,7.007711791992188,0.303857421875,6.8834472656250005
11.945000000000004,6.548934936523438,0.2026214599609375,6.610842895507813
11.955000000000002,6.487924194335938,-0.1335357666015625,6.577496337890626
11.965,7.224090576171876,-0.385504150390625,7.007263183593751
11.974999999999998,6.803445434570313,-0.575115966796875,7.253997802734376
11.985000000000005,6.964047241210938,-0.3602325439453125,6.954476928710938
11.995,7.120013427734375,0.2009765625,6.995748901367188
12.005,6.502877807617188,0.6993804931640626,6.836193847656251
12.015000000000004,6.544149780273438,1.0319488525390623,6.81705322265625
12.025000000000002,6.801351928710938,0.8752349853515625,7.413253784179688
12.035,7.233062744140626,0.4009063720703125,6.843521118164063
12.044999999999998,6.786846923828126,-0.0279632568359375,6.906475830078126
12.055000000000003,6.495999145507813,-0.253912353515625,6.656900024414063
12.065,7.009954833984375,-0.41092529296875,7.321139526367188
12.075,7.127639770507813,-0.71298828125,6.788192749023438
12.085000000000004,7.150369262695313,-0.6581085205078125,6.515139770507813
12.095000000000002,6.708639526367188,-0.13936767578125,6.572262573242188
12.105,6.439923095703126,0.5767608642578126,7.150967407226563
12.114999999999998,6.949093627929688,0.8184112548828125,7.665222167968751
12.125000000000004,6.790585327148438,0.7976257324218751,7.14842529296875
12.135000000000002,6.8146606445312505,0.7509704589843751,6.469680786132813
12.145,6.638656616210938,0.5673400878906251,6.683966064453125
12.155000000000005,7.071563720703126,0.0964508056640625,7.189846801757813
12.165000000000004,6.820193481445313,-0.55029296875,7.210183715820313
12.175,6.7961181640625,-0.8892913818359376,6.596487426757813
12.185,6.853091430664063,-0.8139251708984375,6.560150146484376
12.195000000000004,6.893765258789063,-0.5580688476562501,6.830511474609375
12.205000000000002,7.255792236328125,-0.110357666015625,7.030291748046875
12.215,6.86131591796875,0.322698974609375,6.755145263671875
12.224,6.666769409179688,0.8095886230468751,6.572262573242188
12.233999999999998,6.590505981445313,1.0159484863281252,7.289138793945313
12.244000000000003,6.733013916015626,0.8785247802734376,7.476358032226563
12.255,6.824829101562501,0.4888336181640625,7.349102783203126
12.265000000000004,6.523812866210938,-0.0575714111328125,6.517831420898438
12.274000000000004,6.893615722656251,-0.420794677734375,6.74766845703125
12.284000000000002,7.16995849609375,-0.7230072021484375,6.977505493164063
12.294999999999998,7.192388916015625,-0.74169921875,6.732415771484376
12.303999999999998,6.951785278320313,-0.58438720703125,6.3032470703125005
12.314000000000004,6.636862182617188,-0.3016143798828125,6.406277465820313
12.324000000000002,6.7602294921875,0.1398162841796875,7.119714355468751
12.334,7.088461303710938,0.4424774169921875,7.493704223632813
12.344000000000005,6.676937866210938,0.6033782958984375,6.922775268554688
12.354000000000005,7.1122375488281255,0.7034179687500001,6.768154907226563
12.364,6.535028076171876,0.748876953125,6.902288818359375
12.374,6.3654541015625,0.662445068359375,7.229473876953126
12.384000000000004,6.813314819335938,0.131591796875,7.719204711914063
12.394000000000002,7.085021972656251,-0.4834503173828125,6.5066162109375005
12.404,7.317251586914063,-0.8958709716796875,6.177935791015625
12.413999999999998,6.845315551757813,-0.6543701171875,6.771893310546876
12.424000000000005,6.874026489257813,-0.009869384765625,7.0987792968750005
12.434,6.515887451171875,0.31282958984375,7.526004028320313
12.444,7.30992431640625,0.3046051025390625,6.539364624023438
12.454000000000004,6.717013549804688,0.42109375,6.417791748046875
12.464000000000002,6.859970092773438,0.7345214843750001,7.044497680664063
12.474,6.528598022460938,0.7418487548828125,7.488320922851563
12.483999999999998,6.752752685546875,0.246136474609375,7.521817016601563
12.494000000000003,6.957916259765626,-0.2809783935546875,6.269900512695313
12.504,6.839932250976563,-0.5555267333984375,6.641647338867188
12.514,7.007861328125,-0.390289306640625,6.739593505859376
12.524000000000004,6.893316650390625,-0.322698974609375,7.427011108398438
12.534000000000002,6.877166748046876,-0.1786956787109375,6.830960083007813
12.544,6.710733032226563,0.1571624755859375,6.554617309570313
12.553999999999998,6.690545654296876,0.4750762939453125,6.836492919921875
12.564000000000004,6.901092529296876,0.66812744140625,7.287344360351563
12.574000000000002,6.920681762695313,0.497955322265625,7.214669799804688
12.584,6.877316284179688,0.2184722900390625,6.485681152343751
12.594000000000005,6.709536743164063,-0.0384307861328125,6.575253295898438
12.604000000000005,6.924270629882813,-0.231182861328125,7.072012329101563
12.614,6.940121459960938,-0.3108856201171875,7.435684204101563
12.624,6.565682983398438,-0.3524566650390625,6.903036499023438
12.634000000000004,6.76561279296875,-0.1422088623046875,6.610543823242188
12.644000000000002,7.025357055664063,0.0671417236328125,6.689498901367188
12.654,7.271343994140626,0.3090911865234375,6.990963745117188
12.663999999999998,6.869540405273438,0.408233642578125,6.741088867187501
12.674000000000005,6.604263305664063,0.2797821044921875,6.420483398437501
12.684,6.584973144531251,-0.0219818115234375,6.674993896484375
12.694,7.301251220703126,-0.478216552734375,7.085919189453126
12.704000000000004,6.571066284179688,-0.6672302246093751,7.301101684570313
12.714000000000002,6.981094360351563,-0.394775390625,7.052572631835938
12.724,6.984683227539063,0.30924072265625,7.141098022460938
12.733999999999998,6.437829589843751,0.7899993896484375,6.758584594726563
12.744000000000003,6.758435058593751,0.99351806640625,6.814810180664063
12.753000000000004,6.855633544921876,0.91815185546875,7.2291748046875
12.763000000000002,7.242633056640625,0.4559356689453125,6.707592773437501
12.774000000000004,6.756491088867188,0.0189910888671875,7.1780334472656255
12.783000000000005,6.541458129882813,-0.4104766845703125,6.5245605468750005
12.793000000000005,6.889877319335938,-0.569134521484375,7.479049682617188
12.803,7.0975830078125,-0.8095886230468751,6.621011352539063
12.813,7.157546997070313,-0.699530029296875,6.62564697265625
12.823000000000004,6.845764160156251,-0.150732421875,6.579589843750001
12.833000000000002,6.413903808593751,0.66513671875,6.981094360351563
12.843,6.881652832031251,1.0789031982421875,7.759280395507813
12.852999999999998,6.743481445312501,0.971685791015625,6.985729980468751
12.863000000000005,6.87088623046875,0.8088409423828126,6.7428833007812505
12.873,6.6406005859375,0.4916748046875,6.578094482421876
12.883,6.747219848632813,0.00538330078125,7.276428222656251
12.893000000000004,7.015188598632813,-0.726446533203125,7.202706909179688
12.903000000000002,6.967636108398438,-1.131988525390625,6.664376831054688
12.913,6.776379394531251,-0.9770690917968752,6.330761718750001
12.922999999999998,6.788342285156251,-0.5070770263671875,6.882699584960938
12.933000000000003,7.131378173828126,0.13817138671875,7.303344726562501
12.943,6.907971191406251,0.60950927734375,6.8918212890625
12.953,6.733761596679688,0.9951629638671876,6.323733520507813
12.963000000000005,6.826922607421875,1.0454071044921875,6.807781982421876
12.973000000000004,6.830810546875001,0.8091400146484375,7.450338745117188
12.983,6.55626220703125,0.3677093505859375,7.642193603515626
12.993,6.456372070312501,-0.2708099365234375,6.882400512695313
13.003000000000004,6.742584228515626,-0.6890625,6.656900024414063
13.013000000000002,7.311868286132813,-0.9106750488281252,6.703704833984376
13.023,7.311270141601563,-0.7526153564453125,6.632376098632813
13.033000000000005,7.028198242187501,-0.4098785400390625,6.309078979492188
13.043000000000005,6.652713012695313,0.0007476806640625,6.337939453125
13.053,6.578692626953125,0.33316650390625,6.982888793945313
13.063,7.207192993164063,0.4771697998046875,7.555462646484376
13.073000000000004,6.658245849609376,0.6021820068359376,7.209735107421875
13.083000000000002,6.984085083007813,0.6542205810546875,6.865054321289063
13.093,6.584075927734376,0.6694732666015626,7.097433471679688
13.102999999999998,6.341229248046876,0.5247222900390626,6.8655029296875005
13.113000000000005,6.920532226562501,0.03648681640625,7.595239257812499
13.123,7.412954711914063,-0.58558349609375,6.381903076171875
13.133,7.209735107421875,-0.8608795166015626,6.27513427734375
13.143000000000004,6.546392822265625,-0.4984039306640625,6.9061767578125
13.153000000000002,6.717312622070313,0.1777984619140625,7.315158081054688
13.163,6.654058837890625,0.385205078125,7.653109741210938
13.172999999999998,7.4445068359375,0.2779876708984375,6.363211059570313
13.183000000000003,6.6920410156250005,0.44920654296875,6.2494140625000005
13.193,6.805389404296876,0.7319793701171875,6.838137817382813
13.203,6.724191284179688,0.541021728515625,7.615875244140626
13.213000000000005,6.788790893554688,-0.05263671875,7.500283813476563
13.223000000000004,6.853988647460938,-0.476123046875,6.2482177734375
13.232000000000005,6.433941650390626,-0.462664794921875,6.770996093750001
13.242,7.073208618164063,-0.2343231201171875,7.045993041992188
13.252,7.097882080078126,-0.145947265625,7.521966552734375
13.263000000000002,6.779818725585938,0.0777587890625,6.469381713867188
13.273,6.549682617187501,0.4233367919921875,6.356930541992188
13.282,6.737649536132813,0.6702209472656251,7.253848266601563
13.291999999999998,7.044647216796876,0.64539794921875,7.455722045898438
13.302000000000003,6.855633544921876,0.241351318359375,7.054965209960938
13.312,6.97257080078125,-0.18363037109375,5.87198486328125
13.322,6.87327880859375,-0.44083251953125,6.573010253906251
13.332000000000004,7.070068359375001,-0.5181427001953125,7.332205200195313
13.342000000000002,6.831857299804688,-0.339447021484375,7.454226684570313
13.352,6.4677368164062505,-0.179742431640625,6.746322631835938
13.363000000000005,6.722546386718751,0.0922637939453125,6.539813232421875
13.372000000000003,7.026254272460938,0.4305145263671875,7.021319580078125
13.382,7.180575561523438,0.7098480224609376,7.137957763671875
13.392,6.752304077148438,0.6059204101562501,6.681723022460938
13.402000000000005,6.604562377929688,0.2213134765625,6.364407348632813
13.412000000000004,6.622357177734376,-0.23387451171875,6.784603881835938
13.422,7.275082397460938,-0.6032287597656251,7.395159912109375
13.432,6.625946044921876,-0.7891021728515626,7.133770751953126
13.442000000000004,7.223193359375,-0.6939971923828125,6.564486694335938
13.452000000000002,7.160537719726563,0.0252716064453125,6.912606811523438
13.463000000000005,6.2482177734375,0.765325927734375,6.711331176757813
13.472000000000005,6.713574218750001,1.1535217285156252,7.376019287109376
13.482000000000005,6.832305908203126,0.9855926513671877,7.305288696289063
13.492,6.993356323242188,0.529058837890625,6.673199462890626
13.502,6.687106323242188,0.307745361328125,7.085470581054688
13.512000000000004,6.744827270507813,0.0031402587890625,6.663330078125001
13.522000000000002,7.052124023437501,-0.4852447509765625,7.379907226562499
13.532,7.293026733398438,-0.9615173339843752,6.421380615234376
13.541999999999998,6.795968627929688,-0.7693634033203126,6.45457763671875
13.552000000000003,6.776080322265625,-0.206060791015625,6.929953002929688
13.564000000000004,6.599478149414063,0.33675537109375,7.321139526367188
13.572,6.863858032226563,0.6506317138671875,7.548434448242188
13.582000000000004,6.668713378906251,0.8691040039062501,6.569869995117188
13.592000000000002,6.7907348632812505,0.9894805908203126,6.726135253906251
13.602,7.063040161132813,0.6552673339843751,6.731219482421875
13.611999999999998,7.069320678710938,0.047552490234375,7.206744384765625
13.622000000000003,6.662283325195313,-0.442926025390625,6.925765991210938
13.632,6.411212158203125,-0.6557159423828125,6.894363403320313
13.642,6.7548461914062505,-0.71478271484375,7.130032348632813
13.652000000000005,7.209286499023438,-0.7089508056640625,6.898699951171875
13.663,7.37572021484375,-0.343634033203125,6.435736083984375
13.672,6.843222045898438,0.1957427978515625,6.075802612304688
13.681,6.682769775390626,0.744390869140625,6.950289916992188
13.692000000000004,6.797763061523438,0.928021240234375,7.6445861816406255
13.702000000000002,6.723144531250001,0.7452880859375001,7.328765869140626
13.712,6.533831787109375,0.471337890625,6.811221313476563
13.721,6.654656982421876,0.0725250244140625,6.650918579101563
13.730999999999998,6.987374877929688,-0.180938720703125,7.282858276367188
13.741000000000003,7.049581909179688,-0.462066650390625,7.108050537109375
13.751,6.915597534179688,-0.5655456542968751,6.471923828125001
13.763000000000002,6.883895874023438,-0.5169464111328126,6.234011840820313
13.771000000000004,6.820791625976563,-0.3419891357421875,6.629235839843751
13.781000000000002,7.279418945312501,-0.004486083984375,6.984234619140626
13.791,6.809277343750001,0.0115142822265625,6.828866577148438
13.800999999999998,7.127789306640626,0.1003387451171875,6.581533813476563
13.811000000000003,6.674246215820313,0.4619171142578125,7.272540283203125
13.821000000000002,6.220703125000001,0.886151123046875,7.793075561523438
13.831,6.349453735351563,1.017742919921875,7.519125366210938
13.842000000000002,6.73331298828125,0.44083251953125,6.954327392578126
13.851000000000004,7.673446655273438,-0.165087890625,6.028997802734375
13.861,7.23037109375,-0.392681884765625,6.494503784179688
13.871,6.779968261718751,-0.2763427734375,6.671853637695313
13.881000000000004,6.656301879882813,-0.304754638671875,7.545593261718751
13.891000000000002,6.752453613281251,-0.4484588623046875,7.057507324218751
13.901,6.842773437500001,-0.211444091796875,6.900643920898438
13.911000000000003,6.7745849609375,0.28770751953125,6.816006469726563
13.921000000000005,6.716564941406251,0.7647277832031251,6.945504760742188
13.931,7.039413452148438,0.6628936767578125,7.134518432617188
13.941,6.990066528320313,0.483001708984375,6.641198730468751
13.951000000000004,6.9001953125,0.27694091796875,6.619216918945313
13.961000000000002,6.61966552734375,0.0130096435546875,6.919635009765625
13.971,6.925765991210938,-0.280828857421875,7.356729125976563
13.980999999999998,6.523513793945313,-0.460272216796875,7.334747314453126
13.991000000000003,6.612487792968751,-0.2253509521484375,6.905877685546876
14.001,6.737649536132813,0.003887939453125,6.785949707031251
14.011,7.23515625,0.1481903076171875,6.628189086914063
14.021000000000004,7.437030029296875,0.1377227783203125,6.424520874023438
14.031000000000002,7.042852783203125,0.0895721435546875,6.349154663085938
14.041,6.813314819335938,0.106170654296875,6.6322265625000005
14.050999999999998,6.574505615234376,0.0219818115234375,7.481442260742188
14.061000000000003,6.538616943359376,-0.0465057373046875,7.52286376953125
14.071000000000002,6.577047729492188,-0.012261962890625,7.391122436523438
14.081,6.5688232421875,0.1858734130859375,6.76920166015625
14.091000000000005,6.9208312988281255,0.385205078125,6.813015747070313
14.101000000000004,7.21123046875,0.4233367919921875,6.857577514648438
14.111,7.145135498046876,0.3055023193359375,6.455325317382813
14.121,6.919934082031251,0.0016448974609375,6.360818481445313
14.131000000000004,6.596936035156251,-0.437542724609375,6.475662231445313
14.141000000000002,7.209884643554688,-0.7689147949218751,7.099377441406251
14.151,6.607254028320313,-0.9090301513671876,7.417141723632813
14.161000000000003,6.879110717773438,-0.609808349609375,7.003375244140625
14.171000000000005,7.190594482421876,0.2908477783203125,7.107751464843751
14.181,6.271694946289063,1.01864013671875,6.651516723632813
14.191,6.69443359375,1.3923309326171875,6.866400146484375
14.201000000000004,6.889279174804688,1.22559814453125,7.457666015625
14.210000000000004,6.99290771484375,0.7101470947265626,6.851895141601563
14.221,6.728527832031251,0.1894622802734375,7.13406982421875
14.230999999999998,6.595590209960938,-0.3754852294921875,6.545944213867188
14.241000000000003,7.150817871093751,-0.834112548828125,7.20943603515625
14.250000000000004,7.116873168945313,-1.1458953857421876,6.6142822265625005
14.260000000000002,7.028347778320313,-0.9123199462890624,6.533981323242188
14.27,6.732565307617188,-0.327484130859375,6.667816162109376
14.280000000000005,6.616375732421876,0.4439727783203125,7.111938476562501
14.290000000000004,6.941317749023438,0.9846954345703126,7.669259643554688
14.3,6.5754028320312505,1.24832763671875,6.943859863281251
14.31,6.775930786132813,1.299169921875,6.738546752929688
14.320000000000004,6.742584228515626,0.8522064208984376,6.7832580566406255
14.330000000000002,7.014291381835938,0.170770263671875,7.171752929687501
14.34,6.641198730468751,-0.6125,7.1182189941406255
14.349999999999998,6.812567138671875,-1.1423065185546877,6.716415405273438
14.360000000000005,6.909017944335938,-1.1991302490234377,6.784005737304688
14.37,6.960757446289063,-0.9981536865234376,6.628338623046876
14.38,7.2722412109375005,-0.3599334716796875,6.761724853515625
14.390000000000004,6.923074340820313,0.2775390625,6.584674072265625
14.400000000000002,6.867745971679688,0.9697418212890626,6.6525634765625
14.41,6.654357910156251,1.2771881103515623,7.2052490234375
14.419999999999998,6.724490356445313,1.1025299072265626,7.198071289062501
14.430000000000003,6.647927856445313,0.7285400390625001,7.543051147460938
14.44,6.434091186523438,0.0994415283203125,6.95701904296875
14.45,6.582580566406251,-0.3234466552734375,7.182818603515625
14.460000000000004,7.048385620117188,-0.79493408203125,6.858773803710938
14.470000000000002,7.263119506835938,-0.92174072265625,6.519326782226563
14.48,7.167565917968751,-0.8121307373046875,6.116476440429688
14.489999999999998,7.1071533203125,-0.3934295654296875,6.202310180664063
14.500000000000004,6.654806518554688,0.1128997802734375,7.010403442382813
14.510000000000002,6.741088867187501,0.3306243896484375,7.032833862304688
14.52,6.889877319335938,0.5579193115234375,7.5760986328125
14.530000000000005,6.97496337890625,0.6830810546875,6.708041381835938
14.540000000000004,6.709088134765626,0.9343017578125,7.267755126953125
14.55,6.280068969726563,0.8454772949218751,7.117172241210938
14.56,6.527850341796875,0.4547393798828125,7.071713256835938
14.570000000000004,7.039413452148438,-0.2370147705078125,7.287045288085938
14.580000000000002,7.6341186523437505,-0.9583770751953126,6.0210723876953125
14.59,7.038815307617188,-0.9503021240234376,6.576150512695313
14.599999999999998,6.494503784179688,-0.5178436279296875,6.702059936523438
14.610000000000005,6.772940063476563,0.1380218505859375,7.838684082031251
14.62,6.842922973632813,0.313726806640625,7.009805297851563
14.63,7.190145874023438,0.3648681640625,6.341677856445313
14.640000000000004,6.952084350585938,0.66334228515625,6.348257446289063
14.650000000000002,6.444110107421875,0.9248809814453126,7.179827880859375
14.66,6.811819458007813,0.6942962646484375,7.866647338867188
14.669999999999998,6.59873046875,0.0306549072265625,7.320840454101563
14.680000000000003,7.018777465820313,-0.453692626953125,6.165972900390625
14.689000000000004,6.689199829101563,-0.5625549316406251,6.564038085937501
14.7,7.177435302734375,-0.475225830078125,6.9866271972656255
14.709,6.9755615234375,-0.349615478515625,7.366000366210938
14.719000000000005,6.807333374023438,-0.130694580078125,6.614132690429688
14.729000000000005,6.5843750000000005,0.2642303466796875,6.350350952148438
14.739,6.900344848632813,0.5520874023437501,7.18192138671875
14.749,7.024908447265625,0.6881652832031251,7.30513916015625
14.759000000000004,6.835745239257813,0.49466552734375,7.061395263671876
14.769000000000002,6.603366088867188,0.2133880615234375,6.259283447265625
14.779,6.7952209472656255,-0.020037841796875,6.9686828613281255
14.788999999999998,6.9028869628906255,-0.22789306640625,7.411907958984376
14.799000000000005,6.865802001953125,-0.2848663330078125,7.324130249023438
14.809,6.591552734375001,-0.3170166015625,6.432296752929688
14.819,6.928308105468751,-0.19798583984375,6.491961669921875
14.829000000000004,7.168612670898438,0.063104248046875,6.933990478515626
14.839000000000002,7.084274291992188,0.284417724609375,6.968832397460938
14.849,6.859970092773438,0.3509613037109375,6.667666625976563
14.858999999999998,6.648077392578125,0.1981353759765625,6.447698974609375
14.869000000000003,6.560598754882813,0.1057220458984375,7.118966674804688
14.879,6.667666625976563,-0.0767120361328125,7.371383666992188
14.889,6.917840576171876,-0.2400054931640625,7.243978881835938
14.899000000000004,6.813314819335938,-0.426177978515625,6.435885620117188
14.909000000000002,7.720550537109376,-0.1256103515625,6.724191284179688
14.919,6.887933349609376,0.418701171875,6.863558959960938
14.928999999999998,6.186608886718751,0.7479797363281251,6.748117065429688
14.939000000000004,6.533532714843751,0.6851745605468751,7.639651489257813
14.949000000000002,6.996197509765626,0.22908935546875,7.11612548828125
14.959,7.031188964843751,0.030804443359375,7.011898803710938
14.969000000000005,6.491363525390626,-0.055328369140625,6.641049194335938
14.979000000000005,7.012347412109375,-0.0287109375,6.7354064941406255
14.989,7.067526245117188,-0.3422882080078125,6.954177856445313
14.999,7.4780029296875,-0.532049560546875,6.624899291992188
15.009000000000004,6.587814331054688,-0.236566162109375,6.51199951171875
15.019000000000002,6.369790649414063,0.2332763671875,7.142742919921876
15.029,6.692788696289063,0.5313018798828125,7.6694091796875
15.038999999999998,6.714620971679688,0.52158203125,7.527200317382813
15.049000000000005,6.974066162109375,0.6119018554687501,6.384893798828125
15.059,6.77757568359375,0.529058837890625,6.498391723632813
15.069,7.200912475585938,0.23865966796875,6.593496704101563
15.079000000000004,7.0823303222656255,-0.227593994140625,7.285101318359375
15.089000000000002,6.6202636718750005,-0.5851348876953125,6.871035766601563
15.099,6.548785400390625,-0.614593505859375,6.8056884765625005
15.108999999999998,6.706546020507813,-0.5157501220703126,7.112835693359376
15.119000000000003,7.063787841796875,-0.22071533203125,7.06827392578125
15.129,7.010104370117188,0.21353759765625,6.899597167968751
15.139,6.726284790039063,0.6286499023437501,6.308181762695313
15.149000000000004,6.793576049804688,0.9039459228515626,6.939224243164063
15.159000000000002,6.915447998046876,0.7418487548828125,7.200015258789063
15.169,6.963748168945313,0.410028076171875,7.1541076660156255
15.178999999999998,6.5353271484375,-0.04725341796875,6.73331298828125
15.189000000000004,6.677835083007813,-0.42169189453125,6.800753784179688
15.198000000000004,6.936083984375,-0.5748168945312501,7.220053100585938
15.209,7.058105468750001,-0.593060302734375,7.061544799804688
15.218,6.936532592773438,-0.3470733642578125,6.495251464843751
15.229000000000005,6.9462524414062505,-0.0779083251953125,6.237301635742188
15.238000000000005,7.012796020507813,0.2926422119140625,6.708938598632813
15.248,6.64658203125,0.55328369140625,7.285101318359375
15.258,6.434539794921876,0.5148529052734375,7.025357055664063
15.268000000000004,6.829913330078125,0.2905487060546875,7.326971435546875
15.278000000000002,6.941168212890625,0.0844879150390625,6.6696105957031255
15.288,7.261175537109375,0.20516357421875,7.289288330078126
15.297999999999998,6.625497436523438,0.1478912353515625,6.588861083984376
15.308000000000003,6.420034790039063,0.1155914306640625,6.632974243164063
15.318,6.928009033203126,-0.2121917724609375,7.350897216796875
15.328,7.445703125,-0.4358978271484375,6.709835815429688
15.338000000000005,6.989169311523438,-0.34453125,6.734060668945313
15.348000000000004,6.382202148437501,-0.105572509765625,6.560000610351563
15.358,6.923074340820313,0.4729827880859375,7.541256713867188
15.368,6.710583496093751,0.523077392578125,7.188201904296876
15.378000000000004,7.352691650390626,0.3449798583984375,6.561795043945313
15.388000000000002,6.774285888671876,0.2576507568359375,6.2936767578125
15.398,6.577645874023438,0.2908477783203125,6.79910888671875
15.408000000000005,6.792977905273438,0.2244537353515625,7.822982788085938
15.418000000000005,6.710733032226563,-0.138470458984375,7.513442993164063
15.428,6.916494750976563,-0.3156707763671875,6.265414428710938
15.438,6.788043212890625,-0.352008056640625,6.433792114257813
15.448000000000004,7.282260131835938,-0.0835906982421875,6.630581665039063
15.458000000000002,6.852792358398438,0.0554779052734375,7.433740234375
15.468,6.772341918945313,0.0369354248046875,6.798211669921876
15.477999999999998,6.772640991210938,0.2202667236328125,6.734359741210938
15.488000000000005,6.509457397460938,0.29608154296875,6.875073242187501
15.498,6.941317749023438,0.4209442138671875,7.364505004882813
15.508,6.884793090820313,0.25301513671875,7.29317626953125
15.518000000000004,6.8311096191406255,0.0629547119140625,6.402539062500001
15.528000000000002,6.754696655273438,0.0013458251953125,6.663180541992188
15.538,6.897354125976563,-0.0913665771484375,6.963150024414063
15.547999999999998,7.080386352539063,-0.06998291015625,7.38529052734375
15.558000000000003,6.709686279296876,-0.182135009765625,6.664825439453126
15.568,6.811221313476563,-0.111553955078125,6.443661499023438
15.578,7.017880249023438,-0.0025421142578125,6.792379760742188
15.588000000000005,7.029843139648438,0.1870697021484375,7.199566650390626
15.598000000000004,6.709835815429688,0.2717071533203125,7.023263549804688
15.608,6.70579833984375,0.17166748046875,6.538467407226563
15.618,6.648825073242188,-0.0094207763671875,6.593496704101563
15.628000000000004,7.174444580078125,-0.28770751953125,6.862661743164063
15.638000000000002,6.993505859375,-0.3419891357421875,7.273587036132813
15.648,6.779669189453125,-0.350213623046875,6.749761962890625
15.658000000000005,7.222445678710938,0.0925628662109375,6.998739624023438
15.668000000000005,6.66990966796875,0.463262939453125,6.888232421875
15.678,6.355136108398438,0.7855133056640625,6.871633911132813
15.687,6.617572021484375,0.7902984619140626,7.582379150390626
15.697,6.958663940429688,0.51141357421875,7.1406494140625005
15.707000000000004,6.8909240722656255,0.2500244140625,6.935186767578125
15.718,6.831259155273438,-0.0683380126953125,6.423623657226563
15.727,7.234707641601563,-0.282623291015625,6.802847290039063
15.736999999999998,6.9342895507812505,-0.5327972412109375,6.772790527343751
15.747000000000003,7.054815673828125,-0.5423675537109376,6.806585693359375
15.757,6.59873046875,-0.3386993408203125,6.833352661132813
15.767,6.493905639648438,0.1341339111328125,7.290783691406251
15.777000000000005,6.761874389648438,0.6240142822265625,7.502377319335938
15.787000000000004,6.674993896484375,0.84158935546875,7.067077636718751
15.797,7.122406005859376,0.8513092041015625,6.475961303710938
15.807,6.87926025390625,0.6328369140625001,6.5963378906250005
15.817000000000004,7.045993041992188,0.2684173583984375,6.821090698242188
15.827000000000002,6.582730102539063,-0.269464111328125,7.297213745117188
15.837,6.706396484375,-0.7672698974609375,7.009655761718751
15.847000000000005,6.875073242187501,-0.9084320068359376,6.995599365234376
15.857000000000005,6.821240234375001,-0.7475311279296876,6.675442504882813
15.867,7.0449462890625005,-0.2041168212890625,6.744528198242188
15.877,6.982440185546875,0.284417724609375,6.846661376953126
15.887000000000004,6.976907348632813,0.6975860595703125,6.594393920898438
15.897000000000002,6.851296997070313,0.9494049072265626,6.961654663085938
15.907,6.683816528320313,0.7970275878906251,6.775482177734376
15.916999999999998,6.783706665039063,0.5354888916015625,7.492807006835938
15.927000000000003,6.511849975585938,-0.01256103515625,7.139004516601563
15.937,6.687704467773438,-0.313427734375,7.174594116210938
15.947,6.824230957031251,-0.61429443359375,6.727630615234376
15.957000000000004,7.349700927734376,-0.6700714111328125,6.622506713867188
15.967000000000002,7.152163696289063,-0.4541412353515625,6.501980590820313
15.977,6.967037963867188,-0.1495361328125,6.35050048828125
15.986999999999998,6.875073242187501,0.273651123046875,6.840530395507813
15.997000000000003,6.602020263671876,0.2450897216796875,6.827819824218751
16.007,6.849801635742188,0.27694091796875,7.109844970703126
16.017,6.653759765625001,0.12501220703125,7.227679443359375
16.027000000000005,6.81944580078125,0.1745086669921875,7.011749267578126
16.037000000000003,7.296466064453125,0.3593353271484375,7.319793701171876
16.047,6.658096313476563,0.3303253173828125,6.753948974609376
16.057,6.441567993164063,0.437542724609375,6.443063354492188
16.067000000000004,6.801950073242188,0.1329376220703125,7.271343994140626
16.077,7.524359130859375,-0.150433349609375,7.0389648437500005
16.087,6.864755249023438,-0.2905487060546875,6.908718872070313
16.097000000000005,6.312817382812501,-0.0753662109375,6.46953125
16.107000000000003,6.850399780273438,0.2528656005859375,7.339532470703125
16.117,6.9301025390625,0.1218719482421875,7.191790771484375
16.127,7.3966552734375,0.03529052734375,6.698919677734375
16.137000000000004,6.678283691406251,0.090020751953125,6.356033325195313
16.147000000000002,6.441119384765625,0.41212158203125,6.7721923828125
16.157,6.948345947265626,0.339447021484375,7.735504150390626
16.166,6.867147827148438,0.0411224365234375,7.332205200195313
16.177000000000003,6.928009033203126,-0.0438140869140625,6.294723510742188
16.186000000000003,6.39835205078125,-0.03349609375,6.587963867187501
16.196,7.041656494140626,0.08194580078125,7.1047607421875005
16.206,7.04434814453125,-0.008074951171875,7.635763549804688
16.216000000000005,6.715219116210938,0.000299072265625,6.644488525390625
16.226000000000003,6.540560913085938,0.095703125,6.309826660156251
16.236,6.790286254882813,0.127105712890625,7.097134399414063
16.246,7.290783691406251,0.2041168212890625,7.358822631835938
16.256000000000004,6.847259521484376,0.0566741943359375,6.964047241210938
16.266000000000002,6.824230957031251,-0.0647491455078125,5.897854614257813
16.276,6.979748535156251,-0.1520782470703125,6.720602416992188
16.286000000000005,7.000234985351563,-0.126806640625,7.302746582031251
16.296000000000003,6.679779052734376,0.06998291015625,7.523162841796876
16.306,6.419137573242188,0.074169921875,6.809426879882813
16.316,6.8056884765625005,0.1326385498046875,6.618319702148438
16.326000000000004,7.129882812500001,0.1691253662109375,6.983935546875
16.336000000000002,7.1585937500000005,0.348419189453125,7.002029418945313
16.346,6.685012817382813,0.26976318359375,6.664974975585938
16.355999999999998,6.738098144531251,-0.024224853515625,6.405380249023438
16.366000000000003,6.773089599609375,-0.397467041015625,6.708639526367188
16.376,7.446002197265625,-0.6675292968750001,6.820193481445313
16.386,6.752603149414063,-0.6634918212890626,7.071862792968751
16.396000000000004,6.605310058593751,-0.5443115234375,6.774136352539063
16.406000000000002,7.339981079101563,0.224603271484375,7.428207397460938
16.416,6.563290405273438,0.9712371826171876,7.26925048828125
16.426,6.088064575195313,1.3812652587890626,6.562094116210938
16.436000000000003,6.774136352539063,1.1711669921875,7.209735107421875
16.446,7.399197387695313,0.5178436279296875,6.997393798828125
16.456,7.066479492187501,0.153424072265625,7.101022338867188
16.466000000000005,6.3451171875000005,-0.3141754150390625,6.473718261718751
16.476000000000003,6.959860229492188,-0.69923095703125,6.826473999023438
16.486,7.027899169921875,-1.0406219482421877,7.158444213867188
16.496,7.291531372070313,-0.798223876953125,6.880307006835938
16.506000000000004,6.531588745117188,-0.1625457763671875,6.60172119140625
16.516000000000002,6.484634399414063,0.49227294921875,6.803594970703125
16.526,7.012048339843751,0.9697418212890626,7.418637084960938
16.536000000000005,6.7907348632812505,1.07965087890625,7.347906494140625
16.546000000000003,6.794323730468751,1.0847351074218752,6.623403930664063
16.556,6.628936767578126,0.6584075927734375,6.673947143554688
16.566,7.039413452148438,0.0127105712890625,6.931597900390625
16.576000000000004,6.766510009765626,-0.5710784912109376,7.372579956054688
16.586000000000002,6.710882568359375,-0.9039459228515626,6.997692871093751
16.596,6.646133422851563,-0.8623748779296876,6.676788330078126
16.605999999999998,6.988122558593751,-0.7624847412109376,6.626843261718751
16.616000000000003,7.499984741210938,-0.2930908203125,6.657348632812501
16.626,7.057656860351563,0.270361328125,6.668713378906251
16.636,6.607403564453126,0.8466735839843751,6.58616943359375
16.646000000000004,6.530990600585938,1.0969970703125,7.354635620117188
16.656000000000002,6.650320434570313,0.8617767333984375,7.41519775390625
16.665000000000003,6.797314453125001,0.6021820068359376,7.388580322265626
16.676,6.477905273437501,0.068487548828125,6.641497802734375
16.685,6.905578613281251,-0.3611297607421875,6.795370483398438
16.695000000000004,7.083975219726563,-0.6853240966796875,6.947149658203125
16.705000000000002,7.179528808593751,-0.7481292724609375,6.741537475585938
16.715,6.961505126953125,-0.5848358154296875,6.319396972656251
16.724999999999998,7.141247558593751,-0.469842529296875,6.121411132812501
16.735000000000003,6.868792724609375,-0.1377227783203125,6.773837280273438
16.745,6.915298461914063,0.11544189453125,6.858474731445313
16.755,6.603665161132813,0.5106658935546875,7.6356140136718755
16.765000000000004,6.356033325195313,0.542218017578125,7.009954833984375
16.775000000000002,7.143939208984375,0.8058502197265626,7.619165039062499
16.785,6.60770263671875,0.8744873046875,7.0138427734375
16.794999999999998,6.502279663085938,0.6350799560546876,6.337191772460938
16.805000000000003,7.089059448242188,0.0752166748046875,7.131228637695313
16.815,7.354187011718751,-0.639715576171875,6.573458862304688
16.825,7.068572998046876,-0.716278076171875,7.099676513671875
16.835000000000004,6.414202880859375,-0.5908172607421875,6.684115600585938
16.845000000000002,6.716415405273438,-0.137872314453125,7.273437500000001
16.855,6.827520751953125,0.1855743408203125,7.18431396484375
16.865,7.207641601562501,0.4517486572265625,6.709237670898438
16.875000000000004,6.919036865234376,0.7330261230468751,6.502279663085938
16.885,6.578991699218751,0.7955322265625001,6.633871459960938
16.895,6.88583984375,0.6560150146484376,7.452432250976563
16.905000000000005,6.695928955078125,0.110357666015625,7.411758422851563
16.915000000000003,6.848007202148438,-0.3090911865234375,6.720602416992188
16.925,6.545794677734375,-0.5090209960937501,6.752005004882813
16.935,6.906625366210938,-0.4852447509765625,6.839334106445313
16.945000000000004,6.970028686523438,-0.296380615234375,7.330709838867188
16.955000000000002,7.026104736328126,-0.1184326171875,6.612936401367188
16.965,6.856680297851563,0.2044158935546875,6.374725341796876
16.974999999999998,6.833950805664063,0.371746826171875,6.648825073242188
16.985000000000003,6.969879150390626,0.5190399169921875,7.250259399414063
16.995,6.752902221679688,0.38759765625,7.393066406250001
17.005,6.578842163085938,0.1350311279296875,6.678134155273438
17.015000000000004,6.787893676757813,-0.02930908203125,6.849801635742188
17.025000000000002,6.801950073242188,-0.206060791015625,6.959112548828125
17.035,6.924270629882813,-0.0907684326171875,7.354187011718751
17.044999999999998,6.746023559570313,-0.09271240234375,6.749911499023438
17.055000000000003,6.923373413085938,-0.048748779296875,6.527999877929688
17.065,7.11851806640625,0.0142059326171875,6.555364990234375
17.075,7.155902099609375,0.13577880859375,6.91275634765625
17.085000000000004,6.761575317382813,0.2319305419921875,6.997692871093751
17.095000000000002,6.516635131835938,0.095703125,6.768005371093751
17.105,6.725985717773438,0.010467529296875,6.955673217773438
17.115,6.734808349609375,-0.3120819091796875,6.779220581054688
17.125000000000004,7.385888671875,-0.313427734375,6.764266967773438
17.135,6.6038146972656255,-0.404345703125,6.7363037109375
17.145,7.122555541992188,-0.206060791015625,6.944308471679688
17.155000000000005,7.368991088867188,0.4478607177734375,7.383944702148438
17.165000000000003,6.047689819335938,0.853253173828125,6.9301025390625
17.174000000000003,6.341827392578126,1.0279113769531252,6.827221679687501
17.184,6.868643188476563,0.6150421142578125,7.464395141601563
17.194,7.370187377929688,0.191107177734375,6.972720336914063
17.204000000000004,6.814959716796875,-0.0669921875,6.910662841796875
17.214000000000002,6.538168334960938,-0.2959320068359375,6.208291625976563
