time,ax,ay,az
0.0,-7.547238159179688,0.1544708251953125,5.125650024414063
0.0099999999999838,-8.398248291015626,-0.41212158203125,5.5784454345703125
0.0199999999999747,-8.6814697265625,-0.0031402587890625,4.911663818359376
0.0299999999999656,-8.673245239257813,-0.058917236328125,4.800408935546876
0.0399999999999565,-8.257534790039063,0.17645263671875,5.375225830078126
0.0500000000000042,-7.04375,0.5718261718750001,5.867349243164063
0.0599999999999951,-6.403436279296876,0.5580688476562501,5.103369140625
0.0709999999999624,-5.420684814453125,-0.0707305908203125,4.8920745849609375
0.0809999999999533,-4.281369018554688,-0.320306396484375,4.625750732421875
0.091000000000001,-10.881146240234376,-3.746478271484375,6.032437133789063
0.100999999999999,-14.08914489746094,2.032345581054688,7.031787109375
0.11099999999999,-15.271826171875,-0.0222808837890625,8.237945556640625
0.1209999999999738,-4.973870849609376,-1.3977142333984376,3.7603851318359376
0.1309999999999647,-0.3243438720703125,-0.216229248046875,0.3955230712890625
0.1409999999999556,-1.8389953613281247,1.3914337158203125,9.15699462890625
0.1510000000000033,-14.612969970703126,1.9710357666015623,5.73321533203125
0.1630000000000038,-11.555404663085938,1.24892578125,2.5506378173828126
0.1709999999999851,-12.881341552734376,-1.3912841796875002,6.348855590820313
0.180999999999976,-5.917742919921875,1.6030273437500002,5.0341339111328125
0.1909999999999669,-3.3476654052734376,1.4795104980468752,9.85682373046875
0.2009999999999578,-5.665625,-0.55328369140625,7.033880615234375
0.2110000000000056,-8.042800903320312,-1.2436920166015626,1.5802978515625
0.2209999999999965,-10.476950073242188,-1.9649047851562504,0.1160400390625
0.2319999999999638,-12.933679199218751,-0.4342529296875,5.488424682617188
0.2419999999999547,-9.80044860839844,-0.7499237060546875,8.600570678710938
0.2520000000000024,-4.324285888671875,0.8719451904296875,5.88095703125
0.2629999999999697,-3.0605560302734376,0.7801300048828126,7.071115112304688
0.2719999999999842,-9.816598510742187,1.75435791015625,4.980450439453126
0.2819999999999751,-10.322927856445313,1.2140838623046877,3.773544311523438
0.291999999999966,-10.21436462402344,0.6136962890625001,3.278729248046876
0.3019999999999569,-5.3930206298828125,1.511660766601563,3.8356018066406254
0.3120000000000047,-5.322439575195313,-0.0339447021484375,7.7794677734375
0.3219999999999956,-9.012692260742188,0.8945251464843751,6.935784912109376
0.3319999999999865,-11.226724243164064,-0.9168060302734377,4.641152954101563
0.3419999999999774,-9.106002807617188,-2.2399017333984377,3.900350952148438
0.3519999999999683,-6.0370727539062505,0.9811065673828124,5.472125244140625
0.3629999999999995,-4.459765625,-0.4438232421875,8.064334106445314
0.3729999999999833,-4.325482177734376,-1.30096435546875,3.97347412109375
0.3829999999999742,-4.9648986816406255,-1.7948822021484376,1.8083404541015624
0.3929999999999651,-15.425100708007813,-2.428765869140625,1.2976745605468751
0.402999999999956,-20.14251708984375,-1.466351318359375,9.887777709960938
0.4130000000000038,-9.281109619140626,1.4641082763671875,11.357568359375
0.4229999999999947,-1.7192169189453126,1.1325866699218752,3.800460815429688
0.4329999999999856,0.841290283203125,0.8746368408203126,7.4427124023437505
0.4429999999999765,-2.18382568359375,1.839892578125,4.622760009765625
0.4529999999999674,-17.736929321289065,2.2292846679687504,-0.3985137939453125
0.4629999999999583,-12.2440185546875,2.3366516113281253,1.54261474609375
0.4730000000000061,-12.796405029296876,2.1038238525390627,5.419338989257813
0.482999999999997,-5.003329467773438,0.7968780517578126,10.671047973632811
0.4929999999999879,-0.6748565673828125,-0.068487548828125,10.667010498046876
0.5029999999999788,-5.705700683593751,-1.1729614257812502,8.535671997070313
0.5129999999999697,-10.086810302734376,-2.3028564453125,1.7106933593750002
0.5239999999999938,-12.297702026367189,-1.815966796875,-0.996807861328125
0.5339999999999847,-13.670144653320314,-2.277734375,0.9443206787109376
0.5439999999999756,-8.598776245117188,-1.239056396484375,7.545443725585938
0.5539999999999665,-1.1511291503906251,1.16578369140625,7.694381713867188
0.5639999999999574,-2.80589599609375,1.819406127929688,11.016925048828126
0.5740000000000052,-10.260421752929688,2.4757202148437503,7.272689819335938
0.5839999999999961,-10.692581176757812,2.3055480957031254,2.0763092041015625
0.593999999999987,-11.574246215820311,2.0164947509765625,1.1405120849609376
0.6039999999999779,-9.942208862304687,0.0315521240234375,3.9752685546875
0.6139999999999688,-5.685064697265625,-0.2065093994140625,4.904934692382813
0.6239999999999597,-3.1253051757812504,0.8961700439453125,4.336398315429688
0.6340000000000074,-9.89091796875,0.8915344238281251,6.816903686523438
0.6439999999999984,-11.048626708984376,-0.4350006103515625,6.25120849609375
0.6539999999999893,-7.502975463867188,-0.65018310546875,6.621310424804688
0.6649999999999565,-5.787945556640626,-0.480908203125,8.553616333007813
0.6750000000000043,-5.532388305664063,-1.33924560546875,6.210534667968751
0.6849999999999952,-8.3800048828125,-2.2455841064453126,3.5303985595703127
0.6949999999999861,-11.360110473632814,-2.5697784423828125,1.4772674560546877
0.704999999999977,-8.821884155273438,-1.334759521484375,3.408676147460938
0.7149999999999679,-5.4434143066406255,0.474029541015625,5.325280761718751
0.7249999999999588,-2.6101531982421875,1.6951416015625,7.359420776367188
0.7350000000000065,-8.960504150390626,-0.107666015625,6.097335815429688
0.7449999999999974,-14.318234252929688,0.960919189453125,4.526608276367188
0.7549999999999883,-14.519958496093752,2.683126831054688,7.776327514648438
0.7649999999999793,-6.550579833984376,2.356390380859376,7.751055908203125
0.774999999999963,-2.033541870117188,0.96600341796875,3.889883422851563
0.7849999999999611,-4.296621704101563,1.500146484375,4.737005615234375
0.7959999999999852,-9.767999267578126,1.7945831298828123,2.274444580078125
0.8059999999999761,-9.402682495117189,-0.703717041015625,3.430807495117188
0.815999999999967,-13.114468383789063,-1.9859893798828123,6.453082275390625
0.8259999999999579,-9.70609130859375,-1.5293060302734376,7.9436584472656255
0.8360000000000056,-5.839385986328125,-2.134478759765625,7.312466430664063
0.8459999999999965,-2.870346069335937,-1.1062683105468751,6.723294067382813
0.8559999999999874,-7.988070678710938,-1.251467895507813,5.093350219726563
0.8659999999999783,-9.334942626953126,0.156414794921875,2.2636779785156254
0.8759999999999692,-11.841018676757812,0.7168762207031251,2.198629760742188
0.8859999999999673,-10.348498535156253,0.340045166015625,4.944711303710938
0.8959999999999582,-7.22139892578125,1.899407958984375,6.951187133789063
0.9059999999999988,-3.3192535400390626,2.3789703369140627,8.941363525390626
0.9159999999999896,-6.639254760742188,2.2587432861328125,7.805636596679688
0.9259999999999806,-8.497689819335939,1.9026977539062504,3.917846679687501
0.9359999999999716,-10.914642333984377,-0.25062255859375,2.19698486328125
0.9459999999999624,-10.999728393554689,-0.5479003906250001,3.3572357177734378
0.9569999999999864,-8.426809692382813,-1.8331634521484377,5.213128662109376
0.9669999999999774,-5.696878051757813,-0.5205352783203125,4.748220825195313
0.9769999999999684,-6.2912841796875005,0.366961669921875,6.035427856445313
0.9869999999999592,-10.871875,-0.6880157470703125,6.172702026367188
0.997000000000007,-7.642044067382813,0.152227783203125,5.637661743164063
1.006999999999998,-4.790090942382813,0.956732177734375,7.089508056640626
1.0169999999999888,-6.019876098632813,0.2522674560546875,7.600772094726563
1.0269999999999797,-7.160537719726563,-0.633734130859375,5.3092803955078125
1.0369999999999635,-9.129779052734376,-2.6325836181640625,2.6476867675781253
1.0469999999999615,-7.920181274414063,-2.3894378662109377,2.7194641113281253
1.0569999999999595,-9.876113891601562,-1.275244140625,2.0169433593750004
1.066999999999993,-13.147665405273438,1.6908050537109376,7.112686157226563
1.0769999999999982,-10.79591064453125,-1.0430145263671875,9.452328491210938
1.0879999999999583,-4.091458129882813,0.74169921875,5.4075256347656255
1.098000000000006,0.006878662109375,1.4216400146484376,7.258633422851563
1.107999999999997,-10.3706298828125,2.7789794921875,7.0808349609375005
1.117999999999988,-11.43936462402344,2.510861206054688,1.911370849609375
1.1279999999999788,-9.770840454101563,1.6151397705078123,-0.1926025390625
1.1379999999999697,-10.921820068359375,1.8753326416015623,3.867303466796875
1.1479999999999675,-7.091751098632813,0.15013427734375,10.93228759765625
1.1579999999999586,-4.030447387695313,-0.1030303955078125,9.097927856445311
1.1679999999999993,-4.832110595703125,-1.6942443847656252,7.05870361328125
1.1779999999999973,-10.668804931640626,-2.59774169921875,3.5105102539062503
1.1879999999999882,-11.025149536132814,-1.8578369140625,1.773797607421875
1.197999999999972,-11.439215087890624,-1.2179718017578125,4.150823974609375
1.2079999999999629,-8.311517333984376,-0.2579498291015625,4.217816162109376
1.2179999999999538,-3.791488647460938,1.8170135498046875,6.231619262695313
1.228999999999978,-4.311276245117188,2.102777099609375,9.2700439453125
1.2389999999999688,-9.8705810546875,2.727239990234376,7.751654052734375
1.2489999999999597,-10.03970642089844,1.3963684082031251,3.4634063720703128
1.2590000000000074,-10.260272216796876,1.7724517822265626,2.050738525390625
1.2689999999999984,-9.204248046875,0.0889739990234375,4.7504638671875
1.2799999999999656,-7.059600830078126,-0.35888671875,5.358477783203125
1.2889999999999802,-4.379763793945313,0.4272247314453125,3.9187438964843753
1.298999999999971,-8.104110717773438,0.1637420654296875,5.233465576171875
1.308999999999962,-11.75174560546875,-1.00189208984375,5.79901123046875
1.31899999999996,-8.395407104492188,-1.01983642578125,6.464895629882813
1.3289999999999935,-5.9012939453125,-0.260491943359375,7.281961059570313
1.3389999999999986,-5.014395141601563,-0.4625152587890625,7.467535400390625
1.3489999999999895,-7.247866821289063,-1.50672607421875,5.195184326171876
1.3589999999999731,-9.35303649902344,-1.9680450439453123,2.6043212890625003
1.3689999999999642,-8.9015869140625,-0.61907958984375,2.4212890625
1.3799999999999883,-6.397604370117188,0.0671417236328125,4.414306640625
1.3899999999999793,-6.528298950195313,-0.3249420166015625,7.062442016601563
1.399999999999963,-12.12842712402344,1.202569580078125,6.494802856445313
1.409999999999961,-13.13151550292969,1.143353271484375,7.108050537109375
1.419999999999959,-8.081381225585938,0.386700439453125,6.202609252929688
1.4299999999999995,-0.527862548828125,1.523623657226563,3.441424560546875
1.4399999999999975,-6.728976440429688,2.084832763671875,6.0699707031250005
1.4499999999999886,-10.976251220703126,2.5548248291015625,3.9114166259765626
1.4599999999999724,-9.007757568359375,1.5792510986328123,2.9769653320312504
1.4699999999999631,-10.01234130859375,-1.4436218261718752,5.249765014648438
1.4799999999999542,-9.763662719726565,-0.2394073486328125,8.620010375976562
1.490000000000002,-6.540112304687501,-1.4898284912109376,8.509652709960939
1.5,-5.075405883789063,-2.05223388671875,5.232418823242188
1.5109999999999673,-7.41759033203125,-1.9125671386718752,3.97347412109375
1.5209999999999582,-10.084866333007811,-0.7023712158203126,3.021527099609376
1.5309999999999988,-10.566372680664063,-0.602032470703125,4.516888427734376
1.5399999999999563,-9.974209594726563,0.035589599609375,5.385842895507813
1.5509999999999806,-6.450390625000001,1.1663818359375,5.643643188476563
1.5609999999999715,-4.246826171875,2.54510498046875,7.957714843750001
1.5709999999999624,-7.68436279296875,2.2994171142578126,7.979098510742188
1.580999999999953,-9.355578613281253,1.427471923828125,4.1331787109375
1.591000000000001,-9.444403076171875,0.223406982421875,1.7536102294921876
1.600999999999999,-9.901535034179688,0.8542999267578125,3.427218627929688
1.61099999999999,-8.490213012695314,-0.729736328125,6.648226928710938
1.6209999999999738,-6.318200683593751,0.04127197265625,5.218362426757813
1.6309999999999647,-6.471026611328125,0.2045654296875,4.828073120117188
1.6409999999999556,-10.235598754882814,-0.6942962646484375,5.968585205078125
1.6510000000000034,-8.428305053710938,-0.0928619384765625,5.723944091796875
1.6609999999999945,-6.4288574218750005,0.1520782470703125,6.106607055664063
1.6719999999999615,-5.97366943359375,-0.1435546875,6.749911499023438
1.6819999999999595,-7.191342163085938,-0.7467834472656251,5.61119384765625
1.691999999999993,-9.119461059570312,-1.3302734375,4.2266387939453125
1.7019999999999982,-10.312759399414062,-1.499249267578125,4.14813232421875
1.711999999999989,-8.558102416992188,-0.248828125,4.847363281250001
1.7219999999999729,-6.414801025390625,1.024172973632813,6.044100952148438
1.7319999999999638,-5.715869140625,0.3856536865234375,5.617922973632813
1.7419999999999547,-6.0958404541015625,-0.3692047119140625,4.267312622070313
1.7520000000000024,-8.735751342773439,0.008074951171875,2.958123779296875
1.7619999999999931,-13.931533813476564,3.1087066650390627,5.7134765625
1.7719999999999845,-12.6041015625,-0.424981689453125,8.977401733398438
1.7819999999999752,-5.679681396484376,1.5701293945312502,5.649176025390625
1.791999999999966,-1.142755126953125,1.3875457763671877,5.839685058593751
1.801999999999957,-7.717410278320313,1.8108825683593752,6.205300903320313
1.812999999999988,-8.484829711914063,-0.44801025390625,3.1374176025390628
1.822999999999972,-10.713815307617187,-0.5381805419921876,2.178143310546876
1.8329999999999629,-12.936669921875,-1.7549560546875,4.733715820312501
1.8429999999999536,-8.59354248046875,-1.0047332763671877,8.445352172851564
1.853000000000001,-4.786801147460938,-0.2740997314453125,7.601968383789063
1.8629999999999995,-3.072219848632813,-0.0378326416015625,8.082427978515625
1.872999999999984,-9.100320434570314,-0.2489776611328125,4.411465454101563
1.8829999999999745,-10.4089111328125,0.8511596679687501,1.926922607421875
1.8929999999999647,-12.142633056640626,-0.313427734375,2.626751708984376
1.902999999999956,-9.34002685546875,0.6956420898437501,4.8442230224609375
1.913000000000004,-5.32767333984375,1.9477081298828127,6.772940063476563
1.9229999999999947,-3.4660980224609377,2.2234527587890627,9.326867675781251
1.9329999999999856,-8.411557006835938,0.658856201171875,7.310223388671876
1.9429999999999763,-9.194079589843753,-0.5912658691406251,3.558810424804688
1.9539999999999933,-10.783798217773438,-0.081048583984375,1.591363525390625
1.9639999999999984,-10.392462158203124,-1.0346405029296877,4.6538635253906255
1.973999999999989,-7.256689453125,-1.1778961181640626,4.882504272460938
1.983999999999973,-5.386441040039063,0.4293182373046875,4.236956787109375
1.993999999999964,-7.720849609375,0.730633544921875,7.035824584960938
2.003999999999955,-9.959854125976562,0.9381896972656252,6.5783935546875005
2.014000000000003,-7.141845703125001,0.4068878173828125,6.20634765625
2.023999999999994,-5.448498535156251,0.30086669921875,6.842324829101563
2.0339999999999847,-6.616824340820313,0.1685272216796875,6.225936889648438
2.043999999999976,-8.37821044921875,-1.2230560302734377,4.540365600585938
2.0539999999999665,-9.641641235351564,-1.888491821289063,2.3403900146484378
2.063999999999957,-8.262319946289063,-0.9663024902343752,2.165283203125
2.075999999999958,-6.545645141601563,-0.418701171875,4.372885131835938
2.0849999999999724,-8.509054565429688,-0.633734130859375,8.114279174804688
2.094999999999964,-12.637747192382813,1.995709228515625,8.231216430664062
2.1049999999999542,-10.76361083984375,0.0091217041015625,7.97984619140625
2.115000000000002,-4.2504150390625,1.5756622314453126,4.791287231445313
2.125,-1.9966064453125,1.3612274169921876,2.9705352783203125
2.134999999999984,-10.043444824218753,2.6565093994140625,4.422979736328125
2.1449999999999747,-9.9399658203125,1.5847839355468751,2.314669799804688
2.1549999999999656,-10.648468017578123,-0.8217010498046876,4.282415771484375
2.1649999999999565,-9.99200439453125,-0.7340728759765626,8.365649414062501
2.1750000000000043,-7.20823974609375,0.3146240234375,9.341372680664064
2.184999999999995,-4.790689086914063,-1.5580169677734377,7.613632202148438
2.194999999999986,-5.9652954101562505,-1.64071044921875,4.27374267578125
2.2059999999999533,-10.188345336914065,-1.15322265625,2.419943237304688
2.214999999999968,-10.665515136718753,-0.755157470703125,2.135824584960938
2.224999999999959,-10.408761596679687,-0.8403930664062501,4.469635009765625
2.2350000000000065,-7.9804443359375,0.5347412109375,6.714172363281251
2.245999999999974,-4.450942993164063,1.7794799804687502,8.118017578125
2.2559999999999647,-5.16258544921875,2.0392242431640626,8.420977783203126
2.265999999999956,-9.041104125976563,1.58448486328125,5.628988647460938
2.276000000000004,-10.189691162109376,0.5941070556640625,2.8189056396484378
2.2859999999999943,-10.367489624023438,0.6739593505859376,1.5272125244140626
2.295999999999985,-8.850146484375001,0.1613494873046875,4.559356689453125
2.305999999999976,-6.781463623046876,-0.4463653564453125,6.132626342773438
2.315999999999967,-5.64169921875,0.9390869140625,5.420834350585938
2.325999999999958,-8.611187744140626,0.2136871337890625,6.01553955078125
2.3360000000000056,-10.39515380859375,-0.4110748291015625,5.79661865234375
2.3459999999999965,-7.294522094726563,0.0275146484375,5.899200439453125
2.3559999999999874,-5.5065185546875,0.268865966796875,6.843521118164063
2.3669999999999547,-6.357379150390625,-0.4701416015625,5.894116210937501
2.3770000000000024,-8.903829956054688,-1.6426544189453127,4.294827270507813
2.3869999999999933,-10.123147583007814,-1.915109252929688,3.182876586914063
2.3969999999999843,-9.289932250976562,-0.7381103515625,4.868746948242188
2.406999999999975,-7.5497802734375,0.1547698974609375,6.391323852539063
2.416999999999966,-4.7887451171875,0.7777374267578125,6.608749389648438
2.426999999999957,-5.431301879882813,-0.9329559326171876,5.160342407226563
2.4370000000000047,-7.155154418945313,-1.2528137207031251,3.2084472656250003
2.446999999999996,-13.35462341308594,2.5283569335937504,2.186666870117188
2.4569999999999865,-14.974996948242188,0.6706695556640625,8.48109130859375
2.466999999999977,-8.483184814453125,0.5959014892578125,7.613781738281251
2.4769999999999683,-0.8085418701171876,1.9052398681640623,5.912957763671876
2.4869999999999592,-3.0506866455078128,1.8463226318359376,8.406173706054688
2.497999999999984,-9.3968505859375,2.2102935791015628,2.87587890625
2.5079999999999742,-10.48248291015625,0.8366546630859376,1.988082885742188
2.517999999999965,-14.0587890625,-1.4769683837890626,2.315716552734376
2.527999999999956,-10.119110107421877,-1.060061645507813,7.2991577148437505
2.538000000000004,-5.675942993164063,-1.7251983642578126,8.046240234375
2.5479999999999947,-0.9055908203125,-0.0201873779296875,9.132321166992188
2.5579999999999856,-7.338934326171875,-1.07606201171875,6.701611328125001
2.5679999999999765,-10.638150024414063,0.2124908447265625,2.846270751953125
2.5779999999999674,-13.055252075195314,-0.9637603759765626,1.0947540283203123
2.5879999999999583,-10.943951416015626,0.6473419189453126,3.058013916015625
2.598000000000006,-5.8869384765625,1.854248046875,6.084625244140625
2.607999999999997,-2.7258941650390627,2.158404541015625,9.426608276367189
2.617999999999988,-6.226235961914063,2.379718017578125,8.305386352539063
2.627999999999979,-8.793173217773438,0.412420654296875,4.809231567382813
2.6379999999999697,-11.586508178710938,-0.3066986083984375,1.8650146484375
2.647999999999968,-11.448486328125,0.171368408203125,3.584979248046875
2.6589999999999847,-8.428903198242189,-1.1740081787109375,5.427114868164063
2.668999999999976,-5.24632568359375,-0.8080932617187501,4.055120849609375
2.6789999999999665,-4.895214843750001,0.5851348876953125,5.4748168945312505
2.688999999999957,-10.716058349609376,0.587078857421875,6.568972778320313
2.699000000000005,-9.259875488281253,-0.330474853515625,6.740939331054688
2.708999999999996,-6.0535217285156255,-0.0770111083984375,6.274087524414063
2.718999999999987,-4.97357177734375,-0.0991424560546875,7.048236083984375
2.728999999999978,-7.2154174804687505,-0.5366851806640626,6.432147216796875
2.738999999999969,-10.523904418945314,-2.166778564453125,3.3328613281250004
2.74899999999996,-9.822131347656253,-1.7799285888671876,1.6774963378906251
2.7590000000000074,-6.428109741210938,0.2277435302734375,2.215078735351563
2.7689999999999984,-4.681378173828126,0.44501953125,6.834698486328126
2.780999999999999,-10.22528076171875,0.393878173828125,7.054815673828125
2.78899999999998,-13.835382080078126,1.92423095703125,7.591351318359376
2.798999999999971,-10.539755249023438,-0.1598541259765625,7.917340087890626
2.808999999999962,-2.973226928710938,2.184124755859376,4.146337890625
2.81899999999996,-2.988330078125,1.6377197265625,5.4348907470703125
2.829999999999977,-10.710076904296876,2.60491943359375,3.812124633789063
2.839999999999968,-8.154504394531251,1.0658935546875,1.5363342285156252
2.849999999999959,-10.488763427734376,-1.796826171875,3.9034912109375
2.8600000000000065,-11.38388671875,-0.8822631835937501,8.685806274414062
2.869999999999997,-7.399047851562501,-0.4137664794921875,9.94998474121094
2.8809999999999647,-4.393521118164063,-1.8304718017578123,6.561346435546875
2.88999999999998,-5.326626586914063,-1.4985015869140623,4.921234130859375
2.899999999999963,-10.36390075683594,-0.9030487060546876,2.70062255859375
2.909999999999961,-10.490557861328126,-0.06400146484375,2.4070831298828126
2.919999999999959,-10.980288696289064,-0.356195068359375,4.080392456054688
2.93,-7.9451538085937505,1.1062683105468751,5.710784912109375
2.9399999999999977,-4.483541870117188,1.930361938476563,8.708087158203126
2.9499999999999886,-5.248269653320313,2.5519836425781253,9.352886962890626
2.9599999999999724,-8.5977294921875,1.863818359375,5.4730224609375
2.9709999999999965,-9.600070190429689,-0.2205657958984375,2.1809844970703125
2.9809999999999874,-10.995391845703123,0.6854736328125001,1.0056304931640625
2.9909999999999783,-9.283053588867189,-0.9631622314453124,5.447003173828126
3.000999999999969,-6.729275512695313,-0.5852844238281251,5.591305541992188
3.010999999999968,-5.397058105468751,0.4323089599609375,5.701962280273438
3.020999999999958,-8.8896240234375,-0.3820648193359375,6.662731933593751
3.030999999999999,-9.877609252929688,0.0354400634765625,5.482443237304688
3.0409999999999897,-7.715765380859375,0.1126007080078125,5.905929565429688
3.0509999999999806,-5.472424316406251,0.468048095703125,6.414202880859375
3.0609999999999715,-5.986380004882813,-0.066094970703125,6.0729614257812505
3.0709999999999624,-8.310021972656251,-0.8145233154296876,4.536776733398438
3.0819999999999865,-10.774526977539065,-1.8606781005859376,3.4372375488281253
3.091000000000001,-9.308624267578123,-0.9317596435546877,4.571618652343751
3.1019999999999683,-7.147378540039063,0.271856689453125,5.868994140625
3.1119999999999592,-4.680630493164063,0.0426177978515625,6.987075805664063
3.122000000000007,-5.2031097412109375,-1.648187255859375,4.895065307617188
3.131999999999998,-10.02490234375,0.6434539794921875,1.958175659179688
3.141999999999989,-15.414932250976564,0.6447998046875001,5.416348266601563
3.15199999999998,-11.767147827148438,0.5446105957031251,8.6671142578125
3.1619999999999635,-3.946408081054688,2.0378784179687504,5.412609863281251
3.171999999999961,-0.8931793212890625,1.5970458984375002,7.208837890625
3.1819999999999595,-7.685559082031251,2.1080108642578126,4.723248291015626
3.191999999999993,-9.559695434570314,2.292388916015625,3.0409667968750003
3.201999999999998,-12.751992797851564,0.3994110107421875,3.47880859375
3.211999999999989,-12.258972167968752,-1.1046234130859376,4.751809692382813
3.221999999999973,-7.296466064453125,-2.051934814453125,7.535275268554688
3.232999999999997,-2.614938354492188,-0.3267364501953125,7.920480346679688
3.2419999999999547,-4.905831909179688,-0.8237945556640626,7.920330810546876
3.2520000000000024,-9.475656127929687,-1.2248504638671875,4.5135986328125
3.264000000000003,-11.747409057617189,-0.49765625,1.1255584716796876
3.272999999999968,-11.6674072265625,-0.5580688476562501,2.49605712890625
3.2829999999999586,-8.171252441406251,1.2589447021484377,5.725140380859376
3.293,-4.952487182617188,2.2573974609375003,8.218804931640626
3.3029999999999973,-3.522323608398438,2.367605590820313,8.676535034179688
3.312999999999988,-8.076745605468751,1.3567413330078126,5.4867797851562505
3.322999999999972,-10.585812377929688,0.4855438232421875,3.0619018554687503
3.332999999999963,-11.756680297851563,0.633734130859375,2.799615478515625
3.342999999999954,-9.468179321289064,-0.482403564453125,5.033236694335938
3.353000000000001,-6.510803222656251,-1.2412994384765623,4.4848876953125005
3.3629999999999995,-3.93638916015625,0.3066986083984375,5.4722747802734375
3.372999999999984,-8.966784667968751,0.2811279296875,6.034381103515625
3.3840000000000074,-10.9544189453125,-0.2714080810546875,6.090905761718751
3.3939999999999984,-7.966687011718751,-0.6090606689453125,5.5305938720703125
3.4039999999999893,-4.932150268554688,-0.15491943359375,6.740640258789063
3.41399999999998,-5.586669921875,-0.1278533935546875,7.5757995605468755
3.423999999999971,-8.408267211914064,-0.790447998046875,5.052825927734375
3.433999999999962,-10.914044189453126,-2.586077880859375,2.6418548583984376
3.44399999999996,-9.585714721679688,-1.0163970947265626,2.4087280273437504
3.453999999999993,-6.518429565429688,1.1838775634765626,5.5246124267578125
3.463999999999998,-3.581838989257813,2.032644653320313,6.814959716796875
3.473999999999989,-7.023712158203126,-0.425579833984375,5.275485229492188
3.4839999999999733,-13.73265075683594,-0.125311279296875,3.905136108398438
3.493999999999964,-14.051910400390629,2.421588134765625,7.904479980468751
3.503999999999955,-7.854086303710938,2.4851409912109377,8.924017333984375
3.514000000000003,-1.5639984130859377,0.9482086181640624,3.8098815917968754
3.523999999999994,-1.0247711181640626,0.78177490234375,2.836251831054688
3.534999999999961,-12.73270263671875,0.0207855224609375,2.8021575927734377
3.544999999999959,-11.45730895996094,-1.5254180908203123,5.14224853515625
3.555,-11.64393005371094,-0.30086669921875,6.964346313476563
3.5649999999999977,-9.1145263671875,-1.429864501953125,7.511050415039063
3.5749999999999886,-5.218063354492188,-1.8907348632812504,7.244427490234376
3.5849999999999724,-2.767913818359375,0.22490234375,6.276928710937501
3.594999999999964,-8.737844848632813,-0.273052978515625,5.381954956054688
3.604999999999954,-11.2750244140625,-0.3925323486328125,2.0556732177734376
3.615000000000002,-11.173489379882811,0.299072265625,0.76263427734375
3.625,-9.426010131835938,0.3461761474609375,6.3570800781250005
3.634999999999984,-6.681274414062501,1.6030273437500002,9.004766845703125
3.644999999999975,-2.743988037109375,2.4266723632812504,8.662777709960938
3.6549999999999656,-6.351248168945313,1.160699462890625,6.234759521484375
3.664999999999957,-10.473809814453126,0.0913665771484375,3.205755615234376
3.675000000000004,-11.725277709960938,-0.46236572265625,1.676150512695313
3.685999999999972,-9.938470458984376,-0.1272552490234375,3.8728363037109377
3.6959999999999615,-7.194183349609376,-1.10596923828125,5.8381896972656255
3.705999999999953,-5.665774536132813,0.088824462890625,5.6237548828125
3.716000000000001,-6.677984619140625,1.1744567871093752,5.626895141601563
3.725999999999999,-11.3396240234375,-0.1117034912109375,6.347360229492188
3.73599999999999,-7.570565795898438,0.4009063720703125,5.337542724609375
3.745999999999974,-4.302902221679688,1.0615570068359377,6.4970458984375
3.7559999999999647,-6.086270141601563,0.28770751953125,7.581631469726563
3.765999999999956,-9.509152221679688,-1.063052368164063,5.229278564453125
3.77699999999998,-10.167709350585938,-2.31781005859375,2.280426025390625
3.785999999999994,-10.34490966796875,-1.588372802734375,3.001339721679688
3.795999999999985,-7.767803955078126,-0.0569732666015625,6.145037841796875
3.805999999999976,-5.714224243164063,1.6534210205078126,6.671704101562501
3.816999999999993,-4.463952636718751,-0.37862548828125,5.595343017578125
3.826999999999998,-5.487826538085938,-0.7505218505859376,4.0138488769531255
3.836999999999989,-11.447589111328126,0.258099365234375,2.587274169921875
3.846999999999973,-16.563220214843753,3.323141479492188,8.774032592773438
3.856999999999964,-11.470916748046877,0.54072265625,9.020617675781253
3.866999999999954,-3.2222045898437504,0.656463623046875,3.5182861328125004
3.8770000000000016,0.4379913330078125,0.5665924072265626,4.053924560546875
3.886999999999993,-4.8437744140625005,1.950997924804688,6.630731201171876
3.898999999999994,-16.08948974609375,0.337353515625,4.015942382812501
3.906999999999975,-10.394406127929688,-0.008074951171875,2.483197021484376
3.916999999999966,-12.87730407714844,-2.775241088867188,6.301602172851563
3.926999999999957,-5.222848510742188,-0.403448486328125,7.843020629882813
3.9370000000000047,-1.9705871582031247,-0.062506103515625,9.212023925781253
3.946999999999996,-6.1381591796875,-0.6166870117187501,6.9552246093750005
3.9569999999999865,-10.125091552734377,-0.47791748046875,1.6444488525390626
3.9669999999999774,-11.8420654296875,0.20037841796875,0.0575714111328125
3.9780000000000015,-12.073696899414063,0.407037353515625,5.217764282226563
3.988,-8.307479858398438,0.5411712646484376,7.523312377929688
3.99899999999996,-2.0396728515625,2.0822906494140625,7.273587036132813
4.007999999999974,-3.955978393554688,1.699627685546875,8.677133178710939
4.017999999999965,-10.071408081054688,1.4288177490234375,5.482891845703126
4.027999999999956,-10.822528076171876,-1.11494140625,2.0353363037109378
4.038000000000004,-11.059243774414064,0.22430419921875,1.75076904296875
4.047999999999995,-8.855230712890625,-1.1601013183593751,4.821942138671876
4.057999999999986,-6.362911987304688,-0.43544921875,6.067279052734375
4.0679999999999765,-5.613137817382813,1.7830688476562502,4.991366577148438
4.077999999999967,-9.990808105468751,-0.15611572265625,7.509255981445313
4.087999999999958,-8.276376342773439,0.3252410888671875,5.6816253662109375
4.0989999999999895,-4.052279663085938,1.06170654296875,6.6884521484375
4.108999999999973,-6.83499755859375,-0.5682373046875,8.09708251953125
4.118999999999964,-8.952279663085939,-0.954937744140625,4.765716552734375
4.128999999999955,-9.803439331054689,-2.9823486328125,2.488131713867188
4.139000000000003,-9.355130004882811,-1.5257171630859376,1.1602508544921877
4.148999999999994,-6.755145263671875,0.3040069580078125,4.408773803710938
4.158999999999985,-3.970632934570313,1.164736938476563,5.61478271484375
4.168999999999976,-9.527545166015626,-0.4837493896484375,7.949490356445313
4.178999999999967,-14.437564086914064,1.0534820556640625,8.334396362304688
4.188999999999957,-10.810415649414065,2.984591674804688,7.453628540039063
4.199000000000005,-4.704855346679688,1.43853759765625,5.7185607910156255
4.208999999999996,-2.260986328125,0.5384796142578125,1.9551849365234373
4.218999999999987,-7.306484985351563,1.79981689453125,2.575311279296875
4.228999999999978,-10.594635009765623,1.3378997802734376,3.1730072021484377
4.238999999999969,-12.17044677734375,-1.8712951660156247,6.2458251953125
4.24899999999996,-10.549923706054688,-1.3456756591796877,8.144186401367188
4.259999999999984,-6.703106689453126,-0.7265960693359376,8.063586425781251
4.269999999999975,-4.1349731445312505,-0.9772186279296876,7.677633666992188
4.279999999999966,-5.969631958007813,-1.2218597412109375,4.884149169921876
4.2899999999999565,-9.681118774414063,-1.251467895507813,2.081991577148438
4.300000000000004,-10.83523864746094,0.101983642578125,0.692352294921875
4.310999999999972,-10.611083984375,0.1386199951171875,5.030545043945313
4.319999999999986,-8.698965454101563,0.8643188476562501,7.900592041015625
4.329999999999977,-5.042507934570313,2.095449829101563,8.272787475585938
4.339999999999968,-4.098187255859376,2.260986328125,7.926162719726563
4.349999999999959,-8.160336303710938,1.6556640625,5.21641845703125
4.360000000000007,-10.497885131835938,0.2271453857421875,3.2877014160156253
4.369999999999997,-11.451177978515624,-0.4670013427734375,1.343731689453125
4.379999999999988,-8.49066162109375,-0.0131591796875,3.4095733642578128
4.389999999999979,-7.2169128417968755,-1.5349884033203127,6.501382446289063
4.401000000000003,-5.844320678710938,1.23636474609375,6.41868896484375
4.410999999999994,-8.561093139648438,0.2307342529296875,6.089859008789063
4.420999999999985,-9.565826416015623,-0.4810577392578125,5.637213134765625
4.430999999999976,-6.577346801757813,0.3817657470703125,5.729626464843751
4.440999999999967,-4.936038208007813,1.14185791015625,7.576248168945313
4.450999999999958,-7.381552124023438,-0.7343719482421875,6.041708374023438
4.461000000000006,-9.044393920898438,-1.66104736328125,3.5318939208984377
4.4709999999999965,-10.878903198242188,-2.337399291992188,2.5280578613281253
4.480999999999987,-8.838482666015626,-0.6177337646484375,4.828970336914063
4.490999999999978,-6.861166381835938,-0.0095703125,6.461306762695313
4.500999999999969,-1.941427612304688,0.7248016357421876,5.724093627929688
4.510999999999967,-6.808380126953126,-1.442724609375,3.727487182617188
4.520999999999958,-15.197207641601564,0.7452880859375001,4.333706665039063
4.530999999999999,-14.985614013671876,2.316763305664063,8.668759155273438
4.541999999999966,-7.666567993164063,2.1341796875,7.24532470703125
4.551999999999957,-0.9661529541015624,1.39188232421875,5.032788085937501
4.562000000000005,-1.84049072265625,1.3480682373046875,5.800357055664063
4.571999999999996,-10.294964599609376,2.1042724609375,3.028555297851563
4.5819999999999865,-12.1722412109375,0.5656951904296875,3.519033813476563
4.591999999999977,-13.737734985351564,-1.3111328125,4.500289916992188
4.601999999999968,-8.732461547851564,-1.6127471923828127,6.526953125
4.611999999999959,-4.157254028320313,-1.5438110351562502,8.245721435546876
4.622000000000007,-2.6520233154296875,-0.5163482666015625,8.870782470703126
4.631999999999998,-8.094839477539063,-1.161895751953125,5.331112670898438
4.641999999999989,-10.848846435546877,-0.7771392822265626,1.1725128173828123
4.65199999999998,-13.075738525390626,-0.4888336181640625,1.4419769287109376
4.661999999999964,-10.087109375,0.9218902587890626,5.16796875
4.6719999999999615,-5.654708862304688,2.209097290039063,7.641445922851563
4.68199999999996,-2.1724609375000004,2.243341064453125,9.315652465820314
4.691999999999993,-6.8266235351562505,2.14913330078125,6.818249511718751
4.702999999999967,-9.604855346679688,1.0050323486328123,3.720309448242188
4.712999999999958,-12.48148193359375,-0.081048583984375,2.1332824707031253
4.723000000000006,-10.620504760742188,-0.155816650390625,3.4927154541015626
4.732999999999997,-6.897952270507813,-1.0328460693359376,4.861868286132813
4.742999999999988,-4.880410766601563,-0.46356201171875,5.310476684570313
4.752999999999979,-6.946850585937501,0.665435791015625,6.394613647460938
4.76299999999997,-10.763162231445314,-0.160302734375,6.067877197265625
4.772999999999968,-8.084671020507812,-0.4119720458984375,6.1073547363281255
4.782999999999959,-5.416049194335938,-0.1804901123046875,6.916345214843751
4.792999999999999,-5.305392456054688,0.1392181396484375,7.195678710937501
4.802999999999997,-8.136709594726563,-1.579400634765625,5.2105865478515625
4.812999999999988,-10.636953735351565,-2.4316070556640628,2.152273559570313
4.822999999999972,-9.3705322265625,-1.167727661132813,2.3454742431640625
4.832999999999963,-6.160739135742188,0.8768798828125001,4.193441772460938
4.843999999999987,-4.613787841796875,0.677099609375,6.970776367187501
4.853999999999978,-11.11756286621094,0.2325286865234375,6.167019653320313
4.863999999999969,-13.560235595703126,1.7416473388671876,7.265213012695313
4.87399999999996,-9.589602661132814,1.1455963134765623,7.7283264160156255
4.884000000000008,-3.8050964355468753,2.2829681396484376,4.649826049804688
4.893999999999998,-3.8369476318359377,1.6290466308593752,5.326925659179688
4.903999999999989,-9.403131103515626,2.056869506835937,2.8347564697265626
4.91399999999998,-8.389724731445312,-0.1087127685546875,2.389886474609375
4.923999999999971,-10.95008239746094,-1.487286376953125,5.002880859375001
4.933999999999962,-11.295361328125,-0.90140380859375,8.524905395507814
4.94399999999996,-6.9926086425781255,-1.2049621582031251,8.998336791992188
4.9539999999999935,-4.434344482421875,-1.7476287841796876,6.290985107421876
4.963999999999999,-5.978005981445313,-1.7247497558593752,5.0818359375
4.9739999999999895,-9.690539550781253,-0.0394775390625,2.8592803955078128
4.983999999999973,-10.591046142578126,0.096002197265625,2.367605590820313
4.994999999999997,-11.078085327148438,-0.187518310546875,4.434344482421875
5.004999999999988,-7.484133911132813,1.1955413818359375,5.807534790039063
5.014999999999979,-4.14334716796875,2.5175903320312503,8.716909790039063
5.024999999999963,-6.0953918457031255,2.269061279296875,8.92431640625
5.034999999999961,-8.792874145507813,1.699627685546875,5.080340576171875
5.044999999999959,-9.636706542968753,-0.25301513671875,1.8258361816406248
5.055,-10.531979370117188,0.48629150390625,2.233172607421875
5.064999999999998,-9.238641357421876,-1.1180816650390626,5.347262573242188
5.074999999999989,-6.612786865234376,-0.393280029296875,5.279672241210938
5.084999999999972,-5.991464233398438,0.0515899658203125,5.5450988769531255
5.094999999999963,-9.470123291015623,-0.3572418212890625,6.3959594726562505
5.104999999999954,-8.950335693359376,0.009869384765625,5.86241455078125
5.115999999999978,-6.603216552734375,0.6264068603515626,6.455624389648438
5.125999999999969,-5.607006835937501,0.1290496826171875,6.726882934570313
5.135999999999967,-6.561495971679688,-0.4749267578125,5.552426147460938
5.145999999999958,-9.297409057617188,-1.3482177734375,3.8907806396484377
5.155999999999999,-10.327413940429688,-1.6955902099609377,3.493463134765625
5.16599999999999,-7.873526000976563,-1.5369323730468751,4.501486206054688
5.175999999999981,-3.5390716552734376,-0.5561248779296876,5.428311157226563
5.185999999999972,-6.065933227539063,-0.0785064697265625,4.35150146484375
5.195999999999962,-15.567160034179688,-0.4951141357421875,5.5160888671875
5.205999999999953,-13.801138305664065,0.5685363769531251,8.136111450195314
5.216000000000001,-6.588412475585938,2.680734252929688,5.759234619140625
5.225999999999999,-0.9329559326171876,1.5891204833984376,7.254296875
5.23599999999999,-6.239544677734376,2.0749633789062503,5.75833740234375
5.245999999999974,-7.3455139160156255,2.0837860107421875,2.297323608398438
5.255999999999965,-12.281552124023438,2.3050994873046875,1.6893096923828126
5.266999999999989,-13.052410888671876,1.2389068603515625,5.145089721679688
5.27699999999998,-8.799603271484376,-1.90150146484375,8.451632690429689
5.286999999999964,-4.218862915039063,-0.8208038330078126,7.97506103515625
5.2969999999999615,-3.653317260742188,-1.777685546875,8.109194946289064
5.30699999999996,-7.951434326171875,-1.9955596923828127,4.775585937500001
5.316999999999993,-10.407864379882811,-1.1771484375,2.087374877929688
5.326999999999998,-13.02085876464844,-1.5074737548828123,1.9471099853515623
5.336999999999989,-9.786242675781253,0.4035980224609375,3.857284545898438
5.346999999999973,-5.377468872070313,1.84766845703125,7.011599731445313
5.356999999999964,-3.223101806640625,2.3387451171875,10.318292236328126
5.366999999999955,-7.225585937500001,2.6138916015625,7.533331298828125
5.377000000000002,-9.062039184570311,1.634280395507813,3.6308868408203128
5.386999999999993,-11.819485473632811,0.9674987792968752,1.688113403320313
5.396999999999984,-10.77677001953125,0.1353302001953125,3.940875244140625
5.407999999999959,-7.262222290039063,-0.5752655029296876,4.461709594726563
5.417999999999999,-4.434494018554688,-0.1072174072265625,4.697976684570313
5.427999999999997,-6.640750122070313,0.016448974609375,6.31700439453125
5.437999999999988,-11.36175537109375,-0.2845672607421875,6.119168090820313
5.447999999999972,-9.083123779296876,-1.009368896484375,6.223394775390625
5.457999999999963,-6.351547241210938,-0.3461761474609375,6.734359741210938
5.467999999999954,-4.309033203125001,-0.1435546875,7.294970703125
5.4780000000000015,-7.137957763671875,-1.2221588134765626,5.742337036132813
5.488,-10.109240722656253,-2.385400390625,2.403643798828125
5.49899999999996,-9.579733276367188,-1.2229064941406251,2.147787475585938
5.507999999999974,-6.0629425048828125,0.385504150390625,3.926968383789063
5.517999999999965,-4.673452758789063,0.4191497802734375,7.262820434570313
5.527999999999956,-11.644976806640626,0.43544921875,6.329415893554688
5.53899999999998,-14.9141357421875,1.729983520507813,7.640847778320313
5.547999999999995,-9.742578125,0.5120117187500001,7.482339477539063
5.557999999999986,-1.933053588867188,1.748974609375,3.6136901855468753
5.56899999999996,-1.6209716796875002,1.2344207763671875,5.056564331054688
5.5789999999999935,-11.05072021484375,2.44521484375,3.670513916015625
5.588999999999999,-9.794317626953124,1.8349578857421875,2.500094604492188
5.5989999999999895,-11.539404296875,-1.7257965087890623,5.003030395507813
5.608999999999973,-11.116067504882814,-0.8409912109375001,9.068768310546876
5.618999999999964,-6.004025268554688,-0.7633819580078125,9.229220581054689
5.628999999999955,-3.1327819824218754,-1.6429534912109376,6.1970764160156255
5.639000000000003,-6.479400634765626,-1.7622833251953127,4.0965423583984375
5.648999999999994,-10.678076171875,-1.00428466796875,2.191302490234375
5.658999999999985,-11.241827392578124,-0.230584716796875,2.643499755859376
5.668999999999976,-11.232406616210938,-0.14176025390625,5.158697509765625
5.678999999999967,-6.958514404296875,1.18851318359375,6.713574218750001
5.688999999999957,-2.8604766845703127,1.81776123046875,8.6336181640625
5.699999999999989,-6.082531738281251,2.345175170898438,8.65216064453125
5.709999999999972,-9.347503662109377,2.2529113769531253,4.655957031250001
5.719999999999963,-10.986270141601564,-0.2926422119140625,1.3539001464843752
5.729999999999954,-10.456912231445314,0.7950836181640626,1.82613525390625
5.740000000000002,-8.812762451171876,-1.11494140625,5.364758300781251
5.75,-6.082980346679688,-0.3389984130859375,6.530392456054688
5.759999999999984,-5.091705322265625,1.0830902099609376,5.694784545898438
5.769999999999975,-10.16531677246094,-0.6757537841796876,6.223394775390625
5.779999999999966,-9.312811279296875,-0.22550048828125,5.545697021484376
5.7899999999999565,-6.496597290039063,0.37982177734375,6.054568481445313
5.800000000000004,-5.51309814453125,0.2525665283203125,7.126443481445313
5.809999999999995,-6.831857299804688,-0.7615875244140625,5.490667724609375
5.819999999999986,-9.584368896484376,-1.7477783203125,3.602923583984375
5.829999999999977,-10.558746337890623,-1.897164916992188,3.1641845703125004
5.839999999999968,-8.668310546875,-0.1685272216796875,5.269204711914063
5.850999999999999,-6.0928497314453125,0.6832305908203126,6.239694213867188
5.86099999999999,-3.325982666015625,0.4801605224609375,6.39775390625
5.870999999999974,-7.348654174804688,-1.209597778320313,3.849508666992188
5.880999999999965,-13.478289794921876,1.710992431640625,3.467892456054688
5.890999999999956,-14.418572998046876,0.829327392578125,7.632025146484375
5.901000000000003,-8.037866210937501,2.171563720703125,7.139453125
5.910999999999994,-1.906436157226563,1.5767089843750002,5.283560180664063
5.920999999999985,-3.7325714111328128,1.3755828857421877,6.540261840820313
5.930999999999976,-8.428604125976562,1.7248992919921875,3.6966827392578128
5.940999999999967,-10.78155517578125,-0.2394073486328125,3.4000030517578126
5.950999999999958,-13.979684448242187,-1.8932769775390623,4.3582305908203125
5.961000000000006,-9.535171508789062,-0.8572906494140625,6.265414428710938
5.9709999999999965,-5.317056274414063,-2.050738525390625,7.344766235351563
5.981999999999964,-2.416802978515625,0.2379119873046875,8.548083496093751
5.990999999999978,-7.818048095703125,-0.6926513671875001,6.085372924804688
6.002000000000002,-9.682614135742188,-0.020037841796875,2.014700317382813
6.011999999999993,-12.910052490234376,-0.383709716796875,1.8838562011718751
6.021999999999984,-10.497586059570311,0.8354583740234376,4.681826782226563
6.031999999999975,-6.441418457031251,1.7437408447265623,6.894662475585938
6.041999999999966,-2.17904052734375,2.001092529296875,8.567523193359376
6.051999999999957,-6.9635986328125,1.8931274414062504,7.367047119140626
6.062000000000005,-9.0858154296875,0.6108551025390625,3.966744995117188
6.071999999999996,-11.56512451171875,-0.119927978515625,2.4507476806640627
6.0819999999999865,-10.881744384765623,-0.404345703125,3.600680541992188
6.091999999999977,-7.661782836914063,-1.2261962890625,5.038769531250001
6.101999999999968,-5.351898193359375,-0.2501739501953125,4.8452697753906255
6.111999999999959,-6.677685546875001,0.8634216308593751,6.286050415039063
6.122999999999983,-10.3849853515625,-0.153125,6.301153564453125
6.131999999999998,-7.641744995117188,0.0683380126953125,5.864956665039063
6.142999999999965,-5.2579895019531255,0.1472930908203125,7.0018798828125
6.152999999999956,-6.2876953125,-0.085235595703125,7.30394287109375
6.163000000000004,-8.067922973632813,-1.2462341308593752,5.190249633789063
6.172999999999995,-10.874267578125,-2.3082397460937503,2.3519042968750004
6.182999999999986,-10.307525634765623,-1.7615356445312502,2.712884521484375
6.1929999999999765,-7.337588500976563,0.75067138671875,4.774987792968751
6.202999999999967,-3.659298706054688,1.6917022705078126,6.086270141601563
6.212999999999958,-4.888336181640625,0.822149658203125,5.6681671142578125
6.223000000000006,-11.465383911132813,-0.6256591796875001,4.728631591796876
6.232999999999997,-14.834432983398438,2.481103515625,7.430001831054688
6.242999999999988,-11.501272583007813,2.6266021728515625,9.797457885742189
6.252999999999979,-3.981399536132813,0.663641357421875,4.806539916992188
6.26299999999997,0.055328369140625,-0.1368255615234375,2.030999755859375
6.272999999999968,-7.434039306640625,1.4527435302734375,3.218466186523438
6.283999999999985,-12.466229248046876,-0.893927001953125,4.2779296875
6.293999999999976,-11.832196044921876,-1.2761413574218752,5.743682861328125
6.303999999999967,-11.067617797851565,-1.259991455078125,7.347158813476563
6.313999999999957,-6.776977539062501,-1.7497222900390623,7.877413940429688
6.324000000000005,-2.609405517578125,0.351409912109375,7.041357421875
6.333999999999996,-5.585174560546875,-0.2208648681640625,6.653460693359375
6.343999999999987,-10.751797485351563,-0.152227783203125,2.26278076171875
6.353999999999978,-11.531179809570313,-0.0351409912109375,0.029010009765625
6.363999999999969,-10.73011474609375,0.3955230712890625,4.24383544921875
6.37399999999996,-8.046688842773438,1.0175933837890625,8.523410034179689
6.384000000000008,-3.535931396484376,2.098440551757813,8.980691528320314
6.393999999999998,-4.517636108398438,1.6993286132812502,7.681222534179688
6.403999999999989,-8.992355346679688,0.4954132080078125,4.632778930664063
6.41399999999998,-11.352633666992189,-0.2794830322265625,2.212985229492188
6.425000000000004,-11.068215942382814,-0.6184814453125,2.3172119140625003
6.434999999999995,-8.398098754882813,-0.5259185791015626,4.648480224609376
6.444999999999986,-6.182421875,-0.9431243896484376,6.06219482421875
6.454999999999977,-5.415750122070313,1.3175628662109375,5.88095703125
6.464999999999968,-10.233953857421875,0.2388092041015625,6.115429687500001
6.474999999999959,-9.307876586914062,0.244342041015625,5.767459106445313
6.485000000000007,-5.543753051757813,0.935498046875,5.810525512695313
6.494999999999997,-4.8811584472656255,0.9634613037109376,7.80458984375
6.504999999999988,-8.493502807617189,-0.6419586181640625,5.914752197265625
6.516999999999989,-9.578836059570314,-1.67899169921875,3.0427612304687504
6.524999999999963,-10.815948486328123,-2.4775146484375004,2.3873443603515625
6.534999999999961,-8.808276367187501,-0.3768310546875,4.997647094726563
6.544999999999959,-6.811370849609376,0.9245819091796876,6.981842041015626
6.555,-4.487579345703125,0.6287994384765625,6.396557617187501
6.565999999999967,-4.7121826171875005,-1.392181396484375,4.6513214111328125
6.575999999999958,-6.234609985351563,-0.7568023681640625,2.627947998046875
6.586000000000006,-15.829446411132814,2.1175811767578128,5.1093505859375
6.5959999999999965,-17.056988525390626,0.4918243408203125,10.19537353515625
6.605999999999987,-6.464596557617188,1.3283294677734376,6.508560180664063
6.616999999999955,-0.6585571289062501,0.8182617187500001,3.364862060546875
6.625999999999969,-0.6470428466796876,0.8513092041015625,7.398150634765625
6.635999999999967,-7.579537963867188,2.017840576171875,4.29288330078125
6.645999999999958,-16.029974365234377,1.3625732421875,1.380218505859375
6.655999999999999,-13.75418395996094,-1.9221374511718752,3.4913696289062504
6.66599999999999,-9.181668090820311,-0.686370849609375,7.716213989257813
6.675999999999981,-3.275289916992188,-0.9314605712890626,9.2126220703125
6.685999999999972,-1.5791015625000002,0.3007171630859375,9.992752075195312
6.695999999999962,-8.575149536132812,-1.0759124755859375,4.409222412109376
6.7069999999999865,-10.88907165527344,-0.0151031494140625,0.12919921875
6.716999999999977,-13.803680419921877,-0.8623748779296876,0.5938079833984375
6.726999999999968,-10.576092529296876,0.34931640625,6.378463745117188
6.736999999999959,-5.303448486328126,1.37154541015625,6.617123413085938
6.747000000000007,-0.423785400390625,1.592410278320313,9.48941345214844
6.756999999999998,-7.580136108398438,2.086776733398437,8.470474243164062
6.766999999999989,-10.08755798339844,0.813177490234375,3.3908813476562503
6.77699999999998,-11.954367065429688,-0.578106689453125,1.523175048828125
6.786999999999964,-11.000775146484376,0.3823638916015625,2.7837646484375003
6.7969999999999615,-7.726382446289063,-1.5263153076171876,5.729626464843751
6.80699999999996,-4.51419677734375,0.518292236328125,4.51419677734375
6.816999999999993,-6.6023193359375005,1.493716430664063,6.289639282226563
6.826999999999998,-10.9448486328125,-0.485693359375,7.114779663085938
6.836999999999989,-6.791183471679688,0.6347808837890625,5.821890258789063
6.846999999999973,-4.905532836914063,-0.1706207275390625,7.972668457031251
6.857999999999997,-7.187005615234376,-0.3823638916015625,6.967337036132813
6.867999999999988,-8.4541748046875,-1.939035034179688,4.427316284179688
6.877999999999979,-11.438317871093751,-2.9470581054687504,1.6737579345703126
6.88799999999997,-9.645529174804688,-1.4264251708984377,2.2502197265625004
6.897999999999968,-7.009207153320313,0.28172607421875,5.069573974609376
6.907999999999959,-2.0556732177734376,1.759442138671875,6.180029296875
6.917999999999999,-6.261825561523438,1.301263427734375,6.605758666992188
6.927999999999997,-13.696163940429688,-0.670819091796875,5.424572753906251
6.937999999999988,-14.0767333984375,3.251663208007813,8.06239013671875
6.947999999999972,-10.080529785156251,2.9530395507812504,9.27662353515625
6.957999999999963,-1.9047912597656247,0.3028106689453125,3.734814453125
6.967999999999954,-1.3020111083984376,0.26138916015625,1.0657440185546876
6.9780000000000015,-10.52255859375,1.8415374755859373,3.130389404296875
6.988,-11.244668579101564,-1.6395141601562502,6.101971435546876
6.99899999999996,-12.069210815429688,-1.971185302734375,6.10167236328125
7.009000000000008,-9.70474548339844,-1.2744964599609376,7.925564575195313
7.018999999999998,-6.051727294921875,-1.475323486328125,7.932144165039063
7.028999999999989,-2.6900054931640627,-0.2531646728515625,6.8026977539062505
7.03899999999998,-7.3245788574218755,-0.9725830078125,5.017086791992188
7.048999999999971,-11.069561767578126,-0.01375732421875,1.3625732421875
7.058999999999962,-10.929895019531251,0.378924560546875,0.8110839843750001
7.06899999999996,-10.166213989257812,0.5404235839843751,6.120663452148438
7.0789999999999935,-7.439422607421876,1.5424652099609375,8.52296142578125
7.088999999999999,-2.9158050537109377,2.430410766601563,8.893661499023438
7.0989999999999895,-5.964846801757813,1.8774261474609373,6.833950805664063
7.108999999999973,-9.225482177734376,0.8635711669921876,4.101327514648438
7.119999999999997,-11.631817626953126,-0.7612884521484375,2.050588989257813
7.128999999999955,-10.175485229492187,-0.3219512939453125,2.621966552734375
7.139999999999979,-8.106204223632814,-1.1722137451171877,5.124005126953126
7.149999999999963,-6.32298583984375,-0.1682281494140625,5.875125122070313
7.159999999999961,-6.992309570312501,0.4272247314453125,5.770748901367188
7.169999999999959,-9.910208129882813,0.1302459716796875,6.345416259765625
7.18,-7.613931274414063,0.4236358642578125,5.896658325195313
7.189999999999998,-4.269256591796875,1.3289276123046876,7.069320678710938
7.199999999999989,-6.142346191406251,-0.0610107421875,7.434786987304688
7.209999999999972,-8.949288940429689,-0.9607696533203126,4.835101318359375
7.219999999999963,-10.69422607421875,-2.5422637939453128,2.618826293945313
7.229999999999954,-10.053912353515626,-1.643252563476563,2.9051879882812504
7.240000000000002,-8.071810913085939,-0.2400054931640625,5.22479248046875
7.25,-4.495953369140626,0.6174346923828126,6.309677124023438
7.259999999999984,-2.660696411132813,0.445916748046875,4.987927246093751
7.269999999999975,-9.73465270996094,-1.326385498046875,3.052481079101563
7.279999999999966,-16.989398193359378,2.021429443359376,6.677536010742188
7.29099999999999,-13.078131103515624,2.295379638671875,10.746563720703126
7.300999999999981,-5.061050415039063,2.397213745117188,6.0580078125000005
7.3109999999999715,0.034991455078125,0.5837890625000001,4.3981567382812505
7.320999999999962,-3.8006103515625,1.3962188720703126,3.757543945312501
7.330999999999953,-11.945095825195311,1.8557434082031248,2.8664581298828127
7.341000000000001,-12.610382080078129,-0.9135162353515626,3.5329406738281253
7.350999999999999,-13.5168701171875,-2.050888061523437,5.659194946289063
7.36099999999999,-6.803445434570313,-1.6136444091796875,7.937677001953125
7.370999999999974,-2.3939239501953127,-0.8107849121093751,9.245220947265626
7.380999999999965,-4.351351928710938,-0.490478515625,8.818594360351563
7.390999999999956,-9.11856384277344,-0.7587463378906251,3.289047241210938
7.401000000000003,-11.494692993164064,-0.4918243408203125,-0.490179443359375
7.410999999999994,-12.603503417968753,0.3629241943359375,0.465057373046875
7.420999999999985,-9.142938232421876,0.5514892578125,7.414300537109375
7.430999999999976,-4.1588989257812505,2.3365020751953125,8.81904296875
7.441999999999993,-2.59654541015625,2.1011322021484378,9.535171508789062
7.451999999999998,-8.429202270507814,2.274893188476563,6.982290649414063
7.461999999999989,-9.983779907226562,0.1131988525390625,2.3245391845703125
7.471999999999973,-12.12738037109375,0.0189910888671875,2.045504760742188
7.481999999999964,-10.1529052734375,-0.8931793212890625,3.5505859375
7.491999999999955,-6.668862915039063,-1.414910888671875,4.448101806640626
7.502000000000002,-4.666424560546876,0.5010955810546875,4.886392211914063
7.511999999999993,-8.496194458007814,0.750372314453125,7.3350463867187505
7.521999999999984,-10.282403564453126,-0.4077850341796875,7.424468994140626
7.531999999999975,-5.9638000488281255,0.6802398681640626,5.875125122070313
7.541999999999966,-4.593600463867188,-0.2308837890625,7.888479614257813
7.551999999999957,-7.387832641601563,-0.4607208251953125,6.438876342773438
7.562000000000005,-9.346755981445312,-1.9367919921875,3.4871826171875004
7.572999999999972,-10.954718017578124,-2.342184448242188,1.3166656494140625
7.582999999999963,-8.067623901367188,-1.029107666015625,2.35728759765625
7.592999999999954,-5.087069702148438,1.7823211669921877,4.935888671875
7.6030000000000015,-4.747323608398438,0.8139251708984375,7.3350463867187505
7.612999999999999,-13.910150146484376,0.27454833984375,7.358074951171876
7.622999999999983,-13.714108276367188,1.866061401367188,8.314208984375
7.632999999999974,-7.045095825195313,2.8135223388671875,7.567874145507813
7.642999999999965,-2.11204833984375,0.8943756103515625,4.0965423583984375
7.652999999999956,-5.0655364990234375,1.579998779296875,3.0364807128906253
7.663000000000004,-9.439019775390626,1.1950927734375,1.4223876953125
7.672999999999995,-11.277267456054688,-1.9800079345703123,3.4303588867187504
7.682999999999986,-11.716006469726564,-1.3663116455078126,7.924667358398438
7.692999999999976,-8.960205078125,-0.6645385742187501,9.028692626953124
7.7039999999999935,-5.226885986328125,-1.6613464355468752,8.46912841796875
7.713999999999999,-4.1630859375,-0.8062988281250001,6.038418579101563
7.723999999999989,-7.920330810546876,-1.0036865234375,3.7280853271484378
7.733999999999973,-10.5333251953125,-0.2059112548828125,1.4964080810546876
7.743999999999964,-11.526394653320311,0.39776611328125,1.9505493164062504
7.753999999999955,-9.679025268554687,0.19619140625,5.6707092285156255
7.764000000000003,-6.280368041992188,1.6106536865234375,7.94156494140625
7.773999999999994,-3.414657592773438,2.206106567382813,9.675286865234376
7.783999999999985,-6.900494384765626,2.354147338867188,7.413253784179688
7.793999999999976,-9.088507080078124,0.8015136718750001,3.430657958984375
7.8039999999999665,-11.581573486328123,-0.7482788085937501,1.43135986328125
7.813999999999957,-10.010845947265626,0.0019439697265625,2.7516143798828128
7.824000000000005,-7.663876342773438,-1.0860809326171876,5.34501953125
7.833999999999996,-6.134420776367188,-0.0246734619140625,5.813366699218751
7.843999999999987,-6.876419067382813,0.7572509765625001,6.040960693359375
7.854999999999954,-10.615719604492188,-0.212939453125,6.308779907226563
7.865000000000002,-7.438076782226563,0.185723876953125,5.725439453125
7.875,-5.152117919921875,0.9214416503906252,7.106704711914063
7.884999999999984,-5.895611572265626,0.343634033203125,6.880905151367188
7.894999999999975,-8.28131103515625,-1.2496734619140626,4.841531372070313
7.904999999999966,-10.863949584960938,-2.342333984375,2.543011474609376
7.914999999999956,-10.144232177734375,-1.173709106445313,3.3596282958984376
7.925000000000004,-7.937826538085938,-0.4990020751953125,5.887686157226563
7.934999999999995,-5.508612060546875,1.0434631347656251,6.5858703613281255
7.944999999999986,-3.653466796875,-0.3330169677734375,5.7960205078125
7.954999999999977,-5.951986694335938,-1.3254882812500002,3.1128936767578126
7.964999999999968,-14.649606323242187,2.0278594970703128,3.557913208007813
7.974999999999959,-16.270727539062502,1.2792816162109375,9.45008544921875
7.98599999999999,-8.102914428710939,1.8035552978515623,7.867694091796875
7.994999999999997,-1.13587646484375,1.4195465087890626,4.1249542236328125
8.005999999999965,-0.500946044921875,0.91695556640625,6.374725341796876
8.015999999999956,-10.09189453125,2.037130737304688,3.5405670166015626
8.026000000000003,-12.309814453125002,0.79971923828125,2.9036926269531254
8.035999999999994,-13.912841796875002,-1.9306610107421875,3.36934814453125
8.045999999999985,-10.022509765625,-1.199578857421875,6.846212768554688
8.055999999999976,-4.212582397460938,-1.6284484863281252,8.572457885742189
8.065999999999967,-1.6958892822265623,0.45997314453125,9.821832275390626
8.075999999999958,-7.673895263671875,-0.9162078857421876,5.615081787109375
8.086000000000006,-10.620953369140626,-0.47672119140625,1.1530731201171875
8.095999999999997,-13.231854248046876,-0.4436737060546875,0.23028564453125
8.105999999999987,-10.731610107421876,0.9302642822265624,4.974917602539063
8.118999999999964,-6.347659301757813,1.1011840820312502,7.262820434570313
8.12599999999997,-1.439434814453125,2.017691040039063,9.231912231445314
8.136999999999993,-6.3570800781250005,2.182928466796876,8.352191162109376
8.146999999999984,-9.297409057617188,1.160400390625,4.17265625
8.156999999999975,-12.267794799804689,-0.8990112304687501,1.72744140625
8.166999999999966,-11.11038513183594,0.389691162109375,2.85015869140625
8.176999999999957,-7.863656616210938,-1.5641479492187502,5.1802307128906255
8.187000000000005,-5.142996215820313,-0.320904541015625,4.69364013671875
8.196999999999996,-5.818002319335938,1.2523651123046875,6.035427856445313
8.206999999999987,-10.921670532226564,-0.0638519287109375,7.144387817382813
8.218999999999987,-8.123550415039062,-0.193499755859375,6.0225677490234375
8.226999999999968,-4.721453857421875,0.3647186279296875,7.004421997070313
8.23699999999996,-6.163281250000001,-0.135479736328125,7.496246337890626
8.247000000000007,-8.022015380859376,-1.42178955078125,5.2074462890625
8.256999999999998,-10.909259033203126,-2.6031250000000004,1.892529296875
8.266999999999989,-9.503619384765626,-1.4500518798828126,1.6619445800781252
8.27699999999998,-5.873181152343751,-0.166583251953125,4.270153808593751
8.286999999999964,-2.138665771484375,1.3745361328125,6.255993652343751
8.297999999999995,-12.682308959960938,-0.1447509765625,6.536074829101563
8.307999999999986,-17.09676513671875,0.447113037109375,9.202154541015624
8.317999999999977,-8.631524658203126,2.247677612304688,8.301199340820313
8.327999999999967,-2.36865234375,1.4201446533203126,3.9067810058593753
8.337999999999958,-0.4007568359375,0.815869140625,4.160693359375
8.348000000000006,-10.5955322265625,1.973876953125,2.1676757812500003
8.357999999999997,-10.676132202148438,1.911370849609375,1.4057891845703123
8.367999999999988,-12.623391723632814,-0.9501525878906252,6.081484985351563
8.377999999999979,-11.191732788085938,-0.8882446289062501,9.661080932617187
8.38799999999997,-4.799362182617188,-0.8505615234375,9.503469848632813
8.397999999999968,-2.4266723632812504,-1.0983428955078125,7.671652221679688
8.407999999999959,-7.282260131835938,-1.8488647460937504,4.553524780273438
8.418999999999976,-10.665515136718753,-1.3175628662109375,0.5848358154296875
8.427999999999997,-11.9724609375,-0.3952239990234375,0.56165771484375
8.438999999999957,-10.926455688476564,-0.2459869384765625,5.02860107421875
8.449000000000005,-7.184164428710938,1.206756591796875,7.718307495117188
8.458999999999996,-1.9484558105468752,1.811181640625,10.067520141601562
8.468999999999987,-5.929257202148438,2.421438598632813,9.0427490234375
8.478999999999978,-9.040057373046876,2.1621429443359377,4.363015747070313
8.488999999999969,-11.6721923828125,0.283819580078125,1.197784423828125
8.49899999999996,-11.277716064453124,0.2902496337890625,1.4123687744140625
8.509000000000007,-8.1287841796875,-0.6990814208984375,4.31561279296875
8.518999999999998,-5.679232788085938,-0.5456573486328126,5.9264160156250005
8.52899999999999,-5.085873413085938,1.3178619384765626,6.561346435546875
8.53899999999998,-10.969073486328126,-0.416607666015625,6.883746337890625
8.548999999999971,-8.779415893554688,0.0312530517578125,5.837442016601563
8.558999999999962,-6.208740234375001,-0.042767333984375,6.474465942382813
8.56899999999996,-5.19847412109375,0.2552581787109375,7.612884521484376
8.578999999999994,-7.066479492187501,-1.0280609130859375,4.993908691406251
8.589999999999968,-9.860711669921876,-2.1157867431640627,2.6840240478515627
8.599999999999959,-11.174984741210938,-2.5881713867187504,2.371942138671875
8.610000000000007,-8.239141845703125,-0.09869384765625,5.147183227539063
8.619999999999997,-5.874526977539063,0.4616180419921875,7.2650634765625
8.629999999999988,-1.6653839111328126,0.1703216552734375,6.981243896484376
8.63999999999998,-6.949691772460938,-1.0099670410156252,2.0200836181640627
8.649999999999963,-16.703784179687503,1.508819580078125,3.38131103515625
8.659999999999961,-16.2635498046875,0.9760223388671876,10.331002807617187
8.670999999999985,-6.917691040039063,3.159100341796876,7.268801879882813
8.68,-0.7651763916015626,0.9091796875,6.037820434570313
8.689999999999998,-0.5004974365234376,1.13468017578125,5.643194580078125
8.699999999999989,-8.801547241210939,1.9160064697265624,1.8442291259765624
8.709999999999972,-13.256826782226565,2.2638275146484377,2.463308715820313
8.720999999999997,-15.693667602539064,-1.6525238037109375,4.479653930664063
8.730999999999987,-9.473114013671877,-2.440280151367188,7.031936645507813
8.740999999999978,-2.8663085937500004,-1.3594329833984375,7.895657348632813
8.75099999999997,-0.8848052978515626,-0.6413604736328126,11.2247802734375
8.760999999999967,-8.334396362304688,-1.0504913330078125,5.972174072265625
8.770999999999958,-10.792471313476565,-1.23756103515625,0.1215728759765625
8.780999999999999,-14.152099609375002,-0.37862548828125,-0.006280517578125
8.79099999999999,-10.979241943359376,1.1660827636718751,3.06728515625
8.80099999999998,-5.435189819335938,1.8950714111328129,9.08282470703125
8.810999999999972,-1.072024536132813,2.0843841552734377,10.316497802734377
8.820999999999962,-6.570916748046876,2.428915405273438,8.418734741210939
8.830999999999953,-9.181967163085938,2.1035247802734376,3.5111083984375004
8.841999999999977,-12.618307495117188,0.582891845703125,1.1303436279296877
8.850999999999999,-12.237139892578126,-0.8417388916015626,3.5214263916015627
8.86099999999999,-7.499835205078125,-1.5113616943359376,4.137066650390626
8.872000000000007,-3.6714111328125,-0.6883148193359375,4.723248291015626
8.881999999999998,-5.960958862304688,0.5653961181640625,6.928308105468751
8.891999999999989,-11.424859619140626,-0.2382110595703125,7.216763305664063
8.90199999999998,-8.788537597656251,-0.514105224609375,5.917892456054688
8.911999999999964,-5.080639648437501,-0.356793212890625,6.510504150390625
8.921999999999962,-4.9832916259765625,0.16927490234375,7.853189086914063
8.93199999999996,-7.408468627929688,-0.8399444580078126,5.7249908447265625
8.941999999999993,-10.860211181640626,-2.4188964843750003,1.873837280273437
8.951999999999998,-10.144381713867189,-1.956231689453125,1.003237915039063
8.961999999999989,-5.2938781738281255,1.1539703369140626,3.324786376953125
8.971999999999973,-3.972875976562501,0.8187103271484376,7.0712646484375
8.981999999999964,-14.485714721679688,1.3097869873046877,7.965640258789063
8.991999999999955,-14.752786254882814,1.0862304687500002,9.543096923828124
9.002000000000002,-6.062045288085938,1.7597412109375,6.360519409179688
9.011999999999992,-1.042117309570313,0.8381500244140626,2.745333862304688
9.022999999999968,-4.256695556640626,1.9806060791015627,5.703756713867188
9.03299999999996,-12.532025146484376,1.9466613769531247,2.120721435546875
9.043,-9.481637573242187,0.6231170654296876,2.007223510742188
9.052999999999995,-12.938912963867187,-3.238055419921875,6.3825012207031255
9.062999999999988,-8.278619384765626,-0.390289306640625,9.437823486328126
9.072999999999972,-3.704608154296875,-1.0753143310546875,9.049029541015626
9.082999999999965,-4.2744903564453125,-0.9266754150390626,7.099975585937501
9.092999999999954,-9.333746337890624,-1.9973541259765624,2.6868652343750004
9.103000000000002,-10.55067138671875,-0.9015533447265626,0.8931793212890625
9.113,-11.094235229492188,0.3458770751953125,2.556170654296875
9.122999999999983,-9.961648559570314,0.6802398681640626,6.5604492187500005
9.132999999999974,-6.122607421875,1.3854522705078125,7.251007080078126
9.142999999999963,-2.2771362304687504,1.989279174804688,8.707788085937501
9.15399999999999,-7.890573120117188,2.3913818359375,7.635165405273438
9.16399999999998,-9.482684326171876,1.9297637939453127,3.9845397949218753
9.173999999999973,-11.743820190429688,-0.2863616943359375,1.6712158203125
9.183999999999962,-9.830206298828124,0.29488525390625,2.373886108398437
9.19399999999996,-7.528546142578126,-1.577456665039063,5.259335327148438
9.203999999999994,-5.4049835205078125,0.1819854736328125,5.455975341796876
9.214,-7.410562133789063,1.1174835205078126,6.479849243164063
9.22399999999999,-10.726077270507814,-0.9105255126953126,6.625946044921876
9.235000000000008,-7.051675415039063,-0.0752166748046875,5.464199829101563
9.243999999999964,-4.710986328125,0.549993896484375,7.778271484375001
9.253999999999955,-6.715817260742188,-0.0136077880859375,7.304690551757813
9.264000000000005,-7.916293334960938,-1.861575317382813,4.332360839843751
9.273999999999994,-10.650860595703126,-2.4758697509765626,1.5406707763671876
9.283999999999985,-9.26824951171875,-1.6291961669921875,2.8869445800781253
9.293999999999976,-6.161337280273438,-1.0787536621093752,5.993856811523438
9.305,-1.57431640625,0.7408020019531251,5.029797363281251
9.314999999999998,-13.080075073242188,0.901104736328125,5.229727172851563
9.324999999999989,-16.850927734375002,-1.0920623779296876,8.954373168945313
9.334999999999972,-8.219253540039062,3.273345947265625,7.295867919921876
9.344999999999963,-3.2136810302734378,1.6535705566406251,6.02032470703125
9.354999999999954,-2.459271240234376,1.71488037109375,6.343771362304688
9.365000000000002,-8.494699096679689,1.7174224853515627,1.6994781494140627
9.375,-9.271240234375,1.977764892578125,0.9903778076171876
9.384999999999984,-14.059835815429688,1.3106842041015625,4.691845703125001
9.394999999999976,-10.871875,-1.0204345703125002,8.563186645507812
9.404999999999966,-4.939627075195313,-2.0054290771484378,8.356527709960938
9.414999999999957,-3.063247680664063,-1.4199951171875,8.989215087890626
9.425000000000004,-7.345962524414063,-1.885501098632813,5.659494018554688
9.434999999999995,-8.829061889648438,-1.49356689453125,1.9918212890625
9.445999999999962,-13.118356323242187,-0.8770294189453126,1.3694519042968751
9.455999999999952,-11.150161743164062,0.1649383544921875,2.78436279296875
9.466,-6.4423156738281255,1.941278076171875,6.213973999023438
9.476,-2.7706054687500004,2.172760009765625,10.2821044921875
9.48599999999999,-6.7386962890625,2.8328125,9.849945068359377
9.495999999999974,-8.098577880859375,2.2816223144531254,4.22708740234375
9.505999999999965,-10.578933715820312,1.3335632324218751,1.4917724609375
9.515999999999956,-12.184503173828126,-0.5809478759765625,3.1922973632812504
9.526000000000003,-8.242282104492189,-0.7750457763671875,4.116580200195313
9.535999999999994,-5.463601684570313,-0.8925811767578126,3.655859375
9.545999999999983,-5.163931274414063,0.54371337890625,6.353042602539063
9.555999999999976,-11.222686767578123,-1.011761474609375,7.173696899414063
9.565999999999969,-8.538662719726563,-0.0294586181640625,6.723144531250001
9.575999999999958,-6.464297485351563,-0.468048095703125,6.865802001953125
9.586000000000006,-4.932598876953126,-0.2208648681640625,7.4684326171875
9.596999999999973,-6.45517578125,-0.9311614990234376,5.6512695312500005
9.606999999999964,-9.608892822265624,-1.6920013427734375,2.64678955078125
9.616999999999956,-11.897244262695311,-2.778829956054688,2.053579711914063
9.627000000000002,-7.230969238281251,0.4170562744140625,3.2491210937500004
9.636999999999992,-4.44840087890625,1.3483673095703126,6.2876953125
9.646999999999984,-4.691696166992188,1.2626831054687502,7.093395996093751
9.656999999999975,-13.022653198242187,0.91217041015625,4.166525268554688
9.666999999999966,-14.6653076171875,1.1330352783203126,7.691540527343751
9.676999999999955,-9.015682983398438,3.0062744140625,9.196023559570314
9.687000000000005,-3.576007080078125,1.804751586914063,5.051629638671876
9.696999999999996,-1.4554351806640626,1.0199859619140623,4.355239868164063
9.706999999999988,-9.623696899414064,0.7732513427734375,0.956732177734375
9.716999999999976,-10.3084228515625,-1.5776062011718752,3.040518188476563
9.726999999999968,-12.132913208007814,-1.8031066894531247,6.404782104492188
9.738,-10.467828369140626,-0.6044250488281251,8.770294189453125
9.747999999999983,-6.808230590820313,-2.7526611328125004,8.212823486328126
9.757999999999974,-2.381512451171876,-0.21353759765625,5.984136962890625
9.767999999999963,-6.866101074218751,-0.976171875,5.476162719726563
9.777999999999956,-10.087109375,0.389990234375,3.0997344970703127
9.78899999999998,-11.631219482421876,0.314324951171875,1.4007049560546876
9.797999999999996,-10.39978942871094,0.4400848388671875,3.42796630859375
9.807999999999986,-7.32607421875,1.308740234375,7.155752563476563
9.817999999999977,-4.258190917968751,2.560955810546876,9.94654541015625
9.827999999999967,-5.393618774414063,2.3605773925781253,8.459558105468751
9.837999999999958,-8.161831665039063,0.9555358886718752,4.172357177734376
9.848000000000006,-11.303585815429688,-0.8372528076171876,1.546502685546875
9.857999999999995,-10.825518798828126,0.0490478515625,2.7004730224609377
9.867999999999988,-9.0822265625,-1.6839263916015623,5.476910400390626
9.87799999999998,-5.9926605224609375,-0.6285003662109375,5.14703369140625
9.889000000000005,-5.401095581054688,0.5760131835937501,5.825778198242188
9.898999999999994,-10.306179809570311,-0.23267822265625,6.432147216796875
9.908999999999985,-8.818743896484376,0.35709228515625,6.152215576171876
9.918999999999976,-5.525509643554688,0.84876708984375,6.220254516601563
9.928999999999968,-5.33604736328125,0.7739990234375,7.26207275390625
9.938999999999956,-7.583874511718751,-0.709698486328125,5.8187500000000005
9.949000000000003,-10.431790161132811,-1.3091888427734375,3.113641357421875
9.958999999999996,-10.472763061523438,-2.0912628173828125,2.484393310546875
9.968999999999989,-8.30762939453125,-0.48330078125,4.807736206054688
9.978999999999978,-5.522518920898438,0.5344421386718751,6.452484130859376
9.988999999999969,-2.4486541748046875,0.7412506103515626,6.199618530273438
9.99899999999996,-9.26346435546875,-1.634130859375,2.9603668212890626
10.009000000000007,-16.040142822265626,0.9366943359375,5.586221313476563
10.018999999999998,-12.582568359375,1.8922302246093752,9.374719238281251
10.029999999999966,-5.823236083984376,2.7897460937500003,6.55985107421875
10.039999999999957,-0.6751556396484375,0.9096282958984376,5.551229858398438
10.050000000000004,-5.500088500976563,1.4174530029296877,3.60142822265625
10.059999999999995,-9.087460327148438,1.47083740234375,2.8586822509765626
10.069999999999986,-13.104898071289064,-0.6539215087890625,3.9120147705078128
10.079999999999975,-13.460794067382814,-0.9114227294921876,5.951239013671875
10.089999999999968,-7.0712646484375,-1.7823211669921877,7.180874633789063
10.09999999999996,-3.151025390625,-0.9975555419921877,8.138653564453126
10.110000000000008,-4.150823974609375,-0.13458251953125,8.814257812500001
10.119999999999996,-9.2509033203125,-0.4571319580078125,4.235012817382813
10.129999999999988,-11.055206298828123,-1.160400390625,0.070281982421875
10.13999999999998,-12.292468261718753,-0.036187744140625,1.3434326171875002
10.149999999999965,-8.579635620117188,0.8405426025390625,5.924172973632813
10.160999999999994,-5.438031005859376,2.092010498046875,9.118115234375
10.170999999999983,-2.9004028320312503,2.104721069335937,9.445449829101562
10.180999999999976,-7.822235107421876,1.9360443115234376,6.159393310546876
10.190999999999969,-9.696820068359376,0.0913665771484375,2.75804443359375
10.200999999999958,-12.188540649414064,0.459375,2.4187469482421875
10.211000000000006,-10.467379760742189,-0.9520965576171876,3.9052856445312494
10.220999999999997,-6.259133911132813,-0.6724639892578126,4.411465454101563
10.230999999999987,-4.710238647460938,-0.3291290283203125,5.250213623046875
10.240999999999978,-8.18082275390625,0.9969573974609376,7.142593383789063
10.25099999999997,-10.189093017578124,-0.093011474609375,6.5365234375000005
10.260999999999967,-7.650717163085938,0.0148040771484375,5.899798583984375
10.270999999999958,-5.1896514892578125,-0.1792938232421875,6.885092163085938
10.281,-6.1611877441406255,-0.0155517578125,6.911410522460938
10.29099999999999,-8.676834106445312,-1.672113037109375,4.58836669921875
10.301999999999955,-10.699160766601564,-1.9554840087890624,1.82972412109375
10.312000000000005,-8.927008056640625,-1.2737487792968751,2.71019287109375
10.321999999999996,-5.308084106445313,1.0842864990234375,5.1238555908203125
10.331999999999988,-2.803802490234375,1.196588134765625,7.153359985351563
10.341999999999976,-12.567614746093753,-0.7185211181640625,5.169464111328125
10.351999999999968,-16.541238403320314,0.8713470458984376,7.8368896484375
10.36199999999996,-9.843963623046877,1.9743255615234376,9.08282470703125
10.372000000000009,-2.4743743896484376,1.56295166015625,4.42626953125
10.381999999999998,-0.448309326171875,0.676800537109375,3.777880859375
10.391999999999989,-9.814804077148438,1.9348480224609377,2.559161376953125
10.40199999999998,-9.865048217773438,1.2087005615234376,1.5807464599609375
10.411999999999964,-12.503314208984376,-1.7033660888671875,5.794076538085938
10.421999999999962,-11.948684692382812,-0.8351593017578126,9.221743774414064
10.432999999999986,-5.83848876953125,-0.554180908203125,9.416589355468751
10.442999999999977,-2.502337646484375,-1.26387939453125,7.099078369140625
10.452999999999967,-5.9149017333984375,-1.1907562255859376,5.06090087890625
10.462999999999958,-10.24427185058594,-0.8955718994140626,1.8443786621093752
10.473000000000006,-11.733502197265626,0.0967498779296875,0.5833404541015625
10.482999999999995,-11.617761230468751,-0.6032287597656251,4.036129760742188
10.492999999999988,-7.662081909179688,0.7128387451171876,7.129135131835938
10.50299999999998,-3.044406127929688,1.8802673339843752,10.047183227539064
10.51299999999997,-4.885494995117188,2.37762451171875,9.719549560546875
10.522999999999968,-8.439669799804689,2.129843139648438,4.913458251953125
10.53299999999996,-11.493646240234376,-0.533544921875,1.0609588623046875
10.543,-11.419775390625,0.6226684570312501,1.18253173828125
10.552999999999995,-8.94345703125,-0.9159088134765626,4.569525146484375
10.562999999999988,-6.149822998046876,-0.6047241210937501,5.975314331054688
10.572999999999972,-4.448550415039063,1.08204345703125,5.887387084960938
10.582999999999965,-10.11761474609375,0.294586181640625,6.989318847656251
10.592999999999954,-9.455767822265626,-0.039178466796875,6.0639892578125005
10.603999999999978,-6.485830688476563,0.5426666259765626,6.319845581054688
10.613999999999969,-5.01962890625,0.11544189453125,7.200015258789063
10.62399999999996,-6.731369018554688,-0.4355987548828125,5.630932617187501
10.634000000000007,-10.066323852539064,-2.5014404296875004,3.2802246093750003
10.643999999999998,-10.546932983398438,-1.9444183349609376,2.0332427978515626
10.65399999999999,-7.705148315429688,-1.6544677734375002,4.401745605468751
10.66399999999998,-3.4601165771484377,0.037384033203125,6.405230712890625
10.673999999999973,-4.8677001953125005,0.6799407958984376,4.970281982421875
10.683999999999962,-16.15932312011719,0.3404937744140625,6.286050415039063
10.69399999999996,-14.544781494140626,-0.3799713134765625,8.251553344726563
10.703999999999994,-6.012399291992188,3.098089599609376,5.720803833007813
10.714,-1.7443389892578127,1.3838073730468752,6.938925170898438
10.72399999999999,-6.382052612304688,1.8662109375,5.39287109375
10.733999999999972,-5.877816772460938,1.5101654052734377,1.2622344970703123
10.744999999999996,-11.009149169921876,2.113543701171875,0.551788330078125
10.754999999999988,-14.6772705078125,0.134283447265625,6.933392333984376
10.76499999999998,-9.887030029296875,-1.4092285156250002,9.296511840820314
10.774999999999965,-3.874630737304688,-1.4362945556640625,7.433441162109376
10.78499999999996,-2.77838134765625,-1.42896728515625,8.807528686523439
10.79499999999996,-8.001977539062501,-1.75794677734375,4.290640258789063
10.805,-9.59423828125,-1.073968505859375,2.039971923828125
10.814999999999998,-13.810708618164064,-1.0174438476562502,0.88944091796875
10.824999999999989,-10.289730834960938,0.6482391357421875,3.324337768554688
10.836999999999987,-5.414254760742188,1.7486755371093752,7.467535400390625
10.844999999999963,-2.8091857910156253,2.3224456787109378,11.605947875976565
10.854999999999954,-7.585818481445313,2.8124755859375004,9.078488159179688
10.865000000000002,-7.796215820312501,1.9707366943359377,2.6998748779296875
10.875,-11.675332641601564,0.7702606201171875,0.5603118896484376
10.884999999999984,-12.046481323242189,-0.5957519531250001,3.686962890625
10.895999999999958,-8.024707031250001,-1.149783325195313,4.329669189453125
10.906,-4.172207641601563,0.051739501953125,4.23486328125
10.91599999999999,-6.09927978515625,-0.05263671875,7.17593994140625
10.92599999999998,-10.971914672851565,-0.2480804443359375,7.38768310546875
10.937000000000005,-8.675189208984376,-0.24464111328125,6.315060424804688
10.945999999999962,-5.811273193359376,-0.29727783203125,6.840530395507813
10.955999999999952,-5.0785461425781255,-0.3901397705078125,6.804791259765626
10.966,-6.832305908203126,-0.9322082519531252,5.2505126953125005
10.976,-10.66177673339844,-2.382559204101563,2.423532104492188
10.98599999999999,-10.137503051757813,-1.5759613037109377,1.6559631347656252
10.995999999999974,-5.3940673828125005,0.43963623046875,3.228933715820313
11.005999999999965,-3.3316650390625004,0.9812561035156252,6.598580932617188
11.015999999999956,-14.48466796875,0.2917449951171875,7.731167602539063
11.026000000000003,-15.31055603027344,1.6662811279296876,9.558947753906253
11.036999999999964,-7.23037109375,1.6060180664062502,7.389477539062501
11.046999999999962,-1.40264892578125,1.0896697998046876,3.380413818359376
11.05699999999996,-2.760736083984375,1.6187286376953127,4.561001586914063
11.066999999999991,-11.769390869140626,2.34951171875,2.3800170898437503
11.076999999999998,-9.829159545898438,1.0427154541015626,1.7854614257812502
11.086999999999987,-12.48731384277344,-2.8975616455078126,5.647979736328125
11.096999999999973,-9.742279052734377,-0.404644775390625,9.703549194335938
11.106999999999964,-4.4898223876953125,-0.8212524414062501,9.783551025390626
11.116999999999956,-3.673056030273438,-1.0108642578125,7.2148193359375
11.127000000000002,-7.839581298828126,-1.925875854492188,3.2868041992187504
11.136999999999992,-10.58999938964844,-0.7168762207031251,0.6123504638671875
11.146999999999984,-11.523703002929688,-0.06280517578125,2.0480468750000003
11.156999999999975,-10.24307556152344,0.169573974609375,5.563641357421876
11.168,-6.787295532226563,1.407135009765625,7.377813720703125
11.177999999999995,-2.6656311035156253,2.127899169921875,9.331204223632811
11.187999999999988,-6.763519287109376,2.464654541015625,8.490960693359376
11.197999999999972,-9.032281494140626,1.6224670410156252,4.446755981445313
11.207999999999965,-11.441458129882813,-0.23267822265625,1.447509765625
11.217999999999954,-10.635906982421876,0.079254150390625,1.7017211914062502
11.228000000000002,-8.081381225585938,-0.9218902587890626,4.7675109863281255
11.238,-5.7305236816406255,-0.4753753662109375,5.7828613281250005
11.247999999999983,-5.9730712890625,1.1780456542968751,6.590057373046876
11.257999999999974,-10.471267700195312,-0.3529052734375,6.569271850585938
11.267999999999963,-8.234506225585939,-0.1628448486328125,5.770001220703126
11.277999999999956,-5.782412719726563,0.31761474609375,6.891970825195313
11.288000000000004,-6.007315063476563,0.258099365234375,7.33385009765625
11.297999999999996,-7.122854614257813,-1.2288879394531251,4.901345825195313
11.307999999999986,-10.259375,-2.2310791015625,2.4081298828125
11.31899999999996,-10.38064880371094,-1.7404510498046877,2.609854125976563
11.328999999999994,-7.9086669921875,-0.726446533203125,5.626446533203126
11.339,-4.010260009765625,0.198883056640625,6.874774169921875
11.34899999999999,-2.1521240234375,0.256005859375,4.707546997070313
11.358999999999972,-14.52235107421875,-0.3345123291015625,3.4119659423828126
11.368999999999964,-16.556939697265626,0.5181427001953125,8.136111450195314
11.378999999999955,-9.56836853027344,3.2316253662109378,8.211178588867188
11.389000000000005,-3.1143890380859376,2.174853515625,6.010305786132813
11.398999999999994,-1.417901611328125,1.3365539550781251,6.833651733398438
11.408999999999985,-6.685610961914063,1.5279602050781251,1.67958984375
11.418999999999976,-9.594686889648438,2.162741088867188,1.825686645507813
11.428999999999968,-15.545776367187502,-0.3081939697265625,4.075457763671875
11.438999999999956,-11.424710083007811,-1.35958251953125,7.407720947265625
11.449000000000003,-6.1620849609375,-2.6176300048828125,7.678829956054688
11.459999999999972,-0.8064483642578125,-0.201873779296875,9.671697998046875
11.469999999999963,-6.3525939941406255,-1.2728515625,7.4397216796875005
11.479999999999954,-9.061441040039064,-0.9965087890625,2.6192749023437503
11.490000000000002,-13.965478515625,-1.8307708740234376,-0.185723876953125
11.5,-11.506057739257812,0.8740386962890626,1.6429534912109376
11.509999999999984,-7.086965942382813,1.4928192138671876,6.358724975585938
11.519999999999976,-2.871392822265625,2.2222564697265628,10.893856811523438
11.529999999999966,-5.297915649414063,2.385400390625,9.644033813476565
11.539999999999957,-7.343719482421876,2.059112548828125,4.89342041015625
11.550000000000004,-11.4831787109375,1.1503814697265626,1.4395843505859376
11.559999999999995,-12.525445556640626,-0.0961517333984375,3.0393218994140625
11.569999999999986,-9.362307739257814,-0.9805084228515626,3.957473754882813
11.579999999999975,-4.885943603515625,-0.6914550781250001,3.4659484863281254
11.589999999999968,-4.8875885009765625,0.01435546875,6.315060424804688
11.601,-10.230215454101565,0.354400634765625,7.298709106445313
11.61099999999999,-9.403430175781253,-0.4131683349609375,7.195080566406251
11.620999999999974,-6.273190307617188,-0.682781982421875,6.154608154296875
11.630999999999965,-4.567431640625,-0.006878662109375,7.432095336914063
11.640999999999956,-6.265264892578125,-0.9018524169921877,6.233712768554688
11.651000000000003,-9.373373413085938,-2.2073028564453128,3.027508544921876
11.660999999999994,-8.646627807617188,-1.9524932861328128,0.173760986328125
11.670999999999983,-6.6157775878906255,-0.6945953369140625,0.7702606201171875
11.680999999999976,-12.5024169921875,-1.2285888671875,7.455722045898438
11.690999999999969,-14.659027099609377,3.864013671875,12.463986206054688
11.700999999999958,-8.283554077148438,1.684075927734375,9.970770263671875
11.711000000000006,0.2537628173828125,0.1425079345703125,3.38609619140625
11.720999999999997,-2.2354156494140627,0.9072357177734376,1.085931396484375
11.730999999999987,-12.271234130859376,3.4254241943359376,6.0689239501953125
11.741999999999956,-12.308468627929688,2.980255126953125,3.934744262695313
11.752000000000002,-11.098272705078124,0.21712646484375,1.6973846435546875
11.761999999999992,-9.513040161132814,-2.8509063720703125,7.624697875976563
11.771999999999984,-3.523968505859376,-0.5030395507812501,9.615771484375
11.781999999999975,-3.812872314453125,-0.6652862548828126,10.108642578125
11.791999999999966,-7.939321899414063,-1.9886810302734377,4.870242309570313
11.801999999999955,-11.886627197265623,-2.5983398437500003,-0.2893524169921875
11.812000000000005,-10.270889282226562,-1.4291168212890626,0.1197784423828125
11.821999999999996,-10.97400817871094,-0.206060791015625,7.066180419921875
11.831999999999988,-7.079489135742188,1.5639984130859377,8.41888427734375
11.841999999999976,-2.1600494384765625,1.863519287109375,7.123751831054688
11.851999999999968,-6.194833374023438,2.2252471923828128,7.691241455078125
11.86199999999996,-9.911105346679689,2.626303100585938,5.243634033203126
11.872000000000009,-11.337380981445314,1.38948974609375,3.20067138671875
11.881999999999998,-10.374069213867188,0.9368438720703126,2.0359344482421875
11.892999999999963,-8.122952270507813,-0.5710784912109376,4.439727783203125
11.902999999999956,-5.657998657226563,-0.9954620361328126,5.4443115234375
11.913000000000004,-5.2714477539062505,1.72803955078125,5.56334228515625
11.922999999999996,-11.158087158203124,-0.5854339599609375,7.017581176757813
11.932999999999986,-9.190640258789063,-1.335357666015625,5.3964599609375
11.942999999999977,-5.517135620117188,-0.1263580322265625,5.791983032226563
11.953999999999994,-6.067428588867188,-0.3031097412109375,8.382846069335939
11.962999999999958,-7.30513916015625,-0.868206787109375,6.079541015625001
11.973000000000006,-8.957812500000001,-2.5314971923828127,2.6912017822265626
11.982999999999995,-10.200607299804688,-1.2906463623046875,1.9160064697265624
11.992999999999988,-8.689993286132813,-0.7225585937500001,5.627044677734375
12.00299999999998,-5.616726684570313,0.7602416992187501,6.954925537109376
12.01299999999997,-1.1177825927734375,0.7980743408203126,5.540164184570313
12.022999999999968,-10.979840087890626,-0.6449493408203125,2.122366333007813
12.03299999999996,-17.484661865234376,0.8568420410156251,5.253054809570313
12.043999999999976,-12.245364379882814,2.602825927734376,10.027145385742188
12.053999999999968,-5.067779541015625,2.3529510498046875,6.448446655273438
12.063999999999956,-0.0931610107421875,0.890936279296875,6.8236328125000005
12.074000000000003,-4.173104858398438,1.5675872802734376,2.9729278564453128
12.083999999999996,-10.967877197265626,2.1856201171875003,2.32259521484375
12.093999999999989,-13.668798828125,-0.661846923828125,3.8955657958984378
12.103999999999978,-13.283294677734377,-1.24952392578125,4.969982910156251
12.113999999999969,-6.977655029296876,-2.3951202392578126,7.5982299804687505
12.12399999999996,-2.1092071533203125,-1.1150909423828126,9.077590942382812
12.134000000000007,-4.517636108398438,-0.6282012939453125,8.769097900390626
12.143999999999998,-8.930596923828126,-0.639715576171875,3.831265258789063
12.15399999999999,-11.870327758789063,-0.6024810791015626,0.14176025390625
12.16399999999998,-12.996633911132813,-0.1945465087890625,1.3109832763671876
12.175000000000004,-8.127737426757813,1.9655029296875,5.4184417724609375
12.183999999999962,-4.250714111328126,1.9620635986328123,8.94525146484375
12.194999999999986,-3.395068359375,2.160797119140625,9.22877197265625
12.204999999999975,-7.777822875976563,2.1341796875,5.7074951171875
12.214999999999968,-10.433584594726565,0.186920166015625,3.648532104492188
12.22499999999996,-12.536212158203126,0.4924224853515625,3.3837036132812504
12.235000000000008,-9.763513183593751,-0.91456298828125,3.906631469726563
12.244999999999996,-5.996249389648438,-1.747479248046875,3.15880126953125
12.254999999999988,-4.579843139648438,-0.0411224365234375,4.774539184570313
12.26499999999998,-9.677081298828126,0.75067138671875,7.333251953125001
12.274999999999965,-9.131124877929688,-0.2380615234375,7.468731689453126
12.28499999999996,-6.58616943359375,-0.0195892333984375,6.093447875976563
12.29499999999996,-5.101724243164063,-0.16807861328125,7.350598144531251
12.305,-6.833352661132813,-0.160302734375,7.467385864257813
12.315999999999969,-8.774331665039064,-1.6686737060546877,4.0482421875000005
12.325999999999958,-9.908563232421876,-2.2252471923828128,1.8083404541015624
12.336000000000006,-6.9821411132812505,-0.0596649169921875,1.327880859375
12.345999999999997,-4.505224609375,-0.016748046875,5.09320068359375
12.355999999999987,-12.871173095703126,-0.171966552734375,6.535626220703126
12.365999999999978,-15.113766479492188,2.4130645751953126,9.833197021484375
12.37599999999997,-7.967434692382813,1.0352386474609376,9.062786865234376
12.385999999999967,-1.1272033691406251,0.3793731689453125,3.065939331054688
12.395999999999958,-2.328726196289063,1.7337219238281252,4.893869018554688
12.406,-13.32292175292969,2.570675659179688,3.4179473876953126
12.41599999999999,-9.795364379882812,2.0260650634765627,1.909127807617188
12.42599999999998,-11.016925048828126,-1.5085205078125,4.355987548828125
12.435999999999972,-10.025201416015626,-1.42896728515625,8.280413818359376
12.445999999999962,-4.4808502197265625,-0.584686279296875,10.087258911132814
12.456999999999988,-4.086972045898438,-1.03778076171875,6.73929443359375
12.466999999999976,-7.889526367187501,-2.4082794189453125,4.902841186523438
12.476999999999968,-10.528091430664062,-1.4431732177734375,1.610354614257813
12.48699999999996,-10.558447265625,0.469244384765625,1.975521850585937
12.497000000000009,-10.683758544921876,-0.680389404296875,5.402890014648438
12.506999999999998,-6.626544189453125,1.2535614013671876,5.649026489257813
12.516999999999989,-3.4448638916015626,1.94576416015625,7.677932739257813
12.52699999999998,-6.317901611328126,2.3734375,6.78953857421875
12.536999999999964,-8.746667480468751,1.9788116455078129,6.766360473632813
12.546999999999962,-12.052911376953126,1.2589447021484377,4.738650512695313
12.55699999999996,-10.528689575195314,1.2415985107421876,3.720758056640625
12.566999999999991,-8.304040527343751,-1.738955688476563,4.446456909179688
12.576999999999998,-4.710537719726563,-0.1042266845703125,2.895468139648438
12.586999999999987,-6.072512817382813,0.8294769287109376,4.090411376953125
12.596999999999973,-10.134213256835938,-1.2167755126953126,7.080087280273438
12.606999999999964,-9.38189697265625,0.4493560791015625,8.982635498046875
12.617999999999988,-6.11124267578125,0.7002777099609375,9.324026489257813
12.62799999999998,-6.162384033203126,-0.44202880859375,8.900390625
12.63799999999997,-6.597982788085938,-1.0657440185546876,2.168572998046875
12.647999999999968,-8.045642089843751,-2.129843139648438,0.549993896484375
12.65799999999996,-11.566021728515626,-2.6731079101562503,4.339089965820313
12.668,-8.213272094726562,-0.0695343017578125,6.330014038085938
12.677999999999995,-3.765768432617188,-0.2005279541015625,5.9792022705078125
12.687999999999988,-3.9274169921875,-0.05443115234375,1.7794799804687502
12.697999999999972,-15.654788208007814,0.0656463623046875,4.7365570068359375
12.707999999999965,-14.591735839843752,1.4536407470703123,9.584817504882814
12.717999999999954,-6.996047973632813,3.4273681640625004,7.1490234375
12.728000000000002,-1.9408294677734377,0.9915740966796877,4.8389892578125
12.738,-3.261383056640625,1.6585052490234375,4.499093627929688
12.74899999999996,-9.704446411132814,2.398410034179688,4.260882568359375
12.759000000000007,-11.442953491210938,2.093206787109376,3.505874633789063
12.768999999999998,-13.490103149414065,-1.6848236083984376,5.003628540039063
12.77899999999999,-8.379855346679689,-1.6931976318359376,6.585421752929688
12.78899999999998,-4.147683715820313,-1.9172027587890623,7.216763305664063
12.798999999999973,-4.004876708984376,-1.3957702636718752,9.372177124023438
12.808999999999962,-8.786593627929689,-1.2297851562500002,4.732220458984376
12.81899999999996,-9.463543701171876,-1.0268646240234376,1.329226684570313
12.828999999999994,-12.861453247070314,-0.901104736328125,1.916305541992188
12.839,-9.669155883789063,1.55338134765625,5.295822143554688
12.84899999999999,-5.985333251953126,2.0749633789062503,7.878012084960938
12.858999999999972,-2.412017822265625,2.051486206054688,8.863604736328126
12.868999999999964,-7.766159057617188,2.338446044921876,6.74527587890625
12.878999999999955,-8.645431518554688,1.905538940429688,3.2939819335937504
12.889000000000005,-12.027789306640626,0.6358276367187501,2.450897216796875
12.899999999999965,-10.746414184570312,-0.7472320556640626,3.686514282226563
12.90999999999996,-7.22139892578125,-0.7956817626953125,4.308584594726563
12.91999999999996,-5.187258911132813,-0.4945159912109375,5.039816284179688
12.93,-7.951882934570313,0.76263427734375,7.150668334960938
12.939999999999998,-9.820785522460938,-0.60113525390625,6.7147705078125
12.949999999999989,-6.998141479492188,-0.4275238037109375,5.836993408203125
12.959999999999972,-5.145089721679688,-0.299969482421875,6.957766723632813
12.969999999999963,-6.66153564453125,-0.2332763671875,7.385589599609376
12.980999999999987,-7.973117065429688,-1.831369018554688,4.328024291992188
12.990000000000002,-10.015032958984376,-2.117132568359376,1.890435791015625
13.0,-7.914349365234376,-0.8227478027343751,1.7672180175781251
13.009999999999984,-4.298565673828126,1.26746826171875,4.020578002929688
13.019999999999976,-10.616168212890626,-0.9509002685546876,6.878213500976563
13.029999999999966,-15.555645751953126,2.0990386962890626,10.08232421875
13.039999999999957,-10.885333251953126,1.9824005126953128,9.519021606445314
13.051999999999955,-1.61080322265625,0.8439819335937501,4.424923706054688
13.060999999999972,-0.1658355712890625,0.4266265869140625,1.897164916992188
13.070999999999962,-10.520166015625,2.587274169921875,3.9075286865234378
13.080999999999952,-11.408560180664065,2.4130645751953126,2.9430206298828128
13.091,-11.628079223632811,0.008673095703125,3.6839721679687503
13.101,-11.848495483398438,-3.4082275390625,8.68446044921875
13.11099999999999,-4.892822265625,-0.009271240234375,9.311764526367188
13.120999999999974,-2.4504486083984376,-0.5776580810546875,8.39794921875
13.130999999999965,-7.19627685546875,-1.947409057617188,5.670260620117188
13.140999999999956,-10.910903930664062,-1.7310302734375,0.8133270263671876
13.151000000000003,-10.396649169921876,-0.551190185546875,-0.278436279296875
13.160999999999994,-11.26126708984375,-0.29608154296875,4.730426025390625
13.171999999999962,-8.697320556640626,0.8735900878906251,9.146078491210938
13.180999999999976,-3.5589599609375004,2.0635986328125,8.044296264648438
13.190999999999969,-3.3675537109375004,1.9664001464843752,8.40811767578125
13.201999999999998,-9.701904296875,2.529104614257813,5.493658447265625
13.211999999999987,-10.565176391601565,1.0059295654296876,2.4310089111328126
13.221999999999973,-11.2774169921875,0.283221435546875,1.6484863281250002
13.231999999999964,-8.977999877929689,-0.3312225341796875,3.7173187255859377
13.241999999999956,-6.458465576171876,-1.0204345703125002,5.336495971679688
13.252000000000002,-4.879364013671875,1.2990203857421876,5.778225708007813
13.261999999999992,-9.934432983398438,0.5836395263671875,7.414300537109375
13.271999999999984,-9.6576416015625,-0.8429351806640626,6.0823822021484375
13.281999999999975,-5.212081909179688,0.3470733642578125,5.797366333007813
13.291999999999966,-5.560800170898438,-0.2062103271484375,7.997940063476563
13.301999999999955,-7.526901245117188,-0.7494750976562501,6.103765869140625
13.312000000000005,-9.264212036132813,-2.4621124267578125,2.9919189453125004
13.321999999999996,-10.998831176757813,-2.196237182617188,1.5577178955078126
13.332999999999965,-9.212173461914062,-1.158306884765625,4.687808227539063
13.342999999999954,-6.952981567382813,0.92413330078125,6.884045410156251
13.353000000000002,-2.7789794921875,1.1692230224609377,7.192687988281251
13.363,-3.888687133789063,-1.185223388671875,4.268060302734376
13.372999999999983,-12.047229003906253,0.527862548828125,1.0187896728515626
13.382999999999974,-17.838165283203125,2.122665405273437,7.495050048828125
13.392999999999963,-12.024200439453123,2.4670471191406254,10.58521423339844
13.402999999999956,-3.5123046875000004,2.221209716796875,4.828372192382813
13.413000000000004,0.04605712890625,0.3548492431640625,6.570767211914063
13.422999999999996,-2.6117980957031253,1.6285980224609375,3.570623779296876
13.432999999999986,-13.955010986328126,1.6598510742187502,3.2174194335937503
13.442999999999977,-13.647415161132814,-1.4955108642578123,2.6080596923828128
13.454999999999975,-13.256677246093751,-1.756900024414063,4.637564086914063
13.462999999999958,-6.318499755859375,-2.2461822509765628,7.910910034179688
13.47399999999999,-0.9486572265625,-0.1206756591796875,10.311114501953126
13.483999999999972,-5.168865966796876,-0.729736328125,9.165817260742188
13.493999999999964,-8.980691528320314,-0.411224365234375,2.3904846191406253
13.503999999999955,-12.732254028320314,-0.4472625732421875,-0.5647979736328126
13.514000000000005,-12.6244384765625,1.2224578857421875,0.8082427978515626
13.523999999999994,-8.988018798828126,0.7805786132812501,7.450936889648438
13.533999999999985,-2.618826293945313,2.121917724609375,8.429202270507814
13.543999999999976,-2.917449951171875,1.905987548828125,9.968527221679688
13.555,-8.763415527343751,2.3068939208984376,6.3295654296875
13.563999999999956,-10.718301391601564,0.741400146484375,2.135076904296876
13.574000000000003,-12.213961791992189,-0.3644195556640625,2.146441650390625
13.583999999999996,-10.265954589843751,-1.6384674072265626,4.3014068603515625
13.593999999999989,-5.9219299316406255,-1.636822509765625,4.014447021484376
13.603999999999978,-3.9996429443359376,0.52457275390625,5.171408081054688
13.613999999999969,-9.900039672851562,0.209051513671875,7.202557373046876
13.625,-9.697866821289065,-0.2726043701171875,6.94505615234375
13.634999999999984,-5.93778076171875,0.1873687744140625,5.799908447265626
13.644999999999976,-4.780670166015625,0.3225494384765625,8.06717529296875
13.654999999999966,-7.224090576171876,-0.39537353515625,6.985879516601563
13.664999999999957,-9.087759399414065,-1.3634704589843751,3.3943206787109377
13.675000000000004,-11.52908630371094,-2.757745361328125,0.7726531982421876
13.684999999999995,-7.858871459960938,-0.4699920654296875,2.343231201171875
13.694999999999986,-4.537225341796876,1.248477172851563,4.994357299804688
13.704999999999975,-5.639456176757813,1.1919525146484375,7.177584838867188
13.714999999999968,-15.34524841308594,0.5209838867187501,7.6789794921875005
13.72499999999996,-12.488360595703126,1.380517578125,8.823379516601562
13.735000000000008,-5.22239990234375,2.523870849609376,6.591104125976563
13.745999999999974,-1.355694580078125,1.155316162109375,4.555319213867188
13.755999999999965,-7.905526733398438,2.0360839843750003,3.435443115234375
13.76499999999998,-8.903231811523439,1.0140045166015623,0.2483795166015625
13.776000000000003,-11.669949340820311,-1.8095367431640623,2.973825073242188
13.785999999999994,-11.943600463867188,-1.7669189453125,8.496792602539063
13.795999999999983,-7.546340942382813,-0.206060791015625,9.978546142578123
13.805999999999976,-3.961810302734375,-1.2353179931640623,8.546737670898438
13.815999999999969,-5.1787353515625005,-1.2372619628906252,5.965594482421875
13.825999999999958,-9.096282958984377,-1.0277618408203126,2.4909729003906254
13.836000000000006,-10.818191528320312,-0.062506103515625,1.1481384277343751
13.845999999999997,-11.690286254882814,-0.0680389404296875,2.529403686523437
13.855999999999987,-8.753097534179688,0.8291778564453126,5.864059448242188
13.865999999999978,-4.608255004882813,1.6454956054687502,8.569766235351564
13.87599999999997,-4.356585693359375,2.310333251953125,10.451828002929688
13.885999999999967,-8.045343017578126,2.3089874267578128,6.478652954101563
13.895999999999958,-9.16058349609375,0.260491943359375,2.696585083007813
13.906,-12.0478271484375,-0.5812469482421876,1.160699462890625
13.916999999999966,-9.498834228515626,0.118731689453125,3.061453247070313
13.926999999999955,-7.1017700195312505,-1.2263458251953123,5.403338623046875
13.937000000000005,-5.313018798828125,0.438739013671875,5.830862426757813
13.946999999999996,-8.138803100585939,0.4326080322265625,6.916046142578126
13.956999999999988,-10.198962402343753,-0.23267822265625,6.219955444335938
13.966999999999976,-7.459161376953125,0.3614288330078125,5.753851318359375
13.976999999999968,-5.257092285156251,0.438140869140625,7.183267211914063
13.98699999999996,-6.153860473632813,0.36845703125,6.293975830078126
13.997000000000009,-8.080783081054689,-1.5152496337890626,4.368548583984375
14.006999999999998,-11.1123291015625,-2.196237182617188,2.310333251953125
14.016999999999989,-9.762017822265626,-1.0645477294921877,3.3540954589843754
14.02699999999998,-7.535873413085938,-0.41571044921875,6.636563110351563
14.038000000000004,-2.774493408203125,0.3503631591796875,7.1660705566406255
14.047999999999996,-3.4782104492187504,-0.96361083984375,4.200769042968751
14.057999999999986,-13.42460632324219,0.5386291503906251,1.92423095703125
14.067999999999977,-18.1465087890625,-0.3318206787109375,8.523709106445313
14.077999999999967,-9.66407165527344,3.3959655761718754,8.660983276367189
14.087999999999958,-2.5947509765625,1.42178955078125,5.092153930664063
14.098000000000006,-0.3189605712890625,0.63343505859375,6.573309326171875
14.107999999999995,-4.416848754882813,2.0031860351562503,3.330618286132813
14.117999999999988,-15.169543457031253,2.6372192382812503,2.6929962158203127
14.12799999999998,-13.253536987304688,0.7119415283203125,3.667672729492188
14.13799999999997,-11.503515625,-2.191152954101563,5.8730316162109375
14.147999999999968,-5.53642578125,-2.0827392578125004,7.727877807617188
14.15799999999996,-0.808392333984375,0.2136871337890625,10.193130493164062
14.168,-6.769351196289063,-1.1473907470703126,7.471273803710938
14.177999999999995,-9.868338012695313,-1.520184326171875,1.669720458984375
14.188999999999956,-13.049270629882814,-0.8686553955078126,-0.134881591796875
14.199000000000003,-11.94793701171875,0.1685272216796875,2.8646636962890626
14.208999999999996,-7.183117675781251,1.5032867431640626,7.3111206054687505
14.218999999999989,-2.3130249023437504,1.9189971923828129,9.575546264648438
14.228999999999978,-4.53453369140625,2.2358642578125,9.074002075195311
14.238999999999969,-8.729769897460939,2.228536987304688,4.7385009765625
14.24899999999996,-11.593835449218751,0.6389678955078125,1.6529724121093752
14.259000000000007,-12.125137329101562,-0.0970489501953125,2.7300811767578126
14.268999999999998,-8.579187011718751,-0.6805389404296875,4.2411437988281255
14.27899999999999,-5.343823242187501,-0.744091796875,4.50821533203125
14.28899999999998,-5.356982421875,0.6916046142578125,6.257937622070313
14.298999999999973,-10.525848388671877,0.208453369140625,6.953280639648438
14.308999999999962,-8.590402221679689,-0.5993408203125,6.646133422851563
14.31899999999996,-5.4139556884765625,-0.2696136474609375,6.399548339843751
14.328999999999994,-5.609249877929688,-0.2612396240234375,7.71427001953125
14.339,-7.231268310546875,-1.0128082275390626,5.884695434570313
14.34999999999996,-10.587008666992189,-3.002984619140625,2.63841552734375
14.360000000000008,-10.952923583984376,-2.0781036376953126,1.3305725097656251
14.369999999999996,-7.576995849609376,-0.1843780517578125,3.797769165039063
14.379999999999988,-3.439779663085938,1.1420074462890626,6.890176391601563
14.38999999999998,-3.70430908203125,1.304254150390625,6.23685302734375
14.399999999999965,-14.075686645507814,0.5760131835937501,4.1439453125000005
14.40999999999996,-16.92434997558594,0.5347412109375,8.290881347656251
14.41999999999996,-8.226281738281251,3.391329956054688,9.349298095703126
14.43,-2.589816284179688,1.2161773681640626,4.710836791992188
14.439999999999998,-0.3563446044921875,0.7771392822265626,4.155609130859375
14.449999999999989,-9.761868286132811,1.753909301757813,1.0398742675781252
14.459999999999972,-11.104702758789063,1.39666748046875,2.3888397216796875
14.471999999999973,-13.65190124511719,-2.41351318359375,6.947149658203125
14.480999999999987,-10.951577758789064,-1.1005859375,8.721545410156251
14.490999999999978,-4.760781860351563,-1.68018798828125,7.569967651367188
14.50099999999997,-1.5273620605468752,-1.078005981445313,7.624249267578126
14.510999999999967,-8.086166381835938,-1.19329833984375,5.74876708984375
14.520999999999958,-10.621551513671877,-0.4007568359375,1.7331237792968752
14.531,-12.1339599609375,0.024822998046875,0.0357391357421875
14.54099999999999,-10.4806884765625,0.2893524169921875,3.6050170898437504
14.55099999999998,-6.782360839843751,1.791741943359375,8.478250122070314
14.560999999999972,-2.4320556640625,2.314520263671876,10.576690673828123
14.571999999999996,-6.311471557617188,2.653219604492188,8.780911254882813
14.580999999999952,-8.843417358398439,1.7201141357421876,3.2361114501953128
14.591,-11.65589294433594,-0.6092102050781251,1.0498931884765623
14.601,-11.246463012695314,-0.017645263671875,2.6904541015625
14.61099999999999,-8.310021972656251,-1.041070556640625,4.900299072265625
14.622000000000009,-5.3605712890625,-0.8632720947265625,5.353244018554688
14.631999999999998,-5.4628540039062505,0.6525756835937501,5.982342529296876
14.641999999999989,-11.082421875,-0.504833984375,6.990814208984376
14.65199999999998,-8.525503540039063,0.1592559814453125,6.310125732421875
14.661999999999964,-5.44132080078125,0.4831512451171875,6.485980224609375
14.671999999999962,-5.365206909179688,-0.00179443359375,7.145135498046876
14.68199999999996,-7.508807373046875,-0.6933990478515626,5.2983642578125005
14.691999999999991,-10.17802734375,-1.867556762695313,2.6633880615234378
14.701999999999998,-10.850491333007811,-1.9728302001953129,2.477215576171876
14.711999999999987,-7.950387573242188,-0.7165771484375001,4.7660156250000005
14.721999999999973,-3.507220458984375,0.3049041748046875,7.430001831054688
14.731999999999964,-3.970782470703125,-0.1404144287109375,4.799362182617188
14.741999999999956,-13.2225830078125,0.926824951171875,3.7772827148437504
14.752000000000002,-16.06317138671875,-0.8134765625000001,7.563238525390625
14.761999999999992,-8.377761840820312,3.6528686523437504,7.1959777832031255
14.772999999999968,-3.1607452392578126,1.6623931884765626,6.631329345703126
14.78299999999996,-2.4238311767578127,1.4080322265625,5.5261077880859375
14.793,-7.113882446289063,1.7317779541015623,2.6551635742187503
14.802999999999995,-11.11173095703125,2.283566284179688,2.529104614257813
14.812999999999988,-14.440106201171876,-0.3349609375,5.027105712890625
14.822999999999972,-10.032379150390623,-1.5635498046875,7.146331787109376
14.832999999999965,-5.721102905273438,-1.9237823486328127,7.097732543945313
14.842999999999954,-1.627252197265625,-0.31881103515625,9.088058471679688
14.853000000000002,-7.645333862304688,-0.9932189941406252,6.555813598632813
14.863,-9.222341918945313,-1.1871673583984377,2.4909729003906254
14.872999999999983,-13.539001464843752,-1.008770751953125,0.4469635009765625
14.882999999999974,-10.217803955078123,0.6914550781250001,2.5464508056640627
14.892999999999963,-7.273138427734375,1.3449279785156252,7.769448852539063
14.902999999999956,-2.744586181640625,2.2282379150390628,10.332498168945314
14.91399999999998,-5.9264160156250005,2.410372924804688,8.354583740234375
14.923999999999973,-7.892367553710938,1.664187622070313,3.9625579833984377
14.933999999999962,-12.11063232421875,0.597845458984375,1.6855712890625
14.94399999999996,-11.879150390625,-0.4015045166015625,3.406732177734375
14.953999999999994,-7.938723754882813,-0.419000244140625,4.117626953125001
14.964,-4.894915771484375,-1.0300048828125,4.6842193603515625
14.97399999999999,-5.794076538085938,0.3781768798828125,6.43663330078125
14.983999999999972,-10.635757446289062,0.2500244140625,6.787893676757813
14.993999999999964,-9.392813110351565,-0.5914154052734375,6.375473022460938
15.003999999999955,-6.020773315429688,-0.4658050537109375,6.025558471679688
15.014000000000005,-4.363763427734376,0.2573516845703125,7.328167724609376
15.023999999999994,-7.418487548828126,-1.1740081787109375,6.484634399414063
15.033999999999985,-9.934133911132813,-1.7256469726562502,2.648583984375
15.043999999999976,-11.043243408203123,-2.5922088623046875,1.6042236328125
15.053999999999968,-7.121359252929688,0.322100830078125,3.776983642578125
15.064999999999998,-3.445013427734376,0.9760223388671876,6.705200195312501
15.074999999999989,-5.956472778320313,1.23756103515625,6.243881225585938
15.084999999999972,-15.166253662109376,0.3808685302734375,5.331710815429688
15.094999999999963,-14.42530212402344,0.8496643066406251,8.043548583984375
15.104999999999954,-5.607455444335938,2.556021118164063,6.987225341796876
15.115000000000002,-1.0220794677734375,1.064697265625,4.84197998046875
15.125,-6.517083740234376,2.014401245117188,4.734463500976563
15.134999999999984,-9.463244628906253,1.6993286132812502,1.6142425537109375
15.144999999999976,-10.534970092773438,-0.823345947265625,3.089865112304688
15.154999999999966,-12.76724548339844,-2.0123077392578126,7.45108642578125
15.164999999999957,-8.6802734375,-0.2857635498046875,8.771640014648439
15.175000000000004,-4.338192749023438,-1.89432373046875,6.99051513671875
15.184999999999995,-3.537127685546875,-1.02821044921875,6.148327636718751
15.194999999999986,-9.26346435546875,-1.0969970703125,4.331015014648438
15.205999999999952,-10.629925537109376,0.11484375,2.499197387695313
15.216,-11.790475463867187,-0.3653167724609375,2.419793701171875
15.226,-9.213070678710938,0.5449096679687501,4.799063110351563
15.23599999999999,-5.373580932617188,1.9297637939453127,7.754943847656251
15.245999999999974,-3.74498291015625,2.373138427734375,10.080529785156251
15.255999999999965,-7.882049560546876,2.2696594238281254,6.89481201171875
15.265999999999956,-8.81485595703125,0.63941650390625,2.718865966796875
15.276000000000003,-11.784045410156253,-0.1816864013671875,1.2282897949218752
15.285999999999994,-9.952825927734375,-0.0542816162109375,4.007119750976563
15.295999999999983,-7.696774291992188,-0.911871337890625,5.571118164062501
15.305999999999976,-5.06090087890625,0.3973175048828125,4.964151000976563
15.315999999999969,-7.966836547851563,-0.07835693359375,6.327023315429688
15.325999999999958,-10.073651123046876,0.088824462890625,6.062643432617188
15.336000000000006,-7.269100952148438,0.1502838134765625,6.5448974609375
15.346999999999973,-5.301803588867188,0.43006591796875,7.00546875
15.356999999999964,-6.314910888671876,-0.3354095458984375,6.621609497070313
15.366999999999956,-8.127438354492188,-1.4494537353515626,4.427914428710938
15.377000000000002,-10.869631958007814,-2.24483642578125,2.5338897705078125
15.386999999999992,-9.382794189453126,-1.7854614257812502,3.1731567382812504
15.396999999999984,-5.887835693359375,-0.695343017578125,5.5869689941406255
15.406999999999975,-1.5755126953125,0.1263580322265625,5.8008056640625005
15.416999999999966,-11.510992431640624,0.4544403076171875,4.032391357421876
15.426999999999955,-17.266189575195312,-0.8583374023437501,7.571911621093751
15.437000000000005,-10.263861083984375,2.850607299804688,8.068072509765626
15.446999999999996,-3.659747314453125,2.2191162109375,5.939724731445313
15.456999999999988,-1.4988006591796876,1.454388427734375,7.191342163085938
15.466999999999976,-7.8703857421875005,1.715029907226563,2.717071533203125
15.478000000000002,-8.281460571289063,2.093954467773438,1.236663818359375
15.48699999999996,-14.1389404296875,1.9719329833984376,2.505328369140625
15.497000000000009,-12.259121704101563,-0.8037567138671876,7.59404296875
15.506999999999998,-6.816156005859376,-2.179339599609375,9.0248046875
15.516999999999989,-1.5538299560546875,-0.7230072021484375,9.22742614746094
15.527999999999956,-6.209487915039063,-1.9305114746093752,6.981692504882813
15.538000000000004,-8.588458251953126,-1.8343597412109376,2.732623291015625
15.547999999999996,-12.8469482421875,-1.513604736328125,0.6521270751953125
15.557999999999986,-11.964984130859376,0.351708984375,1.627252197265625
15.567999999999977,-7.939471435546875,0.9974060058593752,5.399749755859375
15.577999999999967,-3.3838531494140627,2.1078613281250003,9.793420410156251
15.587999999999958,-4.421633911132813,2.413961791992188,10.864099121093751
15.598000000000006,-8.18082275390625,2.4734771728515628,6.100775146484375
15.607999999999995,-10.41309814453125,2.188162231445313,1.38291015625
15.617999999999988,-12.1698486328125,0.1772003173828125,2.0434112548828125
15.62799999999998,-9.762316894531253,-0.9295166015625,3.977212524414063
15.63799999999997,-6.007913208007813,-0.8051025390625001,3.877023315429688
15.648999999999994,-3.9757171630859376,0.2930908203125,5.6502227783203125
15.658999999999985,-9.938919067382812,-0.246136474609375,7.044647216796876
15.668999999999976,-9.9435546875,-0.6243133544921875,6.899896240234376
15.678999999999968,-7.307083129882813,-0.452197265625,6.492709350585938
15.688999999999956,-4.632330322265625,-0.1299468994140625,7.57071533203125
15.699000000000003,-5.804244995117188,-0.7005767822265625,6.726434326171876
15.708999999999996,-8.886782836914064,-1.81058349609375,3.339590454101563
15.718999999999989,-11.378952026367188,-2.4016998291015628,1.2774871826171876
15.728999999999978,-7.833001708984375,-0.46356201171875,2.2333221435546875
15.738999999999969,-3.976913452148438,1.495660400390625,5.000189208984375
15.74899999999996,-6.502877807617188,0.786260986328125,7.531686401367188
15.759000000000007,-15.628021240234377,1.18731689453125,7.477853393554688
15.768999999999998,-13.707827758789064,1.4651550292968751,8.862408447265626
15.779999999999966,-4.4561767578125,1.810733032226563,6.511849975585938
15.789999999999957,-0.224005126953125,0.8501129150390626,3.1103515625000004
15.800000000000004,-7.124649047851563,1.956231689453125,3.7718994140625
15.809999999999995,-11.138796997070314,1.85364990234375,2.003485107421876
15.819999999999986,-11.486618041992188,-1.2103454589843752,3.355291748046876
15.829999999999975,-11.93103942871094,-2.5220764160156253,7.978799438476563
15.839999999999968,-7.565481567382813,-0.23507080078125,9.196023559570314
15.84999999999996,-2.8226440429687503,-1.1802886962890626,8.261123657226562
15.860000000000008,-4.991665649414063,-1.3758819580078123,5.716915893554688
15.869999999999996,-9.926358032226563,-1.2257476806640626,2.5237213134765626
15.879999999999988,-11.299847412109376,-0.1577606201171875,1.053033447265625
15.88999999999998,-11.120553588867187,0.3632232666015625,3.2225036621093754
15.89999999999997,-9.039309692382814,0.7565032958984376,6.882550048828126
15.90999999999996,-4.673153686523438,1.9989990234375,8.406173706054688
15.919999999999952,-3.6141387939453127,2.228536987304688,8.772537231445312
15.930999999999976,-7.922274780273438,2.384054565429688,6.533383178710938
15.940999999999969,-10.259225463867187,0.4678985595703125,2.7836151123046875
15.950999999999958,-11.6171630859375,-0.3707000732421875,1.3515075683593751
15.961000000000006,-9.177182006835938,-0.421990966796875,3.215625
15.970999999999997,-7.610342407226563,-1.143353271484375,5.98204345703125
15.980999999999987,-5.3306640625,0.5562744140625,5.588464355468751
15.990999999999978,-8.380303955078126,0.477618408203125,6.451885986328126
16.00099999999997,-9.80299072265625,-0.4625152587890625,6.090457153320313
16.01099999999996,-6.04544677734375,0.415411376953125,6.0106048583984375
16.02099999999995,-5.200567626953125,0.720166015625,7.632473754882813
16.031,-7.105209350585938,-0.3751861572265625,6.848007202148438
16.04099999999999,-8.827716064453126,-1.8689025878906247,3.691299438476563
16.05099999999998,-11.324072265625,-2.3523529052734378,1.723553466796875
16.06099999999997,-9.421823120117187,-0.9573303222656252,3.795675659179688
16.072999999999972,-7.6460815429687505,0.2145843505859375,6.294424438476563
16.081999999999987,-3.3436279296875004,1.2282897949218752,6.8430725097656255
16.091999999999977,-3.743338012695313,0.0629547119140625,4.303948974609376
16.10199999999997,-10.2055419921875,-0.647491455078125,2.4627105712890627
16.11199999999996,-17.027828979492188,2.385250854492188,6.57181396484375
16.122000000000007,-12.732403564453126,2.390036010742188,10.806378173828126
16.131999999999998,-5.351300048828126,1.492669677734375,5.7369537353515625
16.14199999999999,-0.1490875244140625,0.61429443359375,4.2785278320312505
16.15199999999998,-1.8947723388671875,1.4143127441406251,4.343576049804688
16.16199999999997,-13.268490600585938,0.9894805908203126,3.7161224365234378
16.172999999999995,-13.220639038085938,-1.165185546875,3.302206420898438
16.181999999999952,-13.113720703125,-1.849462890625,4.6134887695312505
16.192,-6.84696044921875,-2.081393432617188,7.876815795898438
16.20199999999999,-2.1887603759765626,-0.1978363037109375,9.626089477539065
16.211999999999982,-4.824185180664063,-0.0626556396484375,8.729620361328125
16.223000000000006,-8.34949951171875,-0.36427001953125,3.3657592773437504
16.232999999999997,-12.639242553710938,-0.2908477783203125,-0.4864410400390625
16.242999999999988,-12.179119873046876,0.8554962158203125,0.7258483886718751
16.25299999999998,-9.232958984375,0.7894012451171876,7.57908935546875
16.26299999999997,-3.81376953125,2.1794891357421875,8.398098754882813
16.27299999999996,-2.501141357421876,1.950848388671875,9.707586669921875
16.28299999999995,-8.290582275390626,2.028158569335938,6.390127563476563
16.293,-10.800994873046877,-0.11304931640625,2.501290893554688
16.30299999999999,-11.887225341796876,-0.575714111328125,1.82972412109375
16.31299999999998,-9.820785522460938,-0.9666015625,3.742291259765625
16.322999999999972,-6.460110473632813,-1.4434722900390626,4.690200805664063
16.332999999999963,-5.202810668945313,0.533544921875,5.081536865234376
16.342999999999954,-9.069515991210938,0.7702606201171875,7.032684326171876
16.353,-9.235800170898438,-0.3527557373046875,6.914251708984375
16.36399999999997,-5.451638793945313,0.5283111572265625,6.294274902343751
16.37399999999996,-5.104415893554688,0.6066680908203126,7.910461425781251
16.384000000000007,-7.670306396484375,-0.7544097900390625,7.023562622070313
16.394,-9.480142211914064,-1.7645263671875002,2.900851440429688
16.40399999999999,-11.796008300781253,-2.9407775878906253,1.0286590576171877
16.41399999999998,-8.825323486328125,-0.394476318359375,2.922384643554688
