time,ax,ay,az
0.0,0.0210845947265625,7.829113769531251,5.244680786132813
0.010000000000101,-0.02213134765625,7.829711914062501,5.455078125
0.0200000000001026,-0.1203765869140625,8.225534057617189,5.3810577392578125
0.0300000000001006,0.1661346435546875,8.052969360351563,5.172006225585938
0.0400000000001021,-0.02572021484375,8.406024169921876,5.059405517578125
0.0500000000001001,0.18662109375,8.44281005859375,5.289990234375001
0.0600000000001017,0.4643096923828125,8.131326293945314,5.09918212890625
0.0700000000000002,-0.0040374755859375,8.259628295898438,5.80618896484375
0.0800000000001013,0.520086669921875,8.159588623046876,5.10576171875
0.0899999999999998,0.2812774658203125,8.063287353515626,6.06817626953125
0.1000000000001009,-0.1117034912109375,8.145681762695313,5.337991333007813
0.1100000000001024,0.0746185302734375,8.182766723632813,5.393170166015626
0.1200000000001004,-0.258099365234375,8.155551147460939,5.686410522460938
0.130000000000102,-0.644500732421875,8.099026489257813,5.134024047851563
0.1400000000001,-0.37862548828125,8.115625000000001,5.12430419921875
0.1500000000001016,-0.241351318359375,7.951434326171875,5.471527099609375
0.1600000000000001,-0.5214324951171876,7.960855102539063,5.393618774414063
0.1690000000000999,0.0610107421875,8.205645751953126,5.2864013671875005
0.1800000000001027,0.034393310546875,8.172897338867188,5.005123901367188
0.1890000000000995,-0.5576202392578126,7.811318969726563,4.632479858398438
0.1990000000001011,-0.231781005859375,8.313760375976564,4.082037353515625
0.2090000000001026,0.2447906494140625,8.668460083007814,7.132125854492188
0.2190000000001006,1.1991302490234377,8.040856933593751,6.115579223632813
0.2290000000001022,-0.704315185546875,7.701260375976563,7.986874389648438
0.2390000000001002,1.3331146240234375,7.3966552734375,5.140155029296875
0.2490000000001018,0.1613494873046875,9.625491333007814,5.774487304687501
0.2590000000000998,-2.104571533203125,7.831655883789063,4.366006469726563
0.2690000000001014,0.7961303710937501,5.725888061523438,5.9268646240234375
0.2790000000000994,-0.5169464111328126,7.371682739257813,6.49046630859375
0.2890000000000015,-1.7192169189453126,9.786990356445314,1.4437713623046875
0.2990000000001025,-0.0518890380859375,9.564031982421875,5.746673583984375
0.3090000000001005,-1.0415191650390625,7.149172973632813,8.40931396484375
0.3190000000001021,-0.6377716064453125,7.652810668945313,2.9967041015625
0.3290000000001001,0.408831787109375,9.095684814453126,5.01304931640625
0.3390000000001016,0.7110443115234375,7.795767211914063,8.913400268554689
0.3490000000000997,0.0145050048828125,7.602716064453125,5.217166137695313
0.3590000000001012,0.04007568359375,8.157943725585938,3.4155548095703128
0.3690000000001028,0.40374755859375,8.585467529296876,7.155303955078126
0.3790000000001008,-0.0210845947265625,8.991159057617189,6.182421875
0.3890000000001024,0.5132080078125001,8.581878662109375,1.235467529296875
0.3990000000001004,1.1744567871093752,7.924667358398438,5.608203125
0.4100000000000001,0.1443023681640625,7.680624389648438,6.733013916015626
0.4190000000000999,0.222210693359375,7.9795471191406255,3.237457275390625
0.4290000000001015,0.03050537109375,7.784701538085938,5.5081634521484375
0.4390000000000995,-0.247930908203125,8.379556274414064,8.375817871093751
0.4490000000001011,-0.5027404785156251,9.060992431640626,5.192044067382813
0.4590000000001026,-0.6159393310546876,8.529989624023438,5.0460968017578125
0.4690000000001006,-0.910076904296875,8.106204223632814,6.795669555664063
0.4790000000001022,-0.375335693359375,7.683166503906251,5.266961669921876
0.4890000000001002,-0.3231475830078125,7.399945068359376,3.516043090820313
0.4990000000001018,-0.5722747802734376,7.622006225585938,5.489920043945313
0.5090000000000998,0.247930908203125,8.53253173828125,4.8188018798828125
0.5190000000001014,-0.2860626220703125,8.658441162109376,4.663583374023438
0.5290000000000994,-0.1939483642578125,8.283404541015626,5.297616577148438
0.539000000000101,0.8164672851562501,8.060745239257812,6.312667846679688
0.5490000000001025,0.6578094482421876,7.725485229492188,5.15361328125
0.5590000000001005,-0.1221710205078125,7.414450073242188,5.589361572265625
0.5690000000001021,0.2966796875,7.750457763671876,7.625445556640625
0.5790000000001001,0.1831817626953125,8.0450439453125,5.3690948486328125
0.5890000000001017,-1.7275909423828126,8.21551513671875,6.910662841796875
0.5990000000000997,1.1983825683593752,8.323629760742188,3.924874877929688
0.6090000000001012,0.2462860107421875,9.955218505859376,5.632577514648438
0.6190000000001028,-0.7867095947265625,7.73221435546875,4.244882202148438
0.6290000000000013,1.5971954345703123,6.772491455078126,5.585174560546875
0.6390000000001024,-0.47193603515625,7.808776855468751,5.527005004882813
0.6490000000001004,-0.1425079345703125,9.263613891601564,3.696234130859376
0.659000000000102,0.6904083251953126,8.67847900390625,6.74527587890625
0.6690000000001,-1.0259674072265623,6.862960815429688,7.131378173828126
0.6790000000001015,-0.9471618652343752,7.445703125,4.851101684570313
0.6880000000001019,-0.2086029052734375,8.497091674804688,5.870190429687501
0.6980000000000004,-0.72196044921875,8.142242431640625,7.014889526367188
0.7080000000001014,-0.3605316162109375,8.050277709960938,4.328024291992188
0.718,0.599041748046875,8.304638671875,3.991717529296875
0.728000000000101,0.254510498046875,8.564682006835938,6.621011352539063
0.7380000000001026,0.7086517333984376,8.706890869140626,4.0830841064453125
0.7480000000001006,1.3186096191406251,8.185757446289063,3.227737426757813
0.7580000000001021,0.2118927001953125,7.828665161132813,6.869540405273438
0.7680000000001002,0.6537719726562501,7.834646606445313,5.615081787109375
0.7780000000001017,-0.23267822265625,8.439968872070313,4.547244262695313
0.7880000000000003,-1.1680267333984375,8.191888427734376,6.577047729492188
0.7980000000001013,-0.7962799072265626,8.308377075195313,6.706396484375
0.8080000000001029,-1.215728759765625,8.175140380859375,5.0016845703125
0.8180000000001009,-1.09879150390625,7.917041015625,5.475564575195313
0.8280000000001024,-0.3802703857421875,8.336788940429688,5.605661010742188
0.8380000000001004,-0.5283111572265625,8.334246826171876,4.450643920898438
0.848000000000102,-0.14654541015625,8.446548461914062,4.2097412109375005
0.8580000000000005,0.6302947998046875,8.335443115234376,5.13507080078125
0.8680000000001016,0.3775787353515625,8.150167846679688,5.224642944335938
0.8780000000000001,0.307745361328125,8.075250244140626,5.116677856445313
0.8880000000001012,0.7707092285156251,7.755093383789063,5.720504760742188
0.8980000000001027,0.175555419921875,7.839431762695313,6.94505615234375
0.9080000000001008,0.4287200927734375,7.788290405273438,5.620913696289063
0.9180000000001024,0.2603424072265625,8.180075073242188,5.825479125976563
0.9280000000001004,0.347222900390625,8.196075439453125,6.60172119140625
0.938000000000102,0.5634521484375,8.313012695312501,4.822091674804688
0.9480000000000004,-0.1072174072265625,8.285049438476562,4.787548828125001
0.9580000000001014,-0.37503662109375,7.827767944335938,4.902243041992188
0.968,-0.7310821533203126,7.144537353515625,4.654910278320313
0.978000000000101,-1.2208129882812502,6.732116699218751,4.097140502929688
0.9880000000001026,-1.5412689208984376,8.491708374023439,5.014993286132813
0.9980000000001006,-1.126904296875,9.36634521484375,6.6609375
1.008000000000102,-0.9700408935546876,8.641244506835939,6.930999755859376
1.0180000000001002,-0.0267669677734375,8.301498413085938,6.044100952148438
1.0280000000001015,0.9872375488281252,8.041754150390625,7.0712646484375
1.0380000000000005,0.22430419921875,7.618267822265626,6.539663696289063
1.0480000000001013,0.8080932617187501,7.594192504882813,4.354043579101563
1.0580000000001029,1.2293365478515623,7.860665893554688,5.034283447265626
1.0680000000001009,0.299072265625,8.728125,5.8969573974609375
1.0780000000001024,0.8731414794921876,9.092395019531253,3.3288238525390628
1.0880000000001004,0.4687957763671875,8.746667480468751,4.978057861328125
1.098000000000102,-0.5486480712890626,8.439520263671875,5.968136596679688
1.1080000000001,-0.5176940917968751,8.299404907226563,4.606460571289063
1.1180000000001016,-0.7992706298828126,7.702008056640626,5.160491943359375
1.128,-0.9773681640625,6.857577514648438,6.500784301757813
1.1380000000001012,-0.5819946289062501,7.06767578125,5.429806518554688
1.1470000000001015,-0.366961669921875,7.7531494140625,5.455975341796876
1.1580000000001007,-0.4557861328125,8.679525756835938,6.539663696289063
1.1680000000001023,0.2298370361328125,8.944503784179688,5.8008056640625005
1.1780000000001003,0.5330963134765625,8.656198120117189,4.582235717773438
1.1870000000001006,0.0973480224609375,8.442062377929688,5.646334838867188
1.1970000000001022,0.6232666015625,7.924816894531251,4.755099487304688
1.2070000000001002,0.0402252197265625,7.703952026367188,4.763174438476563
1.2170000000001018,0.138470458984375,7.712475585937501,4.934393310546875
1.2270000000000998,0.2265472412109375,8.306582641601564,5.477059936523438
1.2370000000001014,-0.1251617431640625,8.613879394531251,5.627642822265625
1.2470000000000994,-0.0462066650390625,8.639151000976563,5.719607543945313
1.258000000000102,-0.107366943359375,8.519970703125,5.839535522460938
1.2670000000001025,-0.1520782470703125,7.868890380859375,5.887835693359375
1.2770000000001005,0.1016845703125,7.510153198242188,5.5974365234375005
1.287000000000102,0.152825927734375,7.735504150390626,4.9083740234375
1.2970000000001,-0.24942626953125,8.080184936523438,5.270849609375
1.3070000000001016,-0.353204345703125,8.118765258789063,5.3835998535156255
1.3170000000000996,-0.1308441162109375,8.598477172851563,4.298715209960938
1.3270000000001012,-0.8489166259765626,8.657693481445314,5.427114868164063
1.3370000000001028,-0.1351806640625,7.66282958984375,5.187258911132813
1.3470000000000013,-0.4580291748046875,7.873825073242188,5.244680786132813
1.3580000000001,-0.3608306884765625,8.494100952148438,5.9862304687500005
1.3670000000001004,0.97198486328125,8.329910278320312,5.799459838867188
1.377000000000102,0.7457366943359376,7.618267822265626,6.4677368164062505
1.3870000000001,1.048098754882813,6.802249145507813,5.478704833984375
1.3970000000001015,0.578704833984375,7.291381835937501,6.2123291015625
1.4070000000000995,-0.2268463134765625,7.792626953125,5.509957885742188
1.417000000000101,-0.5625549316406251,8.713919067382813,4.627694702148438
1.4270000000001026,-0.6512298583984375,8.922970581054688,5.8905273437500005
1.4370000000000012,-0.8551971435546876,9.15101318359375,5.7818145751953125
1.4470000000001022,-0.8463745117187501,9.223687744140626,4.987927246093751
1.4580000000001014,-0.370550537109375,8.095587158203125,4.865307617187501
1.4670000000001018,-0.7122406005859375,7.430001831054688,6.225039672851563
1.4770000000000998,0.015252685546875,7.35299072265625,5.144790649414063
1.4870000000001014,0.39537353515625,7.84287109375,5.41021728515625
1.4970000000000994,0.260791015625,8.547335815429689,6.4124084472656255
1.507000000000101,1.0549774169921875,8.7053955078125,5.35638427734375
1.5170000000001025,0.5763122558593751,8.488418579101562,5.839236450195313
1.527000000000001,0.6398651123046876,8.572009277343751,5.3342529296875005
1.537000000000102,0.9583770751953126,8.148223876953125,4.495953369140626
1.5470000000001,0.0988433837890625,7.344168090820313,4.408026123046875
1.5580000000001029,-0.4385894775390625,7.142294311523438,4.34970703125
1.5670000000000996,-0.3895416259765625,7.886386108398438,4.995553588867188
1.5770000000001012,-0.9290679931640624,8.392864990234376,5.883798217773438
1.5870000000001028,-1.3432830810546876,8.733209228515626,5.947799682617188
1.5970000000001008,-0.5701812744140625,8.398397827148438,6.2449279785156255
1.6070000000001023,-0.8581878662109376,8.165420532226562,6.670358276367188
1.6170000000001004,-0.6750061035156251,7.526303100585938,6.174197387695313
1.627000000000102,0.4906280517578125,7.444058227539063,4.894616699218751
1.6360000000001025,-0.1882659912109375,8.368191528320313,5.564987182617188
1.6470000000001015,0.465057373046875,8.773135375976564,4.100579833984376
1.6570000000000995,0.7026702880859376,8.710629272460938,4.240695190429688
1.667000000000101,0.34273681640625,8.497241210937501,5.144940185546876
1.6760000000001014,0.6151916503906251,8.654254150390626,4.798913574218751
1.686,0.3781768798828125,8.17484130859375,5.448648071289063
1.696000000000101,0.0686370849609375,7.310971069335938,6.022268676757813
1.7060000000001023,-0.1108062744140625,6.613833618164063,6.267956542968751
1.7160000000001006,-0.409130859375,6.090905761718751,5.4064788818359375
1.726000000000102,-0.829327392578125,7.472470092773438,5.457321166992188
1.7360000000001,-0.569732666015625,9.325521850585938,5.9431640625
1.7460000000001017,-0.8249908447265626,9.773681640625,5.46763916015625
1.758000000000102,-1.36077880859375,9.557601928710938,5.621960449218751
1.7660000000001013,-0.06519775390625,8.434884643554689,5.240643310546876
1.7760000000001028,-0.365765380859375,7.471722412109376,6.157299804687501
1.7860000000001008,0.478814697265625,6.8678955078125,4.202862548828126
1.7960000000001024,1.878173828125,7.060049438476563,5.244830322265625
1.8060000000001004,1.0503417968750002,7.863656616210938,6.352743530273438
1.816000000000102,0.9860412597656252,8.89141845703125,5.3596740722656255
1.8260000000001,0.5942565917968751,9.865048217773438,6.265264892578125
1.8360000000001016,0.1852752685546875,9.175686645507811,6.705050659179688
1.846,-0.0085235595703125,8.300152587890626,5.426815795898438
1.8580000000001,-0.1619476318359375,7.119265747070313,5.099481201171876
1.866000000000103,-0.9688446044921876,6.744677734375,5.872134399414063
1.8760000000001007,-1.2520660400390626,7.494003295898438,4.485485839843751
1.8860000000001025,-1.0917633056640623,8.193084716796875,4.548141479492188
1.8960000000001005,-1.233523559570313,8.924465942382813,5.935537719726563
1.9060000000001016,-0.6148925781250001,9.43214111328125,5.371786499023438
1.9160000000000004,0.1266571044921875,9.176434326171876,4.42447509765625
1.9260000000001007,-0.288604736328125,8.470324707031251,6.024212646484376
1.936,0.5067779541015626,7.542004394531251,4.834353637695313
1.946000000000101,0.5060302734375001,6.586917114257813,5.355038452148438
1.9560000000001023,0.6661834716796875,6.643142700195313,5.33963623046875
1.9660000000001008,1.2565521240234376,7.925415039062501,5.19249267578125
1.976000000000102,0.696539306640625,8.905923461914064,5.68895263671875
1.9860000000001,-0.0324493408203125,9.154751586914063,5.938229370117188
1.9960000000001017,-0.0210845947265625,8.870932006835938,5.858078002929688
2.006,-0.5105163574218751,8.125344848632814,5.891275024414063
2.0160000000001013,-1.1144927978515626,7.722793579101563,5.09439697265625
2.026000000000103,-0.684576416015625,6.970925903320313,5.547192382812501
2.036000000000101,-1.072024536132813,6.996795654296876,5.4019927978515625
2.0460000000001024,-1.3386474609375,7.980743408203126,5.355636596679688
2.0560000000001004,0.0913665771484375,8.822183227539064,4.313818359375
2.066000000000102,-0.5630035400390625,8.945700073242188,6.08612060546875
2.0760000000001,0.6510803222656251,7.083078002929688,4.242938232421875
2.0860000000001016,1.3974151611328125,6.613534545898438,4.760333251953125
2.096,0.8408416748046875,8.402734375000001,4.957571411132813
2.106000000000101,0.9555358886718752,10.318740844726562,5.8894805908203125
2.1160000000001027,0.9236846923828126,10.289730834960938,6.347360229492188
2.1260000000001007,0.6261077880859376,7.994949340820313,7.284054565429688
2.1360000000001023,0.8705993652343751,6.640750122070313,6.459811401367188
2.1450000000001026,-0.2809783935546875,7.2148193359375,5.701663208007813
2.1550000000001006,-1.3579376220703123,7.587014770507813,4.118524169921876
2.1660000000001,-2.009616088867188,7.104461669921876,5.388684082031251
2.1750000000001,-1.4739776611328126,7.471871948242188,5.340832519531251
2.1850000000001017,-1.4485565185546876,9.458459472656251,5.348159790039063
2.1950000000001,-0.3375030517578125,10.671197509765626,4.239199829101563
2.2050000000001013,-0.5067779541015626,9.140396118164062,6.286050415039063
2.2150000000001,-0.3828125,6.649722290039063,6.08731689453125
2.225000000000101,0.8828613281250001,6.605459594726563,5.672354125976563
2.2350000000001025,1.1653350830078126,7.796813964843751,6.246572875976563
2.2450000000001005,1.63173828125,8.432192993164064,5.570370483398438
2.255000000000102,1.76392822265625,8.100970458984376,5.8023010253906255
2.2650000000001,0.094805908203125,7.82193603515625,6.484634399414063
2.2750000000001016,-0.271258544921875,9.124993896484376,5.4124603271484375
2.2850000000001,-0.012261962890625,9.741082763671876,4.296621704101563
2.295000000000101,-0.640911865234375,8.606103515625001,4.66851806640625
2.3050000000001027,-1.265972900390625,7.25728759765625,4.759286499023438
2.3150000000000013,-1.00787353515625,7.005169677734376,4.3503051757812505
2.3250000000001023,-1.047650146484375,7.886685180664063,4.66971435546875
2.3350000000001003,-0.7689147949218751,8.410809326171876,4.623358154296875
2.345000000000102,0.263482666015625,8.201010131835938,4.94486083984375
2.3550000000001,-0.2486785888671875,8.305535888671876,6.866400146484375
2.365000000000101,0.5474517822265625,8.152560424804689,6.019876098632813
2.3750000000000995,0.8824127197265625,8.194580078125,6.633422851562501
2.385000000000101,0.7778869628906251,7.447048950195313,6.731369018554688
2.3950000000001026,0.7500732421875,7.595538330078125,5.682821655273438
2.405000000000001,0.4988525390625,7.687054443359376,5.502331542968751
2.415000000000102,0.3692047119140625,7.711129760742188,5.1392578125
2.4250000000001,-0.2213134765625,8.648721313476564,4.677490234375
2.4350000000001017,-0.6192291259765625,9.296661376953123,3.3718902587890627
2.4450000000001,-0.907086181640625,8.211029052734375,4.93170166015625
2.4550000000001013,-0.7405029296875001,6.301751708984376,5.023068237304688
2.4650000000001,-0.8381500244140626,6.335098266601563,3.709991455078125
2.475000000000101,-1.1799896240234375,9.078787231445313,5.967837524414063
2.4850000000001025,-0.20037841796875,10.512539672851563,6.4423156738281255
2.495000000000001,-1.0922119140625002,9.655398559570314,7.260278320312499
2.505000000000102,-0.382513427734375,7.420132446289063,7.074703979492188
2.5150000000001,1.3685546875,6.908120727539063,6.877017211914063
2.5250000000001016,0.7962799072265626,7.739093017578125,5.056414794921875
2.5350000000001,1.3073944091796876,7.714120483398438,3.518136596679688
2.545000000000101,1.580447387695313,7.281063842773438,5.538220214843751
2.5550000000001027,0.5668914794921875,7.7029052734375005,5.9089202880859375
2.5650000000001008,0.2364166259765625,9.890469360351563,4.33355712890625
2.5750000000001023,0.091815185546875,10.559793090820314,5.119668579101563
2.585000000000001,-0.37742919921875,8.506512451171876,6.540411376953125
2.5940000000001007,-1.1103057861328125,6.653161621093751,6.481942749023438
2.6050000000001,-0.8842071533203125,6.656900024414063,5.381805419921875
2.615000000000101,-1.2021209716796877,8.015286254882813,6.642245483398438
2.6250000000000995,-0.7179229736328125,8.4182861328125,5.271298217773438
2.6340000000000003,-0.466851806640625,7.745074462890625,5.392572021484376
2.6440000000001014,-0.4185516357421875,8.010650634765625,6.274984741210938
2.654,0.69923095703125,9.469076538085938,4.398754882812501
2.664000000000101,0.433355712890625,10.080380249023438,3.749169921875
2.6740000000001025,0.5613586425781251,8.617617797851564,4.1451416015625
2.6840000000001005,0.935797119140625,6.530691528320313,4.6822753906250005
2.694000000000102,0.5716766357421875,6.0879150390625005,4.853045654296875
2.7040000000001,0.4367950439453125,7.62454833984375,4.940374755859375
2.7140000000001017,0.3040069580078125,9.098825073242187,6.098681640625
2.724,-0.5890228271484376,8.578289794921876,6.965542602539063
2.734000000000101,-1.0675384521484377,7.99898681640625,7.153359985351563
2.744000000000103,-0.401953125,8.083624267578125,6.6286376953125
2.754000000000101,-0.9933685302734376,8.625692749023438,5.9156494140625
2.7640000000001024,-0.94566650390625,7.468731689453126,5.070770263671875
2.7740000000001004,-0.0294586181640625,6.574954223632813,4.456027221679688
2.784000000000102,-0.78177490234375,7.842572021484376,5.026358032226563
2.7940000000001,0.3313720703125,9.238043212890624,3.2293823242187503
2.804000000000101,0.6201263427734376,9.418084716796876,4.671209716796875
2.814,0.4649078369140625,8.492755126953126,5.154510498046875
2.824000000000101,0.76083984375,7.410562133789063,5.235110473632813
2.8340000000001027,0.7418487548828125,6.185711669921876,5.561398315429688
2.8440000000001007,0.2639312744140625,6.341229248046876,5.57291259765625
2.8540000000001022,-0.15491943359375,8.698666381835938,5.377767944335938
2.8640000000001,-0.202471923828125,10.095034790039064,6.72374267578125
2.874000000000102,-0.3171661376953125,10.14752197265625,7.192837524414063
2.884000000000004,-0.1040771484375,9.051571655273438,6.515139770507813
2.8940000000001014,0.1423583984375,7.758831787109376,5.036526489257813
2.904,-1.3806671142578126,6.644937133789063,5.8079833984375
2.914000000000101,-0.8680572509765626,6.228628540039063,3.7366088867187504
2.9240000000001025,-0.7955322265625001,6.844119262695313,5.230175781250001
2.9340000000001005,0.2588470458984375,8.464642333984376,6.276480102539063
2.944000000000102,0.52935791015625,10.384686279296876,5.310028076171875
2.9540000000001,-0.107366943359375,10.218402099609376,5.510107421875
2.9640000000001017,0.1721160888671875,8.356826782226562,6.507962036132813
2.974000000000004,0.1051239013671875,7.019226074218751,6.420333862304688
2.984000000000101,0.4448699951171875,6.914700317382813,4.785604858398438
2.994000000000103,0.8641693115234376,7.516134643554688,5.435189819335938
3.004000000000101,0.450701904296875,7.544995117187501,5.767907714843751
3.0140000000001024,-0.60831298828125,7.944256591796876,5.272195434570313
3.0240000000001004,-0.9316101074218752,9.279763793945314,5.168417358398438
3.034000000000102,-0.24583740234375,9.890469360351563,5.581137084960938
3.0440000000001,-0.539227294921875,9.509002685546877,4.505374145507813
3.054000000000101,-0.3016143798828125,8.215814208984376,4.0841308593750005
3.064,0.278436279296875,6.513644409179688,5.141201782226563
3.074000000000101,-0.4433746337890625,6.212478637695313,5.972772216796876
3.0840000000001027,0.339447021484375,7.406674194335938,3.6335784912109377
3.0940000000001007,0.251519775390625,8.47391357421875,5.798562622070313
3.1040000000001022,0.10946044921875,8.7532470703125,7.117022705078125
3.1140000000001,0.3695037841796875,8.778219604492188,5.800506591796875
3.123000000000001,0.1128997802734375,8.813510131835939,6.1190185546875
3.1340000000001,0.1105072021484375,8.267254638671876,6.145486450195313
3.1430000000001,-0.1547698974609375,7.481890869140625,5.385095214843751
3.1530000000001017,-0.281427001953125,6.395809936523438,4.668966674804688
3.1630000000001,-0.31043701171875,7.298260498046876,5.388385009765625
3.1730000000001013,-0.0151031494140625,9.022561645507814,4.584628295898438
3.183000000000103,-0.5640502929687501,9.337933349609376,4.383801269531251
3.193000000000101,-0.541021728515625,8.618066406250001,5.708093261718751
3.2030000000001024,0.1658355712890625,7.347158813476563,4.9364868164062505
3.213000000000001,-0.4098785400390625,6.293377685546876,5.235858154296875
3.223000000000102,0.3844573974609375,6.992010498046875,3.934146118164063
3.2330000000001,0.1885650634765625,9.023907470703126,6.146084594726563
3.2430000000001016,-0.2859130859375,10.012939453125,6.49405517578125
3.2530000000001,-0.2038177490234375,9.25150146484375,6.586767578125
3.263000000000101,-0.0680389404296875,8.950036621093751,6.732116699218751
3.2730000000001027,-0.1661346435546875,8.330957031250001,6.252554321289063
3.2830000000001007,-0.0346923828125,7.177584838867188,4.734463500976563
3.2930000000001023,0.6904083251953126,5.960061645507813,4.5761047363281255
3.303000000000001,0.1126007080078125,6.283657836914063,5.768206787109375
3.313000000000102,0.1777984619140625,8.285946655273438,4.997348022460938
3.3230000000001,-0.0674407958984375,10.429397583007812,4.87547607421875
3.333000000000101,-0.3748870849609375,10.427154541015623,6.277975463867188
3.3430000000000994,0.3898406982421875,8.5953369140625,5.792282104492188
3.353000000000101,-0.04844970703125,7.275381469726563,6.108551025390625
3.3630000000001026,-0.074169921875,6.977206420898438,5.702560424804688
3.373000000000001,-0.0312530517578125,7.299606323242188,5.35997314453125
3.383000000000102,-0.5461059570312501,7.171902465820313,5.3073364257812505
3.3930000000001,-0.1383209228515625,7.808776855468751,5.795571899414063
3.4030000000001017,0.2417999267578125,9.092395019531253,5.890377807617188
3.4130000000001,-0.002093505859375,9.891815185546877,5.1552581787109375
3.4230000000001013,-0.1021331787109375,9.516928100585938,4.434344482421875
3.433000000000103,-0.074468994140625,8.169158935546875,4.8724853515625
3.443000000000101,-0.3488677978515625,6.985281372070313,5.096041870117188
3.4530000000001024,-0.1006378173828125,7.048086547851563,4.467990112304688
3.463000000000001,0.4281219482421875,7.22080078125,4.8437744140625005
3.473000000000102,-0.243145751953125,8.064633178710938,5.5545196533203125
3.4830000000001,-0.3318206787109375,8.529092407226564,5.892620849609376
3.4930000000001016,0.2558563232421875,8.709432983398438,5.852246093750001
3.5030000000001,-0.4053924560546875,8.876614379882813,7.212576293945313
3.513000000000101,0.1523773193359375,8.19697265625,5.246774291992188
3.5230000000001027,-0.033197021484375,7.437179565429688,6.031390380859375
3.5330000000001007,-0.2190704345703125,6.971823120117188,5.205502319335938
3.5430000000001023,-0.0079254150390625,7.306335449218751,4.758538818359376
3.553000000000001,0.0825439453125,8.063137817382813,4.72235107421875
3.563000000000102,-0.083740234375,8.70001220703125,4.670013427734375
3.5730000000001,0.0794036865234375,8.308377075195313,4.412811279296875
3.583000000000101,0.2561553955078125,7.289736938476563,4.829568481445313
3.592000000000102,-0.43963623046875,8.736947631835939,5.0700225830078125
3.603000000000101,-0.0227294921875,9.687399291992188,6.667218017578126
3.613000000000103,0.48330078125,9.105255126953123,5.877218627929688
3.622,0.034393310546875,7.367047119140626,7.409814453125
3.632000000000101,1.2572998046875,6.320443725585938,5.68297119140625
3.642000000000104,-0.7995697021484376,7.432394409179688,6.591403198242188
3.652000000000101,-0.7038665771484376,8.058950805664063,3.2951782226562503
3.662000000000102,-0.7920928955078126,8.681619262695314,5.4314514160156255
3.6720000000001,-0.8342620849609376,8.121456909179688,5.932995605468751
3.6820000000001016,-0.119329833984375,9.02540283203125,5.126248168945313
3.692,0.0779083251953125,9.95850830078125,5.0475921630859375
3.702000000000101,-0.316717529296875,8.410061645507813,6.2876953125
3.712000000000103,-0.4000091552734375,6.767407226562501,6.040213012695313
3.722000000000101,0.007177734375,6.498242187500001,5.945706176757813
3.7320000000001023,0.443524169921875,7.843020629882813,6.127990722656251
3.742000000000101,0.7176239013671876,9.11512451171875,5.7260375976562505
3.752000000000102,0.5147033691406251,8.619561767578126,4.857083129882813
3.7620000000001,-0.7609893798828126,8.077642822265625,6.134121704101563
3.7720000000001015,-0.15791015625,8.403182983398438,5.331710815429688
3.782,0.1926025390625,8.991009521484376,4.034185791015625
3.792000000000101,-0.2914459228515625,8.712722778320312,4.627545166015626
3.802000000000103,0.2193695068359375,7.749560546875,4.3253326416015625
3.8120000000001006,-0.3162689208984375,6.673648071289063,5.02860107421875
3.822000000000102,-0.3243438720703125,7.121807861328126,4.546347045898438
3.8320000000001,0.040972900390625,8.887530517578126,4.948599243164063
3.842000000000102,-0.1638916015625,9.221743774414064,6.351248168945313
3.8520000000001,-0.209051513671875,7.841375732421875,6.813314819335938
3.862000000000101,0.2992218017578125,7.169210815429688,6.431549072265626
3.872,-0.01854248046875,8.1885986328125,6.679928588867188
3.882000000000101,-0.1419097900390625,8.426959228515626,6.053671264648438
3.892000000000104,0.479412841796875,7.110592651367188,4.967889404296876
3.902000000000101,-0.2923431396484375,7.329513549804688,5.119668579101563
3.912000000000102,0.021533203125,8.797210693359375,4.692144775390625
3.9220000000001,0.2923431396484375,9.34241943359375,3.780123901367188
3.9320000000001016,-0.593359375,8.731863403320313,4.68466796875
3.942000000000004,-0.1209747314453125,7.1825195312500005,4.281219482421875
3.952000000000101,-0.355596923828125,5.88275146484375,5.3151123046875
3.962000000000103,-0.4332061767578125,6.792678833007813,4.575357055664063
3.972000000000101,-0.33795166015625,9.745718383789065,5.785104370117188
3.9820000000001023,-0.576910400390625,10.666711425781251,7.70469970703125
3.992000000000101,-0.6643890380859375,8.844464111328126,6.976608276367188
4.002000000000102,-0.3970184326171875,8.233758544921876,6.605310058593751
4.0120000000001,0.5962005615234376,7.513143920898438,6.219357299804688
4.0220000000001015,0.2717071533203125,6.842623901367188,4.906579589843751
4.032000000000004,1.244439697265625,6.855184936523438,3.727188110351563
4.042000000000101,1.338198852539063,7.167416381835938,5.544650268554688
4.052000000000103,0.442327880859375,8.7532470703125,5.706298828125
4.062000000000101,0.5399749755859375,10.671197509765626,3.894369506835938
4.072000000000102,-0.2047149658203125,10.17129821777344,6.319247436523438
4.0820000000001,-0.09510498046875,7.760028076171875,6.608151245117188
4.092000000000102,-0.1595550537109375,6.831707763671876,5.37432861328125
4.1020000000001,-0.883160400390625,6.642395019531251,6.290536499023438
4.1110000000001,-1.0132568359375,7.557107543945313,6.204852294921875
4.122000000000003,-0.700726318359375,8.184112548828125,4.980599975585938
4.1310000000001,-0.6841278076171875,7.992855834960938,5.854489135742188
4.141000000000101,-0.2332763671875,8.714666748046875,6.319546508789063
4.1520000000001005,0.344830322265625,9.8777587890625,4.204806518554688
4.161000000000101,0.097796630859375,9.47760009765625,4.1080566406250005
4.171000000000102,0.2002288818359375,8.074951171875,4.833157348632813
4.181000000000001,0.8048034667968751,6.776977539062501,4.642050170898438
4.191000000000102,0.28890380859375,6.903335571289063,4.450643920898438
4.2010000000001,0.5253204345703125,7.515087890625001,5.433993530273438
4.2110000000001016,0.8166168212890625,8.188150024414064,5.208941650390625
4.2210000000001,-0.6509307861328125,8.761322021484375,6.580636596679688
4.231000000000101,-0.265576171875,8.752798461914063,6.358276367187501
4.241000000000103,-0.4729827880859375,8.521914672851564,7.014291381835938
4.251000000000101,-0.9628631591796876,7.891470336914063,5.795870971679688
4.261000000000102,-0.5725738525390626,7.2291748046875,5.0184326171875
4.271000000000001,-0.64420166015625,7.106106567382813,5.478704833984375
4.281000000000102,-0.5085723876953125,7.511050415039063,4.894616699218751
4.2910000000001,0.0779083251953125,8.380453491210938,4.114785766601563
4.301000000000101,0.00777587890625,9.463394165039062,4.6229095458984375
4.311000000000099,0.34393310546875,9.330157470703126,4.999591064453125
4.321000000000101,0.8528045654296875,7.744027709960938,5.06688232421875
4.331000000000103,0.4486083984375,5.922976684570313,4.834503173828125
4.341000000000001,0.5127593994140626,6.117672729492188,5.15361328125
4.351000000000102,0.336456298828125,8.22269287109375,4.903738403320313
4.361000000000001,-0.7920928955078126,10.632318115234376,6.603067016601563
4.371000000000102,0.198284912109375,10.660879516601565,6.958813476562501
4.3810000000001,0.084637451171875,9.170004272460938,8.412005615234376
4.391000000000101,0.304156494140625,7.46065673828125,5.355636596679688
4.401000000000103,-0.4738800048828125,6.474316406250001,5.139407348632813
4.411000000000101,-1.2541595458984376,5.959313964843751,4.143795776367188
4.421000000000102,-1.2677673339843751,6.031838989257813,4.62664794921875
4.431000000000001,-0.236566162109375,8.296862792968751,5.5639404296875
4.441000000000102,0.246435546875,10.633963012695313,5.99400634765625
4.4510000000000005,-0.059515380859375,11.496337890625,5.033236694335938
4.4610000000001016,0.079254150390625,9.64508056640625,6.282312011718751
4.4710000000001,-0.0095703125,6.355285644531251,6.579739379882813
4.481000000000101,-0.1652374267578125,5.684915161132813,5.86002197265625
4.491000000000103,1.1778961181640626,6.681124877929688,4.284957885742188
4.501000000000101,0.8484680175781251,7.643838500976563,5.956921386718751
4.511000000000102,-0.162994384765625,8.374472045898438,6.186459350585938
4.521000000000001,-0.2310333251953125,9.312811279296875,4.856036376953125
4.531000000000102,-0.8377014160156251,10.152008056640623,5.826376342773438
4.5410000000001,-0.380419921875,9.7964111328125,5.068676757812501
4.551000000000101,0.0219818115234375,8.248712158203126,4.0008392333984375
4.561000000000099,-0.279632568359375,6.323135375976563,5.120565795898438
4.571000000000101,-0.1087127685546875,6.114682006835938,5.3780670166015625
4.580000000000101,-0.0013458251953125,7.344616699218751,4.506719970703125
4.591000000000101,-0.050543212890625,8.511148071289064,4.796520996093751
4.600000000000101,0.069384765625,9.0953857421875,6.2853027343750005
4.611000000000001,0.43485107421875,8.860015869140625,5.9757629394531255
4.6200000000001005,-0.2352203369140625,8.833248901367188,5.750112915039063
4.630000000000102,-0.02452392578125,8.386883544921876,6.519476318359375
4.6400000000001,0.4735809326171875,7.187753295898438,5.537472534179688
4.650000000000102,-0.6987823486328125,6.659890747070313,5.238250732421875
4.660000000000004,0.1335357666015625,6.932495117187501,4.835250854492188
4.671000000000102,0.1120025634765625,7.9589111328125,6.1166259765625
4.680000000000103,-0.6237152099609375,9.254342651367187,4.83121337890625
4.690000000000101,0.0354400634765625,9.783551025390626,3.857583618164063
4.700000000000102,0.05443115234375,8.490960693359376,5.863162231445313
4.7100000000001,-0.163592529296875,6.445306396484376,5.396310424804688
4.720000000000102,0.179742431640625,6.599029541015626,3.693991088867188
4.7300000000001,0.0001495361328125,8.429650878906251,5.808880615234376
4.7400000000001015,-0.53773193359375,9.1396484375,6.728527832031251
4.750000000000004,-0.4825531005859375,8.423370361328125,5.672653198242188
4.760000000000101,-0.9341522216796876,8.3082275390625,6.214572143554688
4.770000000000103,-0.12979736328125,8.803939819335938,6.784005737304688
4.780000000000101,0.5090209960937501,8.334994506835939,4.436886596679688
4.790000000000102,0.294586181640625,7.400094604492188,4.952786254882813
4.8000000000001,1.027163696289063,6.64598388671875,5.678634643554688
4.810000000000102,0.2749969482421875,7.652810668945313,6.241937255859376
4.8200000000001,-0.00179443359375,9.338681030273438,4.2535552978515625
4.830000000000101,0.2815765380859375,9.70474548339844,6.222198486328126
4.84,0.2304351806640625,8.359518432617188,6.720751953125
4.850000000000101,-0.17525634765625,7.757186889648438,5.364907836914063
4.860000000000103,-0.0997406005859375,7.982687377929688,5.026208496093751
4.8700000000001005,-0.6679779052734376,7.857675170898438,6.417492675781251
4.880000000000102,-0.8882446289062501,7.290783691406251,4.837942504882813
4.8900000000001,-0.4068878173828125,7.482189941406251,5.043255615234376
4.900000000000102,0.1347320556640625,7.987173461914063,6.309976196289063
4.9100000000001,-0.388494873046875,9.52186279296875,5.405880737304688
4.920000000000101,0.01854248046875,9.657342529296876,4.0566162109375
4.930000000000103,0.052337646484375,8.622702026367188,5.101724243164063
4.940000000000101,-0.260491943359375,7.904928588867188,5.468386840820313
4.950000000000102,0.5701812744140625,7.212725830078125,3.68636474609375
4.9600000000001,0.38101806640625,6.797763061523438,5.412609863281251
4.970000000000102,0.1963409423828125,7.513742065429688,5.520275878906251
4.9800000000001,0.350811767578125,8.494250488281251,5.056414794921875
4.9900000000001015,-0.223406982421875,8.626589965820314,6.7697998046875005
5.000000000000004,-0.160003662109375,8.498287963867188,6.908419799804688
5.010000000000101,-0.0634033203125,8.3740234375,5.8311614990234375
5.020000000000103,-0.4610198974609375,7.861712646484375,5.81217041015625
5.030000000000101,-0.4930206298828125,7.616772460937501,5.65306396484375
5.040000000000102,-0.0889739990234375,7.113882446289063,4.617825317382813
5.0500000000001,-0.6569122314453125,7.675241088867188,4.8019042968750005
5.060000000000102,-0.014654541015625,8.768649291992189,4.371090698242188
5.0700000000001,0.445318603515625,9.151461791992189,4.0711212158203125
5.080000000000101,-0.13697509765625,7.882049560546876,5.397656250000001
5.089000000000102,0.8855529785156251,6.186907958984375,4.375128173828125
5.100000000000101,0.43724365234375,7.142892456054688,5.007666015625
5.110000000000103,-0.2735015869140625,10.037612915039062,5.857928466796875
5.1200000000001005,0.7034179687500001,10.50147399902344,6.522915649414063
5.129000000000101,0.03887939453125,8.984579467773438,7.976107788085938
5.139000000000102,0.2740997314453125,7.253399658203126,7.0703674316406255
5.150000000000102,0.4222900390625,6.768154907226563,5.7577392578125
5.1600000000001,-1.2311309814453126,6.750210571289063,4.9832916259765625
5.1690000000001,-1.6668792724609376,7.520321655273438,3.473873901367188
5.1790000000001015,-1.361676025390625,7.36375732421875,5.47003173828125
5.1890000000001,-0.398065185546875,8.775527954101562,5.96708984375
5.199000000000101,-0.5395263671875,10.784994506835938,4.703958129882813
5.209000000000103,0.5157501220703126,10.468576049804687,4.7181640625000005
5.219000000000101,-0.3058013916015625,7.77647705078125,7.727279663085938
5.229000000000102,-0.1042266845703125,5.905331420898438,5.695980834960938
5.239000000000001,1.0576690673828126,6.490615844726563,5.341879272460938
5.2500000000001,1.0495941162109377,7.838235473632813,6.359323120117188
5.2590000000001,0.99351806640625,8.607897949218751,5.698373413085938
5.269000000000101,0.1069183349609375,8.559149169921875,5.258587646484376
5.279000000000099,-0.8903381347656251,8.600869750976564,6.105111694335938
5.289000000000101,-0.4338043212890625,9.529339599609376,5.1237060546875
5.299000000000103,-0.249127197265625,9.258828735351564,3.939230346679688
5.3090000000001005,-0.62506103515625,7.656698608398438,4.483242797851563
5.319000000000102,-0.5046844482421875,6.906027221679688,5.052975463867188
5.329000000000001,-0.136376953125,6.851596069335938,4.5805908203125005
5.339000000000102,-0.6320892333984376,7.731765747070313,4.700967407226563
5.350000000000101,0.07357177734375,8.736349487304688,5.294625854492188
5.359000000000101,0.7265960693359376,8.956317138671876,5.701812744140625
5.369000000000103,-0.2498748779296875,8.555410766601563,7.218856811523438
5.379000000000101,0.8015136718750001,8.011846923828125,5.670559692382813
5.389000000000102,0.7140350341796875,7.636660766601563,6.805538940429688
5.399000000000001,-0.0722259521484375,7.489517211914063,5.672802734375001
5.409000000000102,0.2115936279296875,7.341177368164063,4.918692016601563
5.4190000000000005,0.130694580078125,7.385589599609376,5.516537475585938
5.4290000000001015,-0.5169464111328126,8.461352539062501,5.218212890625001
5.4390000000001,-0.3792236328125,9.7461669921875,3.637765502929688
5.450000000000102,-0.448309326171875,9.236697387695314,4.977459716796876
5.459000000000103,-0.6989318847656251,7.885787963867188,5.397207641601563
5.469000000000101,-0.375933837890625,6.362313842773438,4.950991821289063
5.479000000000102,-0.0823944091796875,6.030194091796876,4.3821563720703125
5.489000000000001,-0.1921539306640625,7.583425903320313,5.908172607421875
5.499000000000102,0.2528656005859375,9.17852783203125,5.508462524414063
5.509,-0.9565826416015626,9.859515380859376,7.227529907226563
5.519000000000101,-0.252117919921875,9.341970825195313,5.872433471679688
5.529000000000099,-0.0931610107421875,9.37113037109375,6.4946533203125005
5.539000000000101,0.17645263671875,7.744476318359376,5.41021728515625
5.5500000000001,0.7876068115234376,5.984136962890625,4.8995513916015625
5.5590000000001005,1.4048919677734375,6.204702758789063,5.037872314453125
5.569000000000102,0.677398681640625,7.161734008789063,5.500387573242188
5.578000000000102,0.3832611083984375,9.468179321289064,5.125051879882813
5.5880000000001,-0.1389190673828125,10.677777099609376,5.642596435546875
5.599,-0.432757568359375,9.523507690429687,6.694882202148438
5.6080000000001,-0.0151031494140625,8.303741455078125,5.652615356445313
5.618000000000102,0.0770111083984375,7.290484619140625,5.407376098632813
5.629000000000101,-1.0247711181640626,6.696975708007813,6.339285278320313
5.638000000000101,-0.9003570556640625,6.995599365234376,4.841232299804688
5.650000000000102,-0.6162384033203125,7.575650024414063,4.89102783203125
5.659000000000102,-0.3865509033203125,8.34351806640625,6.507962036132813
5.668000000000102,0.2959320068359375,9.4351318359375,5.268008422851563
5.6780000000001,0.137274169921875,9.901086425781251,4.543057250976563
5.688000000000102,0.1614990234375,9.114825439453126,5.133575439453125
5.6980000000001,0.2812774658203125,7.85543212890625,4.918392944335938
5.708000000000101,0.24105224609375,6.982290649414063,4.611096191406251
5.718000000000004,0.456085205078125,6.810922241210938,4.837344360351563
5.728000000000101,0.5386291503906251,7.267605590820313,5.328869628906251
5.738000000000103,0.118133544921875,8.079586791992188,5.315560913085938
5.7500000000001,-0.319110107421875,8.885137939453125,5.793927001953126
5.758000000000102,-0.246734619140625,9.006710815429688,6.678134155273438
5.7680000000001,-0.690557861328125,8.764611816406251,6.251657104492188
5.778000000000102,-0.6313415527343751,7.888629150390625,5.822039794921875
5.7880000000001,-0.327783203125,7.099826049804688,5.317953491210938
5.798000000000101,-0.977667236328125,7.161883544921875,5.744879150390625
5.808000000000103,0.1308441162109375,7.243231201171875,4.373931884765625
5.818000000000101,-0.0222808837890625,8.252749633789064,5.35040283203125
5.828000000000102,0.0136077880859375,9.333596801757814,4.361520385742188
5.8380000000001,0.6465942382812501,9.402532958984375,4.5870208740234375
5.850000000000001,0.633734130859375,7.467834472656251,5.325131225585938
5.8580000000001,0.417205810546875,6.046343994140625,4.843923950195313
5.868000000000102,0.437841796875,7.343569946289063,4.69962158203125
5.8780000000001,0.094207763671875,9.28140869140625,5.852694702148438
5.888000000000101,-0.1353302001953125,10.068865966796876,6.489270019531251
5.898000000000103,0.1972381591796875,9.18450927734375,7.090853881835938
5.908000000000101,0.1936492919921875,7.815805053710938,6.811221313476563
5.918000000000102,-0.5595642089843751,7.134817504882813,5.68895263671875
5.9280000000001,-0.98753662109375,7.25010986328125,3.92562255859375
5.938000000000102,-1.7045623779296877,7.018777465820313,5.446255493164063
5.9480000000001,-0.7189697265625,7.086367797851563,5.574258422851563
5.958000000000101,0.0369354248046875,8.980093383789063,5.87198486328125
5.9680000000000994,0.0336456298828125,10.464239501953124,5.406927490234375
5.978000000000101,0.30146484375,9.946844482421875,5.750711059570313
5.988000000000103,0.001495361328125,7.634268188476563,6.0998779296875005
5.998000000000101,0.1232177734375,6.169412231445313,6.081634521484375
6.008000000000102,0.9876861572265626,7.237997436523438,5.10875244140625
6.0180000000001,1.218121337890625,8.219403076171876,5.2733917236328125
6.028000000000105,0.2902496337890625,8.106204223632814,5.631082153320313
6.0380000000001,-0.566741943359375,8.365499877929688,5.664279174804688
6.048000000000101,-0.557470703125,8.93568115234375,5.562295532226563
6.058000000000103,-0.8837585449218751,9.623846435546875,5.3332061767578125
6.068000000000101,-0.1969390869140625,9.00028076171875,4.426119995117188
6.078000000000102,-0.104376220703125,7.544995117187501,4.46634521484375
6.087000000000103,-0.849066162109375,6.781912231445313,5.467788696289063
6.097000000000104,0.143255615234375,6.79013671875,4.153814697265625
6.107000000000102,0.1021331787109375,7.719204711914063,4.883102416992188
6.117000000000104,-0.180340576171875,8.728723144531251,5.378515625
6.127000000000102,0.49287109375,9.113330078125,5.862863159179688
6.1370000000001,0.237164306640625,8.454025268554688,6.808978271484375
6.1470000000001015,0.197686767578125,7.970275878906251,6.513195800781251
6.1570000000001,0.5118621826171875,7.959060668945313,5.609249877929688
6.167000000000105,-0.0396270751953125,7.541256713867188,6.046942138671875
6.177000000000103,-0.184228515625,6.919784545898438,5.3940673828125005
6.187000000000104,0.155816650390625,7.292428588867188,4.748220825195313
6.197000000000102,-0.579901123046875,9.144284057617188,4.696331787109376
6.207000000000104,-0.4568328857421875,9.700408935546877,4.756146240234376
6.217000000000102,-0.0992919921875,8.368490600585938,4.00517578125
6.2270000000001,-0.8634216308593751,6.740939331054688,5.556164550781251
6.237000000000101,0.2869598388671875,6.291882324218751,4.224694824218751
6.247000000000099,-0.122918701171875,8.117269897460938,5.685812377929688
6.2570000000001045,-0.340045166015625,9.576742553710938,5.835198974609376
6.267000000000103,-0.21533203125,9.102264404296877,6.702508544921876
6.277000000000104,-0.7316802978515625,8.56483154296875,6.895559692382813
6.287000000000102,-0.433355712890625,8.5379150390625,6.606506347656251
6.297000000000104,0.6889129638671876,7.899545288085938,5.143594360351563
6.307000000000102,0.4574310302734375,7.011749267578126,4.770651245117188
6.3170000000001,1.0466033935546877,6.741986083984376,4.644891357421876
6.327000000000105,0.7150817871093751,7.486227416992188,5.939276123046875
6.337000000000103,0.160601806640625,9.046487426757814,5.0411621093750005
6.347000000000104,-0.2238555908203125,10.415341186523438,5.342327880859376
6.357000000000102,0.4868896484375,9.247463989257811,6.518728637695313
6.367000000000104,-0.26796875,7.806832885742188,6.605459594726563
6.377000000000102,-0.137274169921875,7.152163696289063,5.185763549804688
6.3870000000001,-0.402850341796875,7.199267578125,5.922976684570313
6.3970000000001015,-1.1366241455078123,7.611090087890625,5.8740783691406255
6.4070000000001,-0.485693359375,7.877563476562501,4.42447509765625
6.417000000000105,-0.179144287109375,8.201159667968751,5.9730712890625
6.427000000000103,-0.05323486328125,8.80887451171875,5.8132171630859375
6.437000000000104,0.098394775390625,9.756784057617187,4.2049560546875
6.447000000000102,0.0850860595703125,9.158938598632814,4.482196044921875
6.457000000000104,0.00478515625,7.820590209960938,5.444610595703125
6.467000000000102,0.273651123046875,7.101919555664063,4.634274291992188
6.4770000000001,0.614593505859375,6.652264404296876,4.616629028320313
6.487000000000101,0.0447113037109375,7.6454833984375,5.6457366943359375
6.497000000000099,0.2376129150390625,8.422473144531251,5.622409057617188
6.5070000000001045,-0.0088226318359375,8.690740966796875,5.61956787109375
6.517000000000103,-0.868206787109375,8.624047851562501,7.403384399414063
6.527000000000104,0.116937255859375,8.437127685546876,5.633474731445313
6.537000000000102,-0.4876373291015625,7.881600952148438,5.956921386718751
6.546000000000102,-0.72196044921875,7.335943603515625,5.15361328125
6.557000000000102,-0.0844879150390625,7.247866821289063,5.06688232421875
6.5670000000001,-0.2811279296875,7.567874145507813,5.128042602539063
6.5760000000000005,-0.303558349609375,8.663226318359376,4.473074340820313
6.5860000000001016,0.4134674072265625,9.455319213867188,4.179983520507813
6.5960000000001,0.355596923828125,8.33035888671875,5.46763916015625
6.606000000000101,0.1867706298828125,6.360369873046875,5.057162475585938
6.616000000000103,0.5151519775390625,6.643292236328126,4.124057006835938
6.626000000000101,0.0276641845703125,8.623001098632812,5.722747802734375
6.636000000000102,-0.029010009765625,10.012939453125,6.198870849609375
6.646000000000001,0.4581787109375,9.584219360351565,6.0236145019531255
6.656000000000102,0.093609619140625,8.692385864257814,8.030838012695312
6.666,0.5247222900390626,7.786944580078125,5.996099853515625
6.676000000000101,-0.5606109619140626,6.969131469726563,5.055667114257813
6.686000000000099,-1.5497924804687502,6.679330444335938,4.494607543945313
6.696000000000101,-1.05751953125,6.542205810546876,5.634072875976563
6.706000000000099,-0.364569091796875,7.994650268554688,5.643045043945313
6.716000000000104,-0.1544708251953125,10.226925659179688,5.4075256347656255
6.726000000000102,-0.0294586181640625,10.771087646484377,5.439376831054688
6.736000000000001,-0.2543609619140625,8.968878173828125,6.217114257812501
6.746000000000098,-0.3656158447265625,6.763668823242188,5.811572265625
6.756000000000103,0.447412109375,6.501083374023438,5.721551513671876
6.766000000000101,1.2013732910156252,7.262222290039063,5.025460815429688
6.776000000000099,0.5097686767578126,7.940518188476563,5.2792236328125
6.786000000000104,0.3608306884765625,8.11083984375,5.728878784179688
6.796000000000102,-0.33675537109375,8.820239257812501,5.86600341796875
6.8060000000001,-0.6497344970703125,9.722390747070314,5.684616088867188
6.816000000000098,0.2014251708984375,9.52186279296875,4.607656860351563
6.826000000000104,-0.2552581787109375,8.161981201171876,5.187857055664063
6.8360000000001016,-0.5942565917968751,7.0593017578125,4.59075927734375
6.846,-0.100189208984375,6.655853271484376,4.714724731445313
6.856000000000098,-0.2420989990234375,6.991561889648438,4.919888305664063
6.866000000000103,-0.1562652587890625,8.297909545898438,4.740444946289063
6.876000000000101,0.2253509521484375,9.016580200195314,5.132977294921876
6.886000000000099,0.0411224365234375,8.809771728515626,6.834100341796876
6.896000000000104,-0.011065673828125,8.704797363281251,6.2613769531250005
6.906000000000102,0.48748779296875,8.161083984375,5.91385498046875
6.916,0.014056396484375,7.516433715820313,6.2494140625000005
6.926000000000098,-0.0408233642578125,6.931896972656251,5.57171630859375
6.936000000000103,0.184527587890625,6.7309204101562505,4.93289794921875
6.946000000000101,-0.5586669921875,8.158990478515626,5.73441162109375
6.956000000000099,-0.0231781005859375,9.530386352539065,3.9328002929687504
6.966000000000104,-0.241949462890625,9.441262817382814,4.626348876953125
6.976000000000102,-0.50662841796875,7.666717529296876,5.084228515625
6.986000000000001,0.247332763671875,6.213076782226563,4.3078369140625
6.996000000000098,-0.0393280029296875,7.290185546875,4.834353637695313
7.006000000000103,-0.1963409423828125,9.34107360839844,5.62913818359375
7.016000000000101,-0.029010009765625,9.434982299804688,6.76322021484375
7.025000000000102,-0.5987426757812501,8.305834960937501,6.899298095703125
7.036000000000104,-0.9766204833984377,8.310321044921876,6.9582153320312505
7.046000000000102,0.38759765625,8.268899536132814,5.916546630859376
7.0560000000001,-0.1051239013671875,7.7411865234375,5.1238555908203125
7.066000000000098,0.48509521484375,6.741238403320313,4.432699584960938
7.074999999999999,1.1424560546875,6.689648437500001,5.487527465820313
7.085000000000104,-0.1864715576171875,8.527597045898439,5.462405395507813
7.095000000000102,0.167779541015625,10.075894165039063,3.808984375
7.1050000000001,0.1798919677734375,9.853982543945314,6.527999877929688
7.1150000000000055,-0.069384765625,8.109344482421875,6.465643310546875
7.125000000000103,0.15970458984375,7.441815185546876,5.3287200927734375
7.135000000000101,0.0010467529296875,7.484732055664063,6.163580322265625
7.145,-0.7301849365234375,7.5318359375,6.150271606445313
7.155000000000104,-0.6602020263671875,7.73759765625,5.01903076171875
7.165000000000102,-0.0958526611328125,7.5264526367187505,5.512051391601563
7.1750000000001,-0.174957275390625,8.28131103515625,6.353341674804688
7.184999999999999,0.1888641357421875,9.684558105468753,4.4688873291015625
7.195000000000096,0.1431060791015625,9.33389587402344,4.184320068359376
7.205000000000101,-0.530255126953125,8.337387084960938,5.4682373046875
7.215,0.235369873046875,7.595089721679688,4.4992431640625
7.225000000000104,0.166583251953125,7.396505737304688,4.3503051757812505
7.2350000000001025,-0.2020233154296875,7.4564697265625,5.545248413085938
7.2450000000001,0.51739501953125,7.785598754882813,4.965646362304688
7.254999999999999,-0.15252685546875,8.110989379882813,5.962454223632813
7.265000000000096,-0.398065185546875,8.579336547851563,6.520672607421876
7.275000000000102,0.267071533203125,8.743228149414064,6.1107940673828125
7.2850000000001,-0.2667724609375,8.036669921875001,6.571664428710938
7.295000000000098,-0.4391876220703125,7.528994750976563,5.624353027343751
7.305000000000103,0.066693115234375,7.507461547851563,4.963253784179688
7.315000000000101,-0.24822998046875,7.566378784179688,5.343374633789063
7.324999999999999,-0.3234466552734375,8.015734863281251,4.8748779296875
7.335000000000104,0.3934295654296875,8.573205566406251,3.9179962158203128
7.345000000000102,-0.194097900390625,9.042599487304688,4.756295776367188
7.3550000000001,0.0838897705078125,7.537368774414063,5.152267456054688
7.365000000000005,0.533544921875,6.254946899414063,4.135272216796875
7.375000000000096,-0.385504150390625,7.716812133789063,5.5944458007812505
7.385000000000101,0.321502685546875,10.049575805664062,5.9036865234375
7.395,0.5342926025390625,10.256832885742188,6.800903320312501
7.405000000000104,0.3114837646484375,8.702703857421875,7.421478271484376
7.415000000000102,1.07486572265625,7.1974731445312505,6.611590576171875
7.4250000000001,-0.1598541259765625,6.689498901367188,5.553024291992188
7.434999999999999,-1.3719940185546875,6.824530029296875,3.893472290039063
7.445000000000096,-1.34522705078125,7.403085327148438,4.616030883789063
7.455000000000101,-1.1554656982421876,7.817300415039063,5.998941040039063
7.465,-0.6464447021484375,9.375167846679688,5.4299560546875005
7.475000000000104,-0.087030029296875,10.850640869140626,5.341131591796875
7.4850000000001025,-0.297576904296875,9.685604858398438,6.170907592773438
7.4950000000001,-0.6488372802734376,7.089358520507813,6.301602172851563
7.504999999999999,0.5150024414062501,5.796917724609376,5.6292877197265625
7.515000000000096,0.8193084716796876,6.740042114257813,5.964996337890625
7.525000000000102,1.1303436279296877,8.124746704101563,5.300607299804688
7.534000000000102,1.1233154296875,8.945849609375001,4.985235595703125
7.5440000000001,-0.2954833984375,8.860763549804688,6.260629272460938
7.555000000000103,-0.46475830078125,9.149368286132812,5.632876586914063
7.564000000000096,-0.03349609375,9.408963012695311,4.5177856445312505
7.574000000000101,-0.1882659912109375,8.429949951171876,4.8871398925781255
7.584000000000099,-0.45399169921875,7.503723144531251,4.597787475585938
7.594000000000104,-0.44442138671875,6.694732666015626,4.4778594970703125
7.604000000000095,-0.5543304443359376,6.492858886718751,5.040713500976563
7.6140000000001,-0.496759033203125,7.983734130859376,5.038320922851563
7.623999999999999,0.0252716064453125,9.32312927246094,4.830166625976563
7.634000000000103,-0.2166778564453125,9.468478393554689,6.599777221679688
7.644000000000101,0.23865966796875,8.212374877929689,6.784304809570313
7.654000000000099,0.5785552978515626,7.538714599609375,5.962005615234375
7.664000000000104,0.122021484375,7.663876342773438,6.338687133789063
7.674000000000095,0.528759765625,7.446450805664063,5.1791839599609375
7.6840000000001,0.2271453857421875,6.981243896484376,5.605511474609376
7.694000000000098,0.101385498046875,7.535574340820313,4.911813354492188
7.704000000000104,0.018841552734375,9.450234985351564,4.677490234375
7.714000000000102,-0.27095947265625,10.017276000976564,4.5103088378906255
7.7240000000001,-0.43245849609375,8.545989990234375,4.756295776367188
7.733999999999998,-0.5419189453125001,6.937429809570313,4.940823364257813
7.744000000000096,-0.4347015380859375,5.778076171875,4.803549194335938
7.754000000000101,-0.4472625732421875,6.45218505859375,4.66253662109375
7.764000000000099,-0.217724609375,8.51697998046875,5.5679779052734375
7.774000000000104,-0.8205047607421876,10.440911865234376,6.494503784179688
7.784000000000102,-0.8033081054687501,10.000677490234375,7.052273559570313
7.7940000000001,-0.1646392822265625,9.265408325195311,6.365155029296876
7.8039999999999985,0.3814666748046875,8.145980834960938,6.122158813476563
7.814000000000103,0.8852539062500001,6.481045532226563,5.195184326171876
7.824000000000101,1.36376953125,6.162683105468751,4.895364379882813
7.834000000000099,0.9957611083984376,6.804940795898438,5.470330810546876
7.844000000000104,0.684576416015625,8.405575561523438,5.655007934570313
7.854000000000095,0.034393310546875,10.109091186523438,5.58487548828125
7.8640000000001,-0.197686767578125,10.186550903320311,5.414254760742188
7.873999999999999,-0.1819854736328125,8.8944091796875,5.872134399414063
7.884000000000103,-0.3357086181640625,7.271343994140626,5.5519775390625
7.894000000000101,-0.9422271728515624,6.738397216796876,5.534332275390625
7.904000000000099,-1.0578186035156252,7.44749755859375,5.606558227539063
7.914000000000104,-0.7422973632812501,7.515835571289063,5.01005859375
7.924000000000095,-0.7212127685546875,7.912255859375,6.034680175781251
7.9340000000001,0.3228485107421875,8.605355834960939,5.992810058593751
7.944000000000098,0.201873779296875,9.568667602539064,5.364010620117188
7.954000000000104,0.052337646484375,9.595584106445314,4.80130615234375
7.964000000000102,0.83082275390625,8.376565551757814,4.51898193359375
7.9740000000001,0.3108856201171875,7.03836669921875,5.388983154296875
7.983999999999998,0.382513427734375,6.818399047851563,4.434194946289063
7.994000000000103,0.88046875,7.553967285156251,4.577001953125
8.0040000000001,-0.0234771728515625,8.089456176757814,5.635418701171876
8.013000000000101,-0.4675994873046875,8.445950317382813,5.5806884765625
8.024000000000104,-0.2848663330078125,8.839678955078126,5.979949951171875
8.033000000000104,-0.5493957519531251,8.635263061523439,6.829763793945313
8.0440000000001,-0.7901489257812501,8.321087646484376,5.941519165039063
8.0530000000001,-0.340643310546875,7.452282714843751,5.183969116210938
8.063000000000098,-0.7363159179687501,6.976309204101563,5.852545166015625
8.073000000000103,-0.339447021484375,7.206744384765625,5.234213256835938
8.083000000000101,0.2534637451171875,8.142691040039063,4.013250732421875
8.094000000000104,-0.043963623046875,8.982037353515626,5.246923828125
8.103000000000105,0.59156494140625,8.815603637695313,4.37901611328125
8.113000000000103,0.5435638427734375,7.360617065429688,4.554571533203125
8.1230000000001,0.409429931640625,6.833502197265625,4.7305755615234375
8.133000000000099,0.399261474609375,8.48468017578125,5.406927490234375
8.143000000000104,0.338250732421875,9.742428588867188,5.7242431640625
8.153000000000102,0.3760833740234375,9.37232666015625,6.741088867187501
8.1630000000001,0.458477783203125,8.133419799804688,7.601519775390625
8.173000000000098,0.1244140625,7.523760986328125,6.110943603515626
8.183000000000103,-1.2451873779296876,7.318447875976563,5.514294433593751
8.1930000000001,-1.2707580566406251,7.126443481445313,4.402792358398438
8.203000000000099,-1.5379791259765627,7.067974853515626,5.622259521484375
8.213000000000104,-0.70401611328125,7.95950927734375,5.398553466796876
8.223000000000102,0.26378173828125,9.738540649414062,5.458367919921876
8.2330000000001,-0.469842529296875,10.316796875,5.520275878906251
8.243000000000098,-0.1009368896484375,8.654852294921875,5.176791381835938
8.253000000000103,0.1981353759765625,6.968533325195313,6.230123901367188
8.263000000000101,0.3063995361328125,6.646282958984376,6.355584716796876
8.2730000000001,1.304852294921875,7.882498168945313,4.641302490234375
8.283000000000104,1.209149169921875,8.48468017578125,5.7783752441406255
8.293000000000102,0.02811279296875,7.974014282226563,6.339584350585938
8.3030000000001,-0.5682373046875,8.348602294921875,5.49156494140625
8.313000000000098,-0.4342529296875,8.934634399414064,5.445208740234375
8.323000000000103,-0.4134674072265625,9.003421020507814,5.540164184570313
8.333000000000101,-0.483001708984375,8.633767700195314,4.13975830078125
8.3430000000001,-0.332269287109375,7.449740600585938,4.350454711914063
8.353000000000105,-0.7908966064453126,7.333401489257813,5.243035888671876
8.363000000000103,-0.177947998046875,7.608547973632813,4.341632080078125
8.3730000000001,0.2531646728515625,7.987771606445313,3.873583984375
8.383000000000099,-0.17406005859375,8.429052734375,6.419735717773438
8.393000000000104,0.676800537109375,8.6336181640625,5.6980743408203125
8.403000000000102,0.253314208984375,8.242282104492189,6.641647338867188
8.4130000000001,0.3407928466796875,7.769000244140625,6.892419433593751
8.423000000000098,0.739605712890625,7.715914916992188,6.085372924804688
8.433000000000103,-0.0046356201171875,7.696026611328126,5.608950805664063
8.4430000000001,-0.18123779296875,7.446301269531251,5.452984619140626
8.453000000000099,0.1184326171875,7.779318237304688,4.966094970703125
8.463000000000104,-0.5537322998046875,8.895156860351562,4.461260986328125
8.473000000000102,-0.77579345703125,9.433187866210938,4.045101928710938
8.4830000000001,-0.2265472412109375,8.074053955078126,4.625750732421875
8.493000000000098,-0.7596435546875,6.401492309570313,4.8277740478515625
8.503000000000103,-0.442327880859375,6.712826538085938,4.35150146484375
8.513000000000101,0.0354400634765625,8.592944335937501,5.469583129882813
8.5230000000001,-0.5022918701171876,9.6145751953125,6.914550781250001
8.532,-0.3061004638671875,8.721844482421876,5.8834991455078125
8.543000000000102,-0.4433746337890625,8.909811401367188,7.137957763671875
8.552000000000103,0.2014251708984375,8.614926147460938,6.8984008789062505
8.5620000000001,0.677099609375,7.42177734375,5.193838500976563
8.572000000000099,1.1695220947265623,6.530691528320313,4.611843872070313
8.582000000000104,1.338198852539063,6.725686645507813,5.7218505859375
8.592000000000102,0.453094482421875,7.949041748046875,5.295672607421875
8.602,0.0046356201171875,9.651809692382812,4.684817504882813
8.612000000000098,-0.441729736328125,10.198513793945311,5.738897705078125
8.622000000000103,-0.0539825439453125,8.951831054687501,6.337789916992188
8.632000000000101,-0.2289398193359375,7.719952392578126,5.212081909179688
8.642000000000099,-0.7597930908203125,7.064086914062501,6.02032470703125
8.652000000000104,-0.5375823974609375,7.152313232421876,5.899798583984375
8.662000000000102,-1.1490356445312502,7.676885986328125,5.388833618164063
8.672,-0.3937286376953125,7.796365356445313,5.212680053710938
8.682000000000098,0.545806884765625,8.471072387695314,6.551327514648438
8.692000000000103,0.2522674560546875,9.25927734375,5.415301513671875
8.702000000000101,0.3170166015625,9.425112915039064,4.218414306640625
8.7120000000001,0.4460662841796875,8.655001831054689,4.9801513671875
8.722000000000104,0.1111053466796875,7.573855590820313,5.06329345703125
8.732000000000102,0.1858734130859375,7.335644531250001,3.989624023437501
8.7420000000001,0.4631134033203125,7.231118774414063,4.94964599609375
8.752000000000098,-0.000897216796875,7.622006225585938,5.5365753173828125
8.762000000000103,-0.5790039062500001,8.473165893554688,5.321990966796875
8.772000000000101,-0.2905487060546875,8.62344970703125,5.874826049804688
8.782,-0.7689147949218751,8.675189208984376,7.272988891601563
8.792000000000105,-0.4723846435546875,8.161831665039063,5.992810058593751
8.802000000000103,-0.3736907958984375,7.701260375976563,5.396011352539063
8.8120000000001,-0.5534332275390625,7.325326538085938,6.129486083984376
8.822000000000099,0.07476806640625,7.346710205078126,4.661190795898438
8.832000000000104,-0.027215576171875,7.838385009765625,4.9125610351562505
8.842000000000102,0.35828857421875,8.625244140625,4.623806762695313
8.852,0.575714111328125,9.267352294921876,4.547842407226563
8.862000000000098,0.3674102783203125,8.344265747070313,4.786651611328125
8.872000000000103,0.4628143310546875,6.661685180664063,4.945010375976563
8.882000000000101,0.138470458984375,6.899298095703125,5.002432250976563
8.892000000000099,-0.144451904296875,8.351742553710938,5.375225830078126
8.902000000000104,-0.2020233154296875,9.624893188476562,5.976510620117188
8.912000000000102,0.170172119140625,9.543994140625,6.921578979492188
8.922,-0.0279632568359375,8.980841064453125,7.624249267578126
8.932000000000098,0.05562744140625,7.744476318359376,6.294723510742188
8.942000000000103,-0.2165283203125,6.668264770507813,5.122509765625001
8.952000000000101,-1.3722930908203126,6.517831420898438,4.787847900390625
8.962,-0.9166564941406252,6.849203491210938,4.309930419921876
8.972000000000104,-0.0841888427734375,8.163327026367188,5.095892333984375
8.982000000000102,-0.1924530029296875,9.971667480468753,5.502331542968751
8.9920000000001,0.212939453125,10.630224609375,5.0760040283203125
9.002000000000098,-0.01734619140625,9.558798217773438,6.064736938476563
9.011,-0.1356292724609375,7.151565551757813,6.4156982421875
9.021000000000104,0.390887451171875,6.352743530273438,5.979351806640626
9.032,0.7237548828125,6.844119262695313,5.535528564453125
9.042000000000105,0.6587066650390625,7.544546508789063,5.704205322265626
9.052000000000104,0.1305450439453125,8.351144409179689,5.934939575195313
9.061000000000096,-0.48868408203125,8.563934326171875,5.554818725585938
9.0710000000001,-0.8433837890625001,9.7246337890625,5.445657348632813
9.081,-0.1368255615234375,9.758877563476563,4.613937377929688
9.091000000000104,-0.2788848876953125,8.358920288085939,4.3843994140625
9.101000000000102,-0.6587066650390625,7.055264282226563,5.05791015625
9.1110000000001,0.1460968017578125,7.0060668945312505,4.344921875000001
9.121,-0.2307342529296875,7.354187011718751,5.308084106445313
9.131000000000096,0.1117034912109375,7.98582763671875,4.675396728515626
9.142,0.6477905273437501,8.389126586914063,5.285653686523438
9.151,0.082843017578125,8.873025512695314,6.487625122070313
9.161000000000104,0.1164886474609375,8.812762451171876,6.244479370117188
9.171000000000102,0.391485595703125,8.160037231445314,6.003726196289063
9.1810000000001,0.017047119140625,7.287493896484375,6.736004638671876
9.191,-0.1131988525390625,7.316802978515626,5.182623291015625
9.201000000000096,0.1290496826171875,7.35538330078125,5.1563049316406255
9.211000000000102,-0.412420654296875,7.678829956054688,5.414852905273438
9.2210000000001,-0.4631134033203125,8.455819702148439,5.033984375
9.231000000000003,-0.2259490966796875,9.613528442382814,3.6003814697265626
9.2420000000001,-0.6907073974609376,8.629132080078126,5.3103271484375005
9.2510000000001,-0.0515899658203125,6.570916748046876,4.804745483398438
9.261,-0.2307342529296875,6.949542236328125,4.6598449707031255
9.271000000000104,-0.349017333984375,8.790032958984376,5.311224365234375
9.281000000000102,0.142657470703125,8.916690063476564,6.495101928710938
9.2910000000001,-0.4400848388671875,8.53492431640625,6.246423339843751
9.300999999999998,-0.4607208251953125,8.143289184570314,6.73570556640625
9.311000000000096,0.5301055908203125,8.043997192382813,6.714022827148438
9.3210000000001,0.33316650390625,8.165719604492189,5.116827392578125
9.331,0.7684661865234376,7.858572387695313,4.3238372802734375
9.342000000000102,0.8468231201171875,7.217361450195313,6.230722045898438
9.351000000000102,-0.0979461669921875,7.517929077148438,5.4072265625
9.3610000000001,-0.1182830810546875,9.115423583984375,4.553076171875
9.371,0.2705108642578125,9.68680114746094,5.838339233398438
9.381000000000096,-0.4116729736328125,8.576495361328126,6.44022216796875
9.3910000000001,-0.09031982421875,7.761074829101563,5.003329467773438
9.4010000000001,-0.08134765625,7.719503784179688,5.938079833984375
9.411000000000104,-0.9311614990234376,7.868292236328125,6.395660400390626
9.421000000000102,-0.44083251953125,7.8718811035156255,4.601077270507813
9.4310000000001,0.1021331787109375,7.40263671875,5.6064086914062505
9.442000000000103,0.0423187255859375,7.646829223632813,6.7040039062500005
9.451000000000096,0.26497802734375,9.186453247070313,4.765716552734375
9.461000000000102,0.2435943603515625,9.670352172851564,4.152767944335938
9.4710000000001,-0.3004180908203125,8.9207275390625,5.452984619140626
9.481000000000003,-0.0514404296875,8.153009033203126,4.361520385742188
9.491000000000096,0.368756103515625,6.902438354492188,4.045401000976563
9.5010000000001,-0.193798828125,6.864755249023438,5.3910766601562505
9.5100000000001,0.1460968017578125,7.774832153320313,5.016488647460938
9.5200000000001,-0.1580596923828125,8.47510986328125,5.277578735351563
9.530000000000104,-0.8406921386718751,8.334097290039063,7.477255249023438
9.542000000000105,0.0862823486328125,8.226132202148438,6.45517578125
9.550999999999998,-0.3624755859375,8.465240478515625,6.624301147460938
9.56,-0.2009765625,8.127886962890626,5.662933349609375
9.570000000000103,-0.0237762451171875,7.563537597656251,5.267111206054688
9.5800000000001,-0.1066192626953125,6.936831665039063,5.139108276367188
9.5900000000001,-0.0426177978515625,7.810272216796876,4.471728515625
9.600000000000104,0.3126800537109375,9.244622802734376,3.888986206054688
9.610000000000095,0.232080078125,9.048580932617188,4.533038330078125
9.6200000000001,-0.0471038818359375,7.938424682617188,5.3347015380859375
9.630000000000098,0.4415802001953125,6.347659301757813,4.606460571289063
9.642,-0.5316009521484375,7.3814025878906255,5.036825561523438
9.650000000000102,-0.46954345703125,8.44520263671875,5.852694702148438
9.6600000000001,0.1410125732421875,8.953475952148438,5.487677001953125
9.669999999999998,-0.570928955078125,9.370831298828126,7.0856201171875
9.680000000000105,0.5434143066406251,9.174639892578126,6.948794555664063
9.6900000000001,0.7213623046875001,8.31361083984375,6.804193115234376
9.7000000000001,-0.292791748046875,7.041058349609376,4.937533569335938
9.710000000000104,-0.747381591796875,6.6576477050781255,4.874578857421875
9.720000000000097,-0.3805694580078125,6.443212890625,5.691644287109376
9.7300000000001,0.134881591796875,8.069119262695313,4.688406372070313
9.7420000000001,0.4619171142578125,9.900637817382814,5.3007568359375
9.750000000000105,0.074468994140625,10.200607299804688,5.586520385742188
9.7600000000001,-0.7660736083984375,9.22742614746094,5.988623046875
9.7700000000001,-0.421392822265625,7.55516357421875,5.689849853515625
9.780000000000104,-0.1792938232421875,6.715518188476563,6.281265258789063
9.790000000000097,0.2417999267578125,7.335345458984375,5.424871826171875
9.8000000000001,0.6720153808593751,7.501779174804688,5.394665527343751
9.81,-0.4629638671875,7.601669311523438,6.144439697265626
9.820000000000103,-0.479412841796875,8.624496459960938,5.762673950195313
9.8300000000001,0.23028564453125,9.907067871093751,4.876821899414063
9.842000000000102,-0.1365264892578125,9.685006713867187,5.298663330078125
9.850000000000104,0.4930206298828125,8.675338745117188,3.9419219970703128
9.860000000000102,0.6308929443359376,7.419833374023438,4.440325927734375
9.8700000000001,-0.142059326171875,6.104364013671876,5.046246337890626
9.880000000000098,-0.1317413330078125,6.999337768554688,4.446157836914063
9.890000000000104,0.1855743408203125,8.132073974609376,4.903439331054688
9.900000000000102,-0.4940673828125,8.62943115234375,6.514242553710938
9.9100000000001,-0.5519378662109375,8.78375244140625,6.701760864257813
9.919999999999998,-0.00059814453125,8.708834838867189,6.189898681640625
9.930000000000105,-0.6672302246093751,8.508456420898439,6.885391235351563
9.9400000000001,-0.232080078125,7.758383178710938,5.340982055664063
9.9500000000001,-0.0275146484375,6.744976806640626,4.900149536132813
9.960000000000104,-0.2687164306640625,6.57181396484375,5.758187866210938
9.970000000000097,0.4278228759765625,8.299853515625001,3.849957275390625
9.9800000000001,0.224603271484375,9.822430419921876,4.171908569335938
9.989999999999998,0.203668212890625,9.17957458496094,4.913009643554688
9.999000000000098,0.2746978759765625,7.806982421875,5.36595458984375
10.009000000000103,0.251220703125,6.739144897460938,4.724743652343751
10.0200000000001,0.3476715087890625,6.885989379882813,5.5141448974609375
10.0290000000001,-0.0133087158203125,8.454623413085939,5.938677978515625
10.039000000000105,-0.8557952880859375,9.132919311523438,6.397305297851563
10.0500000000001,-1.2652252197265623,8.742330932617188,6.256741333007813
10.0590000000001,-1.1360260009765626,8.31361083984375,6.9037841796875
10.0690000000001,-0.5072265625000001,8.241384887695313,5.046994018554688
10.079000000000104,-0.2062103271484375,7.812216186523438,4.742239379882813
10.089000000000102,1.0821929931640626,7.401889038085938,3.96629638671875
10.0990000000001,0.4717864990234375,7.487124633789063,6.299658203125
10.109000000000098,0.6331359863281251,7.946798706054688,5.045199584960938
10.119000000000105,0.6062194824218751,9.461898803710938,6.025408935546875
10.1290000000001,0.47672119140625,9.6743896484375,6.726434326171876
10.1390000000001,0.7766906738281251,8.172897338867188,6.236703491210938
10.149000000000104,0.45279541015625,7.404879760742188,6.00537109375
10.159000000000102,-0.1607513427734375,7.334747314453126,5.931948852539063
10.1690000000001,-0.921142578125,7.954873657226563,5.24034423828125
10.179000000000098,-0.905889892578125,8.185159301757814,4.393222045898438
10.189000000000105,-0.7487274169921876,7.969976806640625,5.329916381835938
10.1990000000001,-0.66812744140625,8.25738525390625,5.7877960205078125
10.2090000000001,-0.2492767333984375,8.842520141601563,4.475616455078125
10.219000000000104,-0.6503326416015626,9.362457275390623,5.033236694335938
10.229000000000102,-0.130694580078125,8.691638183593751,5.177090454101563
10.2390000000001,0.186920166015625,7.450039672851563,4.809231567382813
10.249000000000098,0.32598876953125,6.633871459960938,5.105313110351563
10.259000000000103,1.0114624023437502,7.274334716796876,5.019778442382813
10.2690000000001,0.5211334228515625,8.429949951171876,5.277130126953125
10.2790000000001,0.2980255126953125,8.594589233398438,5.5495849609375005
10.289000000000105,0.259295654296875,8.353536987304688,6.424969482421876
10.299000000000104,-0.1149932861328125,8.120111083984376,6.70340576171875
10.3090000000001,-0.148040771484375,8.277871704101564,5.737252807617188
10.3190000000001,-0.297576904296875,7.972967529296875,5.205801391601563
10.329000000000104,-0.9511993408203124,7.229623413085938,5.854190063476563
10.339000000000102,-0.7064086914062501,7.302896118164063,5.2101379394531255
10.3490000000001,-0.3349609375,8.114727783203126,4.380212402343751
10.359000000000098,-0.5944061279296875,9.385784912109376,4.750314331054688
10.369000000000105,0.2392578125,8.888726806640626,4.8856445312500005
10.379,0.4080841064453125,7.591949462890626,4.984936523437501
10.3890000000001,0.260791015625,6.36246337890625,5.285952758789063
10.399000000000104,0.88465576171875,7.022067260742188,4.101177978515626
10.409000000000102,0.409429931640625,8.273086547851562,6.009857177734375
10.4190000000001,0.5295074462890625,9.43079528808594,5.01962890625
10.429000000000098,0.3446807861328125,9.751101684570314,6.619515991210938
10.439000000000105,0.299969482421875,9.495245361328124,7.553070068359376
10.4490000000001,0.0070281982421875,8.808276367187501,6.342724609375001
10.4590000000001,-0.7209136962890625,6.685162353515626,5.306588745117188
10.469000000000104,-1.4135650634765626,5.8390869140625,5.547940063476563
10.478000000000105,-1.6694213867187502,6.271246337890625,5.0561157226562505
10.4890000000001,-0.60113525390625,7.611090087890625,4.813119506835938
10.4980000000001,-0.477618408203125,9.883590698242188,5.755197143554688
10.5080000000001,-0.413616943359375,10.977746582031251,5.60880126953125
10.518000000000104,0.185125732421875,9.816897583007814,5.187258911132813
10.528000000000102,-0.1607513427734375,7.8120666503906255,6.275582885742188
10.538,0.688763427734375,6.554168701171876,5.921780395507813
10.548000000000098,1.3017120361328125,6.6875549316406255,5.362814331054688
10.558000000000105,0.6926513671875001,6.846810913085938,5.466592407226563
10.5680000000001,0.561956787109375,7.846160888671876,5.8414794921875
10.5780000000001,-0.1182830810546875,8.977252197265626,6.287545776367188
10.588000000000104,-0.7544097900390625,9.956414794921876,5.58427734375
10.598000000000102,-0.33436279296875,10.118362426757812,4.603170776367188
10.608,-0.1601531982421875,8.6982177734375,4.565487670898438
10.618000000000098,-0.7639801025390626,7.245922851562501,4.68406982421875
10.628000000000103,-0.5341430664062501,6.399099731445313,3.965997314453125
10.6380000000001,0.0234771728515625,6.123654174804688,4.8168579101562505
10.648,-0.372943115234375,7.628436279296875,5.041909790039063
10.658000000000104,0.0195892333984375,9.159088134765623,5.185763549804688
10.668000000000102,0.3467742919921875,9.344363403320314,6.706845092773438
10.6780000000001,0.0330474853515625,8.902484130859376,7.575201416015625
10.688000000000098,0.7328765869140625,8.392117309570313,5.5066680908203125
10.698000000000103,0.3195587158203125,7.820590209960938,6.169113159179688
10.7080000000001,0.0049346923828125,6.64658203125,6.029296875
10.718,0.3481201171875,6.282461547851563,4.579693603515626
10.728000000000105,-0.2343231201171875,7.740139770507813,4.703359985351563
10.738000000000104,-0.279931640625,9.68081970214844,4.500588989257813
10.7480000000001,-0.270062255859375,9.769644165039065,4.61588134765625
10.7580000000001,-0.5339935302734375,8.484231567382814,4.365856933593751
10.768000000000104,-0.6886138916015625,7.141845703125001,5.3900299072265625
10.778000000000102,0.4101776123046875,6.014791870117188,4.577899169921875
10.788,-0.4565338134765625,7.232015991210938,5.250811767578125
10.798000000000098,-0.246136474609375,9.361111450195311,5.935388183593751
10.808000000000105,-0.016448974609375,9.509451293945313,7.02281494140625
10.8180000000001,-1.2721038818359376,9.029141235351563,7.5249572753906255
10.828,-0.1443023681640625,8.81007080078125,5.838040161132813
10.838000000000104,0.5310028076171875,8.100372314453125,5.68656005859375
10.848000000000102,0.0767120361328125,6.7413879394531255,4.880859375
10.8580000000001,1.3530029296875,6.511102294921876,4.198974609375
10.868000000000098,0.6853240966796875,7.127041625976563,5.959014892578125
10.878000000000103,-0.0064300537109375,8.863754272460938,5.47003173828125
10.8880000000001,0.1604522705078125,10.415640258789065,4.816558837890625
10.898,0.183331298828125,9.701455688476564,6.520672607421876
10.908000000000104,-0.1739105224609375,8.015435791015626,6.6190673828125
10.918000000000102,0.0133087158203125,7.268951416015626,5.339486694335938
10.9280000000001,-0.3210540771484375,6.951187133789063,5.509060668945313
10.938000000000098,-1.390985107421875,7.504620361328126,6.058755493164063
10.948000000000103,-0.34632568359375,7.648922729492188,4.416400146484375
10.9580000000001,-0.49466552734375,7.948892211914063,5.855685424804688
10.967000000000102,-0.1981353759765625,8.921026611328125,6.101522827148438
10.9770000000001,0.391485595703125,9.90347900390625,4.2408447265625
10.986999999999998,-0.2112945556640625,9.277371215820311,4.9203369140625
10.997000000000105,0.1232177734375,7.894012451171876,5.101873779296875
11.0070000000001,0.5307037353515626,7.222296142578125,4.613339233398438
11.017,0.3061004638671875,6.7234436035156255,4.950094604492188
11.027000000000104,0.478814697265625,7.465740966796876,5.297616577148438
11.037000000000102,0.3727935791015625,8.251254272460939,5.30255126953125
11.0470000000001,-0.3336151123046875,8.500979614257814,6.070867919921875
11.057,-0.30804443359375,8.900390625,6.60411376953125
11.067000000000103,0.136376953125,8.508755493164063,6.019277954101563
11.0770000000001,-0.893927001953125,8.189645385742189,5.8558349609375
11.0870000000001,-0.5508911132812501,7.389477539062501,5.349954223632813
11.097000000000104,-0.160601806640625,6.946401977539063,4.9110656738281255
11.107000000000102,-0.8614776611328125,7.504171752929688,5.381954956054688
11.1170000000001,0.2854644775390625,8.2795166015625,3.9046875
11.127,0.049346923828125,9.210528564453126,5.026507568359375
11.137000000000103,0.012261962890625,8.371630859375001,4.973272705078125
11.1470000000001,0.5585174560546875,6.80748291015625,4.799362182617188
11.1570000000001,0.227294921875,7.226333618164063,5.028451538085938
11.167000000000105,-0.1188812255859375,9.404476928710938,6.154010009765625
11.177000000000104,0.8752349853515625,9.869235229492189,5.899649047851563
11.1870000000001,0.5911163330078125,8.686853027343751,7.1873046875
11.197,0.7807281494140625,7.45048828125,6.996945190429688
11.207000000000104,0.5788543701171875,6.998739624023438,5.32109375
11.217000000000102,-1.3105346679687502,7.318896484375,4.299612426757813
11.2270000000001,-1.634130859375,7.685409545898438,4.2520599365234375
11.236999999999998,-1.0744171142578125,7.798907470703125,5.886639404296876
11.247000000000105,-0.984844970703125,8.569168090820312,5.887088012695313
11.2570000000001,0.0007476806640625,10.055856323242187,5.00946044921875
11.267,-0.1344329833984375,9.865945434570314,6.29666748046875
11.277000000000104,-0.7901489257812501,7.490863037109375,6.418240356445313
11.287000000000102,0.02930908203125,6.304592895507813,5.7589355468750005
11.2970000000001,0.8925811767578126,6.870587158203126,6.142944335937501
11.307,1.1384185791015626,8.296713256835938,5.568426513671875
11.317000000000103,1.1500823974609375,9.027496337890623,4.47711181640625
11.3270000000001,0.246734619140625,8.330957031250001,5.687905883789063
11.3370000000001,-0.5507415771484375,8.243777465820314,5.995950317382813
11.347000000000104,-0.356195068359375,9.2317626953125,4.638461303710938
11.357000000000102,0.1472930908203125,8.864352416992189,4.563543701171875
11.3670000000001,-0.68726806640625,8.051324462890626,5.3990020751953125
11.377,-0.512310791015625,7.240240478515625,4.577450561523438
11.387000000000103,-0.48389892578125,7.333251953125001,4.901495361328125
11.3970000000001,-0.748876953125,7.720101928710938,5.472125244140625
11.4070000000001,0.2163787841796875,8.368341064453126,4.273593139648438
11.417000000000105,-0.0494964599609375,8.65634765625,5.6333251953125005
11.427000000000104,0.0222808837890625,8.272189331054689,6.746023559570313
11.4370000000001,0.4206451416015625,7.983285522460938,5.8251800537109375
11.447,0.3273345947265625,7.644436645507813,6.446652221679688
11.457000000000104,0.4643096923828125,7.79501953125,5.958865356445313
11.466000000000104,0.2543609619140625,7.982089233398438,5.39287109375
11.476000000000102,0.05084228515625,7.39725341796875,5.520425415039063
11.4860000000001,-0.1075164794921875,7.984481811523438,5.4109649658203125
11.497000000000105,-0.0438140869140625,9.170901489257814,4.097738647460938
11.506000000000103,-0.6060699462890625,9.302642822265623,4.3343048095703125
11.5160000000001,-0.3937286376953125,7.424917602539063,5.2983642578125005
11.5260000000001,-0.1806396484375,5.731869506835938,3.9791564941406254
11.536000000000104,-0.70521240234375,7.051376342773438,4.978207397460938
11.546000000000102,0.1777984619140625,9.679623413085938,5.429208374023438
11.5560000000001,-0.498553466796875,10.325918579101565,7.485180664062501
11.566000000000098,-0.7255493164062501,8.591748046875,6.102569580078125
11.576000000000104,-0.631939697265625,7.999734497070313,6.698620605468751
11.586000000000102,0.2148834228515625,7.688848876953125,6.183319091796876
11.5960000000001,0.14654541015625,6.973617553710938,4.783212280273438
11.605999999999998,0.9842468261718752,6.68187255859375,3.697579956054688
11.616000000000104,1.5598114013671875,7.419384765625001,6.365005493164063
11.6260000000001,0.20755615234375,9.002673339843751,6.04425048828125
11.6360000000001,0.33795166015625,10.367489624023438,4.183273315429688
11.646000000000104,0.0647491455078125,10.061837768554687,6.497943115234375
11.656000000000102,-0.23626708984375,7.853787231445313,7.249063110351563
11.6660000000001,0.2729034423828125,6.631329345703126,4.5267578125000005
11.675999999999998,-0.431561279296875,6.984085083007813,6.224441528320313
11.686000000000105,-0.7974761962890625,7.567724609375,5.9874267578125
11.6960000000001,-1.0099670410156252,8.276974487304688,4.8980560302734375
11.7060000000001,-0.838299560546875,8.232562255859376,4.908822631835938
11.716000000000104,0.0312530517578125,8.688198852539063,6.672900390625
11.726000000000102,0.3170166015625,9.464291381835938,4.723397827148438
11.7360000000001,-0.0752166748046875,8.97755126953125,4.1608428955078125
11.746000000000098,0.1792938232421875,7.90328369140625,5.329019165039063
11.756000000000103,0.353204345703125,7.126443481445313,5.312570190429688
11.7660000000001,0.2624359130859375,7.259979248046876,4.244732666015626
11.7760000000001,0.5316009521484375,7.764364624023438,5.316906738281251
11.786000000000104,0.5914154052734375,8.150466918945312,5.441470336914063
11.796000000000102,-0.4475616455078125,8.659936523437501,5.473471069335938
11.8060000000001,-0.18482666015625,8.673992919921876,5.881256103515625
11.816000000000098,-0.2758941650390625,8.35428466796875,6.647030639648438
11.826000000000104,-0.813177490234375,7.853637695312501,6.176889038085938
11.836000000000102,-0.3007171630859375,7.404431152343751,4.86650390625
11.8460000000001,-0.5313018798828125,7.179678344726563,5.902340698242188
11.855999999999998,-0.515301513671875,7.669110107421876,5.53702392578125
11.866000000000104,-0.06400146484375,8.403033447265626,4.381259155273438
11.8760000000001,0.059515380859375,8.89560546875,4.988674926757813
11.8860000000001,0.285015869140625,9.206042480468753,4.832559204101563
11.896000000000104,0.5061798095703125,7.891769409179688,4.6722564697265625
11.906000000000102,0.447113037109375,5.949893188476563,4.900299072265625
11.9160000000001,0.1942474365234375,6.680825805664063,5.002282714843751
11.9250000000001,0.37802734375,8.569766235351564,4.8856445312500005
11.936000000000105,-0.0820953369140625,10.189990234375,6.267807006835938
11.9460000000001,0.3339141845703125,10.044790649414065,6.820343017578126
11.9560000000001,0.5404235839843751,9.004766845703125,7.227081298828126
11.9650000000001,-0.0746185302734375,7.726531982421876,6.320892333984376
11.975000000000104,-0.5036376953125,6.308181762695313,4.834054565429688
11.9860000000001,-1.5110626220703125,6.26077880859375,5.037423706054688
11.9950000000001,-1.48519287109375,6.505120849609376,4.938131713867188
12.005000000000098,-0.2047149658203125,8.327218627929689,5.270999145507813
12.015000000000104,-0.1562652587890625,10.427154541015623,6.033334350585938
12.025000000000102,-0.299969482421875,10.83658447265625,5.177239990234376
12.0350000000001,-0.0183929443359375,9.330157470703126,5.85045166015625
12.045000000000098,0.06280517578125,7.009655761718751,6.306237792968751
12.055000000000105,0.356494140625,6.091055297851563,5.677886962890625
12.065,1.2058593750000002,6.9037841796875,5.137612915039063
12.0750000000001,1.0735198974609377,7.494900512695313,5.490667724609375
12.085000000000104,-0.2373138427734375,8.437426757812501,6.209786987304688
12.095000000000102,-0.14774169921875,9.207537841796876,5.46165771484375
12.1050000000001,-0.48150634765625,9.938919067382812,5.508761596679688
12.115000000000098,-0.4347015380859375,9.6648193359375,4.9478515625
12.1260000000001,0.05443115234375,8.342172241210939,3.900949096679688
12.1350000000001,-0.614593505859375,6.7757812500000005,4.957720947265625
12.1450000000001,-0.4475616455078125,5.9826416015625,4.796820068359375
12.155000000000104,-0.069384765625,7.038067626953126,4.267312622070313
12.165000000000102,-0.2201171875,8.145083618164064,5.296420288085938
12.1750000000001,0.09271240234375,9.254043579101562,6.0849243164062505
12.185000000000098,0.26617431640625,9.174041748046877,6.399548339843751
12.195000000000103,0.0490478515625,8.663375854492188,6.7243408203125
12.2050000000001,0.3129791259765625,8.208038330078125,6.409567260742188
12.2150000000001,0.475225830078125,7.3096252441406255,5.30614013671875
12.225000000000104,-0.4122711181640625,6.722845458984375,5.562744140625
12.235000000000102,0.3470733642578125,6.599627685546875,5.03697509765625
12.245,0.061309814453125,8.300750732421875,4.518084716796875
12.255000000000098,-0.745587158203125,9.918283081054687,4.592703247070313
12.265000000000104,0.0997406005859375,9.522012329101564,4.107757568359375
12.275000000000102,-0.5072265625000001,7.950238037109376,5.6980743408203125
12.2850000000001,-0.4696929931640625,6.23087158203125,4.44541015625
12.295000000000098,0.2346221923828125,6.298461914062501,4.795474243164063
12.305000000000105,-0.1966400146484375,8.394808959960939,6.029296875
12.3150000000001,-0.640911865234375,9.882095336914062,6.361117553710938
12.3250000000001,-0.512908935546875,9.438870239257811,6.638058471679688
12.335000000000104,-0.981854248046875,8.563037109375001,7.6359130859375
12.345000000000102,0.169873046875,7.813861083984375,5.317205810546875
12.3550000000001,0.7209136962890625,7.379608154296876,4.448251342773438
12.365000000000098,0.9129180908203126,7.195230102539063,4.096990966796875
12.375000000000105,0.8987121582031251,7.047637939453126,5.749514770507813
12.3850000000001,0.5746673583984375,7.851544189453126,5.391824340820313
12.3950000000001,-0.238958740234375,9.848748779296876,6.2553955078125005
12.405000000000104,0.416009521484375,10.4208740234375,5.8954620361328125
12.415000000000102,0.094805908203125,8.697918701171876,6.724789428710938
12.425,-0.2367156982421875,6.793875122070313,6.041110229492188
12.435000000000098,-0.1969390869140625,6.673648071289063,5.935537719726563
12.445000000000103,-0.755157470703125,7.534677124023438,5.175595092773438
12.4550000000001,-1.115838623046875,7.991659545898438,4.721005249023438
12.464000000000102,-0.1921539306640625,8.305087280273439,5.02261962890625
12.474,-0.03170166015625,8.572607421875,5.814862060546876
12.484000000000098,-0.204266357421875,9.28604431152344,4.75823974609375
12.494000000000105,0.11185302734375,9.830056762695314,4.430755615234375
12.5040000000001,0.102880859375,8.388079833984376,5.1263977050781255
12.514,-0.2787353515625,7.127639770507813,5.103369140625
12.524000000000104,0.6597534179687501,6.310275268554688,4.770053100585938
12.534000000000102,0.67291259765625,6.901690673828125,5.5261077880859375
12.5440000000001,-0.084637451171875,8.425314331054688,5.766860961914063
12.554000000000098,0.2588470458984375,9.129479980468751,4.910168457031251
12.564000000000105,-0.4089813232421875,8.697171020507813,7.11552734375
12.5740000000001,-0.448309326171875,8.2388427734375,6.514840698242188
12.584,-0.1293487548828125,8.227178955078125,4.984039306640625
12.594000000000104,-0.459075927734375,7.586715698242188,5.566781616210938
12.604000000000102,-0.579901123046875,7.111938476562501,5.384347534179688
12.6140000000001,-0.3159698486328125,7.172500610351563,4.614086914062501
12.624000000000098,-0.370849609375,8.245870971679688,5.051480102539063
12.634000000000103,-0.01734619140625,9.532928466796877,5.108303833007813
12.6440000000001,0.541021728515625,9.067123413085938,4.439727783203125
12.654,-0.193499755859375,7.859170532226563,5.547940063476563
12.664000000000105,0.516796875,5.900845336914063,5.3716369628906255
12.674000000000104,0.4015045166015625,6.592001342773438,4.2982666015625
12.6840000000001,-0.389691162109375,8.248263549804689,5.072714233398438
12.694,0.863720703125,9.72403564453125,5.022320556640626
12.704000000000104,0.210845947265625,10.432687377929687,7.499835205078125
12.714000000000102,0.3491668701171875,9.744522094726562,7.057806396484375
12.724,0.6509307861328125,8.490960693359376,6.572711181640625
12.734000000000098,-0.5875274658203126,6.298461914062501,5.847012329101563
12.744000000000105,-1.7162261962890626,5.569921875,4.627545166015626
12.7540000000001,-1.1339324951171876,5.943911743164063,4.848110961914063
12.764,-0.2364166259765625,7.817300415039063,5.311074829101563
12.774000000000104,-0.417803955078125,10.1576904296875,5.883200073242188
12.784000000000102,-0.1278533935546875,11.071356201171875,4.808932495117188
12.7940000000001,-0.509619140625,10.044491577148438,5.8725830078125005
12.804000000000098,-0.374737548828125,7.803842163085938,6.225637817382813
12.814000000000105,0.9084320068359376,6.319696044921876,5.425021362304688
12.8240000000001,0.8931793212890625,6.269003295898438,5.475265502929688
12.834,1.0035369873046875,6.973019409179688,5.580239868164063
12.844000000000104,0.5793029785156251,8.032183837890626,5.9851837158203125
12.854000000000102,-0.411822509765625,9.132022094726564,6.067727661132813
12.8640000000001,-0.292193603515625,10.194476318359376,5.648577880859375
12.874000000000098,-0.1691253662109375,9.951031494140626,5.063143920898438
12.884000000000103,-0.3246429443359375,8.339031982421876,4.548440551757813
12.8940000000001,-0.387896728515625,7.01982421875,4.356286621093751
12.904,-0.47552490234375,6.608749389648438,4.786651611328125
12.914000000000105,-0.6590057373046876,6.703106689453126,4.6493774414062505
12.924000000000104,-0.157012939453125,7.849749755859375,4.6212646484375
12.9340000000001,0.2118927001953125,8.590103149414062,5.3868896484375
12.944,-0.3961212158203125,9.386532592773438,6.478054809570313
12.953,0.29189453125,9.147274780273438,6.352444458007813
12.963000000000104,0.4571319580078125,8.346359252929688,6.254946899414063
12.973000000000102,-0.0599639892578125,7.461105346679688,6.787445068359376
12.9830000000001,0.7117919921875,6.833950805664063,4.662387084960938
12.993,-0.0037384033203125,6.7413879394531255,5.5963897705078125
13.003000000000103,-0.009869384765625,7.293774414062501,5.4493957519531255
13.0130000000001,0.1140960693359375,9.091946411132811,4.348959350585938
13.0230000000001,-0.3581390380859375,9.859515380859376,4.329669189453125
13.034000000000102,-0.5227783203125,8.865100097656251,4.91495361328125
13.043000000000102,-0.3907379150390625,6.859222412109376,4.7540527343750005
13.0530000000001,-0.319708251953125,6.294873046875001,4.3223419189453125
13.063,-0.748577880859375,8.146878051757813,5.663980102539063
13.073000000000103,-0.353204345703125,9.105255126953123,5.853292846679688
13.0830000000001,-0.8918334960937501,8.862408447265626,6.503475952148438
13.0930000000001,-0.8202056884765626,8.79212646484375,7.282260131835938
13.103000000000105,0.471337890625,8.629281616210939,6.4243713378906255
13.113000000000104,0.396868896484375,7.9107604980468755,5.987277221679688
13.1230000000001,1.2088500976562502,7.25609130859375,3.748721313476562
13.134000000000103,1.676150512695313,6.803894042968751,5.882153320312501
13.143000000000104,0.482403564453125,7.0763488769531255,5.550930786132813
13.153000000000102,0.5834899902343751,8.962448120117188,4.520477294921875
13.1630000000001,0.1580596923828125,10.242477416992188,5.802450561523438
13.172999999999998,-0.161199951171875,9.2640625,6.375173950195313
13.183000000000105,-0.1795928955078125,8.062539672851564,5.247073364257813
13.1930000000001,-0.4478607177734375,7.299606323242188,6.0236145019531255
13.2030000000001,-1.1388671875,7.2064453125,6.256591796875001
13.213000000000104,-1.2113922119140623,7.856628417968751,5.024862670898438
13.223000000000102,-0.3560455322265625,7.496395874023438,4.782614135742188
13.234000000000098,-0.7071563720703126,7.719055175781251,7.124050903320313
13.243,0.5211334228515625,8.818145751953125,4.8677001953125005
13.253000000000103,0.1676300048828125,9.852188110351562,4.574908447265625
13.2630000000001,-0.0982452392578125,9.37830810546875,5.198922729492188
13.2730000000001,0.6703704833984375,8.1826171875,4.3861938476562505
13.283000000000104,0.447113037109375,7.1215087890625,4.529598999023438
13.293000000000102,0.4299163818359375,6.7832580566406255,5.167669677734375
13.3030000000001,0.6184814453125,7.582229614257813,4.925421142578125
13.313,-0.0429168701171875,7.986874389648438,5.387188720703126
13.323000000000103,-0.3548492431640625,8.39735107421875,6.396109008789063
13.334,-0.2420989990234375,8.803341674804688,6.555215454101563
13.3430000000001,-0.5944061279296875,8.614926147460938,6.373229980468751
13.353000000000105,-0.8217010498046876,8.157495117187501,6.048587036132813
13.363000000000104,-0.41690673828125,7.380056762695313,5.0830322265625005
13.3730000000001,-0.893927001953125,7.2632690429687505,5.4618072509765625
13.383,-0.07177734375,7.321289062500001,4.587918090820313
13.393000000000104,0.189312744140625,8.249459838867189,4.13975830078125
13.403000000000102,-0.174658203125,9.210678100585938,4.783660888671875
13.412000000000102,0.71119384765625,8.355181884765626,4.475466918945313
13.422999999999998,0.2926422119140625,6.875671386718751,5.660839843750001
13.4340000000001,0.083441162109375,7.801300048828126,4.831362915039063
13.4430000000001,0.3150726318359375,9.471768188476563,6.1955810546875005
13.4520000000001,0.6922027587890626,8.883493041992189,6.341378784179688
13.4620000000001,0.37982177734375,8.300152587890626,6.682620239257813
13.472000000000104,0.97138671875,7.527648925781251,6.366052246093751
13.482000000000102,-0.0518890380859375,7.506863403320313,6.114382934570313
13.4920000000001,-1.4327056884765623,7.688400268554688,4.257443237304688
13.502000000000098,-1.0866790771484376,7.754196166992188,4.278677368164063
13.512000000000103,-1.26806640625,7.850796508789063,6.779968261718751
13.5220000000001,-0.404345703125,8.704797363281251,4.953982543945313
13.534000000000102,0.1885650634765625,9.620257568359376,4.869345092773438
13.542000000000105,-0.6009857177734376,9.024954223632813,6.663479614257813
13.552000000000104,-0.299969482421875,7.504470825195313,5.797216796875
13.5620000000001,0.06639404296875,6.833203125000001,5.7140747070312505
13.5720000000001,0.6160888671875,7.580136108398438,6.3047424316406255
13.582000000000104,1.3313201904296876,8.754293823242188,5.275634765625
13.592000000000102,0.7050628662109375,8.550177001953125,4.8621673583984375
13.6020000000001,-0.229388427734375,7.76451416015625,6.118121337890625
13.611999999999998,-0.17645263671875,8.310919189453125,5.587417602539063
13.622000000000105,-0.2220611572265625,9.076992797851563,4.8093811035156255
13.634000000000103,-0.3745880126953125,8.687899780273439,4.6931915283203125
13.6420000000001,-0.2717071533203125,8.031436157226564,5.367300415039063
13.652000000000104,-0.3617279052734375,7.485180664062501,4.5177856445312505
13.662000000000102,-0.993817138671875,8.083474731445314,4.897457885742188
13.6720000000001,0.1251617431640625,7.922573852539063,4.741342163085938
13.682000000000098,0.260491943359375,7.727130126953125,4.984936523437501
13.692000000000103,-0.4646087646484375,8.1060546875,5.702560424804688
13.7020000000001,0.6222198486328125,8.46494140625,5.788543701171875
13.7120000000001,0.065496826171875,8.055661010742188,7.124050903320313
13.722000000000104,0.126806640625,7.613034057617188,6.100775146484375
13.734000000000004,0.6687255859375001,8.065380859375,5.4467041015625
13.7420000000001,0.0327484130859375,7.976257324218751,6.263021850585938
13.752000000000098,-0.1280029296875,7.668661499023438,5.378216552734376
13.762000000000103,-0.03887939453125,7.898648071289063,4.1937408447265625
13.772000000000094,-0.421990966796875,8.7987060546875,4.860372924804688
13.7820000000001,-0.440234375,9.107049560546876,4.9634033203125005
13.792000000000105,-0.02213134765625,7.947396850585938,3.9908203125
13.802000000000104,-0.8628234863281251,6.902139282226563,5.4778076171875005
13.8120000000001,0.098992919921875,6.196926879882813,5.050732421875001
13.8220000000001,0.18123779296875,7.789785766601563,4.925271606445313
13.832000000000104,-0.3701019287109375,9.870132446289062,6.4318481445312505
13.842000000000102,0.1314422607421875,9.813308715820312,6.572561645507813
13.8520000000001,-0.5256195068359375,8.662179565429689,6.646881103515626
13.861999999999998,-0.5501434326171876,8.366098022460939,5.995800781250001
13.872000000000105,0.536236572265625,7.583575439453125,5.151071166992188
13.8820000000001,0.0506927490234375,6.474166870117188,5.271298217773438
13.8920000000001,1.0494445800781251,6.731369018554688,3.9680908203125
13.902000000000104,0.76263427734375,7.791729736328126,6.1860107421875
13.912000000000102,-0.27454833984375,9.319989013671876,5.669961547851563
13.9220000000001,-0.438140869140625,10.28614196777344,4.878018188476563
13.932000000000098,-0.0707305908203125,9.349447631835938,6.985879516601563
13.942000000000103,-0.000897216796875,7.6819702148437505,6.328369140625001
13.951000000000104,-0.088226318359375,6.998291015625001,5.053723144531251
13.961000000000102,0.1556671142578125,6.810772705078126,5.73680419921875
13.9710000000001,-1.0525848388671877,7.541107177734376,5.985931396484375
13.981000000000098,-0.6207244873046875,8.292077636718751,4.198526000976563
13.991000000000104,0.1290496826171875,8.7149658203125,5.41021728515625
14.0010000000001,-0.0512908935546875,8.937176513671876,6.66153564453125
14.0110000000001,0.47373046875,9.270941162109375,4.167123413085938
14.021000000000104,0.069384765625,8.767303466796875,5.005422973632813
14.031000000000102,-0.161199951171875,7.393066406250001,5.996249389648438
14.0410000000001,0.01495361328125,7.3679443359375005,4.800259399414063
14.051000000000098,0.084637451171875,7.60899658203125,4.260134887695313
14.061000000000105,0.0758148193359375,7.713073730468751,5.772244262695313
14.0710000000001,-0.01256103515625,8.384490966796875,5.301803588867188
14.0810000000001,-0.1398162841796875,8.450885009765626,4.398754882812501
14.091000000000104,-0.554180908203125,8.781658935546876,6.297863769531251
14.101000000000102,0.1840789794921875,8.290283203125,6.406127929687501
14.111,-0.1374237060546875,7.5638366699218755,5.358926391601563
14.121000000000098,-0.5731719970703125,7.421926879882813,6.052325439453125
14.131000000000103,0.419000244140625,7.459310913085938,5.54539794921875
14.1410000000001,-0.3653167724609375,7.837338256835938,5.948696899414063
14.1510000000001,-0.1347320556640625,8.119512939453125,4.918093872070313
14.161000000000104,0.41212158203125,8.8226318359375,5.022320556640626
14.171000000000102,-0.0545806884765625,9.089703369140626,5.164080810546875
14.181,0.0192901611328125,8.207290649414062,4.244882202148438
14.191000000000098,0.229986572265625,6.351846313476563,4.750164794921876
14.201000000000104,-0.1610504150390625,6.157598876953125,4.90299072265625
14.211000000000102,-0.5223297119140625,8.847454833984376,5.0640411376953125
14.2210000000001,0.24464111328125,10.086660766601565,5.737701416015625
14.231000000000098,-0.0478515625,9.69412841796875,6.8355957031250005
14.241000000000104,0.2944366455078125,8.81485595703125,7.041357421875
14.2510000000001,1.1894104003906252,7.615277099609376,5.8773681640625
14.2610000000001,-0.6301452636718751,6.718807983398438,6.222497558593751
14.271000000000104,-0.4964599609375,6.330163574218751,4.119869995117188
14.281000000000102,-0.9486572265625,7.095788574218751,5.418142700195313
14.2910000000001,-0.6216217041015626,8.10904541015625,5.83011474609375
14.301000000000098,0.2008270263671875,9.9280029296875,5.027853393554688
14.311000000000105,-0.188714599609375,10.46558532714844,5.361618041992188
14.3210000000001,-0.5613586425781251,9.058599853515624,5.758486938476563
14.3310000000001,-0.349017333984375,7.460806274414063,5.887985229492188
14.341000000000104,0.12142333984375,6.5320373535156255,5.48797607421875
14.351000000000102,0.391485595703125,6.9985900878906255,5.907275390625
14.361,1.029705810546875,7.990612792968751,5.414105224609376
14.371000000000098,0.452197265625,8.132073974609376,5.665325927734376
14.381000000000103,-0.7615875244140625,8.560195922851562,6.402688598632813
14.3910000000001,0.128900146484375,9.491357421875,5.249166870117188
14.4010000000001,-0.3075958251953125,9.573004150390624,5.119668579101563
14.411000000000104,-0.21234130859375,8.228823852539064,4.754949951171875
14.420000000000098,0.208453369140625,7.028198242187501,4.6093017578125
14.431,-0.5493957519531251,7.072760009765625,5.002282714843751
14.441000000000098,-0.4200469970703125,7.8572265625,4.466644287109375
14.451000000000104,0.26796875,8.255740356445314,4.404885864257813
14.460000000000104,-0.0761138916015625,7.964892578125,5.609548950195313
14.470000000000102,-0.0853851318359375,8.744424438476564,5.591156005859375
14.4800000000001,0.260491943359375,9.038861083984376,6.072512817382813
14.490000000000098,-0.0264678955078125,7.937677001953125,6.7114807128906255
14.500000000000105,-0.0219818115234375,7.215866088867188,6.63162841796875
14.5100000000001,0.485992431640625,7.169509887695313,5.056414794921875
14.52,-0.4059906005859375,7.675540161132813,6.438726806640625
14.530000000000104,0.219818115234375,7.761074829101563,5.190997314453125
14.540000000000102,-0.17525634765625,8.4182861328125,4.622161865234375
14.5500000000001,-0.6201263427734376,9.281857299804688,4.7002197265625005
14.560000000000011,0.10826416015625,9.109591674804689,4.17325439453125
14.570000000000103,-0.413616943359375,7.361514282226563,4.6573028564453125
14.5800000000001,-0.264678955078125,5.757440185546876,4.294378662109375
14.59,0.0139068603515625,7.211978149414063,4.724444580078125
14.600000000000104,-0.39776611328125,9.549676513671876,6.1070556640625
14.610000000000102,-0.48509521484375,10.016079711914063,6.920532226562501
14.6200000000001,-0.4224395751953125,8.986822509765625,6.785501098632813
14.63,-0.684576416015625,8.299105834960939,7.451535034179688
14.640000000000104,0.334661865234375,7.521817016601563,5.7185607910156255
14.650000000000102,0.7508209228515625,6.436932373046876,4.468289184570313
14.66,0.9870880126953124,6.866848754882813,4.213330078125001
14.670000000000098,0.8402435302734376,7.559649658203125,5.929556274414063
14.680000000000105,0.5767608642578126,9.002523803710938,5.207147216796876
14.6900000000001,-0.3366058349609375,10.668356323242188,5.5081634521484375
14.7,0.1164886474609375,10.026248168945314,5.957070922851563
14.710000000000104,0.02691650390625,7.991659545898438,6.430203247070313
14.720000000000102,-0.21114501953125,6.645834350585938,5.533883666992188
14.7300000000001,-0.2525665283203125,6.395510864257813,5.7967681884765625
14.740000000000098,-0.9558349609375,7.439572143554688,5.787945556640626
14.750000000000105,-0.8661132812500001,8.300302124023439,4.941571044921876
14.7600000000001,-0.222808837890625,8.656796264648438,5.5485382080078125
14.77,0.0829925537109375,8.835342407226562,6.092251586914063
14.780000000000104,0.1870697021484375,9.404626464843751,4.6214141845703125
14.790000000000102,0.2032196044921875,9.293820190429688,4.552029418945313
14.8000000000001,0.07955322265625,7.715017700195313,4.948001098632813
14.81,-0.1173858642578125,7.081433105468751,4.77379150390625
14.820000000000103,0.684576416015625,6.68187255859375,4.4539337158203125
14.8300000000001,0.2089019775390625,7.557556152343751,5.4588165283203125
14.84,-0.1440032958984375,8.541802978515626,5.438180541992188
14.850000000000104,0.16568603515625,8.912503051757813,5.34801025390625
14.860000000000102,-0.7376617431640625,8.7269287109375,7.1466308593750005
14.8700000000001,-0.4475616455078125,8.266955566406251,6.223095703125001
14.88,-0.126806640625,7.892517089843751,5.624053955078125
14.890000000000104,-0.5534332275390625,7.052273559570313,5.805889892578126
14.899000000000104,-0.4263275146484375,7.177285766601563,5.130584716796875
14.909000000000102,-0.006280517578125,7.667465209960938,4.781866455078125
14.9190000000001,-0.1733123779296875,8.373126220703126,5.243185424804688
14.928999999999998,0.0157012939453125,9.53861083984375,4.672555541992188
14.939000000000105,0.7076049804687501,9.227874755859377,4.100131225585938
14.9490000000001,0.0210845947265625,7.747018432617188,5.768954467773438
14.9590000000001,0.48629150390625,5.672503662109375,4.650872802734376
14.969000000000104,0.2818756103515625,6.53233642578125,4.284210205078125
14.979000000000102,-0.384906005859375,8.611337280273439,5.906378173828125
14.9890000000001,0.229388427734375,10.144979858398438,5.562145996093751
14.999,-0.1335357666015625,10.034323120117188,7.198071289062501
15.009000000000103,0.32120361328125,9.012542724609377,7.23216552734375
15.0190000000001,0.5558258056640626,7.929901123046876,5.980847167968751
15.0290000000001,-0.5643493652343751,6.259881591796876,5.180380249023438
15.039000000000105,-1.4113220214843751,6.283657836914063,4.7241455078125005
15.049000000000104,-1.0744171142578125,6.740191650390625,5.4251708984375
15.0590000000001,-0.2501739501953125,8.196673583984376,5.771945190429688
15.069,-0.055029296875,10.51224060058594,5.600427246093751
15.079000000000104,0.1975372314453125,10.785293579101562,5.377468872070313
15.089000000000102,-0.3428863525390625,9.012991333007813,5.866900634765625
15.0990000000001,-0.3354095458984375,6.898101806640626,6.008062744140625
15.108999999999998,0.8285797119140625,6.328518676757813,5.561099243164063
15.119000000000105,0.5967987060546875,7.183715820312501,5.5136962890625005
15.1290000000001,0.9094787597656252,7.723092651367188,4.891326904296875
15.1390000000001,0.370849609375,8.066278076171876,6.212478637695313
15.149000000000104,-0.849066162109375,8.857623291015626,6.2927795410156255
15.159000000000102,-0.4158599853515625,10.0045654296875,4.86650390625
15.1690000000001,-0.0333465576171875,9.773980712890626,4.977011108398438
15.178999999999998,-0.217724609375,7.965640258789063,5.082733154296875
15.189000000000105,-0.307147216796875,7.061096191406251,4.156207275390625
15.1990000000001,-0.210247802734375,6.5200744628906255,4.818353271484376
15.2090000000001,-0.234173583984375,6.736602783203126,5.086920166015625
15.219000000000104,-0.1245635986328125,8.307031250000001,4.710089111328125
15.229000000000102,0.2217620849609375,8.979345703125,5.0830322265625005
15.2390000000001,-0.2525665283203125,9.084619140625,7.251156616210938
15.249,0.2691650390625,8.767303466796875,6.113784790039063
15.259000000000103,0.1837799072265625,8.206243896484375,5.714523315429688
15.2690000000001,-0.11005859375,7.467086791992188,6.6337219238281255
15.2790000000001,0.3061004638671875,6.860119628906251,4.859475708007813
15.289000000000105,-0.180340576171875,6.6935363769531255,5.3477111816406255
15.299000000000104,-0.026617431640625,7.883694458007813,5.051031494140625
15.3090000000001,-0.014654541015625,9.701455688476564,4.4673919677734375
15.319,-0.3096893310546875,9.588705444335938,4.3308654785156255
15.329000000000104,-0.4505523681640625,7.892068481445313,5.085275268554688
15.339000000000102,0.106170654296875,6.226684570312501,4.6595458984375
15.3490000000001,-0.17705078125,7.120761108398438,4.816708374023438
15.358999999999998,-0.4496551513671875,9.330905151367189,5.7040557861328125
15.369000000000105,0.007177734375,8.851641845703126,6.394314575195313
15.3790000000001,-1.042266845703125,8.1048583984375,6.709088134765626
15.3880000000001,-0.9269744873046876,8.51697998046875,6.616226196289063
15.399000000000104,0.5866302490234375,8.82562255859375,5.8057403564453125
15.408000000000104,-0.1496856689453125,8.016033935546876,6.096139526367188
15.418000000000102,1.194644165039063,6.795968627929688,3.805245971679688
15.4280000000001,1.263580322265625,6.935635375976563,6.630731201171876
15.438000000000098,0.1867706298828125,8.295367431640626,5.298214721679688
15.448000000000103,0.4933197021484375,9.53980712890625,3.870742797851563
15.458000000000094,-0.0204864501953125,9.20364990234375,6.290985107421876
15.4680000000001,0.0494964599609375,8.048483276367188,6.268405151367188
15.478000000000105,0.0186920166015625,7.988369750976563,4.886691284179688
15.488000000000104,-0.3165679931640625,7.9571166992187505,5.840283203125001
15.4980000000001,-1.0956512451171876,7.986276245117188,6.198272705078126
15.5080000000001,-1.00906982421875,7.793524169921875,5.414254760742188
15.518000000000104,-0.3662139892578125,7.191043090820313,5.2953735351562505
15.528000000000102,-0.4317108154296875,7.989865112304688,6.872381591796875
15.5380000000001,0.6805389404296875,8.995944213867189,4.740444946289063
15.547999999999998,-0.2444915771484375,9.26929626464844,4.8038482666015625
15.558000000000105,-0.18482666015625,8.659039306640626,5.024563598632813
15.5680000000001,0.7606903076171876,8.129382324218751,4.5795440673828125
15.5780000000001,0.1009368896484375,7.77408447265625,4.597637939453126
15.588000000000104,0.398663330078125,7.533331298828125,4.623208618164063
15.598000000000102,0.6186309814453126,7.705148315429688,5.028750610351563
15.6080000000001,-0.302960205078125,7.505667114257813,5.987576293945313
15.618000000000098,-0.389093017578125,8.223291015625001,5.7720947265625
15.628000000000103,0.0083740234375,8.799453735351562,6.661386108398438
15.6380000000001,-0.4505523681640625,8.30045166015625,6.6669189453125
15.6480000000001,-0.7180725097656251,8.004071044921876,5.8371429443359375
15.658000000000104,-0.03529052734375,7.576846313476563,4.847512817382813
15.668000000000102,-0.6954925537109375,7.613632202148438,6.074456787109376
15.6780000000001,0.05443115234375,7.5162841796875,4.076953125
15.688000000000098,0.1715179443359375,8.371481323242188,3.771600341796875
15.698000000000103,0.088824462890625,7.973416137695313,4.997198486328125
15.7080000000001,0.6619964599609376,7.243530273437501,4.3832031250000005
15.7180000000001,0.0668426513671875,8.299105834960939,4.348062133789063
15.728000000000105,0.1030303955078125,9.809420776367189,6.216067504882813
15.738000000000104,0.781475830078125,9.713119506835938,6.602468872070313
15.7480000000001,0.0659454345703125,8.581430053710939,7.094741821289063
15.7580000000001,0.7579986572265626,7.283905029296876,7.069171142578125
15.768000000000104,0.16748046875,6.536074829101563,6.661984252929688
15.778000000000102,-1.1687744140625,6.5036254882812505,4.678387451171876
15.7880000000001,-1.311282348632813,7.64010009765625,3.949847412109375
15.798000000000098,-0.8215515136718751,8.2268798828125,6.021371459960938
15.808000000000105,-0.8200561523437501,9.191238403320312,4.823886108398438
15.8180000000001,-0.3844573974609375,10.516427612304687,4.601376342773438
15.8280000000001,-0.0019439697265625,9.722540283203124,5.584725952148438
15.838000000000104,-0.81885986328125,7.6718017578125,6.930252075195313
15.848000000000102,0.1706207275390625,6.20933837890625,4.8875885009765625
15.8580000000001,0.8040557861328126,6.521569824218751,6.668563842773438
15.868000000000098,0.7227081298828125,7.858871459960938,6.421978759765626
15.878000000000103,0.875982666015625,8.621804809570314,5.112640380859375
15.8880000000001,0.00299072265625,8.595037841796875,5.9433135986328125
15.8980000000001,-0.4653564453125,8.693133544921876,6.464447021484376
15.9070000000001,-0.1167877197265625,9.452328491210938,4.389782714843751
15.917000000000105,-0.0255706787109375,8.725881958007813,4.08592529296875
15.927000000000104,-0.396270751953125,7.547686767578125,5.015142822265625
15.9370000000001,-0.39537353515625,7.527349853515625,4.389782714843751
15.9470000000001,-0.293988037109375,7.411907958984376,4.064990234375
15.9580000000001,-0.439337158203125,7.668212890625001,5.3103271484375005
15.967000000000102,0.294287109375,8.301348876953126,4.888784790039063
15.977,-0.0001495361328125,8.983831787109375,5.666821289062501
15.987000000000098,-0.1239654541015625,8.605056762695312,7.054516601562501
15.997000000000105,0.593060302734375,7.765560913085938,6.361267089843751
16.0070000000001,0.1093109130859375,7.246969604492188,6.6740966796875005
16.0170000000001,0.209649658203125,7.504620361328126,5.964398193359376
16.027000000000104,0.2965301513671875,7.928704833984375,5.1835205078125
16.037000000000102,-0.1353302001953125,7.511349487304688,5.377169799804688
16.047,-0.2367156982421875,8.182766723632813,4.810726928710938
16.057000000000098,-0.14295654296875,9.510348510742189,3.9849884033203127
16.067000000000103,-0.3506622314453125,9.23221130371094,4.2875000000000005
16.0770000000001,-0.5179931640625001,7.546340942382813,4.889981079101563
16.0870000000001,-0.021832275390625,5.4707794189453125,4.032989501953125
16.097000000000104,-0.4550384521484375,6.676638793945313,4.76781005859375
16.107000000000102,-0.076861572265625,9.138900756835938,5.9981933593750005
16.117,-0.1350311279296875,10.563232421875,6.909317016601563
16.1270000000001,-0.7439422607421875,9.373672485351562,7.253399658203126
16.137000000000103,-0.499749755859375,8.479745483398439,6.916793823242188
16.1470000000001,0.378924560546875,7.956369018554688,6.405529785156251
16.1570000000001,0.38759765625,6.712078857421876,4.963104248046875
16.167000000000105,0.8517578125,6.261825561523438,4.152618408203125
16.177000000000103,1.1772979736328126,6.789688110351563,5.401693725585938
16.1870000000001,0.2667724609375,8.548980712890625,5.500985717773438
16.1970000000001,-0.1855743408203125,10.517025756835938,4.598684692382813
16.207000000000104,-0.1033294677734375,10.503866577148438,5.669812011718751
16.217000000000102,-0.1867706298828125,8.721694946289062,6.786846923828126
16.227,0.1185821533203125,6.989019775390625,5.59384765625
16.237000000000098,-0.4006072998046875,6.433792114257813,5.681774902343751
16.247000000000103,-0.9136657714843752,7.096536254882813,6.207095336914063
16.2570000000001,-0.5094696044921876,7.733410644531251,5.093499755859376
16.2670000000001,-0.762335205078125,8.085269165039064,5.738748168945313
16.277000000000104,0.0345428466796875,8.77896728515625,6.002081298828125
16.287000000000102,0.57421875,9.786990356445314,5.161090087890625
16.297,-0.057421875,9.568667602539064,4.480252075195313
16.307000000000098,0.114544677734375,8.214019775390625,4.553524780273438
16.317000000000103,0.3255401611328125,7.002777099609376,5.253054809570313
16.3270000000001,0.1490875244140625,6.783706665039063,4.719808959960938
16.3370000000001,0.329876708984375,7.628286743164063,4.435092163085938
16.347000000000104,0.387896728515625,8.206393432617189,5.543154907226563
16.356000000000098,-0.40673828125,8.399893188476563,5.7963195800781255
16.366000000000103,-0.465057373046875,8.744723510742189,5.917742919921875
16.3770000000001,0.02093505859375,8.733657836914062,6.163430786132813
16.386,-0.67410888671875,8.207589721679689,6.693386840820313
16.396000000000104,-0.2391082763671875,7.331756591796876,5.177987670898438
16.407,-0.3632232666015625,7.080535888671876,5.254101562500001
16.4160000000001,-0.4451690673828125,7.215716552734375,5.840432739257813
16.427000000000103,0.1807891845703125,8.09229736328125,4.5795440673828125
16.4370000000001,-0.099591064453125,9.043496704101564,4.737454223632813
16.4460000000001,0.2349212646484375,9.162677001953126,5.100228881835938
16.456,0.4012054443359375,8.93328857421875,4.896261596679688
16.466000000000104,0.2145843505859375,7.154855346679688,4.910317993164063
16.476000000000102,0.3784759521484375,5.752804565429688,4.723995971679688
16.4860000000001,0.048150634765625,6.67349853515625,4.993011474609375
16.496,-0.203369140625,8.472866821289063,4.617825317382813
16.506000000000103,-0.329278564453125,10.671945190429687,6.432147216796875
16.5160000000001,0.1589569091796875,10.662075805664063,6.935037231445313
16.526,-0.204864501953125,9.594686889648438,7.385888671875
16.536000000000104,0.3204559326171875,7.346112060546876,6.073110961914063
16.546000000000102,-0.51739501953125,5.5806884765625,5.833255004882813
16.5560000000001,-1.5044830322265623,5.652017211914063,5.16796875
16.566,-0.016448974609375,6.3481079101562505,4.0231201171875
16.576000000000104,0.3576904296875,8.789285278320314,6.462503051757813
16.5860000000001,-0.03170166015625,10.65235595703125,5.574407958984375
16.5960000000001,0.0922637939453125,11.067318725585938,4.400848388671875
16.606000000000098,-0.2914459228515625,9.50735778808594,6.222497558593751
16.616000000000103,-0.23507080078125,7.255941772460938,6.278274536132813
16.6260000000001,0.402252197265625,6.383847045898438,4.894317626953125
16.636,0.7076049804687501,6.151168823242188,5.184567260742188
16.646000000000104,0.0629547119140625,6.805987548828125,6.277676391601563
16.656000000000102,-0.2178741455078125,8.313012695312501,6.108999633789063
16.6660000000001,-0.39656982421875,9.687100219726563,5.314364624023438
16.676000000000005,-0.6890625,10.512689208984376,6.214273071289063
16.686000000000103,0.2859130859375,9.694277954101564,4.519281005859376
16.6960000000001,-0.153125,8.046838378906251,4.112393188476563
16.706,-0.087030029296875,6.496896362304688,4.668966674804688
16.716000000000104,0.4151123046875,6.071615600585938,4.835848999023438
16.726000000000102,-0.264080810546875,6.899447631835938,4.281369018554688
16.7360000000001,-0.0275146484375,8.207440185546876,4.958319091796875
