time,ax,ay,az
0.0,-7.0419555664062505,0.356793212890625,4.330267333984375
0.009999999999998,-7.653109741210938,-0.098095703125,9.168658447265626
0.0199999999999995,-7.0353759765625,0.4933197021484375,2.887542724609375
0.0300000000000011,-7.502975463867188,-0.8288787841796875,7.832702636718751
0.0399999999998996,-6.465344238281251,0.070880126953125,2.5627502441406254
0.0500000000000007,-10.094287109375,0.0494964599609375,3.885397338867188
0.0599999999999987,-11.353231811523438,0.6525756835937501,6.791781616210938
0.0700000000000002,-9.603958129882812,0.3186614990234375,1.6173828125
0.0799999999999983,-6.733761596679688,-0.692352294921875,9.99200439453125
0.0899999999999998,-4.622161865234375,-0.0677398681640625,4.174749755859375
0.0999999999999978,-5.214474487304688,-1.206756591796875,10.585662841796877
0.1099999999999994,-10.095034790039064,-0.388494873046875,5.983389282226563
0.120000000000001,-10.18939208984375,-0.7245025634765625,8.570513916015626
0.1299999999998995,-7.087564086914063,0.361279296875,5.41380615234375
0.1400000000000005,-6.114981079101563,-0.6844268798828126,5.8097778320312505
0.1499999999999985,-10.0392578125,-0.6238647460937501,2.66353759765625
0.1600000000000001,-8.827416992187501,0.6032287597656251,0.8197570800781251
0.1699999999999981,-8.999682617187501,-0.5443115234375,5.346365356445313
0.1799999999999997,-6.993206787109376,1.6828796386718752,6.0330352783203125
0.1899999999999977,-8.306582641601564,0.1664337158203125,7.643240356445313
0.1999999999998998,-7.873974609375001,1.1216705322265623,6.705947875976563
0.2100000000000008,-7.114181518554688,0.301165771484375,6.415997314453126
0.2199999999998994,-7.117022705078125,-0.3817657470703125,7.547985839843751
0.2300000000000004,-6.430801391601563,0.5480499267578125,5.064788818359375
0.2399999999999984,-8.787939453125,-0.93131103515625,6.261227416992188
0.25,-9.071310424804688,0.6495849609375001,3.992315673828125
0.2590000000000003,-10.046435546875,-1.332666015625,4.799511718750001
0.2689999999998989,-7.949191284179688,-0.650482177734375,4.354193115234375
0.2789999999999999,-7.9092651367187505,-0.5206848144531251,2.879168701171875
0.2890000000000015,-7.150668334960938,-0.90140380859375,7.912854003906251
0.3000000000000007,-7.287942504882813,0.7748962402343751,4.9478515625
0.309000000000001,-7.734457397460938,-0.491973876953125,10.037612915039062
0.3200000000000003,-8.305087280273439,0.55029296875,5.295672607421875
0.3299999999999983,-8.124746704101563,-0.032000732421875,8.468829345703126
0.3389999999999986,-6.6516662597656255,0.4653564453125,4.117178344726563
0.3490000000000002,-8.146429443359375,0.5748168945312501,4.919888305664063
0.3589999999998987,-8.268301391601563,0.146844482421875,4.152468872070313
0.3689999999999998,-9.792224121093753,0.7369140625,3.65047607421875
0.3790000000000013,-8.716909790039063,-0.172564697265625,5.740093994140626
0.3889999999999993,-7.8748718261718755,-0.0258697509765625,3.092855834960938
0.3990000000000009,-5.82293701171875,0.0897216796875,5.791833496093751
0.4089999999999989,-6.82303466796875,0.107366943359375,5.053274536132813
0.4199999999999981,-10.83359375,0.2739501953125,10.640692138671875
0.4289999999999025,-9.36634521484375,-0.0130096435546875,4.360324096679688
0.439,-7.017132568359376,-1.2767395019531251,10.382742309570313
0.4489999999998986,-3.865509033203125,-0.7487274169921876,4.745529174804688
0.4589999999999996,-6.249713134765625,-0.7888031005859376,7.372579956054688
0.4690000000000012,-11.504861450195314,0.1734619140625,5.340982055664063
0.4789999999999992,-13.150955200195314,-0.937890625,0.125909423828125
0.4890000000000007,-5.601174926757813,-0.275146484375,9.9591064453125
0.4989999999999988,-4.937533569335938,-0.21533203125,4.467242431640625
0.5089999999999968,-9.647772216796875,-0.3506622314453125,7.539611816406251
0.5199999999999996,-9.950732421875,1.17236328125,0.5701812744140625
0.5289999999999999,-7.004721069335938,-0.1039276123046875,9.391616821289062
0.5390000000000015,-5.878713989257813,1.263580322265625,7.118966674804688
0.5489999999999995,-7.108798217773438,-0.0133087158203125,7.352243041992188
0.559000000000001,-10.41309814453125,0.310137939453125,4.620068359375001
0.5689999999999991,-8.315853881835938,0.6596038818359375,4.2001708984375
0.5789999999999971,-7.815805053710938,-0.5514892578125,5.763571166992188
0.5889999999999986,-6.727630615234376,0.636724853515625,4.225741577148438
0.5990000000000002,-8.686553955078125,-1.06051025390625,4.3102294921875
0.6089999999998987,-8.791528320312501,0.4038970947265625,5.255746459960938
0.6199999999999974,-8.360864257812501,-0.8228973388671875,6.651217651367188
0.6290000000000013,-8.324826049804688,-0.6702209472656251,7.295718383789063
0.6389999999999993,-7.021170043945313,0.295782470703125,4.812371826171876
0.6490000000000009,-7.465740966796876,-1.2122894287109376,7.792327880859376
0.6589999999999989,-6.341229248046876,0.61429443359375,5.590557861328126
0.6689999999999969,-8.399594116210938,-0.8566925048828126,7.048684692382813
0.6789999999999985,-9.271389770507811,0.7017730712890625,4.4479522705078125
0.6890000000000001,-9.685455322265623,0.124713134765625,4.786502075195313
0.6989999999998986,-6.947897338867188,0.1769012451171875,5.211334228515625
0.7089999999999996,-7.383496093750001,0.557171630859375,3.747076416015626
0.7199999999998994,-8.133718872070313,-0.456982421875,6.457568359375
0.7289999999999992,-8.878408813476563,1.0486968994140626,4.627545166015626
0.7390000000000008,-7.902536010742188,0.0746185302734375,7.9346862792968755
0.7489999999999988,-7.14603271484375,0.2325286865234375,6.196029663085938
0.7579999999998996,-7.500732421875001,-0.3392974853515625,7.132723999023438
0.7680000000000007,-5.9054809570312505,-1.2104949951171875,4.364361572265626
0.7779999999999987,-7.998837280273438,-0.222509765625,0.2017242431640625
0.7880000000000003,-11.453271484375,-0.22908935546875,9.43154296875
0.7979999999999983,-10.950680541992188,0.7271942138671875,3.156857299804688
0.8079999999999998,-7.767803955078126,0.3034088134765625,9.248062133789062
0.8200000000000003,-4.362716674804688,0.067889404296875,3.35738525390625
0.8290000000000006,-5.591754150390625,-0.7675689697265625,8.841174316406251
0.838000000000001,-7.975808715820313,-0.9422271728515624,6.515289306640626
0.847999999999999,-12.455313110351565,-0.4248321533203125,6.596636962890625
0.8580000000000005,-7.193585205078126,1.6094573974609376,6.972720336914063
0.8679999999999986,-4.732220458984376,0.2385101318359375,8.082278442382814
0.8780000000000001,-8.874072265625001,-0.3218017578125,5.504873657226563
0.8879999999999981,-10.891015625,-0.483599853515625,-0.3617279052734375
0.8979999999999997,-8.925213623046876,-0.4176544189453125,4.428662109375001
0.9079999999999976,-5.808132934570313,0.7647277832031251,5.6512695312500005
0.9179999999998998,-7.640249633789063,0.3120819091796875,8.347256469726563
0.9280000000000008,-9.442010498046876,0.7956817626953125,5.152716064453125
0.9379999999999988,-8.358172607421876,-0.2705108642578125,6.990066528320313
0.9480000000000004,-6.93668212890625,-0.5372833251953125,6.176889038085938
0.9579999999999984,-6.136813354492188,-0.7786346435546876,5.5136962890625005
0.968,-7.742980957031251,-0.364569091796875,7.030740356445313
0.977999999999998,-8.316900634765625,1.2477294921875002,3.209494018554688
0.9879999999999995,-10.210476684570311,-0.3617279052734375,7.493106079101563
0.9979999999999976,-8.253198242187501,-0.2193695068359375,1.991671752929688
1.0079999999998996,-8.887680053710938,-1.170867919921875,6.575851440429688
1.018000000000001,-6.388034057617188,-0.050543212890625,4.113739013671875
1.0279999999999987,-7.594192504882813,0.494964599609375,6.260928344726563
1.0380000000000005,-6.6755920410156255,0.6231170654296876,7.673297119140625
1.0479999999999985,-9.218603515625,0.0859832763671875,7.0419555664062505
1.0579999999999998,-8.523858642578126,-0.12142333984375,7.776327514648438
1.0679999999999978,-7.494601440429688,0.10228271484375,2.96260986328125
1.0779999999999994,-7.108947753906251,-0.2280426025390625,7.315307617187501
1.088000000000001,-7.375570678710938,0.090618896484375,3.040518188476563
1.0979999999998995,-9.41898193359375,0.2077056884765625,6.980795288085938
1.1080000000000003,-8.769396972656251,0.60831298828125,1.7760406494140626
1.1179999999999986,-8.681619262695314,-1.0466033935546877,7.852740478515625
1.128,-7.520022583007813,-0.2978759765625,4.75225830078125
1.137999999999998,-5.321542358398438,-0.1136474609375,2.964105224609375
1.1479999999999997,-7.102667236328125,0.9033477783203124,5.415899658203125
1.1579999999999977,-11.403326416015624,0.475823974609375,7.495498657226563
1.1679999999999993,-10.562185668945313,-0.1347320556640625,9.225631713867188
1.1780000000000008,-6.9037841796875,-0.4481597900390625,5.513247680664063
1.1879999999998994,-4.268209838867188,-0.9175537109375,7.36375732421875
1.1980000000000004,-4.8365966796875,0.5988922119140625,5.504724121093751
1.2079999999999984,-9.698614501953124,-0.485992431640625,7.029095458984376
1.218,-13.91807556152344,-0.0814971923828125,3.02720947265625
1.227999999999998,-6.973468017578125,-0.021832275390625,7.499386596679688
1.2379999999999995,-4.8247833251953125,-1.3050018310546876,6.740042114257813
1.247,-8.837136840820314,-0.171966552734375,4.4255218505859375
1.2570000000000014,-10.54334411621094,-0.069384765625,1.347021484375
1.268000000000001,-7.151864624023438,0.3674102783203125,7.398001098632813
1.277000000000001,-5.595492553710938,0.1655364990234375,6.869390869140625
1.286999999999999,-8.360714721679688,-0.237762451171875,8.248114013671875
1.296999999999997,-9.533526611328126,0.3192596435546875,3.899005126953125
1.3079999999999998,-9.003570556640625,0.13817138671875,7.4397216796875005
1.3179999999999978,-5.675793457031251,1.124810791015625,3.4406768798828127
1.3290000000000006,-7.821337890625,-0.4653564453125,6.142346191406251
1.3369999999999995,-7.135714721679688,0.279034423828125,3.911865234375
1.3470000000000013,-10.096978759765626,0.051141357421875,5.236904907226563
1.356999999999999,-8.412753295898439,0.2370147705078125,6.683367919921875
1.3670000000000009,-8.659786987304688,-0.182733154296875,3.97825927734375
1.376999999999999,-7.15440673828125,-0.4445709228515625,8.702554321289064
1.386999999999997,-6.669461059570313,-0.167181396484375,2.0900665283203126
1.3969999999999985,-7.540060424804688,-0.8602813720703125,9.657192993164063
1.407,-7.264016723632813,-0.0414215087890625,3.2582427978515627
1.4169999999998986,-9.973611450195314,-0.6750061035156251,10.028192138671876
1.4269999999999996,-8.625842285156251,0.637921142578125,2.4009521484375003
1.4370000000000012,-8.048782348632812,-0.313726806640625,6.604412841796876
1.4469999999999992,-6.528747558593751,0.02093505859375,4.007269287109375
1.4570000000000007,-8.175588989257813,-0.6600524902343751,4.927813720703125
1.4669999999999987,-8.897549438476563,0.4933197021484375,6.637759399414063
1.4769999999999968,-8.3752197265625,1.130792236328125,2.854046630859376
1.4869999999999024,-7.844067382812501,0.2447906494140625,10.78738708496094
1.497,-7.1780334472656255,0.384307861328125,3.4237792968750003
1.5070000000000014,-7.733709716796875,-0.729437255859375,8.449240112304688
1.5169999999999997,-5.632577514648438,-0.133984375,1.3932281494140626
1.527000000000001,-8.189047241210938,-0.9963592529296876,2.117282104492188
1.536999999999999,-10.195523071289063,1.113894653320313,9.453973388671876
1.5470000000000006,-11.903076171875,-0.0246734619140625,1.5484466552734375
1.5569999999999986,-8.3166015625,0.5304046630859376,10.869033813476562
1.5669999999999966,-4.928262329101563,0.073272705078125,3.3898345947265627
1.5769999999999025,-4.120169067382813,-1.6662811279296876,9.119461059570312
1.5869999999999995,-7.920330810546876,-0.1816864013671875,6.073410034179688
1.5970000000000013,-11.734848022460938,-0.95045166015625,7.591500854492188
1.606999999999999,-8.310171508789063,1.837948608398437,6.4542785644531255
1.6170000000000009,-5.211782836914063,-0.716278076171875,8.679824829101562
1.626999999999999,-9.52784423828125,-0.5970977783203125,1.85843505859375
1.6370000000000005,-9.533676147460938,0.101983642578125,2.961862182617188
1.6469999999999985,-8.50980224609375,-1.1601013183593751,1.7097961425781252
1.657,-6.582431030273438,1.8025085449218752,7.421478271484376
1.6660000000000004,-7.862161254882813,-0.1591064453125,6.77757568359375
1.6769999999999996,-9.497637939453126,1.0552764892578126,7.895507812500001
1.6870000000000012,-7.686904907226563,0.3384002685546875,4.898654174804688
1.695999999999998,-7.181472778320313,-1.2079528808593751,7.38887939453125
1.7059999999999995,-5.3835998535156255,0.5878265380859375,4.40234375
1.716000000000001,-8.105755615234376,-1.2759918212890626,7.950387573242188
1.7259999999998996,-8.771340942382814,1.826583862304688,2.165133666992188
1.7369999999999983,-10.151260375976562,-1.039126586914063,6.849203491210938
1.7459999999999989,-8.273086547851562,-0.9039459228515626,4.4992431640625
1.7560000000000002,-8.630477905273438,-0.4436737060546875,3.982894897460938
1.7659999999999982,-6.189749145507813,-1.0943054199218751,5.629586791992188
1.7759999999999998,-8.020220947265626,1.272552490234375,4.352099609375
1.7859999999999978,-6.570916748046876,-0.3013153076171875,9.797756958007811
1.7959999999999994,-9.08865661621094,0.3158203125,5.4378814697265625
1.806000000000001,-8.735153198242188,0.248529052734375,8.184860229492188
1.8159999999999,-7.633969116210938,-0.407037353515625,3.504977416992188
1.8260000000000003,-7.281661987304688,0.75665283203125,7.205398559570313
1.8359999999999983,-6.921578979492188,-0.44561767578125,2.7776336669921875
1.846,-9.419281005859377,0.98275146484375,6.006417846679688
1.855999999999998,-9.1001708984375,0.3129791259765625,3.457125854492188
1.866,-8.604757690429688,-1.0824920654296877,6.670208740234376
1.8759999999999977,-8.16168212890625,0.3979156494140625,5.915798950195313
1.8859999999999,-5.893817138671875,-0.9368438720703126,4.604367065429688
1.8960000000000008,-5.726934814453125,0.95284423828125,4.192544555664063
1.9059999999999,-8.025903320312501,-0.10706787109375,4.069924926757813
1.9160000000000004,-12.694421386718751,-0.5683868408203125,11.336782836914065
1.9259999999999984,-9.679324340820314,0.347821044921875,4.140505981445313
1.936,-6.684713745117188,-1.79622802734375,8.8046875
1.945999999999998,-3.109304809570313,1.2131866455078126,3.506622314453125
1.9559999999999995,-5.797366333007813,-1.04256591796875,9.21441650390625
1.9659999999999973,-11.581723022460938,0.7218109130859376,4.640255737304688
1.9759999999999,-12.7033935546875,-0.017645263671875,3.857284545898438
1.9860000000000009,-5.0321899414062505,-0.4266265869140625,9.506610107421876
1.9959999999998992,-5.700018310546875,0.2217620849609375,5.47601318359375
2.006,-10.267449951171876,-0.499151611328125,4.2101898193359375
2.0159999999999982,-9.034075927734376,1.03179931640625,0.7496246337890625
2.026,-6.052774047851563,-0.9084320068359376,7.730120849609375
2.0360000000000014,-6.91275634765625,0.2237060546875,7.491909790039063
2.046,-9.52649841308594,-0.00179443359375,5.748019409179688
2.056000000000001,-9.990808105468751,0.099591064453125,5.8072357177734375
2.0659999999998995,-6.556411743164063,1.093408203125,5.22000732421875
2.0760000000000005,-6.781314086914063,-1.191653442382813,5.661886596679688
2.0859999999999985,-6.7398925781250005,0.3461761474609375,5.025909423828125
2.096,-9.05830078125,-0.53653564453125,4.099234008789063
2.105999999999998,-9.468179321289064,0.7825225830078125,6.796566772460938
2.116,-8.280712890625,0.22430419921875,5.717364501953125
2.126000000000001,-7.972369384765625,-0.750372314453125,6.8131652832031255
2.1359999999999992,-6.970776367187501,0.6567626953125001,3.870742797851563
2.146000000000001,-8.051623535156251,-1.4599212646484376,6.528149414062501
2.155000000000001,-6.606356811523438,0.7524658203125001,4.742987060546875
2.164999999999999,-8.041455078125,-0.4900299072265625,8.519821166992188
2.1750000000000007,-9.379803466796876,0.5653961181640625,5.400796508789063
2.1849999999999987,-9.303390502929688,0.3255401611328125,5.643792724609376
2.1950000000000003,-6.500933837890625,-0.8910858154296876,5.0232177734375005
2.2059999999999995,-7.284951782226563,-0.06160888671875,4.162936401367188
2.215,-7.993902587890625,-0.7091003417968751,6.5499816894531255
2.2259999999999,-9.2413330078125,1.2221588134765626,3.0512847900390625
2.2349999999999994,-8.352639770507814,0.4012054443359375,8.265161132812501
2.245000000000001,-7.529443359375,-0.242547607421875,5.595193481445313
2.254999999999999,-8.002127075195313,-0.073870849609375,7.274932861328126
2.265000000000001,-7.139004516601563,-0.6910064697265625,4.073214721679688
2.2749999999999986,-6.809875488281251,0.127703857421875,4.174151611328125
2.285,-5.9491455078125,-0.9645080566406252,2.3604278564453125
2.2949999999999022,-10.48951110839844,0.8949737548828126,7.676437377929688
2.305,-12.449032592773438,0.6264068603515626,4.9657958984375
2.3150000000000013,-9.25135192871094,0.231781005859375,6.880755615234375
2.325,-5.475714111328125,0.7242034912109375,7.516433715820313
2.335000000000001,-2.4205413818359376,-1.0307525634765626,5.9892211914062505
2.344999999999999,-7.015188598632813,-0.083740234375,8.243179321289062
2.3550000000000004,-12.024948120117188,-0.9180023193359376,5.23675537109375
2.3649999999999984,-10.101913452148438,0.178546142578125,7.9436584472656255
2.375,-5.419937133789063,0.6762023925781251,7.38170166015625
2.3849999999998985,-7.552471923828126,-1.574017333984375,2.726492309570313
2.395,-10.640542602539064,0.5818450927734375,3.0997344970703127
2.405000000000001,-7.496694946289063,-1.1500823974609375,0.4574310302734375
2.414999999999999,-7.781561279296875,0.1275543212890625,7.950985717773438
2.4250000000000007,-7.1959777832031255,1.1985321044921875,6.136364746093751
2.4349999999999987,-9.87955322265625,-0.34871826171875,8.37940673828125
2.4450000000000003,-7.413403320312501,1.9028472900390627,6.1671691894531255
2.4549999999999024,-6.676339721679688,-1.2549072265625,6.02391357421875
2.465,-6.423474121093751,0.2962310791015625,6.773538208007813
2.4750000000000014,-7.297363281250001,-0.2065093994140625,3.5932037353515627
2.4849999999999994,-9.522909545898438,-0.0533843994140625,6.437979125976563
2.495000000000001,-9.300698852539064,1.4143127441406251,2.867205810546875
2.504999999999999,-9.58526611328125,-2.1735076904296875,7.608398437500001
2.515000000000001,-7.648324584960938,0.8089904785156251,2.752362060546876
2.5249999999999986,-7.309475708007813,-1.7062072753906252,5.3406829833984375
2.535,-7.258932495117188,-0.024822998046875,6.259582519531251
2.5449999999999022,-6.624151611328125,0.9069366455078126,6.660339355468751
2.555,-8.328414916992188,-1.052734375,10.327713012695312
2.5650000000000013,-8.961102294921876,1.5049316406250002,3.836199951171875
2.575,-8.454025268554688,-1.4844451904296876,9.016580200195314
2.585000000000001,-6.625048828125,1.1007354736328123,1.296478271484375
2.594999999999999,-7.7298217773437505,-0.6748565673828125,6.764715576171875
2.6050000000000004,-8.35308837890625,0.5692840576171876,2.587274169921875
2.6140000000000008,-9.76650390625,1.13826904296875,5.322439575195313
2.625,-8.326620483398438,-1.141259765625,6.29307861328125
2.634999999999902,-7.921826171875001,0.8988616943359375,3.904238891601562
2.6439999999999984,-4.872036743164063,-0.676800537109375,4.64459228515625
2.654,-8.001528930664064,0.6978851318359376,5.744729614257813
2.664000000000001,-11.176629638671876,0.5493957519531251,9.319689941406253
2.6739999999999995,-9.589004516601562,-0.4756744384765625,5.3870391845703125
2.684000000000001,-6.370239257812501,-0.421392822265625,9.533526611328126
2.6939999999999,-3.964501953125,-1.2499725341796877,4.539468383789063
2.7040000000000006,-6.040362548828125,0.2893524169921875,7.48338623046875
2.713999999999998,-12.35108642578125,-0.4586273193359375,2.914010620117188
2.724,-11.95496520996094,-0.9175537109375,6.119467163085938
2.733999999999998,-5.646334838867188,0.6125,6.16806640625
2.744,-5.10277099609375,-1.6018310546875,6.8200439453125
2.7540000000000013,-10.420126342773438,0.5501434326171876,4.888485717773438
2.764,-9.259875488281253,0.11065673828125,2.3064453125
2.774000000000001,-6.588412475585938,0.2056121826171875,7.59464111328125
2.7839999999998994,-6.004772949218751,1.1660827636718751,7.277474975585938
2.7940000000000005,-8.080783081054689,-0.6999786376953125,6.75723876953125
2.8039999999999985,-10.29765625,1.1991302490234377,5.1368652343750005
2.814,-7.732513427734376,-0.0180938720703125,4.56683349609375
2.823999999999998,-7.8359924316406255,0.4984039306640625,5.017385864257813
2.834,-6.739443969726563,0.27095947265625,5.033984375
2.844000000000001,-8.668609619140625,-0.9175537109375,3.941772460937501
2.853999999999999,-8.537017822265625,1.101931762695313,6.224740600585938
2.8640000000000008,-8.601766967773438,-1.3438812255859376,5.685513305664063
2.8739999999999,-8.261273193359376,0.078955078125,8.447744750976563
2.8840000000000003,-7.187005615234376,-0.4508514404296875,3.5932037353515627
2.8939999999999984,-7.238595581054688,-1.0992401123046875,8.636459350585938
2.904,-6.443661499023438,0.6859222412109376,3.6779907226562494
2.914000000000001,-8.45596923828125,-1.5041839599609377,8.373574829101564
2.9239999999999995,-9.3131103515625,1.089968872070313,4.158450317382813
2.934000000000001,-9.859963989257814,-0.6314910888671875,5.325878906250001
2.9439999999999,-6.713723754882813,0.6944458007812501,5.296420288085938
2.9540000000000006,-7.373477172851563,0.326287841796875,3.1786895751953126
2.963999999999899,-8.182168579101564,-0.678594970703125,7.4301513671875
2.974,-8.726629638671875,1.6395141601562502,3.25570068359375
2.983999999999998,-7.977752685546876,-0.3481201171875,9.436627197265626
2.994,-7.393963623046876,1.054080200195313,4.062298583984376
3.0040000000000013,-7.575051879882813,-0.7022216796875,8.932391357421876
3.014,-5.835198974609376,-0.5700317382812501,1.9315582275390624
3.024000000000001,-7.712625122070313,-0.1739105224609375,2.207452392578125
3.0339999999998994,-11.653799438476565,-0.2890533447265625,7.057507324218751
3.0440000000000005,-11.521609497070314,0.9704895019531252,5.395263671875
3.053999999999899,-7.5258544921875,-0.5314514160156251,9.13905029296875
3.0650000000000013,-4.078897094726563,0.5311523437500001,4.055419921875
3.073999999999998,-4.89700927734375,-1.1177825927734375,8.522512817382813
3.084,-8.434735107421876,-1.17415771484375,6.155654907226563
3.094000000000001,-12.2212890625,-0.4701416015625,7.321438598632813
3.103999999999999,-7.853787231445313,1.1391662597656251,5.566781616210938
3.1140000000000008,-4.55606689453125,0.5087219238281251,9.4841796875
3.1239999999999,-9.244473266601563,-0.8091400146484375,2.742941284179688
3.1340000000000003,-10.782452392578126,-0.0130096435546875,2.463607788085937
3.1430000000000007,-8.847604370117189,-0.4385894775390625,1.5841857910156252
3.1529999999999987,-5.411563110351563,0.58438720703125,7.804739379882813
3.1630000000000003,-7.559799194335938,0.962713623046875,7.306185913085938
3.1729999999999023,-9.46982421875,0.4278228759765625,6.8012023925781255
3.183,-8.303890991210938,0.5190399169921875,6.177786254882813
3.1930000000000014,-7.059899902343751,-0.7318298339843751,6.46654052734375
3.2029999999999994,-5.995651245117188,-0.51978759765625,5.11832275390625
3.213000000000001,-7.906872558593751,-0.4370941162109375,6.334500122070313
3.222999999999999,-8.538662719726563,0.7123901367187501,3.672906494140625
3.2330000000000005,-10.406069946289064,0.0946563720703125,6.105709838867188
3.2429999999999986,-8.419183349609376,-0.9885833740234377,4.196881103515626
3.253,-8.653805541992188,-0.8208038330078126,4.764370727539063
3.262999999999902,-6.033633422851563,-0.5121612548828125,6.547589111328126
3.273,-7.602566528320313,0.376531982421875,4.573861694335938
3.2830000000000013,-6.626544189453125,0.852056884765625,8.969476318359376
3.293,-9.211575317382811,-0.2705108642578125,6.246722412109375
3.303000000000001,-8.904727172851564,0.311334228515625,7.986126708984376
3.312999999999999,-7.372579956054688,-0.1069183349609375,3.2323730468750003
3.3230000000000004,-7.315008544921875,0.1191802978515625,6.465493774414063
3.3329999999999984,-7.357177734375001,0.164190673828125,3.6708129882812495
3.343,-9.340924072265626,0.1628448486328125,5.749365234375
3.353000000000001,-9.015982055664065,1.0638000488281252,3.2809722900390628
3.3629999999999995,-8.470175170898438,-1.2107940673828126,6.5209716796875
3.373000000000001,-8.0450439453125,-0.1021331787109375,6.735256958007813
3.382999999999999,-6.637310791015626,-0.434552001953125,4.935888671875
3.3930000000000007,-6.658694458007813,0.0180938720703125,6.927859497070313
3.4029999999999987,-5.0256103515625,1.1414093017578126,-0.5586669921875
3.4130000000000003,-10.77677001953125,-1.1982330322265626,12.149063110351562
3.4229999999999983,-11.9473388671875,0.5633026123046876,4.8801116943359375
3.433,-10.365994262695311,-1.1602508544921877,6.884494018554688
3.4430000000000014,-5.04833984375,-0.1254608154296875,5.192044067382813
3.4529999999999994,-2.7048095703125004,-0.23267822265625,6.3893798828125
3.463000000000001,-6.193936157226563,0.221014404296875,9.276922607421875
3.472999999999999,-14.09168701171875,0.7777374267578125,0.6452484130859375
3.4830000000000005,-11.358914184570311,-0.99591064453125,10.67388916015625
3.4929999999999986,-3.434246826171876,0.74588623046875,6.1552062988281255
3.503,-6.940121459960938,-1.1601013183593751,7.678231811523438
3.512999999999902,-9.584518432617188,1.1611480712890625,0.7283905029296875
3.523,-9.113031005859376,-0.5072265625000001,1.7693115234375
3.5330000000000013,-6.736004638671876,-0.377728271484375,7.639950561523438
3.543,-7.668212890625001,0.2636322021484375,6.753051757812501
3.553000000000001,-10.376611328125,-0.7442413330078126,6.501980590820313
3.562000000000001,-7.914349365234376,1.3238433837890626,4.498495483398438
3.5719999999999,-6.869540405273438,-0.7880554199218751,7.240539550781251
3.5820000000000007,-5.808880615234376,0.1580596923828125,4.441671752929688
3.5919999999999,-8.003173828125,-0.3715972900390625,6.442166137695313
3.6020000000000003,-9.334793090820312,0.1232177734375,4.313967895507813
3.613,-9.01702880859375,1.0812957763671875,5.780618286132813
3.623000000000001,-8.358322143554688,-0.856243896484375,7.145285034179688
3.6320000000000014,-7.423721313476563,0.6087615966796875,3.717767333984375
3.642,-8.237945556640625,-0.8420379638671875,5.6183715820312505
3.652000000000001,-6.876568603515626,-0.126806640625,3.56553955078125
3.6619999999999,-7.614080810546875,0.03289794921875,8.709283447265626
3.6720000000000006,-7.753897094726563,-0.0895721435546875,6.250610351562501
3.681999999999899,-10.151559448242187,0.7277923583984376,6.317453002929688
3.692,-7.596136474609375,-0.626556396484375,5.747720336914063
3.701999999999998,-6.962252807617188,-0.5342926025390625,5.2016143798828125
3.713000000000001,-6.594692993164063,-0.3692047119140625,5.61478271484375
3.722000000000001,-9.109442138671875,-0.1818359375,3.932052612304688
3.7319999999999993,-9.194677734375,1.2885528564453126,5.953033447265625
3.742000000000001,-8.235552978515626,-0.2992218017578125,5.807385253906251
3.7519999999998994,-8.108596801757812,0.0227294921875,6.8012023925781255
3.762000000000001,-7.459161376953125,-0.427374267578125,4.340435791015626
3.771999999999899,-7.081582641601563,-0.552685546875,5.229428100585938
3.782,-5.3646087646484375,0.2265472412109375,2.0308502197265628
3.791999999999998,-9.06592712402344,-0.112451171875,7.806683349609376
3.802,-12.053659057617187,1.6957397460937502,6.857427978515625
3.812000000000001,-10.277020263671876,-0.1807891845703125,6.625347900390626
3.821999999999999,-6.1970764160156255,0.5446105957031251,7.058554077148438
3.8320000000000007,-3.1582031250000004,-0.4951141357421875,5.033685302734376
3.8419999999998993,-5.4019927978515625,-1.2451873779296876,8.556158447265625
3.852,-11.791223144531251,0.1924530029296875,4.2650695800781255
3.8619999999999983,-11.84326171875,-0.95882568359375,6.875222778320313
3.872,-6.032437133789063,1.071575927734375,8.109643554687501
3.8820000000000014,-5.747271728515625,-1.5442596435546876,5.263821411132813
3.892,-10.47889404296875,-0.6587066650390625,4.05302734375
3.902000000000001,-7.867095947265626,0.3410919189453125,0.1481903076171875
3.913,-7.726083374023438,-1.0851837158203126,7.712625122070313
3.9220000000000006,-6.650619506835938,2.027410888671876,7.346560668945313
3.931999999999899,-9.5475830078125,-0.7167266845703125,7.198220825195313
3.942,-8.70718994140625,1.6767486572265626,6.026455688476563
3.951999999999998,-7.322784423828126,-0.2528656005859375,5.019329833984376
3.962,-6.429156494140625,-0.5531341552734376,6.131878662109376
3.972000000000001,-6.489569091796875,0.9876861572265626,3.745431518554688
3.9819999999999993,-9.375167846679688,-0.9846954345703126,6.557757568359375
3.992000000000001,-8.919232177734376,2.004083251953125,3.697729492187501
4.001999999999899,-9.706539916992188,-1.7820220947265626,7.560247802734375
4.012999999999998,-7.781860351562501,-0.0635528564453125,3.5845306396484378
4.021999999999899,-7.435235595703125,-0.6495849609375001,5.582183837890625
4.032,-6.289639282226563,-1.0657440185546876,6.086419677734376
4.041999999999998,-7.314260864257813,1.262982177734375,5.281765747070313
4.052,-8.103662109375001,-1.37393798828125,9.926806640625
4.062000000000001,-9.623846435546875,0.90379638671875,3.5650909423828128
4.0710000000000015,-8.656497192382814,-0.6787445068359376,8.348452758789064
4.082000000000001,-6.543402099609375,0.153125,1.9261749267578123
4.091999999999899,-7.559799194335938,0.4038970947265625,7.356579589843751
4.100999999999999,-7.72862548828125,-0.325091552734375,2.5388244628906254
4.111999999999899,-9.782354736328124,1.6245605468750002,6.097634887695313
4.122,-8.240936279296875,-0.4296173095703125,5.7100372314453125
4.131,-8.555261230468751,-0.01136474609375,6.4994384765625
4.140999999999902,-6.770996093750001,0.2429962158203125,5.97845458984375
4.151,-4.978356933593751,-0.4510009765625,1.81357421875
4.161000000000001,-7.270596313476563,1.329226684570313,5.5211730957031255
4.170999999999999,-11.872720336914064,-0.7763916015625001,7.802346801757813
4.181000000000001,-11.124591064453126,0.620574951171875,7.864553833007813
4.190999999999999,-7.662680053710938,-0.98992919921875,5.173352050781251
4.2010000000000005,-3.8369476318359377,-0.9199462890625,6.524411010742188
4.212,-4.623208618164063,0.3768310546875,5.633624267578125
4.221,-8.625692749023438,-1.4611175537109375,7.594342041015626
4.230999999999902,-15.033914184570314,0.6482391357421875,3.06907958984375
4.241,-6.926513671875001,-0.66334228515625,9.219201660156251
4.251000000000001,-4.270303344726563,-1.0486968994140626,7.357028198242188
4.260999999999999,-9.0953857421875,0.2857635498046875,4.478756713867188
4.271000000000001,-9.831253051757812,-0.3600830078125,0.6942962646484375
4.280999999999999,-7.630978393554688,0.841290283203125,6.256442260742188
4.291,-5.421282958984375,-0.1209747314453125,6.5903564453125005
4.300999999999998,-9.294268798828126,0.450701904296875,7.777822875976563
4.312000000000001,-9.7078857421875,0.7434936523437501,4.211087036132813
4.3210000000000015,-8.577841186523438,0.137274169921875,6.81107177734375
4.331,-5.637960815429688,1.1898590087890626,5.032339477539063
4.341000000000001,-6.724490356445313,-1.235467529296875,5.527304077148438
4.350999999999999,-7.7172607421875,0.5973968505859375,5.507565307617188
4.361000000000001,-9.749755859375,0.033795166015625,3.7711517333984377
4.370999999999999,-9.01702880859375,-0.2154815673828125,8.363107299804689
4.381,-8.374322509765626,-0.05802001953125,3.3013092041015626
4.390999999999998,-7.894909667968751,-1.2490753173828126,7.784851074218751
4.401,-6.558804321289063,0.217724609375,2.297772216796876
4.411999999999999,-7.594790649414063,-1.2652252197265623,8.297760009765625
4.420999999999999,-6.7099853515625005,0.4592254638671875,5.743234252929688
4.431000000000001,-9.981387329101564,-0.1879669189453125,7.959060668945313
4.440999999999999,-9.075198364257814,0.3626251220703125,5.208343505859375
4.4510000000000005,-7.622753906250001,0.37503662109375,4.435092163085938
4.460999999999999,-6.503924560546875,-0.6933990478515626,6.685610961914063
4.471,-7.3344482421875,0.4191497802734375,2.570974731445313
4.480999999999998,-9.58646240234375,0.38101806640625,7.623800659179688
4.491,-8.163925170898438,1.2418975830078125,2.2113403320312504
4.501000000000001,-8.599374389648439,-0.1469940185546875,9.967181396484376
4.5120000000000005,-7.121359252929688,-0.18961181640625,3.5930541992187504
4.521000000000001,-7.566827392578125,-0.6231170654296876,6.603366088867188
4.530000000000001,-5.227334594726563,-0.7923919677734376,2.56304931640625
4.539999999999999,-9.2640625,0.0634033203125,3.502584838867188
4.550000000000001,-10.335488891601564,0.47432861328125,9.933685302734377
4.559999999999899,-10.595233154296876,0.000897216796875,3.4122650146484377
4.57,-6.771145629882813,0.6256591796875001,9.272137451171876
4.579999999999998,-4.3640625,-0.8321685791015626,3.207998657226563
4.59,-5.871087646484376,-0.9782653808593752,9.345260620117188
4.600000000000001,-10.9855224609375,-0.41212158203125,3.394769287109375
4.611999999999899,-10.459902954101564,0.5863311767578125,7.605258178710938
4.620000000000001,-6.330462646484375,1.4892303466796877,6.8834472656250005
4.6299999999999,-6.35289306640625,-1.19927978515625,7.305438232421875
4.640000000000001,-9.856375122070313,0.087030029296875,2.9530395507812504
4.649999999999899,-8.833099365234375,-0.383111572265625,2.08812255859375
4.66,-7.8967041015625,-0.210845947265625,5.122808837890625
4.669999999999998,-5.951388549804688,1.3229461669921876,7.072760009765625
4.68,-8.622702026367188,-0.612799072265625,7.293923950195313
4.690000000000001,-9.679324340820314,1.22559814453125,5.9014434814453125
4.699999999999999,-7.648623657226563,-0.7576995849609376,4.9040374755859375
4.710000000000001,-7.398150634765625,-0.613995361328125,5.831011962890625
4.719999999999899,-5.528500366210938,-0.037982177734375,5.478405761718751
4.73,-8.805136108398438,-0.5262176513671876,6.131729125976563
4.739999999999899,-8.772836303710939,1.8742858886718752,3.9878295898437504
4.75,-9.877459716796876,-1.7745452880859376,6.508560180664063
4.759999999999998,-8.022613525390625,0.0088226318359375,5.323336791992188
4.77,-7.371682739257813,-0.8073455810546876,4.5820861816406255
4.780000000000001,-6.952832031250001,-0.141162109375,6.288891601562501
4.789999999999999,-7.300802612304688,1.4771179199218751,4.279125976562501
4.800000000000001,-7.952481079101563,-0.9721343994140624,9.900338745117187
4.809999999999899,-9.32447509765625,0.996807861328125,3.9845397949218753
4.82,-8.637954711914062,-0.7599426269531251,7.772439575195313
4.829999999999899,-6.858175659179688,0.5254699707031251,2.997750854492188
4.84,-7.476956176757813,-0.121722412109375,6.8385864257812505
4.850000000000001,-7.383047485351563,-0.312530517578125,4.675994873046875
4.859999999999999,-9.509002685546877,1.2088500976562502,4.24443359375
4.870000000000001,-8.553018188476564,-0.9150115966796876,6.899597167968751
4.879999999999999,-8.289086914062501,-0.1054229736328125,4.551431274414063
4.890000000000001,-7.543649291992188,-0.36546630859375,7.687353515625
4.899999999999899,-5.504873657226563,-0.026617431640625,2.1186279296875004
4.91,-6.748416137695313,0.8429351806640626,4.960263061523438
4.919999999999899,-9.731362915039064,-0.41630859375,5.539566040039063
4.93,-12.573147583007811,0.3369049072265625,9.0738525390625
4.940000000000001,-8.312863159179688,-0.40614013671875,5.404385375976563
4.949999999999999,-5.794973754882813,-0.5025909423828125,6.6875549316406255
4.960000000000001,-3.150875854492188,0.439935302734375,5.940921020507813
4.969999999999899,-6.525308227539063,-0.8338134765625,8.016632080078125
4.98,-13.238284301757814,0.7496246337890625,4.805194091796875
4.989999999999899,-10.919427490234376,-0.3527557373046875,5.2913360595703125
4.998999999999999,-4.805941772460938,-0.6316406250000001,9.425411987304688
5.009,-6.571514892578126,-0.381915283203125,3.9893249511718754
5.02,-10.11163330078125,-0.3123809814453125,3.5081176757812504
5.029,-8.760424804687501,0.5716766357421875,1.403994750976563
5.0390000000000015,-6.174346923828126,-0.7741485595703126,7.643389892578125
5.049,-7.805337524414063,0.4200469970703125,7.69871826171875
5.059000000000001,-9.36499938964844,-0.0429168701171875,5.77030029296875
5.068999999999999,-9.251651000976564,0.608612060546875,6.267657470703125
5.079000000000001,-6.331060791015625,0.7726531982421876,5.126248168945313
5.088999999999999,-6.272442626953126,-0.8501129150390626,6.130532836914063
5.099,-7.306634521484375,0.581695556640625,5.085125732421876
5.108999999999998,-9.498834228515626,-0.155816650390625,3.8245361328125
5.119,-9.510498046875,0.7923919677734376,6.640301513671876
5.129000000000001,-8.046539306640625,-0.1724151611328125,5.230624389648438
5.138999999999999,-8.145532226562501,-0.7316802978515625,6.831259155273438
5.149000000000001,-6.7757812500000005,0.3369049072265625,2.8467193603515626
5.158999999999999,-7.915545654296875,-1.3977142333984376,7.31351318359375
5.1690000000000005,-6.55087890625,0.70401611328125,5.348757934570313
5.178999999999999,-8.962747192382814,-0.758148193359375,8.87646484375
5.189,-9.134564208984376,0.6047241210937501,4.960263061523438
5.198999999999902,-8.585018920898438,-0.2392578125,5.866302490234375
5.209,-6.483587646484375,-0.789251708984375,5.084378051757813
5.219000000000001,-7.26207275390625,0.010467529296875,3.9490997314453127
5.228999999999999,-8.503521728515626,-0.288006591796875,6.435287475585938
5.239000000000001,-9.314904785156251,1.5610076904296877,3.1187255859375003
5.248999999999999,-8.31361083984375,-0.020635986328125,8.530587768554689
5.259,-7.6924377441406255,0.205462646484375,4.870541381835938
5.268999999999998,-7.409066772460938,-0.346624755859375,6.69443359375
5.279,-6.5873657226562505,-0.6398651123046876,3.983493041992188
5.2890000000000015,-6.341229248046876,-0.025421142578125,1.20047607421875
5.299,-9.868936157226564,0.4314117431640625,9.350494384765623
5.309000000000001,-10.841668701171876,0.4110748291015625,4.91495361328125
5.318999999999999,-9.67738037109375,0.32359619140625,8.398397827148438
5.329000000000001,-5.556314086914063,0.1254608154296875,4.694387817382813
5.338999999999999,-5.036376953125,-1.0980438232421876,7.315457153320313
5.349,-6.558804321289063,-0.5344421386718751,6.336743164062501
5.358999999999998,-11.538955688476562,-0.6177337646484375,5.384197998046876
5.369,-8.962448120117188,1.1701202392578125,6.956869506835938
5.379000000000001,-5.8326568603515625,-0.41929931640625,7.576995849609376
5.388999999999999,-8.894259643554689,-0.5591156005859376,4.724444580078125
5.399000000000001,-8.984579467773438,0.2361175537109375,2.601629638671876
5.408999999999999,-8.256637573242188,-0.784765625,2.9648529052734376
5.4190000000000005,-6.956271362304688,1.116436767578125,6.453829956054688
5.428999999999999,-7.443011474609375,0.218023681640625,6.644488525390625
5.439,-9.79581298828125,0.701025390625,7.360168457031251
5.448999999999998,-8.292974853515625,0.5043853759765625,5.1732025146484375
5.459,-7.687503051757813,-0.870001220703125,6.957916259765626
5.469000000000001,-5.56334228515625,0.2489776611328125,4.21512451171875
5.478999999999999,-7.625445556640625,-1.0787536621093752,7.402487182617188
5.488,-8.577990722656251,1.244439697265625,3.63133544921875
5.498000000000001,-10.07080993652344,-0.5419189453125001,6.448745727539063
5.507999999999999,-8.182766723632813,-0.7587463378906251,5.101574707031251
5.518000000000001,-8.61866455078125,-0.428271484375,5.093350219726563
5.529,-6.6157775878906255,-1.09041748046875,6.150271606445313
5.538,-7.845712280273438,0.91575927734375,2.974273681640625
5.547999999999899,-6.766360473632813,-0.1622467041015625,9.675137329101563
5.558,-8.838931274414064,0.2142852783203125,4.976412963867188
5.568000000000001,-9.127536010742189,0.1758544921875,8.936129760742189
5.577999999999999,-7.637258911132813,0.026318359375,2.74608154296875
5.588000000000001,-7.648773193359376,0.3361572265625,7.550976562500001
5.5979999999999,-7.002926635742188,-0.2050140380859375,2.989376831054688
5.6080000000000005,-8.751452636718751,0.5520874023437501,6.483737182617188
5.617999999999899,-8.799005126953126,0.6608001708984376,3.34422607421875
5.628,-8.602963256835938,-0.8300750732421875,6.997393798828125
5.637999999999998,-7.740887451171876,0.1523773193359375,5.156454467773438
5.648,-5.161538696289063,-0.462664794921875,2.705706787109375
5.658000000000001,-8.525503540039063,0.6570617675781251,6.790884399414063
5.667999999999999,-11.185900878906253,0.1667327880859375,5.999240112304688
5.678000000000001,-8.390472412109375,-0.3584381103515625,8.871380615234376
5.687999999999899,-7.065133666992188,-0.2540618896484375,5.169613647460938
5.698,-4.414456176757813,-1.009368896484375,7.906274414062499
5.707999999999899,-7.188201904296876,0.641510009765625,5.893667602539063
5.718,-10.084567260742189,-0.712689208984375,5.649624633789063
5.7280000000000015,-12.472210693359376,-0.2583984375,4.627096557617188
5.738,-5.013796997070313,0.1012359619140625,7.070217895507813
5.748000000000001,-5.969931030273438,-1.3851531982421876,6.513793945312501
5.757999999999999,-9.935031127929689,0.6805389404296875,4.174600219726563
5.768000000000001,-10.156494140625,-0.4376922607421875,2.1379180908203126
5.777999999999899,-6.445007324218751,0.6087615966796875,7.651913452148438
5.788,-6.373379516601563,0.130694580078125,5.693289184570313
5.797999999999899,-8.39735107421875,-0.22310791015625,7.8001037597656255
5.808,-9.166265869140624,0.783270263671875,3.8201995849609376
5.818000000000001,-8.518026733398438,-0.285614013671875,7.378262329101563
5.829000000000001,-6.661685180664063,1.303955078125,4.147833251953125
5.838000000000001,-7.6311279296875005,-0.7512695312500001,5.6980743408203125
5.847999999999999,-7.74776611328125,0.1508819580078125,5.610595703125
5.8580000000000005,-9.159387207031251,0.33795166015625,3.392974853515625
5.867999999999899,-8.83399658203125,-0.6065185546875,7.800253295898438
5.878,-7.922274780273438,0.3689056396484375,3.684271240234376
5.887999999999899,-7.8255249023437505,-1.0850341796875,8.534176635742188
5.898,-6.818249511718751,0.2564544677734375,3.0055267333984377
5.908000000000001,-7.593893432617188,-0.80390625,8.452380371093751
5.917999999999999,-7.570565795898438,-0.2361175537109375,5.069723510742188
5.928000000000001,-9.703399658203123,0.037384033203125,6.866400146484375
5.937999999999899,-8.377313232421876,-0.1745086669921875,5.7459259033203125
5.946999999999999,-7.337289428710938,0.5944061279296875,3.392526245117188
5.957999999999899,-7.418637084960938,-0.5013946533203125,6.881951904296876
5.966999999999999,-8.465539550781251,0.0710296630859375,2.716622924804688
5.977,-9.115872192382811,0.37623291015625,7.876068115234376
5.986999999999998,-7.548583984375001,0.7188201904296876,3.2567474365234377
5.997,-8.027249145507813,0.2332763671875,9.67483825683594
6.0070000000000014,-7.122555541992188,-0.173760986328125,3.5618011474609377
6.017,-6.916494750976563,-0.6047241210937501,6.529345703125
6.027000000000001,-6.253451538085938,-0.3138763427734375,1.0454071044921875
6.036999999999999,-10.688095092773438,0.3111846923828125,7.930798339843751
6.047000000000001,-10.912100219726565,0.8650665283203126,6.067578125000001
6.056999999999999,-9.013888549804689,0.242547607421875,6.857577514648438
6.067,-5.5136962890625005,0.2417999267578125,7.792327880859376
6.076999999999998,-4.499093627929688,-1.2979736328125,4.662088012695313
6.087,-7.314111328125,-1.5632507324218752,9.556106567382812
6.097000000000001,-11.085861206054688,-0.6237152099609375,2.7435394287109376
6.106999999999999,-9.479843139648438,0.509320068359375,9.258978271484375
6.117000000000001,-5.368496704101563,0.9322082519531252,5.80858154296875
6.126999999999999,-8.067623901367188,-1.5230255126953125,6.519326782226563
6.1370000000000005,-10.462744140625,0.3683074951171875,1.04495849609375
6.146999999999999,-8.413500976562501,-0.6238647460937501,2.9775634765625
6.157,-7.1944824218750005,0.6993804931640626,6.377117919921876
6.166999999999998,-6.330014038085938,1.56953125,6.888980102539063
6.177,-9.60425720214844,0.0210845947265625,7.852740478515625
6.187000000000001,-8.343966674804689,1.5918121337890627,5.534780883789063
6.196999999999999,-7.479498291015625,-1.212588500976563,6.140402221679688
6.207000000000001,-6.721051025390626,-0.0394775390625,5.714971923828125
6.216999999999999,-6.374575805664063,-0.387896728515625,5.550183105468751
6.227,-9.459805297851563,0.0835906982421875,5.559155273437501
6.236999999999998,-8.760873413085939,1.0826416015625,3.397760009765625
6.247,-10.146774291992188,-2.4440185546875,6.926065063476563
6.2570000000000014,-7.403833007812499,0.0994415283203125,3.887640380859376
6.267,-7.50133056640625,-1.598391723632813,5.794674682617188
6.277000000000001,-6.66153564453125,0.51380615234375,5.820843505859376
6.286999999999999,-7.335195922851563,0.6545196533203126,6.262573242187501
6.297000000000001,-8.061791992187501,-0.6996795654296876,9.546984863281253
6.306999999999999,-9.110638427734376,1.1022308349609375,4.16607666015625
6.317,-8.157046508789064,-0.7158294677734376,7.571762084960938
6.326999999999998,-7.249063110351563,1.1565124511718752,2.7089965820312503
6.337,-7.435684204101563,-0.208453369140625,6.696975708007813
6.347000000000001,-8.328564453125,0.6298461914062501,3.5570159912109376
6.356999999999999,-9.38309326171875,0.9616668701171877,4.421185302734376
6.367000000000001,-8.497390747070312,-1.08563232421875,6.620861816406251
6.376999999999999,-8.0474365234375,0.30325927734375,4.819100952148438
6.3870000000000005,-6.259283447265625,-0.66693115234375,6.357977294921875
6.396999999999999,-5.26427001953125,0.9082824707031252,1.4989501953125002
6.407,-9.659735107421875,0.3668121337890625,8.50382080078125
6.416999999999998,-11.761016845703123,-0.348419189453125,7.102368164062501
6.425999999999899,-9.500479125976565,-0.012261962890625,7.063488769531251
6.436,-5.565884399414063,-1.6151397705078123,6.540112304687501
6.4460000000000015,-3.404489135742188,0.357391357421875,4.804296875
6.457000000000001,-7.185809326171875,-0.7301849365234375,9.200958251953123
6.466000000000001,-12.012088012695314,-0.351708984375,1.9828491210937504
6.475999999999999,-12.675280761718753,-0.0817962646484375,7.487872314453125
6.486000000000001,-3.5676330566406254,-1.0225280761718751,6.266610717773438
6.495999999999899,-6.677984619140625,-0.6122009277343751,8.323031616210939
6.506,-9.391467285156253,0.1520782470703125,1.851556396484375
6.515999999999899,-10.4041259765625,0.0554779052734375,3.3567871093750004
6.526,-5.9732208251953125,0.8454772949218751,6.710583496093751
6.536000000000001,-6.444708251953125,-0.6015838623046875,7.9675842285156255
6.545999999999999,-9.422720336914065,0.750372314453125,6.634320068359376
6.556000000000001,-9.4207763671875,0.381915283203125,3.7505157470703128
6.565999999999999,-7.565631103515625,0.7798309326171876,6.617123413085938
6.5760000000000005,-6.2817138671875,0.4478607177734375,3.9897735595703128
6.585999999999899,-7.0942932128906255,-0.7574005126953125,6.513644409179688
6.596,-8.99609375,0.9127685546875,3.490771484375
6.605999999999899,-9.146975708007814,-0.3419891357421875,5.860171508789063
6.616,-8.640646362304688,0.1266571044921875,7.150967407226563
6.626000000000001,-7.547387695312499,-0.485394287109375,4.781716918945313
6.635999999999999,-7.709484863281251,-0.7789337158203126,6.717013549804688
6.646000000000001,-6.562542724609376,0.0728240966796875,3.621017456054688
6.655999999999899,-7.570416259765626,-1.2033172607421876,8.30224609375
6.666,-7.911358642578126,0.3892425537109375,5.475115966796875
6.675999999999899,-10.354779052734376,-0.4152618408203125,6.825277709960938
6.686,-8.181121826171875,0.6178833007812501,4.3358001708984375
6.6960000000000015,-7.137808227539063,-0.181536865234375,5.132827758789063
6.706,-6.660040283203125,-0.5767608642578126,5.3390380859375
6.716000000000001,-8.705545043945314,0.5535827636718751,4.409222412109376
6.725999999999999,-9.001925659179689,0.4553375244140625,6.05382080078125
6.736000000000001,-8.187701416015626,1.1892608642578126,5.593997192382813
6.745999999999899,-7.464245605468751,-0.182733154296875,8.116522216796875
6.756,-7.621408081054688,-0.0680389404296875,4.897457885742188
6.765999999999899,-7.341775512695313,-0.2675201416015625,5.599380493164063
6.776,-6.4252685546875,-0.6975860595703125,3.3361511230468754
6.786000000000001,-7.685858154296875,-0.2914459228515625,2.2932861328125003
6.795999999999999,-11.390167236328123,0.494366455078125,8.599972534179688
6.806000000000001,-10.667160034179688,0.444720458984375,4.844073486328125
6.815999999999999,-8.107699584960939,0.1996307373046875,8.080633544921875
6.8260000000000005,-4.671658325195313,-0.2187713623046875,5.87078857421875
6.835999999999899,-4.352099609375,-1.12750244140625,7.497442626953125
6.846,-8.123251342773438,-0.5030395507812501,7.1789306640625
6.855999999999899,-11.686697387695313,-0.4873382568359375,5.48917236328125
6.866,-8.73709716796875,0.8779266357421875,8.16168212890625
6.875,-5.260980224609376,-0.22430419921875,5.893667602539063
6.884999999999902,-9.769793701171876,-0.67291259765625,3.855938720703125
6.895,-8.894259643554689,0.2938385009765625,1.4630615234375002
6.905999999999999,-8.417388916015625,-0.7701110839843751,3.2385040283203126
6.914999999999999,-6.270050048828126,1.191802978515625,7.536621093750001
6.925000000000001,-8.452978515625,0.20994873046875,6.875521850585938
6.934999999999999,-9.320886230468751,0.91396484375,7.545294189453125
6.945,-7.465890502929688,0.1810882568359375,5.140753173828125
6.954999999999998,-6.919485473632813,-0.9410308837890624,7.137509155273438
6.965,-6.111392211914063,0.1783966064453125,3.895864868164063
6.975000000000001,-8.239590454101563,-0.8347106933593751,6.952084350585938
6.984999999999999,-8.892764282226564,1.188812255859375,3.03917236328125
6.995000000000001,-10.252944946289062,-0.817364501953125,6.334201049804688
7.004999999999999,-8.331704711914064,-0.6727630615234376,4.74747314453125
7.015000000000001,-8.029193115234376,-0.4012054443359375,3.891378784179688
7.024999999999999,-6.464297485351563,-0.792242431640625,6.253601074218751
7.035,-7.355084228515626,0.89063720703125,4.950991821289063
7.044999999999998,-7.094143676757813,-0.17406005859375,10.434930419921876
7.055,-9.075796508789065,0.57242431640625,4.624853515625
7.065000000000001,-9.087460327148438,-0.0381317138671875,8.75982666015625
7.074999999999999,-6.922775268554688,-0.0399261474609375,2.5791992187500004
7.085000000000001,-7.633370971679688,0.1828826904296875,7.304989624023438
7.094999999999999,-7.076049804687501,-0.1197784423828125,2.5901153564453128
7.105,-9.906021118164062,0.6302947998046875,5.223446655273438
7.114999999999998,-8.540457153320313,0.2696136474609375,4.296771240234375
7.125,-8.7341064453125,-0.8414398193359376,6.289489746093751
7.134999999999998,-7.524209594726563,0.034991455078125,6.709237670898438
7.145,-5.3765716552734375,-0.4723846435546875,2.260089111328125
7.155000000000001,-6.507363891601563,0.606817626953125,7.40263671875
7.164999999999999,-10.544091796875,0.0333465576171875,5.618820190429688
7.175000000000001,-10.654898071289065,-0.2404541015625,9.506460571289065
7.184999999999999,-7.787991333007813,0.01614990234375,4.440176391601563
7.195,-5.165875244140626,-1.1261566162109375,7.789187622070313
7.204999999999998,-5.305392456054688,0.8904876708984376,3.8843505859375
7.215,-9.160134887695314,-0.77100830078125,7.532882690429688
7.225000000000001,-12.871771240234375,0.1721160888671875,3.5662872314453127
7.234999999999999,-7.559948730468751,0.3808685302734375,7.419683837890625
7.245000000000001,-4.5032806396484375,-1.1967376708984376,7.9227233886718755
7.254999999999999,-8.743228149414064,0.460272216796875,5.344869995117188
7.265000000000001,-9.491357421875,-0.1926025390625,2.8136718750000003
7.274999999999999,-8.162429809570312,0.402252197265625,5.129238891601563
7.285,-5.532687377929688,-0.0572723388671875,6.8200439453125
7.294999999999998,-8.426809692382813,-0.3599334716796875,6.729574584960938
7.305,-9.426608276367189,0.6122009277343751,4.5231689453125
7.315000000000001,-9.904824829101564,-0.2902496337890625,5.434442138671876
7.324999999999999,-5.8917236328125,0.9826019287109377,5.189501953125
7.335000000000001,-7.236203002929688,-0.8408416748046875,5.114584350585938
7.344999999999999,-6.955972290039063,0.1033294677734375,6.314462280273438
7.355,-9.418682861328126,0.3985137939453125,3.458322143554688
7.364000000000001,-8.560794067382814,-0.1096099853515625,8.90457763671875
7.375,-8.225384521484376,0.294287109375,3.773245239257813
7.384,-7.941415405273438,-0.6778472900390625,8.310021972656251
7.393999999999899,-6.776080322265625,0.2660247802734375,2.2837158203125
7.405000000000001,-7.983734130859376,-0.8314208984375001,8.307330322265626
7.4140000000000015,-7.070217895507813,0.1481903076171875,3.863864135742188
7.423999999999999,-9.701754760742189,-0.23746337890625,7.860067749023438
7.434000000000001,-8.845510864257813,0.2260986328125,4.8666534423828125
7.443999999999999,-7.792477416992188,0.1763031005859375,5.236007690429688
7.454000000000001,-6.673348999023438,-0.516796875,6.554168701171876
7.463999999999899,-7.559799194335938,-0.255108642578125,3.3310668945312503
7.474,-8.936428833007813,0.2573516845703125,8.061044311523439
7.483999999999899,-8.199215698242188,0.8154205322265625,2.3403900146484378
7.494,-8.280712890625,0.0665435791015625,9.66541748046875
7.504000000000001,-7.267456054687501,-0.05562744140625,3.390432739257813
7.513999999999999,-7.762271118164063,-0.7378112792968751,6.776828002929688
7.524000000000001,-5.448049926757813,-0.5326477050781251,1.5272125244140626
7.533999999999999,-10.147821044921876,0.0294586181640625,3.1809326171875
7.544,-10.488912963867188,0.9694427490234376,10.5189697265625
7.553999999999899,-10.269842529296875,0.279632568359375,2.2910430908203128
7.564,-6.076699829101563,0.8227478027343751,10.422817993164063
7.573999999999899,-3.620718383789063,-0.5076751708984375,3.9969512939453127
7.584,-6.103466796875001,-1.4569305419921876,9.903778076171877
7.594000000000001,-11.455364990234376,-0.6878662109375,3.355441284179688
7.603999999999999,-10.763909912109376,0.1502838134765625,6.997393798828125
7.614000000000001,-6.0520263671875005,1.5476989746093752,6.518728637695313
7.623999999999899,-6.448446655273438,-1.3343109130859376,6.205151367187501
7.634,-10.534521484375,-0.2181732177734375,3.6036712646484377
7.643999999999899,-8.84595947265625,-0.4520477294921875,-0.4852447509765625
7.654,-7.634866333007813,-0.5323486328125,7.7531494140625
7.6640000000000015,-5.780767822265625,1.848117065429688,7.207492065429688
7.673999999999999,-8.56243896484375,-0.5010955810546875,8.145831298828126
7.684000000000001,-9.080133056640626,1.6297943115234377,5.943463134765626
7.693999999999999,-7.821337890625,-0.725250244140625,5.699719238281251
7.704000000000001,-7.223492431640626,-0.506927490234375,5.2449798583984375
7.713999999999899,-6.133224487304688,-0.019140625,5.083929443359375
7.724,-8.775378417968751,-0.48150634765625,5.591006469726563
7.733999999999899,-9.04873046875,2.0377288818359376,3.474472045898438
7.744,-9.996340942382814,-1.9180999755859376,6.7602294921875
7.754000000000001,-7.997341918945313,-0.00897216796875,4.144244384765625
7.763999999999999,-7.507760620117188,-1.0908660888671875,6.026904296875
7.774000000000001,-6.364706420898438,-0.2583984375,6.23087158203125
7.783999999999999,-7.198669433593751,1.4090789794921876,5.598782348632813
7.794,-7.720101928710938,-1.0180419921875,9.90811462402344
7.803999999999899,-9.3777099609375,0.8212524414062501,4.6214141845703125
7.814,-8.696871948242189,-0.7859619140625,6.9462524414062505
7.823999999999899,-7.0628906250000005,0.44920654296875,2.7181182861328126
7.832999999999998,-7.832702636718751,0.0533843994140625,6.0424560546875
7.843,-7.772140502929688,-0.1825836181640625,4.1379638671875005
7.853999999999999,-9.457861328125,1.4730804443359375,4.050485229492188
7.862999999999999,-8.513839721679688,-0.8006164550781251,6.759930419921876
7.873000000000001,-8.035324096679688,-0.1006378173828125,5.72843017578125
7.882999999999999,-7.312017822265625,-0.23985595703125,7.73460693359375
7.893000000000001,-5.48199462890625,-0.005682373046875,3.965997314453125
7.904,-6.106158447265625,1.2081024169921877,4.007119750976563
7.9140000000000015,-9.306381225585938,-0.5920135498046876,6.040213012695313
7.922999999999998,-12.939361572265629,0.39896240234375,8.342022705078126
7.933,-9.285745239257814,-0.47672119140625,4.471578979492188
7.943000000000001,-6.450988769531251,-0.7449890136718751,6.037222290039063
7.952999999999999,-3.338394165039063,0.175555419921875,5.7758331298828125
7.963000000000001,-5.770001220703126,-1.2260467529296877,8.348751831054688
7.972999999999999,-12.61905517578125,0.8239440917968751,4.909869384765625
7.983,-11.25393981933594,-0.7720550537109375,6.1167755126953125
7.9929999999999986,-4.333856201171876,-0.3828125,9.677978515625
8.004000000000001,-6.276629638671875,-0.530853271484375,5.347262573242188
8.012999999999998,-10.19656982421875,-0.2382110595703125,3.0613037109375
8.023,-9.456216430664064,0.9845458984375,1.3395446777343751
8.033000000000001,-6.425418090820313,-0.9224884033203126,6.565084838867188
8.043,-7.578491210937501,0.7259979248046875,7.121060180664063
8.053,-9.119610595703126,-0.1260589599609375,5.3690948486328125
8.062999999999999,-10.049276733398438,0.7053619384765626,6.094943237304688
8.073,-6.187506103515625,1.0983428955078125,5.2289794921875
8.082999999999998,-6.253601074218751,-1.0585662841796877,6.976608276367188
8.093,-6.684564208984376,0.8164672851562501,5.588613891601563
8.104,-9.361410522460938,-0.587677001953125,4.401296997070313
8.1129999999999,-9.590798950195314,0.8656646728515626,6.507812500000001
8.123000000000001,-8.129083251953126,-0.3541015625,4.890130615234376
8.133,-8.509204101562501,-0.9368438720703126,7.508657836914063
8.143,-6.807034301757813,0.6862213134765626,0.65496826171875
8.152999999999999,-8.2783203125,-1.9728302001953129,7.819692993164063
8.163,-6.436782836914063,0.8815155029296876,4.831512451171875
8.172999999999998,-8.638552856445314,-0.9700408935546876,9.146975708007814
8.183,-9.066375732421877,0.8387481689453126,5.2564941406250005
8.193000000000001,-8.776574707031251,0.073870849609375,6.073110961914063
8.204,-6.340481567382813,-0.8671600341796876,6.0210723876953125
8.213000000000001,-7.010104370117188,0.4127197265625,3.8723876953125
8.222999999999999,-8.488418579101562,-0.6012847900390625,6.672302246093751
8.233,-9.544143676757812,1.7959289550781252,2.198779296875
8.242999999999999,-8.450885009765626,-0.07955322265625,8.384341430664064
8.253,-7.652362060546875,0.046356201171875,4.482196044921875
8.262999999999998,-7.677035522460938,-0.1638916015625,6.881802368164063
8.273,-6.8355957031250005,-0.8713470458984376,3.670065307617188
8.283000000000001,-5.8217407226562505,0.098992919921875,1.4019012451171875
8.293,-10.207485961914063,-0.018243408203125,10.15589599609375
8.303999999999998,-11.101113891601564,0.9111236572265624,5.1238555908203125
8.312999999999999,-9.742877197265626,-0.05921630859375,8.648721313476564
8.323,-4.284359741210938,0.0351409912109375,4.843475341796875
8.332,-4.6427978515625,-0.9969573974609376,7.088012695312501
8.3419999999999,-6.7363037109375,-0.654669189453125,6.5380187988281255
8.352,-13.45511169433594,-0.5118621826171875,4.5880676269531255
8.361999999999899,-9.462646484375,0.8055511474609376,6.435437011718751
8.372,-4.430606079101563,0.301763916015625,8.296115112304689
8.382000000000001,-7.92601318359375,-0.8064483642578125,5.143594360351563
8.392,-10.291973876953126,0.014056396484375,2.296127319335937
8.404,-8.494998168945314,-0.117535400390625,3.116183471679688
8.411999999999999,-6.199917602539063,0.60950927734375,7.063488769531251
8.422,-6.704602050781251,0.560760498046875,7.777523803710938
8.4319999999999,-10.146325683593751,0.237164306640625,6.98154296875
8.442,-8.636010742187501,0.5196380615234375,4.302752685546875
8.451999999999899,-7.964593505859375,-0.7855133056640625,7.116574096679688
8.462,-5.443115234375,-0.1556671142578125,3.205007934570313
8.472000000000001,-8.002874755859375,-0.671417236328125,7.56533203125
8.482,-8.37103271484375,0.7390075683593751,2.7659698486328126
8.492,-10.2055419921875,0.00478515625,6.826174926757813
8.504000000000001,-7.916741943359375,-0.8526550292968751,5.946005249023438
8.512,-8.673992919921876,-0.603826904296875,4.656405639648438
8.521999999999899,-6.225338745117188,-0.4227386474609375,7.232614135742188
8.532,-7.527200317382813,0.372943115234375,2.195489501953125
8.541999999999899,-6.648675537109376,0.476422119140625,10.172943115234377
8.552,-8.941513061523438,-0.0201873779296875,4.542160034179688
8.562000000000001,-10.156344604492189,0.07476806640625,8.899942016601564
8.572,-7.515087890625001,0.137274169921875,1.2320281982421877
8.582,-7.32547607421875,-0.2023223876953125,8.345611572265625
8.591999999999999,-6.476858520507813,0.3686065673828125,2.308090209960937
8.602,-9.183163452148438,-0.2883056640625,7.492807006835938
8.611999999999899,-8.867193603515625,1.257598876953125,3.01524658203125
8.622,-8.402285766601564,-1.0277618408203126,7.646679687500001
8.632000000000001,-7.787841796875001,-0.147442626953125,6.590206909179688
8.642,-5.773141479492188,-0.18662109375,1.8793701171875
8.652000000000001,-6.411810302734375,0.3231475830078125,6.604412841796876
8.661999999999999,-10.68226318359375,0.6859222412109376,4.561300659179688
8.672,-10.73475036621094,-0.7131378173828126,9.611734008789064
8.6819999999999,-8.339779663085938,0.3361572265625,3.237905883789063
8.692,-4.964001464843751,-1.26746826171875,9.054562377929688
8.701999999999899,-4.661938476562501,0.5899200439453125,4.659396362304688
8.712,-9.037216186523438,-0.310137939453125,8.513391113281251
8.722000000000001,-13.075888061523438,-0.5967987060546875,3.1426513671875003
8.732,-7.565631103515625,0.5208343505859375,8.074203491210938
8.742,-4.1618896484375005,-1.1387176513671875,6.956121826171875
8.751999999999999,-8.672796630859375,0.0165985107421875,5.8666015625000005
8.762,-10.655197143554688,0.1568634033203125,1.5547271728515626
8.771999999999899,-8.196823120117188,0.1460968017578125,5.317056274414063
8.782,-6.003875732421875,0.3787750244140625,6.426315307617188
8.791999999999899,-7.473217773437501,-0.4726837158203125,6.513793945312501
8.800999999999998,-9.314605712890623,0.3146240234375,5.764019775390626
8.812000000000001,-9.36978454589844,0.134881591796875,5.258587646484376
8.821000000000002,-6.295770263671876,0.7469329833984375,6.5006347656250005
8.831,-7.4780029296875,-0.1495361328125,5.097088623046876
8.841000000000001,-6.757388305664063,-0.337054443359375,6.645236206054688
8.850999999999999,-9.378756713867189,0.3760833740234375,3.3751800537109378
8.861,-8.698367309570314,-0.0719268798828125,7.505517578125
8.870999999999999,-8.456417846679688,-0.031402587890625,3.4740234375
8.881,-8.333349609375,-0.47073974609375,8.004968261718751
8.890999999999998,-7.001431274414063,-0.12022705078125,2.394671630859375
8.901,-7.762570190429688,-0.5662933349609376,8.417239379882814
8.911000000000001,-6.9181396484375,0.0109161376953125,4.093551635742188
8.921,-9.2413330078125,-0.3539520263671875,8.705096435546876
8.931000000000001,-8.813211059570314,0.3949249267578125,5.277279663085938
8.940999999999999,-7.506863403320313,-0.081048583984375,5.506369018554688
8.951,-6.947448730468751,0.0155517578125,6.341079711914063
8.960999999999999,-7.823281860351563,-0.5722747802734376,3.203512573242188
8.971,-8.974710083007814,0.19200439453125,7.415347290039063
8.980999999999998,-8.416491699218751,0.98514404296875,1.7102447509765626
8.991,-8.31121826171875,-0.06878662109375,9.56971435546875
9.001000000000001,-7.282260131835938,0.3146240234375,3.3466186523437504
9.011,-7.532135009765626,-1.068585205078125,7.33385009765625
9.021,-5.1971282958984375,-0.3153717041015625,1.1360260009765626
9.031,-10.258477783203126,-0.0420196533203125,4.877719116210938
9.041,-10.41668701171875,0.700726318359375,8.462399291992188
9.050999999999998,-9.945947265625,0.4103271484375,6.7114807128906255
9.061,-5.718112182617188,0.6440521240234376,8.515484619140626
9.071000000000002,-4.413259887695313,-0.45458984375,4.286004638671876
9.0809999999999,-6.393865966796875,-1.475921630859375,8.817248535156251
9.091,-11.227621459960938,-0.853253173828125,3.714926147460938
9.101,-10.811611938476563,0.37802734375,7.144088745117188
9.111,-5.5759033203125,1.517791748046875,6.479550170898438
9.121,-6.806585693359375,-1.2383087158203123,6.435586547851563
9.131,-10.828060913085938,-0.2548095703125,2.799017333984376
9.140999999999998,-8.091250610351564,-0.5263671875,2.1211700439453125
9.151,-7.604360961914063,-0.1377227783203125,5.875125122070313
9.161,-5.900994873046876,1.6441497802734375,7.598828125000001
9.1709999999999,-9.178976440429688,-0.334661865234375,7.567724609375
9.181,-8.753396606445314,1.4108734130859375,6.093148803710938
9.191,-7.999285888671875,-0.7835693359375001,5.224194335937501
9.201,-6.761575317382813,-0.5715270996093751,5.079742431640625
9.211,-6.534878540039063,-0.194696044921875,5.1811279296875
9.221,-8.871081542968751,-0.384307861328125,5.81695556640625
9.230999999999998,-8.909661865234376,1.90150146484375,3.5302490234375004
9.241,-9.540106201171875,-1.7513671875,6.937130737304688
9.25,-8.027996826171876,-0.1550689697265625,4.249517822265625
9.2609999999999,-7.448095703125,-1.13228759765625,6.26915283203125
9.27,-6.540112304687501,-0.094805908203125,5.350851440429688
9.28,-7.459011840820313,1.3109832763671876,5.856881713867188
9.29,-7.766159057617188,-0.856243896484375,9.511096191406253
9.3,-9.2891845703125,0.786260986328125,4.398605346679688
9.311,-8.535372924804689,-0.6913055419921875,6.978103637695313
9.32,-7.3978515625,0.4257293701171875,2.5579650878906253
9.3299999999999,-7.401889038085938,0.0049346923828125,6.180178833007813
9.34,-7.963546752929688,-0.1457977294921875,4.239797973632813
9.35,-9.1886962890625,1.4201446533203126,4.64219970703125
9.36,-8.618215942382813,-0.825140380859375,6.60172119140625
9.37,-8.002874755859375,-0.1311431884765625,5.625250244140625
9.38,-7.338186645507813,-0.3177642822265625,7.179229736328126
9.39,-4.515093994140625,0.2356689453125,1.3863494873046875
9.3999999999999,-7.632772827148438,1.268963623046875,5.688504028320313
9.41,-11.293417358398438,-0.4613189697265625,7.620062255859375
9.4199999999999,-11.893057250976565,0.6177337646484375,7.411758422851563
9.43,-7.599575805664063,-1.161297607421875,5.98563232421875
9.44,-4.01175537109375,-0.339447021484375,5.508013916015625
9.45,-4.111944580078125,0.103778076171875,7.274334716796876
9.46,-8.503970336914064,-1.1581573486328125,6.427212524414063
9.47,-14.979333496093751,0.5395263671875,5.311074829101563
9.48,-6.976608276367188,-0.9293670654296876,6.72733154296875
9.4899999999999,-4.655358886718751,-1.1883636474609376,9.025851440429689
9.5,-8.29447021484375,-0.21832275390625,3.3001129150390627
9.5099999999999,-10.678524780273438,-0.459674072265625,1.0555755615234377
9.52,-7.538565063476563,0.8489166259765626,5.353094482421875
9.53,-5.932995605468751,-0.48748779296875,6.534878540039063
9.54,-8.678030395507813,0.6503326416015626,8.193832397460938
9.55,-9.829608154296876,0.4673004150390625,3.880313110351562
9.56,-8.382846069335939,0.8504119873046876,7.233810424804688
9.57,-5.751010131835938,1.271954345703125,4.424774169921875
9.5799999999999,-6.491513061523438,-0.8765808105468751,7.0703674316406255
9.59,-7.470227050781251,0.9319091796875,4.776034545898438
9.6,-10.1218017578125,-0.1631439208984375,4.219161987304688
9.61,-8.995645141601564,0.3407928466796875,7.253997802734376
9.62,-8.390023803710939,-0.388494873046875,4.332211303710938
9.63,-7.785150146484375,-1.0445098876953125,6.964794921875001
9.64,-7.011749267578126,-0.0384307861328125,2.0809448242187503
9.6499999999999,-7.597183227539063,-1.5980926513671876,8.398696899414062
9.66,-6.907223510742188,0.268865966796875,5.179034423828125
9.6699999999999,-9.45472106933594,-0.7270446777343751,9.078338623046877
9.68,-9.131573486328126,0.53175048828125,4.680630493164063
9.69,-7.617221069335938,0.084637451171875,5.730374145507813
9.698999999999998,-6.22728271484375,-0.6599029541015625,5.611642456054688
9.71,-7.841674804687501,0.41451416015625,3.3657592773437504
9.72,-8.986672973632814,0.229986572265625,6.600973510742188
9.73,-9.0164306640625,1.7576477050781252,2.928216552734375
9.739,-8.005715942382814,0.2127899169921875,9.11377868652344
9.749,-7.657147216796876,0.1072174072265625,4.221554565429688
9.759,-7.144985961914063,-0.234173583984375,6.8463623046875
9.768999999999998,-6.225936889648438,-0.6587066650390625,3.477163696289063
9.779,-6.242535400390626,0.24464111328125,0.726446533203125
9.789,-11.6291259765625,0.19798583984375,10.158438110351565
9.7989999999999,-11.492449951171876,0.8089904785156251,5.924322509765625
9.809,-8.321984863281251,-0.4852447509765625,7.8838439941406255
9.819,-4.755398559570313,-0.8987121582031251,4.7604827880859375
9.829,-4.113739013671875,-1.7615356445312502,6.190945434570313
9.839,-6.882699584960938,-0.951947021484375,7.435235595703125
9.849,-13.135552978515626,-0.1786956787109375,4.41729736328125
9.858999999999998,-10.613327026367188,0.959722900390625,7.7298217773437505
9.869,-3.3730865478515626,0.33555908203125,8.088708496093751
9.879,-8.298806762695314,-0.8149719238281251,4.125851440429688
9.8889999999999,-10.36270446777344,0.2723052978515625,1.8092376708984377
9.899,-8.389126586914063,0.2349212646484375,1.3914337158203125
9.909,-5.330813598632813,1.266571044921875,8.763864135742189
9.919,-8.236151123046875,1.0255187988281251,7.247119140625
9.928999999999998,-10.282403564453126,0.8459259033203126,7.375570678710938
9.939,-8.000631713867188,0.2083038330078125,4.2281341552734375
9.948999999999998,-6.963748168945313,-0.9296661376953126,7.11253662109375
9.959,-5.556314086914063,-0.406439208984375,3.786553955078125
9.969,-7.883395385742188,-0.7696624755859376,7.0389648437500005
9.979,-8.868090820312501,0.5866302490234375,3.63851318359375
9.989,-10.5572509765625,-0.6560150146484376,6.537570190429688
9.999,-8.395108032226563,-1.3346099853515625,5.715719604492188
10.009,-8.342471313476564,-0.9314605712890626,4.110598754882813
10.018999999999998,-6.177337646484376,-0.5327972412109375,6.629235839843751
10.029,-7.290783691406251,0.6449493408203125,2.949749755859376
10.039,-6.7721923828125,0.4653564453125,10.29690856933594
10.049,-9.2556884765625,0.4586273193359375,5.275485229492188
10.059,-10.1170166015625,0.4041961669921875,8.238095092773438
10.069,-7.398898315429688,0.5176940917968751,2.412466430664063
10.079,-6.718508911132813,0.2720062255859375,7.757785034179688
10.089,-6.239993286132813,0.3911865234375,2.714230346679688
10.099,-9.736148071289064,0.069384765625,6.066680908203125
10.108999999999998,-9.020767211914062,0.902001953125,3.6275970458984377
10.119,-7.841375732421875,-0.9091796875,4.9466552734375
10.129,-6.462353515625001,0.299072265625,4.946356201171875
10.1389999999999,-8.691189575195313,-0.4469635009765625,6.662283325195313
10.149,-9.984228515625,0.6865203857421875,7.690194702148438
10.159,-8.643637084960938,-0.418402099609375,2.93988037109375
10.169,-5.086022949218751,-1.5156982421875,11.777316284179689
10.178999999999998,-4.71636962890625,-0.002392578125,5.079443359375
10.189,-8.713470458984375,-1.0286590576171877,10.197915649414064
10.198,-13.145721435546877,0.6065185546875,1.3266845703125
10.209,-8.013192749023439,-1.1602508544921877,5.33245849609375
10.219,-3.967941284179688,-0.701324462890625,6.777874755859376
10.228000000000002,-8.775677490234376,-0.0527862548828125,3.888687133789063
10.238,-10.441061401367188,-0.2364166259765625,4.355538940429688
10.248,-9.635360717773438,0.8990112304687501,4.565487670898438
10.258,-6.30504150390625,-0.133087158203125,7.032086181640626
10.268,-5.887536621093751,0.9773681640625,7.587911987304688
10.278,-7.297363281250001,0.2196685791015625,5.5450988769531255
10.288,-9.96209716796875,0.0826934814453125,6.263919067382813
10.2979999999999,-6.970028686523438,0.9177032470703126,5.935238647460938
10.308,-8.491110229492188,-0.1257598876953125,4.849008178710938
10.318,-7.167117309570313,0.9064880371093752,5.03936767578125
10.328,-10.0308837890625,-0.7686157226562501,2.543161010742188
10.338,-7.239044189453126,-0.1984344482421875,6.679031372070313
10.348,-8.630029296875001,-0.8231964111328126,4.13975830078125
10.358,-8.094390869140625,-0.1553680419921875,8.1311767578125
10.3679999999999,-7.688250732421875,0.1054229736328125,3.985736083984375
10.378,-7.056610107421876,-1.0048828125,10.328311157226564
10.3879999999999,-6.457867431640626,0.2226593017578125,4.268209838867188
10.398,-8.787490844726562,-1.005780029296875,8.637506103515626
10.408,-9.184060668945314,0.588873291015625,2.3608764648437504
10.418,-8.225085449218751,-0.2468841552734375,6.923223876953125
10.428,-7.262521362304688,0.6207244873046875,4.092205810546876
10.438,-8.178280639648438,0.374139404296875,4.632479858398438
10.448,-9.120806884765626,-0.182135009765625,5.935388183593751
10.4579999999999,-8.57440185546875,0.7258483886718751,2.8006622314453127
10.468,-7.00487060546875,-0.1607513427734375,9.686203002929688
10.478000000000002,-6.9268127441406255,0.6996795654296876,4.076654052734376
10.488,-7.389477539062501,-0.112451171875,7.98582763671875
10.498,-5.953033447265625,-0.8420379638671875,1.559512329101563
10.508,-9.789083862304688,-0.2074066162109375,8.115625000000001
10.518,-10.773181152343753,0.09031982421875,5.397207641601563
10.528,-10.385583496093751,0.1120025634765625,4.9125610351562505
10.538,-5.969183349609375,0.318511962890625,7.156051635742188
10.5479999999999,-3.894668579101563,-0.8013641357421876,4.496102905273438
10.558,-7.200613403320313,-0.8967681884765626,8.639749145507814
10.568,-11.145376586914065,-0.9411804199218752,4.8940185546875
10.578,-11.097525024414065,0.4460662841796875,7.483834838867188
10.588,-4.5581604003906255,1.59644775390625,7.2507080078125
10.598,-5.536276245117188,-0.76263427734375,7.492208862304688
10.608,-9.873870849609377,0.3590362548828125,3.0711730957031254
10.618,-10.020715332031251,-0.603826904296875,2.116085815429688
10.628,-8.757135009765626,0.0459075927734375,5.154061889648438
10.6379999999999,-5.681475830078125,1.1997283935546876,6.514242553710938
10.648,-8.639898681640625,-0.160601806640625,7.419384765625001
10.658,-8.951831054687501,1.2688140869140625,4.184320068359376
10.668,-8.04444580078125,-1.0765106201171877,6.835296630859376
10.678,-7.037469482421876,-0.3361572265625,4.831362915039063
10.687,-6.510504150390625,-0.7787841796875,7.2871948242187505
10.697,-8.498736572265626,-0.1239654541015625,6.248516845703126
10.707999999999902,-8.621505737304688,1.32489013671875,3.686663818359375
10.717,-8.984429931640626,-1.5753631591796875,8.19697265625
10.727,-7.993753051757813,0.117236328125,1.6381683349609375
10.736999999999998,-8.453277587890625,-1.4207427978515623,7.272091674804688
10.747,-6.50841064453125,0.45159912109375,3.2269897460937504
10.758,-7.841375732421875,0.8785247802734376,7.532882690429688
10.7669999999999,-7.286297607421876,-0.0058319091796875,7.413851928710938
10.777,-10.06961364746094,0.5956024169921875,5.631231689453125
10.787,-7.725933837890626,-0.4484588623046875,6.417492675781251
10.797,-7.022665405273438,0.3617279052734375,4.301107788085938
10.807,-7.150817871093751,0.0659454345703125,6.711032104492188
10.817,-7.9086669921875,0.018841552734375,4.254901123046875
10.826999999999998,-9.74736328125,0.938787841796875,5.837890625
10.837,-8.361761474609375,-0.7494750976562501,4.374978637695313
10.847,-8.214318847656251,-0.6406127929687501,6.416146850585938
10.8569999999999,-6.49405517578125,-0.313427734375,3.178091430664063
10.867,-5.517434692382813,-0.002093505859375,3.0288543701171875
10.877,-10.610186767578126,0.9637603759765626,7.366897583007813
10.887,-10.81849060058594,-0.2151824951171875,7.134368896484376
10.896999999999998,-9.283053588867189,-0.0563751220703125,8.247665405273438
10.907,-4.768408203125,-0.8402435302734376,6.226235961914063
10.916999999999998,-3.922482299804688,-0.0925628662109375,6.819296264648438
10.927,-6.94266357421875,0.790447998046875,7.397702026367188
10.937,-12.80433044433594,-0.9604705810546876,4.276882934570313
10.9469999999999,-11.394204711914064,0.4792633056640625,6.562692260742188
10.957,-3.9082763671875,-0.6126495361328126,5.923126220703125
10.967,-7.626193237304688,-0.9293670654296876,6.421231079101563
10.977,-10.168307495117189,0.63343505859375,1.10238037109375
10.986999999999998,-8.865399169921876,-0.67530517578125,4.858877563476563
10.997,-5.774487304687501,0.951947021484375,6.676788330078126
11.007,-7.26566162109375,-0.6730621337890625,7.924966430664063
11.017,-9.2724365234375,0.1161895751953125,7.0377685546875
11.027,-8.971868896484375,0.2715576171875,4.27493896484375
11.0369999999999,-7.15201416015625,0.12860107421875,7.393963623046876
11.047,-6.3810058593750005,0.9884338378906252,2.8532989501953128
11.057,-7.959658813476563,-0.98095703125,7.342971801757813
11.067,-8.680722045898438,0.9033477783203124,2.1923492431640628
11.076999999999998,-9.852337646484376,-0.1449005126953125,6.874774169921875
11.087,-8.125942993164063,0.079254150390625,5.324981689453125
11.097,-8.140447998046875,-0.049945068359375,5.812469482421875
11.1069999999999,-6.955673217773438,-0.5579193115234375,6.633273315429688
11.117,-7.004721069335938,0.0817962646484375,4.348361206054688
11.1269999999999,-7.1334716796875,-0.8013641357421876,9.126190185546877
11.137,-8.369387817382814,0.0964508056640625,4.480252075195313
11.146999999999998,-10.132568359375,-0.408233642578125,8.785995483398438
11.156,-7.460507202148438,0.2286407470703125,2.21014404296875
11.166,-7.606155395507813,-0.18662109375,7.063339233398438
11.1759999999999,-7.0018798828125,-0.5525360107421875,2.5301513671875
11.186,-9.162527465820313,-0.2109954833984375,6.455325317382813
11.196000000000002,-8.46075439453125,0.834112548828125,4.427166748046876
11.207,-8.312713623046875,0.4717864990234375,6.704153442382813
11.216,-7.413253784179688,0.4361968994140625,7.536621093750001
11.226,-7.175640869140626,-0.3360076904296875,4.127346801757813
11.236,-5.758636474609375,-0.627752685546875,4.145590209960938
11.246,-8.210580444335939,0.6032287597656251,2.853448486328125
11.256,-10.440911865234376,0.8118316650390626,9.61622009277344
11.2659999999999,-11.545684814453123,1.21602783203125,4.393072509765625
11.276,-7.350299072265625,0.3300262451171875,8.756387329101564
11.286,-4.165478515625001,-0.450701904296875,4.049887084960938
11.296,-4.961160278320313,-2.2114898681640627,8.197869873046876
11.306,-10.4854736328125,-1.8533508300781247,5.983538818359375
11.316,-11.51368408203125,0.0865814208984375,5.426068115234376
11.326,-7.06767578125,0.5662933349609376,8.307031250000001
11.335999999999904,-5.294027709960938,-0.7910461425781251,7.267605590820313
11.346,-8.976504516601564,-1.472332763671875,3.863265991210938
11.3559999999999,-9.697119140625,-0.2633331298828125,1.8264343261718752
11.366,-8.607748413085938,0.0610107421875,3.990670776367188
11.376,-6.749313354492188,1.6318878173828126,7.729672241210938
11.386,-7.158743286132813,1.19927978515625,7.643389892578125
11.396,-9.49375,1.0492950439453126,5.582781982421875
11.406,-7.772589111328125,0.8122802734375001,5.908621215820313
11.416,-7.579986572265626,-0.7152313232421875,4.198077392578125
11.425999999999902,-6.336294555664063,0.325689697265625,7.395458984375001
11.436,-7.313662719726563,0.07237548828125,3.880313110351562
11.446000000000002,-9.28604431152344,0.7228576660156251,7.096087646484375
11.456,-8.888876342773438,-0.6539215087890625,2.925973510742188
11.466,-9.728372192382814,-2.128646850585937,7.108050537109375
11.476,-6.872232055664063,-0.6151916503906251,2.727987670898438
11.486,-7.751953125000001,-1.3911346435546876,7.098031616210938
11.496,-6.202758789062501,1.145745849609375,4.861569213867188
11.506,-8.171701049804689,-0.7047637939453125,8.680572509765625
11.5159999999999,-8.702703857421875,-0.088525390625,7.840029907226563
11.526,-9.140994262695314,0.3279327392578125,3.671710205078125
11.536,-7.270596313476563,-0.08792724609375,7.351046752929688
11.546,-6.856381225585938,1.2936370849609375,1.610205078125
11.556,-7.620809936523438,-0.0949554443359375,9.03601989746094
11.566,-8.990560913085938,1.7740966796875002,0.2857635498046875
11.576,-9.661828613281251,-0.066094970703125,8.4517822265625
11.586,-7.7052978515625,-0.253314208984375,2.888888549804688
11.596,-6.163729858398438,-0.3935791015625,4.940075683593751
11.6059999999999,-6.149972534179688,0.0240753173828125,4.081738281250001
11.614999999999998,-11.307025146484376,0.261090087890625,8.042800903320312
11.626,-11.121002197265623,-0.6252105712890625,6.9420654296875
11.634999999999998,-6.617572021484375,-0.91875,8.08212890625
11.645,-3.994558715820313,-0.9473114013671876,8.764312744140625
11.655,-4.502981567382813,0.1583587646484375,5.236605834960938
11.6649999999999,-10.5046142578125,-0.0160003662109375,7.794720458984376
11.675,-12.819882202148438,-0.7233062744140626,0.74169921875
11.685,-7.524359130859375,0.047552490234375,9.228472900390626
11.696000000000002,-5.148529052734375,-0.0985443115234375,4.26776123046875
11.704999999999998,-9.40088806152344,-0.3297271728515625,5.515640258789063
11.715,-10.027593994140624,0.8200561523437501,2.159152221679688
11.725,-7.278671264648438,0.0967498779296875,6.227133178710938
11.735,-5.676242065429688,0.7853637695312501,8.275628662109376
11.745,-7.766607666015625,-0.1036285400390625,6.991860961914063
11.755,-9.53382568359375,-0.1401153564453125,6.462652587890625
11.765,-8.228375244140626,0.6084625244140626,5.722598266601563
11.775,-6.931896972656251,-0.2930908203125,5.323037719726563
11.785,-7.706942749023438,0.1093109130859375,4.652517700195313
11.796,-7.6694091796875,-0.8048034667968751,3.397311401367188
11.805,-9.801495361328126,-0.402850341796875,5.503826904296876
11.815,-7.524508666992188,0.40673828125,4.691546630859375
11.8249999999999,-9.545040893554688,-0.7745971679687501,6.9671875000000005
11.835,-7.028198242187501,0.6622955322265626,5.6022216796875
11.845,-7.486825561523438,-0.98394775390625,6.438278198242188
11.855,-5.9313507080078125,0.432757568359375,7.429403686523438
11.864999999999998,-7.700064086914063,-0.279931640625,5.438031005859376
11.875,-9.3083251953125,0.01256103515625,8.056857299804689
11.884999999999998,-9.075048828125,0.8864501953125,3.249868774414063
11.896,-8.032183837890626,-0.43365478515625,6.748715209960938
11.905,-7.14842529296875,0.747381591796875,2.2333221435546875
11.9149999999999,-8.323031616210939,-1.1680267333984375,5.849554443359375
11.925,-9.034225463867188,0.515301513671875,4.092056274414063
11.935,-7.8389831542968755,0.3701019287109375,5.919686889648438
11.945,-7.678829956054688,-0.0299072265625,7.753298950195313
11.954999999999998,-6.699966430664063,-0.063702392578125,4.008914184570313
11.965,-6.406875610351563,-1.97567138671875,4.401446533203125
11.975,-8.065231323242188,1.1312408447265625,5.22000732421875
11.985,-12.098370361328126,-0.0847869873046875,8.894110107421875
11.996,-10.933035278320313,1.137969970703125,5.080938720703125
12.0049999999999,-5.19189453125,1.0086212158203125,8.050726318359375
12.015,-2.2650238037109376,-1.328179931640625,5.394216918945313
12.025,-6.605459594726563,-0.755157470703125,5.71527099609375
12.035,-12.310113525390626,-1.8418365478515624,6.923223876953125
12.044999999999998,-12.427798461914064,0.72315673828125,2.2611358642578128
12.055,-6.328070068359375,1.5349884033203127,9.898544311523438
12.065,-3.978408813476563,-0.5973968505859375,4.7066497802734375
12.075,-9.442160034179688,-0.6220703125,5.0920043945312505
12.084,-9.10779724121094,-0.8677581787109375,2.166180419921876
12.096,-9.415093994140626,0.0982452392578125,5.113836669921875
12.105,-6.008660888671876,1.1533721923828126,8.888876342773438
12.114999999999998,-7.1182189941406255,0.4658050537109375,7.212875366210938
12.124,-9.04693603515625,1.191802978515625,5.4498443603515625
12.134,-8.737844848632813,-0.9269744873046876,4.66612548828125
12.1439999999999,-7.553369140625,-0.485992431640625,4.436737060546875
12.154,-6.718807983398438,-0.4364959716796875,5.614633178710938
12.164,-8.194879150390626,0.05921630859375,5.1029205322265625
12.174,-9.105853271484376,1.5372314453125002,5.236306762695313
12.184,-8.052969360351563,-0.8987121582031251,5.865704345703126
12.196000000000002,-9.2915771484375,-0.7686157226562501,5.751608276367188
12.204,-7.3111206054687505,-1.1943450927734376,4.5494873046875
12.214,-7.281961059570313,-0.27095947265625,6.904681396484375
12.225,-5.8356475830078125,1.592410278320313,5.165875244140626
12.2339999999999,-8.502774047851563,-0.651678466796875,9.3501953125
12.244,-9.429898071289063,0.7077545166015625,4.400698852539063
12.254,-9.39984130859375,-1.0818939208984375,6.135617065429688
12.264,-6.889279174804688,0.431561279296875,4.043157958984375
12.274,-7.3126159667968755,0.1350311279296875,4.5930023193359375
12.284,-7.090255737304688,-0.0297576904296875,6.395809936523438
12.296,-9.622052001953126,1.3987609863281252,3.628643798828125
12.303999999999998,-8.849249267578125,-0.8266357421875,7.138555908203125
12.314,-8.37342529296875,0.009869384765625,4.9170471191406255
12.3239999999999,-6.752603149414063,-0.832318115234375,7.150967407226563
12.334,-4.688107299804688,0.2811279296875,2.23167724609375
12.344,-7.293026733398438,1.127801513671875,3.360675048828125
12.354,-12.362152099609377,-0.4149627685546875,9.159237670898438
12.364,-12.037957763671876,0.094207763671875,5.988922119140625
12.374,-8.017230224609376,-1.310833740234375,7.435983276367188
12.384,-2.237957763671876,0.060711669921875,5.325579833984375
12.393999999999902,-4.321893310546876,0.1440032958984375,7.649819946289063
12.404,-8.1072509765625,-0.170770263671875,7.048086547851563
12.414,-15.247601318359376,-0.23267822265625,4.808184814453125
12.424,-8.336190795898439,0.0518890380859375,7.691390991210938
12.434,-3.299365234375,-0.6655853271484375,7.399945068359376
12.444,-9.083572387695312,-0.25421142578125,3.8486114501953126
12.454,-9.4590576171875,0.552685546875,1.1533721923828126
12.464,-8.544345092773439,-0.12261962890625,4.340435791015626
12.474,-6.022418212890625,0.258697509765625,7.144387817382813
12.483999999999902,-8.733209228515626,-0.2842681884765625,7.55875244140625
12.494,-9.933685302734377,0.338848876953125,5.8311614990234375
12.504,-7.199417114257813,0.7722045898437501,5.8655548095703125
12.514,-6.3346496582031255,0.1447509765625,6.930252075195313
12.524,-6.402090454101563,-0.2429962158203125,3.812274169921875
12.534,-8.663226318359376,-0.8240936279296875,6.679779052734376
12.544,-9.606948852539062,0.6032287597656251,2.642303466796875
12.553,-9.135311889648438,0.15491943359375,7.272390747070313
12.564,-8.166018676757814,-0.1040771484375,5.169314575195313
12.573,-8.154953002929688,-0.2260986328125,4.756594848632813
12.582999999999998,-6.396258544921875,-0.6824829101562501,6.183468627929688
12.593,-7.686306762695313,-0.1508819580078125,4.019082641601563
12.604,-6.913653564453125,-0.082843017578125,9.74676513671875
12.613,-9.195425415039065,0.164190673828125,5.511303710937501
12.623,-9.545938110351564,0.43843994140625,7.974462890625
12.6329999999999,-6.964794921875001,-0.011962890625,2.701071166992188
12.643,-7.4292541503906255,-0.65137939453125,6.969580078125
12.653,-6.916195678710938,-0.3623260498046875,2.4178497314453127
12.663,-10.145278930664062,0.0028411865234375,6.613833618164063
12.672999999999998,-8.423220825195314,1.4904266357421876,3.5142486572265628
12.683,-8.175140380859375,-0.3760833740234375,7.802197265625001
12.693,-7.281512451171875,-0.262884521484375,6.05740966796875
12.703,-5.40244140625,-1.6561126708984375,-0.15252685546875
12.713,-8.836538696289063,-0.305950927734375,9.704296875
12.7229999999999,-9.727774047851565,1.484893798828125,3.50692138671875
12.733,-10.29705810546875,-0.17406005859375,11.3491943359375
12.743,-6.793875122070313,2.463009643554688,3.921435546875
12.753,-4.560403442382813,-1.4955108642578123,8.174243164062501
12.762999999999998,-6.092999267578126,-0.298773193359375,4.024615478515625
12.773,-10.744470214843751,-1.997653198242188,6.4767089843750005
12.783,-11.532525634765626,0.182733154296875,4.398904418945313
12.7929999999999,-6.234909057617188,2.79931640625,7.050628662109376
12.803,-6.074456787109376,-1.5050811767578125,7.334597778320313
12.8129999999999,-9.510797119140626,0.2572021484375,4.10087890625
12.823,-8.239141845703125,-1.5542785644531252,4.696929931640625
12.832999999999998,-8.746517944335938,-0.039178466796875,3.6020263671875004
12.843,-6.093447875976563,1.3962188720703126,8.471221923828125
12.853000000000002,-7.41759033203125,-0.3255401611328125,7.140350341796876
12.863,-8.791677856445313,1.5361846923828126,6.182870483398438
12.873,-9.804635620117187,-1.4128173828125,4.253854370117188
12.8829999999999,-7.210183715820313,-0.1422088623046875,4.5231689453125
12.893,-7.286297607421876,-0.721661376953125,5.066732788085938
12.9029999999999,-6.610693359375,0.0107666015625,6.711929321289063
12.913,-9.549676513671876,1.9753723144531248,3.4838928222656254
12.922999999999998,-8.61746826171875,-1.0409210205078123,7.408169555664063
12.933,-9.14862060546875,-0.21473388671875,4.1906005859375
12.943,-7.330709838867188,-1.3513580322265626,7.924069213867188
12.953,-6.302798461914063,0.032000732421875,3.879116821289063
12.963,-7.227081298828126,1.3364044189453126,7.9690795898437505
12.9729999999999,-7.136611938476563,-0.405841064453125,5.6883544921875
12.983,-10.361358642578123,0.141162109375,7.5623413085937505
12.993,-8.472418212890625,-0.6512298583984375,4.037026977539063
13.003,-8.263665771484376,-0.0456085205078125,4.651470947265626
13.012999999999998,-6.66392822265625,0.39776611328125,5.240493774414063
13.023,-7.528097534179688,-0.628948974609375,4.813119506835938
13.033,-8.716461181640625,1.432855224609375,6.845016479492188
13.0419999999999,-8.650067138671876,-0.7243530273437501,3.5556701660156254
13.053,-8.710031127929689,-0.2328277587890625,8.833099365234375
13.0629999999999,-6.171206665039063,0.0512908935546875,1.4264251708984377
13.072,-5.579342651367188,-0.111553955078125,7.426263427734375
13.082,-9.363504028320314,2.0173919677734378,4.3727355957031255
13.092,-12.538156127929687,-0.8396453857421876,8.35906982421875
13.103000000000002,-8.600122070312501,0.4341033935546875,4.440475463867188
13.113,-5.065386962890625,-1.7621337890625002,7.31710205078125
13.122,-3.66064453125,0.1867706298828125,6.7398925781250005
13.132,-8.074951171875,0.5025909423828125,6.022268676757813
13.142,-12.795059204101564,-1.2320281982421877,6.599478149414063
13.152,-10.08770751953125,0.5613586425781251,4.378118896484375
13.162,-3.971530151367188,-1.9095764160156248,9.077740478515626
13.172,-7.009356689453125,-0.267071533203125,4.4071289062500005
13.182,-10.095333862304688,-0.0701324462890625,4.1260009765625005
13.192,-10.0117431640625,0.2184722900390625,3.231924438476563
13.2019999999999,-6.278125,0.9183013916015624,6.834100341796876
13.212,-7.493704223632813,-0.7959808349609375,7.292428588867188
13.222,-7.879208374023438,0.859234619140625,5.353543090820313
13.232,-9.831402587890626,-0.5030395507812501,6.015240478515626
13.242,-6.631329345703126,1.347171020507813,5.998043823242188
13.252,-7.497592163085938,0.4601226806640625,5.037872314453125
13.262,-7.286297607421876,-0.509619140625,6.517532348632813
13.271999999999998,-8.418435668945314,0.5286102294921875,3.618624877929688
13.282,-9.121255493164064,-0.6645385742187501,6.713574218750001
13.2919999999999,-8.163626098632813,0.5381805419921876,4.105215454101563
13.302,-8.943905639648438,-0.5490966796875001,6.676937866210938
13.312,-6.851745605468751,-0.0856842041015625,4.293032836914063
13.322,-7.3966552734375,-0.576910400390625,6.724789428710938
13.332,-6.498690795898438,-0.63642578125,6.530242919921876
13.342,-9.177182006835938,-0.2189208984375,6.564636230468751
13.352,-9.189593505859376,-0.137274169921875,6.874923706054688
13.361999999999998,-7.943359375000001,0.41630859375,4.4460083007812505
13.372,-6.570916748046876,-0.008673095703125,6.594992065429688
13.382,-7.569668579101563,-0.443524169921875,3.18392333984375
13.392,-9.14368591308594,-0.07835693359375,6.418090820312501
13.402,-9.001626586914064,0.615789794921875,3.3345062255859377
13.412,-7.967434692382813,0.6727630615234376,7.330111694335938
13.422,-7.424319458007813,0.394476318359375,6.190347290039063
13.432,-7.619314575195313,-0.2021728515625,5.6476806640625
13.442,-7.597332763671876,-0.0734222412109375,5.851947021484375
13.451999999999902,-5.955126953125,-0.849066162109375,2.467645263671875
13.462,-8.292376708984376,-0.2050140380859375,6.866400146484375
13.472,-10.361807250976565,1.0132568359375,5.4269653320312505
13.482,-10.674038696289063,-0.20994873046875,6.847857666015625
13.492,-7.226034545898438,0.7977752685546876,6.204403686523438
13.502,-5.815310668945313,-1.1236145019531252,6.249862670898438
13.512,-5.154510498046875,-0.6954925537109375,7.05032958984375
13.521999999999998,-9.266455078125,-0.89661865234375,5.676840209960938
13.531,-10.856921386718753,-0.0426177978515625,7.210333251953125
13.541,-6.882101440429688,1.1624938964843752,6.0584564208984375
13.550999999999998,-6.963299560546876,-1.0669403076171875,7.889675903320313
13.561,-8.76580810546875,0.234173583984375,1.9170532226562504
13.571000000000002,-9.2640625,-0.6347808837890625,4.386941528320313
13.581,-7.60899658203125,0.506927490234375,3.6679718017578127
13.591,-7.311718750000001,0.8326171875,7.040609741210938
13.6009999999999,-8.11383056640625,0.2489776611328125,7.607650756835938
13.611,-8.645431518554688,1.012060546875,4.902093505859376
13.621,-8.405725097656251,-0.4598236083984375,7.261474609375001
13.631,-6.5260559082031255,-0.103778076171875,3.727487182617188
13.640999999999998,-7.426412963867188,-0.611602783203125,8.043399047851564
13.651,-7.091900634765626,0.19080810546875,3.743637084960938
13.661,-9.482086181640623,0.2881561279296875,5.998342895507813
13.671,-9.014636230468753,-0.9486572265625,5.5261077880859375
13.681,-8.801547241210939,-0.7478302001953125,4.489373779296876
13.6909999999999,-7.656250000000001,-0.692352294921875,6.208889770507813
13.701,-6.877914428710938,-0.0444122314453125,2.612844848632813
13.711,-7.508358764648438,0.3991119384765625,9.181369018554689
13.721,-7.159490966796875,0.1493865966796875,4.930654907226563
13.730999999999998,-9.834094238281253,0.0019439697265625,9.5643310546875
13.741,-7.673297119140625,0.5336944580078126,2.7396514892578128
13.751,-8.120709228515626,-0.113348388671875,8.131027221679688
13.761,-6.288742065429688,0.8279815673828126,3.4686401367187503
13.771,-8.508755493164063,-0.3828125,5.775384521484376
13.7809999999999,-8.591448974609376,1.0806976318359376,4.457373046875
13.791,-9.315802001953124,-0.4909271240234375,4.456326293945313
13.800999999999998,-7.893414306640626,-0.438739013671875,6.696078491210938
13.811,-6.042007446289063,0.268267822265625,1.2981231689453123
13.821000000000002,-7.221249389648438,-0.1854248046875,8.711227416992188
13.831,-11.010794067382813,0.8149719238281251,5.2031097412109375
13.841,-9.235202026367189,-0.8703002929687501,8.4158935546875
13.8509999999999,-7.0284973144531255,-0.4155609130859375,5.350851440429688
13.861,-4.012203979492188,-1.0404724121093751,8.245272827148439
13.8709999999999,-6.174346923828126,0.031402587890625,5.9623046875000005
13.881,-10.716207885742188,0.3524566650390625,5.671307373046876
13.890999999999998,-13.456906127929688,-0.9226379394531252,3.664981079101562
13.901,-5.7134765625,0.2603424072265625,7.346261596679688
13.911,-4.752706909179688,-1.091912841796875,5.504574584960938
13.921,-9.375018310546876,0.217724609375,5.933444213867188
13.931,-10.138848876953126,0.7076049804687501,1.6438507080078126
13.9409999999999,-8.136859130859376,0.0599639892578125,8.826669311523439
13.951,-5.292681884765625,1.0077239990234377,5.582931518554688
13.9609999999999,-7.740887451171876,-0.700726318359375,8.602066040039062
13.97,-8.612234497070313,0.699530029296875,3.9411743164062494
13.98,-9.47146911621094,-0.396270751953125,6.164776611328126
13.989999999999998,-6.8894287109375005,0.670819091796875,4.650723266601563
14.001,-7.640698242187501,-0.2474822998046875,4.815960693359376
14.011,-7.979995727539063,-0.5582183837890625,5.5495849609375005
14.02,-8.707638549804688,0.3422882080078125,2.3149688720703128
14.03,-8.406024169921876,-0.8568420410156251,9.048880004882813
14.04,-8.006314086914063,0.381317138671875,3.2353637695312503
14.05,-8.141046142578126,-0.352008056640625,8.909213256835939
14.06,-6.383248901367188,0.146844482421875,3.414208984375
14.07,-7.221847534179688,-0.2651275634765625,9.04798278808594
14.079999999999902,-7.357177734375001,-0.243743896484375,4.933197021484375
14.09,-10.026995849609376,0.15731201171875,6.258834838867188
14.1,-8.806033325195314,0.1969390869140625,5.110845947265625
14.11,-7.412655639648438,0.27694091796875,3.906631469726563
14.12,-7.143939208984375,-0.0083740234375,7.049282836914063
14.131,-7.998089599609376,-0.3494659423828125,1.5572692871093752
14.14,-9.743325805664064,0.1526763916015625,8.537466430664063
14.15,-7.293325805664063,0.484197998046875,3.428863525390625
14.16,-8.051623535156251,-0.15491943359375,10.166213989257812
14.169999999999902,-6.621459960937501,0.3850555419921875,3.5561187744140628
14.18,-8.227627563476563,-0.8994598388671876,7.904031372070313
14.19,-5.777178955078125,0.01435546875,3.4919677734375
14.2,-7.9720703125,-0.9434234619140626,0.370550537109375
14.21,-11.238388061523438,1.0250701904296875,10.899987792968751
14.22,-10.835089111328124,0.4653564453125,0.1652374267578125
14.23,-7.362411499023438,0.0503936767578125,11.22418212890625
14.239999999999998,-5.165426635742188,0.359185791015625,2.15032958984375
14.25,-4.569973754882813,-1.7531616210937502,10.774676513671876
14.259999999999902,-8.815005493164064,0.370849609375,3.7337677001953127
14.27,-11.76669921875,-0.8230468750000001,8.593991088867188
14.28,-7.83330078125,1.490725708007813,5.81815185546875
14.29,-4.68765869140625,-0.407635498046875,8.588009643554688
14.3,-9.235949707031253,-1.190606689453125,3.1677734375
14.31,-10.34132080078125,0.3781768798828125,0.6195281982421875
14.32,-8.185906982421876,-1.3812652587890626,4.831512451171875
14.329999999999998,-6.698321533203125,1.52467041015625,6.396557617187501
14.34,-7.761972045898438,0.0168975830078125,6.926214599609375
14.35,-9.325521850585938,0.7011749267578126,6.841128540039063
14.36,-7.7914306640625,0.4318603515625,5.346813964843751
14.37,-7.309774780273438,-1.2652252197265623,7.048385620117188
14.38,-5.980996704101563,0.7675689697265625,5.04295654296875
14.39,-7.723092651367188,-0.8764312744140625,6.416744995117188
14.4,-8.614328002929689,1.5622039794921876,4.483242797851563
14.41,-10.146026611328123,-0.6839782714843751,4.934542846679688
14.419999999999902,-8.290881347656251,-1.0047332763671877,5.570669555664063
14.428999999999998,-8.701058959960939,-0.0928619384765625,2.9525909423828125
14.44,-6.612637329101563,-0.9805084228515626,6.3798095703125
14.45,-7.100424194335938,1.1126983642578123,4.59075927734375
14.459,-7.224539184570313,-0.3928314208984375,9.639398193359376
14.469,-8.957513427734376,0.1997802734375,5.477658081054688
14.4789999999999,-9.065328979492188,-0.083441162109375,7.902984619140626
14.489999999999998,-6.913504028320313,-0.3261383056640625,4.144842529296875
14.4989999999999,-7.138107299804688,0.6096588134765626,6.253302001953125
14.509,-7.7163635253906255,-0.387896728515625,4.329071044921875
14.518999999999998,-9.270492553710938,0.8149719238281251,3.983941650390625
14.529,-9.344064331054687,0.1155914306640625,5.24393310546875
14.539,-8.051473999023438,-0.7454376220703125,4.714425659179688
14.549,-8.073007202148439,0.1123016357421875,7.160238647460938
14.559,-4.71636962890625,0.0228790283203125,1.5837371826171875
14.5689999999999,-7.551425170898438,0.672613525390625,8.196524047851563
14.579,-10.264010620117189,0.288604736328125,5.912210083007813
14.5889999999999,-10.457510375976565,0.0136077880859375,9.014187622070311
14.599,-7.007711791992188,-0.2009765625,5.408572387695313
14.608999999999998,-5.31571044921875,-0.7182220458984375,6.069821166992188
14.619,-5.178585815429688,0.2821746826171875,6.672003173828125
14.629,-10.02789306640625,-1.101483154296875,4.259835815429688
14.639,-12.80851745605469,-0.081048583984375,5.5944458007812505
14.649,-7.006665039062501,-0.420196533203125,5.111593627929688
14.6589999999999,-4.930804443359375,-1.3085906982421875,8.883193969726562
14.669,-8.52296142578125,0.0267669677734375,4.2640228271484375
14.6789999999999,-10.617962646484376,-0.42288818359375,2.9516937255859377
14.689,-7.393066406250001,0.6711181640625,5.917144775390625
14.698999999999998,-5.410516357421876,-0.258099365234375,6.896157836914063
14.709,-8.050277709960938,0.3081939697265625,7.261624145507813
14.719,-9.630575561523438,0.696539306640625,4.07755126953125
14.729,-9.431991577148438,0.3401947021484375,5.845816040039063
14.739,-6.740191650390625,1.3181610107421875,4.5656372070312505
14.7489999999999,-6.529495239257813,-0.6966888427734376,5.6022216796875
14.759,-7.656698608398438,0.6264068603515626,4.862017822265625
14.768999999999998,-9.328213500976563,0.175555419921875,4.393670654296876
14.779,-9.098376464843753,-0.0949554443359375,7.106106567382813
14.789,-7.777523803710938,0.1039276123046875,5.4842376708984375
14.799,-7.726980590820313,-1.1295959472656252,7.33145751953125
14.809,-6.8702880859375,0.100189208984375,3.818405151367188
14.8189999999999,-7.281362915039063,-1.2759918212890626,7.529592895507813
14.829,-7.451684570312499,-0.14774169921875,5.193240356445313
14.8389999999999,-9.71670837402344,-0.453094482421875,6.945953369140626
14.849,-9.028692626953124,0.0297576904296875,4.868298339843751
14.858999999999998,-7.792178344726563,0.4352996826171875,4.386941528320313
14.869,-6.786996459960938,-0.6177337646484375,6.115130615234375
14.879,-7.927807617187501,0.358587646484375,3.9386322021484377
14.889,-8.80887451171875,0.4113739013671875,6.725238037109375
14.899,-8.262918090820314,1.18133544921875,4.5810394287109375
14.9089999999999,-7.829711914062501,0.4852447509765625,8.216412353515626
14.918,-7.332504272460938,-0.09749755859375,5.624053955078125
14.928,-7.346112060546876,0.0231781005859375,5.091705322265625
14.938,-6.184963989257813,-0.6497344970703125,2.852850341796876
14.948,-9.220547485351563,0.185723876953125,4.910168457031251
14.957999999999998,-11.37491455078125,0.5371337890625001,7.2267822265625
14.968,-8.883044433593751,-0.1422088623046875,5.5904083251953125
14.978000000000002,-7.603164672851563,-0.0267669677734375,6.922775268554688
14.988,-4.434643554687501,-1.0793518066406251,5.296868896484376
14.998,-6.058157348632813,-1.4361450195312502,8.684161376953126
15.008,-10.448239135742188,-0.6806884765625001,5.2325683593750005
15.018,-10.359414672851564,0.076861572265625,6.494952392578125
15.028,-5.9911651611328125,1.142755126953125,7.779318237304688
15.038,-6.200515747070313,-1.109857177734375,6.049783325195313
15.047999999999998,-11.05655212402344,0.0061309814453125,3.8836029052734378
15.058,-8.718405151367188,0.402850341796875,-0.00777587890625
15.068,-7.888629150390625,-0.0847869873046875,7.341625976562501
15.078,-5.7100372314453125,1.898361206054688,5.486331176757813
15.088,-8.872576904296876,-0.29129638671875,8.088558959960938
15.098,-9.027047729492187,1.5583160400390623,5.60162353515625
15.108,-7.931246948242188,-0.4990020751953125,5.89830322265625
15.118,-6.604562377929688,-0.4448699951171875,6.838137817382813
15.128,-6.46414794921875,-0.1302459716796875,4.844671630859375
15.137999999999902,-8.284152221679689,-0.7180725097656251,6.737200927734375
15.148,-9.22144470214844,1.0996887207031252,2.71258544921875
15.158,-9.6504638671875,-2.0348876953125004,7.102816772460938
15.168,-8.167364501953125,-0.4433746337890625,4.399951171875
15.178,-7.975659179687501,-0.8388977050781251,4.752706909179688
15.188,-6.557757568359375,-0.3267364501953125,6.225039672851563
15.198,-7.274484252929688,1.075015258789063,5.300308227539063
15.207999999999998,-7.823431396484375,-0.5501434326171876,9.6696044921875
15.218,-9.084619140625,1.0666412353515626,4.505075073242188
15.228000000000002,-8.465390014648438,-0.1567138671875,8.129681396484376
15.238,-6.665872192382813,0.9248809814453126,2.6497802734375
15.248,-7.6804748535156255,0.1152923583984375,7.579837036132813
15.258,-7.741336059570313,0.20157470703125,2.8114288330078128
15.268000000000004,-9.730615234375,0.9443206787109376,5.4852844238281255
15.278,-8.328414916992188,-0.4900299072265625,4.458270263671875
15.288000000000004,-7.785150146484375,-0.2020233154296875,5.199819946289063
15.297999999999998,-5.830264282226563,-0.1375732421875,4.0262603759765625
15.308,-7.91405029296875,-0.1386199951171875,6.394015502929688
15.318,-10.850491333007811,0.55328369140625,8.996990966796876
15.328,-9.371429443359377,-0.5109649658203126,3.3042999267578126
15.338,-6.189450073242188,-0.8713470458984376,10.297506713867188
15.348,-3.6235595703125,-0.219219970703125,4.557263183593751
15.358000000000004,-6.943560791015625,-0.495263671875,9.027795410156251
15.368,-13.101159667968751,0.4116729736328125,1.9975036621093751
15.378000000000004,-10.514932250976564,-1.259393310546875,6.0001373291015625
15.387999999999998,-5.046395874023438,-0.0988433837890625,6.866250610351563
15.398,-6.085522460937501,-0.6012847900390625,4.969982910156251
15.407000000000004,-10.085614013671876,-0.302362060546875,5.100079345703126
15.416999999999998,-9.858767700195314,0.7309326171875,2.56185302734375
15.427000000000003,-7.152911376953125,-0.3366058349609375,8.127737426757813
15.437,-5.7125793457031255,1.032696533203125,6.854287719726563
15.447000000000005,-7.378860473632813,-0.42049560546875,6.553121948242188
15.457,-10.160830688476564,0.5722747802734376,5.469433593750001
15.467000000000002,-7.71068115234375,0.6418090820312501,4.937084960937501
15.477,-8.152410888671875,0.027215576171875,5.148080444335938
15.488,-6.786099243164063,0.7499237060546875,4.868746948242188
15.498,-9.2006591796875,-0.8575897216796876,3.898556518554688
15.507,-8.093045043945313,0.7705596923828125,5.951239013671875
15.517000000000005,-8.369088745117189,-0.7591949462890626,5.373431396484375
15.527,-8.234207153320312,-0.069683837890625,7.820440673828125
15.537000000000004,-7.558453369140626,-0.0369354248046875,4.22589111328125
15.547,-7.166818237304688,-1.0795013427734377,8.831304931640625
15.557,-6.181524658203125,0.5176940917968751,4.197927856445313
15.567,-8.918634033203126,-1.3530029296875,8.327069091796876
15.576999999999998,-9.179275512695312,0.658856201171875,3.6332794189453126
15.588,-9.313259887695311,-0.5372833251953125,5.945108032226563
15.597,-6.664974975585938,0.5206848144531251,4.375277709960938
15.607000000000005,-7.8270202636718755,0.159405517578125,4.238153076171876
15.617,-8.204898071289064,-0.5504425048828125,7.1481262207031255
15.627000000000002,-8.97635498046875,1.208551025390625,2.475271606445313
15.637,-7.535275268554688,-0.088824462890625,9.611734008789064
15.646999999999998,-7.289437866210938,0.853253173828125,4.150076293945313
15.657,-6.949841308593751,-0.5310028076171875,8.42008056640625
15.666999999999998,-5.911611938476563,-0.8882446289062501,0.4892822265625
15.677000000000003,-10.387228393554688,0.436944580078125,7.577444458007813
15.688,-10.807574462890626,-0.0088226318359375,4.955776977539063
15.697000000000005,-9.785494995117189,0.6332855224609375,6.453979492187501
15.707,-5.66741943359375,0.4170562744140625,6.9958984375
15.717000000000002,-4.563394165039063,-0.7687652587890625,5.362515258789063
15.727,-6.605010986328126,-0.8985626220703126,8.455072021484376
15.736999999999998,-11.507403564453126,-1.7906951904296875,5.027255249023438
15.747000000000003,-10.055856323242187,0.9153106689453124,7.629483032226563
15.757,-5.071667480468751,1.130792236328125,6.6406005859375
15.767000000000005,-6.5472900390625,-0.8723937988281251,6.910961914062501
15.777,-10.41070556640625,0.042767333984375,1.9686431884765627
15.788000000000004,-9.229071044921875,-1.1626434326171875,2.707052612304688
15.797,-8.517877197265626,0.6027801513671875,4.487429809570313
15.807,-5.4827423095703125,1.0623046875000002,7.191342163085938
15.817,-9.18271484375,0.2775390625,7.050030517578126
15.826999999999998,-8.266207885742189,1.4540893554687502,6.025259399414063
15.837000000000003,-8.038912963867189,-0.9616668701171877,6.1381591796875
15.847,-6.881503295898438,0.0411224365234375,5.852096557617188
15.857000000000005,-6.816604614257813,-0.98514404296875,5.738598632812501
15.867,-8.379855346679689,0.2388092041015625,6.587814331054688
15.877000000000002,-8.481390380859375,1.12451171875,3.3916290283203128
15.887999999999998,-9.699212646484376,-1.5651947021484376,6.703256225585938
15.896999999999998,-8.20355224609375,-0.0456085205078125,3.28560791015625
15.9059999999999,-7.833599853515626,-1.882958984375,6.072512817382813
15.916,-6.742434692382813,0.5251708984375001,5.076602172851563
15.925999999999998,-7.528396606445313,0.6733612060546875,6.0370727539062505
15.936,-7.674343872070313,-0.08912353515625,8.710479736328125
15.946000000000002,-9.25015563964844,0.4807586669921875,5.379711914062501
15.956,-8.028146362304689,-0.6452484130859375,7.189099121093751
15.966,-7.20823974609375,0.871197509765625,3.3348052978515628
15.976,-7.39725341796875,-0.279931640625,6.83739013671875
15.988000000000005,-8.149270629882814,0.5665924072265626,4.09549560546875
15.996000000000002,-9.397149658203126,0.8673095703125001,4.991815185546876
16.006,-8.49365234375,-0.6507812500000001,5.475863647460938
16.016,-8.446099853515626,-0.1179840087890625,5.207296752929688
16.025999999999996,-7.26207275390625,-0.7391571044921875,6.760977172851563
16.036,-4.931851196289063,0.2615386962890625,1.5288574218750002
16.046,-7.916741943359375,0.3760833740234375,6.95701904296875
16.055999999999997,-11.1984619140625,-0.49346923828125,6.817202758789063
16.066000000000003,-11.036364746093753,-0.390289306640625,8.350845336914062
16.076,-6.417492675781251,-0.96241455078125,5.233914184570313
16.0859999999999,-4.572216796875001,0.0031402587890625,6.752154541015625
16.095999999999997,-4.4359893798828125,0.6421081542968751,6.385940551757813
16.106,-10.642037963867187,-0.3901397705078125,6.331359863281251
16.116,-13.470364379882811,0.6338836669921876,4.7450805664062505
16.125999999999998,-6.650769042968751,0.0040374755859375,6.561795043945313
16.136000000000003,-4.680032348632813,-0.3808685302734375,8.8716796875
16.146,-8.937924194335938,0.4690948486328125,1.9919708251953123
16.1559999999999,-9.83633728027344,0.2959320068359375,4.4120635986328125
16.165999999999997,-7.030889892578125,0.355596923828125,4.534683227539063
16.176000000000002,-6.609497070312501,-0.5090209960937501,7.856628417968751
16.186,-8.991607666015625,-0.264678955078125,6.6071044921875
16.195999999999998,-9.284548950195314,-0.2878570556640625,4.786801147460938
16.206000000000003,-8.343368530273438,0.3530548095703125,6.715069580078126
16.216,-5.856283569335938,0.1263580322265625,3.5628479003906253
16.226,-7.7507568359375005,-1.0753143310546875,7.253549194335938
16.235999999999997,-7.462002563476563,0.0514404296875,3.4613128662109376
16.246000000000002,-10.1409423828125,-0.1626953125,6.370687866210938
16.256,-8.049530029296875,0.7258483886718751,5.845068359375
16.2659999999999,-8.375518798828125,-0.3117828369140625,6.014492797851563
16.275999999999996,-7.170855712890625,0.219219970703125,6.333752441406251
16.286,-7.246969604492188,-0.1667327880859375,3.406881713867188
16.296,-7.666717529296876,-0.2474822998046875,7.829412841796875
16.305999999999997,-7.323980712890625,0.5897705078125001,4.6288909912109375
16.316000000000003,-9.79446716308594,-0.3503631591796875,9.289782714843753
16.325000000000003,-8.481539916992189,1.1503814697265626,2.41112060546875
16.335,-7.636361694335938,-0.7950836181640626,7.602416992187501
16.345,-6.484634399414063,-0.1730133056640625,3.409722900390625
16.356,-8.221047973632814,-0.9918731689453124,6.356182861328126
16.364999999999995,-8.661581420898438,0.3312225341796875,5.187557983398438
16.375999999999998,-8.731863403320313,0.736614990234375,5.245877075195313
16.3849999999999,-7.821337890625,-0.4658050537109375,7.902236938476563
16.396,-7.749261474609375,0.021533203125,4.0901123046875005
16.405,-6.234759521484375,-1.326385498046875,5.455227661132813
16.415,-7.076797485351563,-0.1625457763671875,0.4906280517578125
16.424999999999898,-9.761868286132811,0.9467132568359377,9.249557495117188
16.434999999999995,-10.9580078125,0.648687744140625,5.1607910156250005
16.445,-8.898297119140626,1.2209625244140625,8.247216796875001
16.455,-5.406628417968751,0.2295379638671875,5.989370727539063
16.464999999999996,-4.283163452148438,-0.8617767333984375,6.389678955078126
16.475,-8.191738891601563,-1.10477294921875,7.027899169921875
16.485,-11.006158447265626,-0.5767608642578126,5.116229248046875
16.494999999999898,-9.527096557617188,1.1871673583984377,6.810324096679688
16.505000000000003,-5.165576171875,0.08433837890625,7.725335693359375
16.515,-8.395257568359376,-1.405938720703125,4.572665405273438
16.525,-9.7198486328125,-0.43724365234375,3.527706909179688
16.534999999999904,-8.211178588867188,-0.8659637451171875,1.570428466796875
16.544999999999995,-7.929751586914063,0.6495849609375001,7.258633422851563
16.555,-5.907723999023438,0.7198669433593751,6.967037963867188
16.5649999999999,-9.487020874023438,0.1511810302734375,7.679876708984375
16.575000000000003,-8.124447631835938,1.1131469726562502,5.271597290039063
16.585,-8.345611572265625,-1.0705291748046877,5.2928314208984375
16.595,-6.508261108398438,0.367559814453125,6.056512451171876
16.604999999999897,-6.549533081054688,-0.3333160400390625,4.453036499023438
16.614999999999995,-9.110488891601562,0.8077941894531251,6.501382446289063
16.625,-8.772238159179688,0.8723937988281251,2.110552978515625
16.6349999999999,-9.852337646484376,-1.8530517578125,8.372528076171875
16.645000000000003,-7.823880004882813,0.2379119873046875,2.2850616455078128
16.655,-7.419384765625001,-1.5574188232421875,7.868292236328125
16.665,-6.136813354492188,1.0489959716796875,3.690103149414063
16.674999999999898,-7.654754638671876,-0.049945068359375,8.407818603515626
16.684999999999995,-8.10126953125,-0.5057312011718751,7.626193237304688
16.695,-9.61158447265625,0.1685272216796875,4.9040374755859375
16.705,-7.645333862304688,-0.801214599609375,7.337588500976563
16.714999999999904,-7.442562866210938,0.8803192138671876,1.4053405761718751
16.725,-7.387084960937501,-0.564947509765625,8.437725830078126
16.735,-8.26934814453125,0.8735900878906251,1.136773681640625
16.744999999999898,-9.666015625,0.4951141357421875,7.71068115234375
16.755000000000003,-7.940518188476563,-0.4170562744140625,3.234616088867188
16.765,-7.552023315429688,0.3294281005859375,5.907275390625
16.775,-4.934841918945313,0.8151214599609375,2.52117919921875
16.784999999999897,-9.39371032714844,0.9156097412109376,9.163723754882811
16.794999999999995,-11.509048461914062,0.856243896484375,7.481442260742188
16.805,-8.767453002929688,-1.0953521728515625,5.209240722656251
16.814,-4.6513214111328125,-1.2257476806640626,9.018524169921877
16.823999999999998,-3.415704345703125,-0.91097412109375,4.488327026367188
16.834000000000003,-8.790032958984376,-0.121722412109375,9.654650878906253
16.843999999999994,-13.56517028808594,-0.425579833984375,0.6180328369140625
16.854,-10.116867065429688,-1.672711181640625,9.152658081054687
16.863999999999898,-3.6578033447265614,-0.3935791015625,5.456423950195313
16.874000000000002,-6.853091430664063,-1.6620941162109375,6.347210693359376
16.884,-10.870379638671876,0.3369049072265625,3.2766357421875
16.894,-9.352438354492188,0.7588958740234375,2.304949951171875
16.903999999999897,-5.747570800781251,0.554779052734375,8.481240844726564
16.913999999999994,-6.435287475585938,1.0307525634765626,7.897601318359375
16.924,-8.841323852539062,-0.0734222412109375,4.726837158203125
16.933999999999997,-9.885235595703126,0.998602294921875,5.7517578125
16.944000000000003,-6.355136108398438,0.6557159423828125,4.6613403320312505
16.954,-7.749261474609375,0.7882049560546875,6.060400390625
16.964,-6.755444335937501,0.6543701171875,3.9024444580078126
16.973999999999897,-10.277618408203123,-1.0184906005859375,4.883999633789063
16.984,-7.483236694335938,0.48330078125,5.810525512695313
16.994,-8.7891357421875,-1.37872314453125,5.45567626953125
17.003999999999998,-7.818646240234376,-0.0082244873046875,6.881204223632813
17.014000000000003,-7.856777954101563,-0.7992706298828126,3.910818481445313
17.023999999999994,-6.780416870117188,-0.9941162109375,8.789883422851563
17.034,-6.909616088867188,-0.1063201904296875,3.901098632812501
17.043999999999897,-8.893960571289064,-1.2550567626953126,9.115423583984375
17.054000000000002,-9.538311767578126,0.9652557373046876,2.30166015625
17.064,-8.393911743164063,-0.5348907470703126,7.941415405273438
17.073999999999998,-6.301901245117188,1.105072021484375,2.926422119140625
17.084000000000003,-7.755691528320313,0.130694580078125,6.095242309570313
17.093999999999994,-8.950036621093751,0.148040771484375,5.13507080078125
17.104,-8.935830688476564,1.3120300292968752,4.1977783203125005
17.113999999999997,-7.35538330078125,0.290399169921875,8.733209228515626
17.124000000000002,-7.142294311523438,0.8833099365234376,4.560403442382813
17.134,-8.071810913085939,-0.4885345458984375,8.221347045898439
17.144,-6.850399780273438,-0.34453125,1.875631713867188
17.153999999999897,-6.423474121093751,-1.222607421875,4.17923583984375
17.163999999999994,-8.448043823242188,-0.3937286376953125,4.39935302734375
17.174,-12.731057739257814,0.8384490966796876,6.507214355468751
17.183999999999997,-10.782901000976564,-0.1978363037109375,6.061895751953125
17.194000000000003,-5.7912353515625,0.2779876708984375,7.230969238281251
17.204,-3.809283447265625,-1.2535614013671876,7.625296020507813
17.214,-4.893719482421876,-1.6226165771484375,6.247320556640625
17.223999999999897,-10.856472778320311,-0.5523864746093751,8.430398559570314
17.234,-10.746414184570312,0.40135498046875,3.795376586914063
17.244,-6.775332641601563,1.3169647216796876,10.074249267578123
17.253999999999998,-6.154458618164063,-0.2459869384765625,3.483444213867188
17.264000000000003,-10.623944091796876,-0.402850341796875,3.2090454101562504
17.273000000000003,-9.15564880371094,0.399560546875,1.1595031738281252
17.284,-7.549032592773438,0.0856842041015625,4.04046630859375
17.293999999999897,-6.733013916015626,1.7322265625000002,9.028543090820314
17.304000000000002,-8.037716674804688,0.3090911865234375,6.507064819335938
17.313000000000002,-8.902185058593751,0.8182617187500001,8.510101318359375
17.323,-7.415945434570313,-0.261688232421875,5.375225830078126
17.333,-6.281414794921876,-1.4491546630859375,5.870190429687501
17.342999999999996,-7.418637084960938,-0.09271240234375,6.593945312500001
17.353,-7.509405517578125,-0.5818450927734375,2.7329223632812503
17.363,-10.364498901367188,0.4780670166015625,6.363958740234375
17.372999999999998,-8.901437377929689,-0.9326568603515626,2.494711303710938
17.383000000000003,-10.140045166015623,-1.6064666748046876,5.888882446289063
17.393,-6.392071533203126,0.1622467041015625,3.736907958984376
17.403,-7.093545532226563,-0.7708587646484376,6.221600341796876
17.412999999999997,-6.0903076171875,1.8886413574218752,7.5862670898437505
17.423000000000002,-7.921676635742188,-0.2636322021484375,8.476156616210938
17.433,-8.930746459960938,0.7828216552734376,7.982238769531251
17.442999999999998,-8.644085693359376,0.450701904296875,4.69005126953125
17.453000000000003,-7.3942626953125,-0.1619476318359375,5.972921752929688
17.463,-6.988122558593751,1.07366943359375,2.871392822265625
17.473,-8.381948852539063,-0.705511474609375,5.5328369140625
17.482999999999997,-9.405374145507814,1.3060485839843752,2.4597198486328127
17.493000000000002,-9.3035400390625,-1.077557373046875,6.205899047851563
17.503,-7.96309814453125,-0.653173828125,5.63870849609375
17.512999999999998,-5.722598266601563,-0.3040069580078125,3.728384399414063
17.523000000000003,-5.842376708984375,-0.503338623046875,6.267507934570313
