time,ax,ay,az
0.0,6.8056884765625005,-0.6480895996093751,6.90318603515625
0.0100000000000051,6.871185302734376,-0.597845458984375,6.824829101562501
0.0200000000000031,6.804193115234376,-0.5461059570312501,6.972271728515626
0.0300000000000011,6.415249633789063,-0.305950927734375,7.177285766601563
0.0399999999998996,6.692639160156251,-0.0602630615234375,7.3843933105468755
0.0500000000000042,6.704751586914063,0.5591156005859376,7.404132080078125
0.0600000000000022,7.108499145507813,0.8800201416015626,6.515139770507813
0.0690000000000026,6.958514404296875,0.7376617431640625,6.5209716796875
0.0790000000000006,6.973318481445313,0.389691162109375,6.283657836914063
0.0890000000000057,6.985430908203125,0.0805999755859375,7.361962890625
0.0990000000000037,6.672152709960938,-0.2693145751953125,7.105209350585938
0.1090000000000017,6.778024291992188,-0.5674896240234375,7.1735473632812505
0.1189999999999997,6.975860595703126,-0.6407623291015625,6.999038696289063
0.1290000000000049,6.978402709960938,-0.5461059570312501,6.623852539062501
0.1390000000000029,6.907522583007813,-0.2678192138671875,6.853988647460938
0.1490000000000009,7.063040161132813,-0.0770111083984375,6.316107177734375
0.1589999999999989,7.1765380859375005,0.15372314453125,6.919036865234376
0.169000000000004,7.02042236328125,0.5100677490234375,6.747219848632813
0.179000000000002,6.504821777343751,0.8541503906250001,7.210034179687501
0.189,6.486727905273438,0.7953826904296876,7.2387451171875
0.1990000000000051,6.88883056640625,0.3796722412109375,6.864605712890626
0.2090000000000031,6.986328125000001,0.02392578125,7.021170043945313
0.2190000000000012,6.70340576171875,-0.144451904296875,6.711181640625001
0.2289999999999992,6.574057006835938,-0.3218017578125,7.251754760742188
0.2390000000000043,6.974215698242188,-0.6548187255859376,6.78056640625
0.2490000000000023,7.282858276367188,-0.8034576416015625,6.6190673828125
0.2590000000000003,7.198370361328125,-0.65018310546875,6.1716552734375005
0.2690000000000054,7.068572998046876,-0.26737060546875,6.382949829101563
0.2790000000000034,6.934140014648438,-0.018841552734375,6.80150146484375
0.2890000000000015,7.032235717773438,0.031402587890625,6.866699218750001
0.2989999999999995,6.817950439453125,0.1885650634765625,7.0030761718750005
0.3090000000000046,6.448895263671876,0.4773193359375,7.176986694335938
0.3190000000000026,6.2458251953125,0.752166748046875,7.751654052734375
0.3290000000000006,6.452932739257813,0.6276031494140626,7.515386962890625
0.3390000000000057,6.82841796875,0.2373138427734375,7.078591918945313
0.3490000000000037,7.004421997070313,-0.1685272216796875,6.411810302734375
0.3589999999999023,7.017282104492188,-0.3494659423828125,6.524411010742188
0.3689999999999998,6.988122558593751,-0.5007965087890626,6.602917480468751
0.3790000000000049,6.995300292968751,-0.9640594482421876,6.643142700195313
0.3890000000000029,7.125247192382813,-1.19329833984375,6.713574218750001
0.3990000000000009,6.605908203125001,-0.8127288818359376,7.1071533203125
0.4089999999999989,6.720602416992188,0.14534912109375,7.79501953125
0.419000000000004,6.893615722656251,0.9305633544921876,7.286746215820313
0.429000000000002,6.323883056640626,1.3797698974609376,6.727630615234376
0.439,6.812417602539063,1.4540893554687502,6.37681884765625
0.4490000000000052,6.984384155273438,1.0639495849609375,7.000534057617188
0.4590000000000032,7.290783691406251,0.232379150390625,6.966290283203126
0.4690000000000012,7.039712524414063,-0.645697021484375,6.750061035156251
0.4789999999999992,6.564935302734376,-1.11553955078125,6.600524902343751
0.4890000000000043,6.83140869140625,-1.2218597412109375,6.952233886718751
0.4990000000000023,7.044796752929688,-1.100885009765625,7.29197998046875
0.5090000000000003,7.129284667968751,-0.5964996337890626,6.764566040039063
0.5190000000000055,6.64658203125,0.29368896484375,6.660040283203125
0.5290000000000035,6.563739013671875,1.1088104248046875,6.810025024414063
0.538999999999902,7.110592651367188,1.380517578125,7.381253051757813
0.5489999999999995,7.02879638671875,1.080996704101563,6.99649658203125
0.5590000000000046,6.734509277343751,0.593658447265625,6.519625854492188
0.5690000000000026,6.467437744140626,-0.049346923828125,6.791183471679688
0.5790000000000006,6.846063232421876,-0.6880157470703125,7.360168457031251
0.5890000000000057,6.933541870117188,-1.1076141357421876,7.470825195312501
0.5990000000000038,6.744528198242188,-1.0636505126953126,6.75364990234375
0.6080000000000041,6.744976806640626,-0.6228179931640625,6.35648193359375
0.6189999999999998,7.155752563476563,-0.0785064697265625,6.6549560546875
0.6279999999999006,7.220501708984376,0.4714874267578125,6.994851684570313
0.6380000000000052,6.92711181640625,0.7532135009765626,6.731817626953125
0.6480000000000032,6.5081115722656255,0.8230468750000001,6.72374267578125
0.6580000000000013,6.508709716796876,0.5040863037109375,7.1095458984375
0.6679999999999993,6.829464721679688,0.1407135009765625,7.754644775390625
0.6780000000000044,6.725537109375001,-0.1912567138671875,7.183865356445313
0.6880000000000024,6.584823608398438,-0.5161987304687501,6.558953857421876
0.6979999999999009,7.155752563476563,-0.6424072265625,6.345565795898438
0.7080000000000055,7.23037109375,-0.5537322998046875,6.772341918945313
0.7180000000000035,7.186557006835938,-0.2148834228515625,6.952532958984375
0.7280000000000015,6.664675903320313,0.0705810546875,6.658993530273438
0.7379999999999995,6.751705932617188,0.166583251953125,6.671704101562501
0.7480000000000047,7.088162231445313,0.2151824951171875,6.962551879882813
0.7580000000000027,6.82542724609375,0.2274444580078125,7.221249389648438
0.7679999999999012,6.486279296875001,0.2800811767578125,7.035675048828126
0.7779999999999987,6.408370971679688,0.048150634765625,6.9268127441406255
0.7880000000000038,6.935784912109376,-0.2412017822265625,6.922476196289063
0.7980000000000018,7.230819702148438,-0.35709228515625,6.89720458984375
0.8079999999999004,7.045095825195313,-0.4173553466796875,6.463848876953126
0.818000000000005,7.325924682617188,-0.3425872802734375,6.373529052734376
0.828000000000003,7.0353759765625,-0.12919921875,7.075750732421875
0.8379999999999015,6.273040771484376,0.4080841064453125,7.375869750976563
0.847999999999999,6.150570678710938,0.7262969970703126,7.583126831054688
0.8580000000000041,6.695480346679688,0.4852447509765625,7.108798217773438
0.8680000000000021,7.469778442382813,0.12142333984375,6.533084106445313
0.8779999999999006,7.017132568359376,0.1454986572265625,6.658694458007813
0.8880000000000052,6.734060668945313,0.2818756103515625,6.773837280273438
0.8980000000000032,6.687255859375001,-0.1807891845703125,7.106704711914063
0.9080000000000013,7.305438232421875,-0.673809814453125,6.820642089843751
0.9179999999999992,6.831259155273438,-0.6657348632812501,6.788043212890625
0.9280000000000044,6.438427734375001,-0.2595947265625,6.983337402343751
0.9380000000000024,6.810025024414063,0.0299072265625,7.231866455078125
0.9479999999999008,7.121658325195313,0.0442626953125,7.023263549804688
0.9580000000000056,7.032235717773438,0.3219512939453125,6.477905273437501
0.9680000000000036,6.779370117187501,0.602630615234375,6.603366088867188
0.9780000000000016,6.723892211914063,0.5967987060546875,6.974514770507813
0.9879999999999,6.9037841796875,0.2189208984375,7.44151611328125
0.9969999999999004,6.742584228515626,-0.0459075927734375,7.141247558593751
1.007000000000005,6.296517944335938,-0.0805999755859375,6.987973022460938
1.0179999999999012,6.570468139648438,-0.23447265625,6.963299560546876
1.0279999999999987,7.388430786132813,-0.476422119140625,6.9013916015625005
1.0369999999998996,7.446749877929688,-0.6376220703125001,6.353790283203126
1.0480000000000018,6.949392700195313,-0.4080841064453125,6.094494628906251
1.0570000000000022,6.763369750976563,-0.07955322265625,6.687106323242188
1.0670000000000002,6.7721923828125,0.0710296630859375,7.412506103515626
1.0770000000000053,6.808529663085938,0.2002288818359375,7.430001831054688
1.088000000000001,6.572711181640625,0.352606201171875,6.937878417968751
1.097999999999999,6.456222534179688,0.5333953857421876,6.8595214843750005
1.1069999999998998,6.824380493164063,0.478515625,7.108648681640625
1.1170000000000044,7.189697265625001,0.26019287109375,7.17833251953125
1.1270000000000024,6.941766357421876,-0.0976470947265625,6.516635131835938
1.1370000000000005,6.850848388671875,-0.392681884765625,6.442166137695313
1.1470000000000056,6.890176391601563,-0.5275634765625,6.858624267578126
1.1570000000000036,6.887335205078125,-0.7153808593750001,6.996347045898438
1.1670000000000016,7.174295043945313,-0.6403137207031251,6.7865478515625
1.1769999999999,6.746023559570313,-0.6616973876953125,6.1003265380859375
1.1870000000000047,6.962103271484375,-0.23985595703125,6.8864379882812505
1.1970000000000027,6.770547485351563,0.37862548828125,7.434188842773438
1.2070000000000007,6.7668090820312505,0.8723937988281251,7.739541625976563
1.2169999999998993,6.706695556640626,1.066192626953125,6.998440551757813
1.227000000000004,6.405828857421875,0.95045166015625,6.563589477539063
1.237000000000002,6.872232055664063,0.7720550537109375,6.981094360351563
1.2469999999999004,7.11612548828125,-0.0611602783203125,7.05631103515625
1.257000000000005,7.327270507812501,-0.9006561279296875,6.719256591796875
1.267000000000003,6.601422119140626,-1.2353179931640623,6.495101928710938
1.277000000000001,6.522467041015625,-0.9474609375,7.122256469726563
1.2869999999998996,6.904083251953126,-0.4945159912109375,7.506713867187501
1.297000000000004,7.1585937500000005,-0.1351806640625,6.99290771484375
1.3070000000000022,6.921279907226563,0.5873779296875,6.2841064453125
1.3170000000000002,6.561795043945313,1.2332244873046876,6.578543090820313
1.3270000000000053,6.902737426757813,1.3658630371093752,7.350299072265625
1.3370000000000033,7.058853149414063,0.798223876953125,7.375869750976563
1.3470000000000013,6.630880737304688,0.079852294921875,6.851596069335938
1.3569999999998998,6.429455566406251,-0.434552001953125,6.641946411132813
1.3670000000000044,6.706695556640626,-0.8993103027343751,7.231716918945313
1.3770000000000024,7.203604125976563,-1.1058197021484375,7.29796142578125
1.3870000000000005,7.037170410156251,-0.9651062011718752,6.578692626953125
1.3970000000000056,6.827819824218751,-0.4103271484375,6.09808349609375
1.4070000000000036,7.04434814453125,0.1580596923828125,6.42227783203125
1.4170000000000016,7.215118408203126,0.585882568359375,7.283755493164063
1.4269999999999,6.828717041015626,0.8169158935546875,7.076498413085938
1.4370000000000047,6.237301635742188,0.7487274169921876,7.008609008789063
1.4470000000000027,6.450241088867188,0.53055419921875,7.123153686523438
1.4570000000000007,6.693984985351563,0.125909423828125,7.556808471679688
1.4669999999998993,7.003674316406251,-0.26976318359375,7.198220825195313
1.477000000000004,6.832305908203126,-0.5689849853515625,6.368893432617188
1.487000000000002,7.086965942382813,-0.7382598876953126,6.193936157226563
1.4960000000000022,7.314260864257813,-0.6216217041015626,6.626992797851563
1.5060000000000002,7.149472045898438,-0.3829620361328125,6.995001220703125
1.5160000000000051,6.812567138671875,-0.0466552734375,6.797613525390625
1.5260000000000034,6.538916015625,0.1454986572265625,6.642095947265625
1.5360000000000014,6.736752319335938,0.4194488525390625,7.244577026367188
1.5459999999999994,6.609197998046875,0.5957519531250001,7.505068969726563
1.5560000000000045,6.510504150390625,0.554779052734375,7.240988159179688
1.5660000000000025,6.685311889648438,0.3210540771484375,6.737948608398438
1.5770000000000053,6.871932983398438,-0.1389190673828125,6.406127929687501
1.5860000000000056,7.602865600585938,-0.4068878173828125,6.7174621582031255
1.5960000000000036,7.37691650390625,-0.6422576904296875,6.660638427734376
1.6060000000000016,6.910662841796875,-0.6113037109375,6.821389770507813
1.6159999999999997,6.1477294921875005,-0.2038177490234375,7.103713989257813
1.6260000000000048,6.288592529296875,0.21114501953125,7.5282470703125
1.6359999999999957,7.205996704101563,0.3404937744140625,7.215267944335938
1.6460000000000008,7.286895751953126,0.10467529296875,6.202011108398438
1.655999999999899,7.027749633789063,0.4366455078125,6.482391357421876
1.666000000000004,6.163729858398438,0.808392333984375,7.300054931640625
1.676000000000002,6.612487792968751,0.5701812744140625,7.762570190429688
1.686,7.425964355468751,-0.2045654296875,7.030590820312501
1.696000000000005,6.964196777343751,-0.8037567138671876,5.806637573242188
1.706000000000003,6.710583496093751,-0.5321990966796876,6.529495239257813
1.716000000000001,6.654507446289063,-0.319708251953125,7.554415893554688
1.7259999999998996,7.107003784179688,-0.439337158203125,7.455422973632813
1.7360000000000042,7.258782958984375,-0.3704010009765625,6.350799560546876
1.7460000000000022,6.8191467285156255,-0.031103515625,5.730673217773438
1.7560000000000002,6.734060668945313,0.487786865234375,6.95103759765625
1.7660000000000051,6.965093994140625,0.6613983154296875,7.868292236328125
1.7760000000000034,6.582730102539063,0.5734710693359375,7.623501586914063
1.7860000000000014,6.246423339843751,0.367559814453125,6.541159057617188
1.7959999999999994,6.561795043945313,0.1972381591796875,6.786248779296876
1.8060000000000045,7.211380004882813,-0.0880767822265625,7.344467163085938
1.8160000000000025,7.208538818359376,-0.442327880859375,7.01982421875
1.8260000000000003,6.939822387695313,-0.6160888671875,6.145037841796875
1.8360000000000056,6.793426513671876,-0.6605010986328126,6.120513916015625
1.846000000000004,7.024459838867188,-0.4510009765625,7.097732543945313
1.8560000000000016,7.093096923828125,-0.1164886474609375,7.457965087890625
1.866,6.646133422851563,0.2089019775390625,7.059451293945313
1.8760000000000048,6.3678466796875,0.438739013671875,6.436184692382813
1.885999999999996,6.896606445312501,0.622967529296875,7.035076904296876
1.8960000000000008,6.9755615234375,0.6525756835937501,7.528097534179688
1.9059999999999,6.7877441406250005,0.444122314453125,7.086965942382813
1.916000000000004,6.641049194335938,0.052935791015625,6.567327880859375
1.926000000000002,6.695928955078125,-0.4077850341796875,6.429605102539063
1.936,7.259530639648438,-0.6569122314453125,7.085470581054688
1.946000000000005,6.973318481445313,-0.8635711669921876,6.899447631835938
1.956000000000003,6.880456542968751,-0.8208038330078126,6.454727172851563
1.966000000000001,6.796566772460938,-0.4753753662109375,6.469680786132813
1.975999999999999,7.168612670898438,0.02572021484375,7.139752197265626
1.986000000000004,7.024310302734375,0.634930419921875,7.450189208984375
1.9960000000000024,6.341827392578126,1.1212219238281251,7.170706176757813
2.006,6.053073120117188,1.335208129882813,7.011300659179688
2.0160000000000053,6.890475463867188,0.7524658203125001,7.026553344726563
2.026000000000004,7.769747924804688,-0.174359130859375,6.792977905273438
2.0360000000000014,7.096386718750001,-0.7979248046875,6.339733886718751
2.0449999999999022,6.47012939453125,-0.9106750488281252,6.616226196289063
2.055,6.601422119140626,-0.910076904296875,7.323831176757813
2.065000000000005,7.2267822265625,-0.884954833984375,7.380654907226563
2.075000000000003,6.976608276367188,-0.30086669921875,6.816604614257813
2.085000000000001,6.539215087890626,0.5793029785156251,6.303546142578125
2.094999999999999,6.770996093750001,1.2048126220703126,6.969879150390626
2.105000000000004,7.163827514648438,1.1632415771484377,7.349551391601563
2.115000000000002,6.888082885742188,0.8540008544921875,7.080087280273438
2.125,6.469381713867188,0.3401947021484375,6.576449584960938
2.135000000000005,6.564785766601563,-0.3715972900390625,6.803295898437501
2.145000000000003,7.188052368164063,-0.9917236328125,7.396804809570313
2.155000000000001,7.162182617187501,-1.2348693847656251,6.902288818359375
2.164999999999999,6.591702270507813,-0.9389373779296876,6.519625854492188
2.1750000000000043,6.719705200195313,-0.4533935546875,6.268554687500001
2.1850000000000023,7.319793701171876,0.061907958984375,7.115676879882813
2.1950000000000003,7.261474609375001,0.5157501220703126,6.915298461914063
2.2050000000000054,6.703854370117188,0.811383056640625,6.628936767578126
2.2150000000000034,6.374276733398438,0.8791229248046876,6.807333374023438
2.224999999999902,6.548934936523438,0.5612091064453125,7.501779174804688
2.2349999999999994,6.843820190429688,0.170172119140625,7.7911315917968755
2.2450000000000045,6.631329345703126,-0.2534637451171875,6.869689941406251
2.2550000000000026,6.821987915039063,-0.5576202392578126,6.43125
2.265000000000001,7.071414184570313,-0.5939575195312501,6.553121948242188
2.2750000000000057,7.192388916015625,-0.4035980224609375,7.021917724609375
2.285000000000004,7.021469116210938,-0.1423583984375,6.83739013671875
2.2949999999999022,6.818399047851563,-0.0632537841796875,6.289639282226563
2.305,6.943112182617188,0.1520782470703125,6.754696655273438
2.315000000000005,6.517083740234376,0.280828857421875,7.240240478515625
2.325000000000003,6.609497070312501,0.423486328125,7.646530151367188
2.335000000000001,6.3774169921875,0.160601806640625,6.929953002929688
2.344999999999999,6.983038330078125,-0.157012939453125,6.5592529296875
2.355000000000004,7.522415161132813,-0.23507080078125,6.582730102539063
2.365000000000002,7.350149536132813,-0.2848663330078125,6.611590576171875
2.375,6.8822509765625,-0.0746185302734375,7.120462036132813
2.385000000000005,6.137860107421876,0.02691650390625,6.810772705078126
2.395000000000003,6.514840698242188,0.1604522705078125,7.478900146484375
2.4049999999999017,7.138854980468751,-0.0207855224609375,7.04674072265625
2.414999999999999,7.208688354492188,-0.0536834716796875,6.722994995117188
2.4250000000000043,6.5918518066406255,0.3709991455078125,6.857876586914063
2.4350000000000023,6.402090454101563,0.50782470703125,6.9899169921875
2.4450000000000003,7.163827514648438,0.2906982421875,7.331158447265626
2.4550000000000054,7.433590698242188,-0.2872589111328125,6.347808837890626
2.4650000000000034,6.845465087890625,-0.4071868896484375,6.452334594726563
2.474999999999902,6.414801025390625,-0.1954437255859375,6.88284912109375
2.4849999999999994,6.534729003906251,-0.21114501953125,7.758682250976563
2.4950000000000045,7.254296875,-0.30445556640625,7.249362182617188
2.5050000000000026,6.9875244140625,-0.2995208740234375,6.1537109375000005
2.515000000000001,6.929953002929688,0.0734222412109375,6.132028198242188
2.5250000000000057,6.860418701171875,0.3724945068359375,6.956869506835938
2.535000000000004,6.910214233398438,0.406439208984375,7.720101928710938
2.544000000000004,6.636563110351563,0.2965301513671875,7.111041259765625
2.554000000000002,6.375622558593751,0.1733123779296875,6.706546020507813
2.5639999999999006,6.6501708984375005,0.0886749267578125,6.901840209960938
2.574000000000005,7.175640869140626,-0.1326385498046875,7.35299072265625
2.584000000000003,7.072012329101563,-0.3019134521484375,6.87626953125
2.594000000000001,6.810025024414063,-0.351708984375,6.192739868164063
2.603999999999999,6.835894775390625,-0.3061004638671875,6.446951293945313
2.615000000000002,7.130780029296876,-0.2346221923828125,7.109097290039063
2.6240000000000023,7.081881713867188,-0.072674560546875,7.338635253906251
2.633999999999901,6.465942382812501,0.0970489501953125,6.706097412109376
2.644000000000005,6.542355346679688,0.2743988037109375,6.743032836914063
2.6540000000000035,6.86490478515625,0.3554473876953125,7.215567016601563
2.664000000000001,7.052871704101563,0.3351104736328125,7.381253051757813
2.6739999999999,6.769351196289063,0.282025146484375,6.908120727539063
2.6840000000000046,6.560150146484376,0.0524871826171875,6.344818115234376
2.6940000000000026,7.040908813476563,-0.2244537353515625,6.775332641601563
2.703999999999901,7.095040893554688,-0.5594146728515625,6.913952636718751
2.7150000000000034,7.059750366210938,-0.665435791015625,6.829763793945313
2.724000000000004,6.638357543945313,-0.6560150146484376,6.409716796875
2.7340000000000018,6.9866271972656255,-0.421392822265625,6.7028076171875
2.7439999999999003,6.9926086425781255,0.04844970703125,7.488470458984375
2.754000000000005,6.7937255859375005,0.5064788818359376,7.324130249023438
2.764000000000003,6.363809204101563,1.1197265625,7.345065307617188
2.774000000000001,6.283508300781251,1.0983428955078125,6.605609130859375
2.783999999999999,7.321289062500001,0.581695556640625,6.928457641601563
2.794000000000004,7.629782104492188,-0.1942474365234375,6.511700439453126
2.804000000000002,6.778024291992188,-0.6575103759765626,6.541607666015626
2.815000000000005,6.412857055664063,-0.7155303955078125,7.042553710937501
2.824000000000005,6.580038452148438,-0.9344512939453126,7.406375122070313
2.834000000000003,7.253997802734376,-0.7155303955078125,7.485031127929688
2.844000000000001,6.710882568359375,-0.0865814208984375,6.429455566406251
2.853999999999999,6.599179077148438,0.7692138671875001,6.643292236328126
2.8640000000000043,7.1191162109375,1.07666015625,6.692340087890625
2.8740000000000023,7.2626708984375,0.9120208740234376,7.268353271484376
2.883999999999901,6.833203125000001,0.6936981201171876,6.8559326171875
2.894000000000005,6.18302001953125,0.15611572265625,6.8080810546875
2.9040000000000035,6.678582763671876,-0.4409820556640625,7.240539550781251
2.914999999999999,7.156350708007813,-1.054229736328125,7.250259399414063
2.9239999999999,6.999935913085938,-1.070977783203125,6.904681396484375
2.9389999999999006,6.6142822265625005,-0.7011749267578126,6.130981445312501
2.943000000000005,7.05032958984375,-0.2486785888671875,6.672451782226563
2.953999999999901,7.492208862304688,0.185723876953125,6.861166381835938
2.9640000000000057,7.057208251953125,0.4556365966796875,6.778921508789063
2.974000000000004,6.572262573242188,0.7242034912109375,6.65196533203125
2.9840000000000018,6.292630004882813,0.6814361572265626,7.188052368164063
2.9939999999999003,6.641647338867188,0.411822509765625,7.846908569335938
3.004000000000005,6.721051025390626,0.03170166015625,7.408020019531251
3.014999999999901,6.816305541992188,-0.3313720703125,6.592300415039063
3.024000000000001,7.008010864257813,-0.494366455078125,6.262573242187501
3.0330000000000013,7.179379272460938,-0.470440673828125,6.763967895507813
3.0429999999999,7.057507324218751,-0.2301361083984375,7.035525512695313
3.0530000000000044,6.827520751953125,-0.1257598876953125,6.670806884765626
3.0630000000000024,6.837240600585938,-0.0240753173828125,6.625946044921876
3.0730000000000004,6.826025390625,0.075067138671875,6.813912963867188
3.083000000000005,6.679629516601563,0.2546600341796875,7.4307495117187505
3.0930000000000035,6.459213256835938,0.305352783203125,7.22977294921875
3.103000000000001,6.782510375976563,-0.046954345703125,6.634170532226563
3.115000000000002,7.304391479492188,-0.271856689453125,6.407772827148438
3.1230000000000047,7.279119873046875,-0.38101806640625,6.616973876953126
3.1330000000000027,7.202108764648438,-0.1751068115234375,7.1466308593750005
3.1430000000000007,6.441268920898438,0.1051239013671875,7.216015625000001
3.152999999999899,6.08612060546875,0.3701019287109375,7.243081665039063
3.163000000000004,6.713723754882813,0.430963134765625,7.1780334472656255
3.173000000000002,7.199267578125,0.2045654296875,6.904083251953126
3.1829999999999004,7.245773315429688,0.2232574462890625,6.6310302734375
3.193000000000005,6.563888549804688,0.2739501953125,6.63402099609375
3.203000000000003,6.74527587890625,0.106768798828125,7.005169677734376
3.2150000000000034,7.174743652343751,-0.36905517578125,7.072460937500001
3.2229999999998995,7.067077636718751,-0.7108947753906251,6.775482177734376
3.233000000000004,6.653610229492188,-0.454290771484375,6.766659545898438
3.243000000000002,6.514840698242188,-0.1634429931640625,6.976309204101563
3.253,6.963449096679688,0.0453094482421875,7.324728393554688
3.263000000000005,7.216015625000001,0.143853759765625,6.779071044921875
3.2730000000000032,6.883297729492188,0.404046630859375,6.432595825195313
3.2830000000000013,6.665274047851563,0.612799072265625,6.614431762695313
3.2929999999999,6.691741943359376,0.4915252685546875,7.460507202148438
3.3030000000000044,6.944906616210938,0.1706207275390625,7.414151000976563
3.315000000000005,6.578543090820313,-0.1134979248046875,6.987823486328126
3.3230000000000004,6.490765380859376,-0.267669677734375,6.548187255859376
3.333000000000005,7.048684692382813,-0.4610198974609375,6.853390502929688
3.3430000000000035,7.334597778320313,-0.5630035400390625,6.988122558593751
3.353000000000001,7.117022705078125,-0.50782470703125,6.365753173828126
3.3629999999999,6.745126342773438,-0.18243408203125,6.458316040039063
3.3730000000000047,6.670806884765626,0.112152099609375,6.794622802734375
3.3830000000000027,7.014291381835938,0.3074462890625,7.633221435546876
3.3930000000000007,6.722994995117188,0.46356201171875,7.254296875
3.402999999999899,6.455026245117188,0.500946044921875,6.737649536132813
3.414999999999999,6.664376831054688,0.435748291015625,6.872680664062501
3.423000000000002,7.012945556640625,0.139666748046875,7.106106567382813
3.433,7.171154785156251,-0.131890869140625,7.168014526367188
3.443000000000005,6.760528564453126,-0.4203460693359375,6.364706420898438
3.453000000000003,6.796865844726563,-0.5423675537109376,6.481195068359376
3.463000000000001,7.075302124023438,-0.5804992675781251,6.852792358398438
3.4729999999998995,6.941018676757813,-0.4960113525390625,7.0030761718750005
3.483000000000004,6.792080688476563,-0.21533203125,6.889877319335938
3.4920000000000044,6.5275512695312505,-0.0949554443359375,6.471774291992188
3.5020000000000024,6.985879516601563,0.28232421875,7.179977416992188
3.5120000000000005,7.028646850585938,0.5369842529296875,7.331906127929688
3.5230000000000032,6.854885864257813,0.680389404296875,7.255194091796875
3.532000000000004,6.587066650390626,0.826336669921875,6.803445434570313
3.5420000000000016,6.4109130859375005,0.5416198730468751,6.796865844726563
3.552,7.26805419921875,0.0384307861328125,7.028048706054688
3.5620000000000047,7.473965454101563,-0.7886535644531251,6.531289672851563
3.571999999999996,6.921878051757813,-1.014154052734375,6.504074096679688
3.5820000000000007,6.333004760742188,-0.7236053466796876,6.881353759765625
3.5919999999999,6.569720458984375,-0.340045166015625,7.727429199218751
3.602000000000004,7.168612670898438,0.002093505859375,7.306335449218751
3.612000000000002,6.893615722656251,0.34512939453125,6.4557739257812505
3.622,6.791632080078125,0.9586761474609377,6.277526855468751
3.632000000000005,6.8415771484375005,1.1644378662109376,7.015338134765625
3.642000000000003,6.906326293945313,0.7943359375000001,7.527648925781251
3.652000000000001,6.779370117187501,0.1948455810546875,7.084274291992188
3.661999999999999,6.455624389648438,-0.4027008056640625,6.757388305664063
3.672000000000004,6.668713378906251,-0.7778869628906251,6.778024291992188
3.682000000000002,7.323980712890625,-1.0783050537109375,7.179379272460938
3.692,7.219754028320313,-0.962713623046875,6.719705200195313
3.702000000000005,6.656900024414063,-0.56644287109375,6.124401855468751
3.7120000000000033,6.955374145507813,0.0180938720703125,6.576449584960938
3.722000000000001,7.207791137695313,0.4400848388671875,7.0258056640625
3.7319999999999993,6.851147460937501,0.6440521240234376,7.152462768554688
3.742000000000005,6.565682983398438,0.7826721191406251,6.9387756347656255
3.7520000000000016,6.223394775390625,0.7074554443359375,7.150219726562501
3.762000000000001,6.585122680664063,0.417205810546875,7.555911254882813
3.7720000000000056,6.9540283203125,-0.0155517578125,7.380056762695313
3.782000000000004,7.003225708007813,-0.430364990234375,6.542355346679688
3.7920000000000016,6.980047607421875,-0.6956420898437501,6.081036376953126
3.802,7.150219726562501,-0.6563140869140626,6.6157775878906255
3.8120000000000047,7.175790405273438,-0.5060302734375001,7.006216430664063
3.8220000000000014,6.868493652343751,-0.303857421875,6.858773803710938
3.8320000000000007,6.6669189453125,-0.0043365478515625,6.614132690429688
3.8419999999998993,6.490017700195313,0.2519683837890625,6.880606079101563
3.852000000000004,6.834548950195313,0.516796875,7.561892700195313
3.862000000000002,6.6669189453125,0.4933197021484375,7.177883911132813
3.872,6.929653930664063,0.244342041015625,6.54788818359375
3.882000000000005,7.227828979492188,-0.098394775390625,6.352444458007813
3.892000000000003,7.393515014648438,-0.3162689208984375,6.7602294921875
3.902000000000001,6.674545288085938,-0.1454986572265625,7.43553466796875
3.911999999999999,6.085372924804688,-0.1048248291015625,7.096685791015625
3.922000000000004,6.645385742187501,-0.1915557861328125,7.113433837890626
3.932000000000002,7.224838256835938,-0.289801025390625,6.711929321289063
3.942,7.171304321289063,0.0599639892578125,6.956570434570313
3.952000000000005,6.513644409179688,0.6485382080078126,6.9312988281250005
3.9620000000000033,6.667816162109376,0.6074157714843751,6.789089965820313
3.971000000000004,7.356878662109375,0.1885650634765625,6.970626831054688
3.980999999999902,7.099826049804688,-0.1766021728515625,6.568075561523438
3.991,6.549682617187501,-0.0800018310546875,7.121060180664063
4.001000000000005,6.3534912109375,-0.22430419921875,7.015188598632813
4.011000000000003,7.007562255859376,-0.51859130859375,7.317849731445313
4.022000000000006,7.248165893554688,-0.488385009765625,6.731817626953125
4.030999999999999,6.793276977539063,-0.121124267578125,6.391174316406251
4.041000000000004,6.763369750976563,0.3207550048828125,6.75723876953125
4.051000000000002,7.002178955078126,0.3784759521484375,7.030291748046875
4.061,6.868344116210938,0.3796722412109375,7.338934326171875
4.071000000000005,6.660040283203125,0.395074462890625,6.804641723632813
4.081000000000003,6.395062255859376,0.2902496337890625,7.050180053710938
4.090999999999902,6.891073608398438,-0.088824462890625,6.960458374023438
4.100999999999999,7.203604125976563,-0.41630859375,7.089358520507813
4.111000000000004,6.913952636718751,-0.4933197021484375,6.54130859375
4.121000000000002,6.674694824218751,-0.436346435546875,6.457418823242188
4.131,7.0284973144531255,-0.2884552001953125,6.932046508789063
4.141000000000005,7.111489868164063,-0.1769012451171875,7.00247802734375
4.151000000000003,6.920532226562501,0.117236328125,6.960159301757813
4.160999999999902,6.432296752929688,0.4188507080078125,6.702508544921876
4.170999999999999,6.662432861328125,0.5124603271484376,7.180575561523438
4.1810000000000045,6.965243530273438,0.3940277099609375,7.2632690429687505
4.1910000000000025,6.985580444335938,0.158807373046875,6.9028869628906255
4.2010000000000005,6.735556030273438,-0.0174957275390625,6.624899291992188
4.211000000000006,6.619515991210938,-0.231182861328125,6.678433227539063
4.221000000000004,7.076947021484376,-0.319110107421875,7.300054931640625
4.231000000000002,7.062741088867188,-0.4930206298828125,6.792529296875
4.241,6.669161987304688,-0.4314117431640625,6.539364624023438
4.251000000000005,6.843222045898438,-0.2361175537109375,6.516036987304688
4.261000000000003,6.839035034179688,-0.0838897705078125,7.1310791015625
4.271000000000001,7.087414550781251,0.1730133056640625,7.160836791992188
4.280999999999999,6.804043579101563,0.2651275634765625,6.903485107421876
4.291000000000004,6.826174926757813,0.40374755859375,6.749612426757813
4.301000000000002,6.717013549804688,0.6963897705078126,7.396057128906251
4.311,6.473718261718751,0.7375122070312501,7.4905639648437505
4.321000000000005,6.824081420898438,0.2776885986328125,6.740191650390625
4.331000000000003,7.422824096679688,-0.53533935546875,6.074008178710938
4.340999999999902,7.315756225585938,-1.0298553466796876,6.165972900390625
4.350999999999999,6.826773071289063,-0.8261871337890626,7.168014526367188
4.361000000000004,6.234161376953126,-0.4394866943359375,7.716961669921876
4.371000000000002,6.756939697265626,-0.2609405517578125,7.316952514648438
4.381,6.878662109375001,0.060113525390625,6.610244750976563
4.391000000000005,6.967037963867188,0.8369537353515626,6.503775024414063
4.401000000000003,6.798959350585938,1.3290771484375,7.069619750976563
4.410999999999902,6.913653564453125,1.07247314453125,7.153808593750001
4.420999999999999,6.904083251953126,0.433056640625,6.943710327148438
4.4310000000000045,6.632675170898438,-0.1828826904296875,6.80150146484375
4.4410000000000025,6.55028076171875,-0.63822021484375,7.073806762695313
4.450000000000003,7.028646850585938,-1.143951416015625,7.130929565429688
4.461000000000006,7.311569213867188,-1.3722930908203126,6.5472900390625
4.471000000000004,6.995300292968751,-1.0587158203125,6.119467163085938
4.481000000000002,6.883596801757813,-0.270660400390625,6.499139404296876
4.490000000000002,7.070217895507813,0.4559356689453125,7.197772216796875
4.4999999999999005,6.836941528320313,0.8224487304687501,7.089657592773438
4.510000000000005,6.658245849609376,1.0319488525390623,6.89720458984375
4.520999999999901,6.280517578125001,1.0413696289062502,7.148873901367188
4.530000000000001,6.420932006835938,0.7926910400390625,7.603762817382813
4.539999999999914,6.799258422851563,0.2032196044921875,7.594940185546876
4.550000000000004,6.912008666992188,-0.5393768310546876,6.595590209960938
4.560000000000002,7.242034912109376,-0.98394775390625,6.078942871093751
4.569999999999901,7.039862060546875,-0.9739288330078124,6.492410278320313
4.580000000000005,7.089208984375,-0.7690643310546875,6.865353393554688
4.590000000000003,7.119415283203126,-0.4681976318359375,6.977056884765625
4.600000000000001,6.745126342773438,-0.1102081298828125,6.424072265625001
4.6099999999999,6.619216918945313,0.4341033935546875,6.8490539550781255
4.6200000000000045,6.582281494140625,0.8338134765625,7.3963562011718755
4.630000000000003,6.510653686523438,0.8006164550781251,7.562490844726563
4.639999999999901,6.810324096679688,0.43963623046875,6.859671020507813
4.650000000000006,7.031488037109376,-0.0249725341796875,6.329266357421876
4.660000000000004,7.230819702148438,-0.328082275390625,6.670806884765626
4.670000000000002,7.398150634765625,-0.581396484375,6.981094360351563
4.6799999999999,6.553570556640626,-0.478814697265625,7.141696166992188
4.690000000000005,6.213973999023438,-0.3354095458984375,6.7339111328125005
4.700000000000003,6.764416503906251,-0.1443023681640625,7.322335815429688
4.710000000000001,7.316055297851563,0.082843017578125,6.951486206054688
4.719999999999999,6.877166748046876,0.5244232177734376,7.141546630859375
4.730000000000004,6.451885986328126,0.959423828125,6.5664306640625005
4.740000000000002,6.840231323242188,0.71597900390625,6.786846923828126
4.7499999999999005,7.444656372070313,0.112152099609375,6.995748901367188
4.760000000000005,7.08621826171875,-0.393878173828125,6.65794677734375
4.770000000000003,6.2882934570312505,-0.4415802001953125,7.088909912109376
4.780000000000001,6.421380615234376,-0.5628540039062501,7.0225158691406255
4.7899999999999,7.107901000976563,-0.716278076171875,7.48099365234375
4.800000000000004,7.35478515625,-0.5010955810546875,6.537719726562501
4.810000000000002,6.893914794921876,0.060711669921875,6.163281250000001
4.819999999999901,6.597683715820313,0.5857330322265626,6.6286376953125
4.830000000000005,7.040310668945313,0.6302947998046875,7.259381103515626
4.840000000000003,7.011300659179688,0.5372833251953125,7.588211059570313
4.850000000000001,6.334051513671875,0.453692626953125,6.761874389648438
4.8599999999999,6.2045532226562505,0.1712188720703125,6.95462646484375
4.8700000000000045,7.087265014648438,-0.257501220703125,7.179977416992188
4.880000000000003,7.282708740234375,-0.6133972167968751,7.126443481445313
4.890000000000001,6.898849487304688,-0.6002380371093751,6.407174682617188
4.900000000000006,6.737948608398438,-0.415411376953125,6.198870849609375
4.910000000000004,7.067974853515626,-0.2743988037109375,6.913055419921876
4.920000000000002,7.296316528320313,-0.0629547119140625,7.20584716796875
4.9299999999999,6.726434326171876,0.220416259765625,6.934887695312501
4.940000000000005,6.423623657226563,0.450103759765625,6.601571655273438
4.950000000000003,6.615927124023438,0.4499542236328125,7.074703979492188
4.960000000000001,7.07724609375,0.330474853515625,7.5967346191406255
4.9699999999999065,6.79910888671875,0.2045654296875,7.074404907226563
4.980000000000004,6.514541625976563,0.0179443359375,6.510803222656251
4.989000000000004,7.0045715332031255,-0.277239990234375,6.488821411132813
4.999000000000002,7.295867919921876,-0.5540313720703125,6.907073974609376
5.009,6.9635986328125,-0.4822540283203125,6.9552246093750005
5.0190000000000055,6.455026245117188,-0.421990966796875,6.457717895507813
5.029000000000004,6.951486206054688,-0.4498046875,6.676190185546876
5.0390000000000015,7.155752563476563,-0.4409820556640625,6.715069580078126
5.0489999999999,7.024758911132813,-0.0210845947265625,7.318896484375
5.059000000000005,6.605908203125001,0.5701812744140625,7.221697998046875
5.069000000000003,6.567477416992188,0.9365447998046876,7.286447143554688
5.079000000000001,6.5951416015625,1.114044189453125,7.212576293945313
5.089000000000006,6.826473999023438,0.7629333496093751,6.703106689453126
5.099000000000004,7.222445678710938,0.215631103515625,6.67349853515625
5.109000000000002,7.16636962890625,-0.68009033203125,6.143392944335938
5.119,6.936981201171876,-1.0890716552734376,7.065432739257813
5.129000000000005,6.531289672851563,-0.9048431396484377,7.398300170898438
5.139000000000003,6.433493041992188,-0.6491363525390625,7.536322021484375
5.149000000000001,6.930999755859376,-0.2588470458984375,6.868344116210938
5.158999999999899,7.1765380859375005,0.282623291015625,6.229077148437501
5.169000000000004,7.076797485351563,1.054229736328125,6.7697998046875005
5.179000000000002,6.735855102539063,1.37274169921875,6.918438720703126
5.189,6.691741943359376,1.0413696289062502,7.454376220703126
5.199000000000005,6.768603515625,0.2950347900390625,6.8984008789062505
5.209000000000003,6.614730834960938,-0.4031494140625,7.019973754882813
5.219000000000001,6.8026977539062505,-0.8252899169921876,7.002926635742188
5.2289999999999,6.746920776367188,-1.176251220703125,7.0210205078125005
5.239000000000004,7.153808593750001,-1.143951416015625,6.729275512695313
5.249000000000002,7.188650512695313,-0.6555664062500001,6.301153564453125
5.259,6.931597900390625,0.021234130859375,6.499288940429688
5.2690000000000055,7.020870971679688,0.5489471435546875,6.738546752929688
5.279000000000004,6.974514770507813,0.8104858398437501,7.248165893554688
5.2890000000000015,6.498391723632813,0.9021514892578124,7.1550048828125
5.2989999999999,6.212030029296876,0.7766906738281251,7.388729858398438
5.309000000000005,6.513793945312501,0.4373931884765625,7.418936157226563
5.319000000000003,6.84097900390625,-0.13218994140625,7.174594116210938
5.329000000000001,7.204351806640625,-0.6515289306640626,6.565533447265626
5.339000000000006,7.16397705078125,-0.8194580078125001,6.149822998046876
5.349000000000004,7.194033813476563,-0.8514587402343751,6.340481567382813
5.359000000000002,7.221548461914063,-0.6406127929687501,6.8026977539062505
5.369,6.887185668945313,-0.3261383056640625,6.883297729492188
5.379000000000005,6.580636596679688,0.1484893798828125,7.05272216796875
5.389000000000003,6.350799560546876,0.5612091064453125,7.102816772460938
5.399000000000001,6.611889648437501,0.7747467041015625,7.398150634765625
5.408999999999899,6.849652099609376,0.6567626953125001,7.092648315429688
5.419000000000004,6.873428344726563,0.2522674560546875,6.463998413085938
5.429000000000002,7.244577026367188,-0.083441162109375,6.44560546875
5.438000000000002,7.19388427734375,-0.600836181640625,6.63402099609375
5.448,7.376467895507813,-0.7270446777343751,7.299008178710938
5.4580000000000055,6.105709838867188,-0.417205810546875,7.051675415039063
5.468000000000004,6.174945068359375,-0.0426177978515625,7.162481689453125
5.4780000000000015,6.885391235351563,0.165985107421875,7.288241577148438
5.488,7.534677124023438,0.1846771240234375,6.708340454101563
5.498000000000005,6.997692871093751,0.7497741699218751,6.803594970703125
5.508000000000003,6.208590698242188,0.9510498046875,6.426763916015625
5.518000000000001,7.0234130859375,0.5535827636718751,7.332055664062499
5.527999999999899,7.342822265625,-0.301763916015625,6.9387756347656255
5.538000000000004,6.784454345703126,-0.6745574951171875,6.816903686523438
5.548000000000002,6.3259765625,-0.5671905517578125,6.857876586914063
5.558,6.577047729492188,-0.6492858886718751,7.156500244140625
5.568000000000005,7.438525390625,-0.5480499267578125,7.291531372070313
5.578000000000003,7.223941040039063,-0.1999298095703125,6.280068969726563
5.588000000000001,6.736752319335938,0.38341064453125,6.179580688476563
5.597999999999999,6.778024291992188,0.7322784423828126,6.750808715820313
5.608000000000004,6.984683227539063,0.678594970703125,7.689895629882813
5.618000000000002,6.623553466796875,0.5227783203125,7.469329833984376
5.628,6.218759155273438,0.2941375732421875,6.905429077148438
5.638000000000005,6.388931274414063,-0.0171966552734375,6.937878417968751
5.648000000000003,7.320690917968751,-0.5324981689453125,6.98094482421875
5.658000000000001,7.458413696289063,-0.724951171875,6.907223510742188
5.667999999999999,6.85294189453125,-0.6569122314453125,6.01793212890625
5.678000000000004,6.764566040039063,-0.3922332763671875,6.45816650390625
5.688000000000002,7.055712890625,-0.1984344482421875,7.010253906250001
5.698,7.185659790039063,0.043963623046875,7.3589721679687505
5.7080000000000055,6.569869995117188,0.3889434814453125,6.916943359375001
5.718000000000004,6.256442260742188,0.60831298828125,6.74168701171875
5.7280000000000015,6.654058837890625,0.672613525390625,7.520620727539063
5.738,6.971224975585938,0.4062896728515625,7.363009643554688
5.748000000000005,7.026553344726563,0.15731201171875,6.883297729492188
5.758000000000003,6.7578369140625005,-0.267669677734375,6.015240478515626
5.768000000000001,7.0856201171875,-0.5824432373046875,6.570468139648438
5.777999999999899,7.188351440429688,-0.6596038818359375,7.1454345703125
5.788000000000004,6.653161621093751,-0.6512298583984375,6.991262817382813
5.798000000000002,6.667367553710938,-0.5057312011718751,6.651068115234375
5.808,6.757537841796876,-0.383111572265625,6.480596923828125
5.818000000000005,7.271343994140626,0.07117919921875,7.203005981445313
5.828000000000003,6.9193359375000005,0.584088134765625,7.257736206054688
5.838000000000001,6.6860595703125005,0.9446197509765626,7.16636962890625
5.847999999999999,6.341229248046876,1.1153900146484377,6.917391967773438
5.858000000000004,6.465344238281251,0.771307373046875,6.988720703125001
5.868000000000002,7.372280883789063,0.169873046875,7.195230102539063
5.878,7.22977294921875,-0.7732513427734375,6.270349121093751
5.888000000000005,6.954476928710938,-1.110903930664063,6.5440002441406255
5.898000000000003,6.482540893554688,-0.8895904541015626,6.999337768554688
5.908000000000001,6.732266235351563,-0.5973968505859375,7.605856323242188
5.917999999999999,7.141098022460938,-0.2247528076171875,7.167565917968751
5.929000000000002,6.752603149414063,0.218023681640625,6.184365844726563
5.938000000000002,6.893466186523438,0.9736297607421877,6.627291870117188
5.948,6.796566772460938,1.260888671875,7.145584106445313
5.9580000000000055,6.885690307617188,1.00428466796875,7.624697875976563
5.966999999999999,6.653311157226563,0.408831787109375,6.883895874023438
5.977000000000004,6.477008056640625,-0.21951904296875,6.615328979492188
5.987000000000002,6.955374145507813,-0.6950439453125,6.897952270507813
5.997,7.116873168945313,-1.1503814697265626,7.151116943359376
6.007000000000005,6.9731689453125005,-1.0400238037109375,6.828717041015626
6.017000000000003,6.786697387695313,-0.6537719726562501,6.267807006835938
6.0269999999999015,6.929055786132813,-0.0777587890625,6.681274414062501
6.036999999999999,7.319345092773438,0.3219512939453125,6.749163818359375
6.047000000000004,7.03477783203125,0.6249114990234376,7.048385620117188
6.057000000000002,6.516036987304688,0.7609893798828126,6.636264038085938
6.067,6.35887451171875,0.6954925537109375,7.393814086914063
6.077000000000005,6.492260742187501,0.4275238037109375,7.606753540039063
6.087000000000003,6.836791992187501,-0.0826934814453125,7.38768310546875
6.096999999999902,6.980197143554688,-0.4361968994140625,6.606954956054688
6.106999999999999,6.939971923828126,-0.6279022216796876,6.1432434082031255
6.117000000000004,7.189697265625001,-0.5028900146484375,6.78953857421875
6.127000000000002,7.04434814453125,-0.3404937744140625,6.868493652343751
6.1370000000000005,6.955822753906251,-0.1447509765625,6.98154296875
6.147000000000006,6.6755920410156255,0.0575714111328125,6.540560913085938
6.157000000000004,6.642395019531251,0.303558349609375,6.99051513671875
6.167000000000002,6.776678466796875,0.4580291748046875,7.322933959960938
6.177,6.665124511718751,0.2423980712890625,7.049432373046876
6.187000000000005,6.838436889648438,0.048150634765625,6.713723754882813
6.197000000000003,7.006216430664063,-0.2172760009765625,6.352145385742188
6.206999999999901,7.207043457031251,-0.431561279296875,7.032235717773438
6.216999999999999,7.455572509765625,-0.4677490234375,6.829913330078125
6.227000000000004,6.383248901367188,-0.2289398193359375,7.150668334960938
6.237000000000002,6.225039672851563,0.234173583984375,6.877764892578125
6.247,6.566580200195313,0.414215087890625,7.535275268554688
6.257000000000005,7.332803344726563,0.3294281005859375,7.007263183593751
6.267000000000003,7.133023071289063,0.3793731689453125,6.587963867187501
6.2769999999999015,6.402838134765625,0.563751220703125,6.595291137695313
6.286999999999999,6.883297729492188,0.37623291015625,6.909765625
6.297000000000004,7.084423828125001,-0.2684173583984375,7.467684936523438
6.307000000000002,7.1310791015625,-0.590667724609375,6.706845092773438
6.317,6.326275634765626,-0.5522369384765625,6.789987182617188
6.327000000000005,6.6980224609375005,-0.3865509033203125,6.854437255859375
6.337000000000003,7.269400024414063,-0.3704010009765625,7.209286499023438
6.347000000000001,7.241287231445313,-0.24822998046875,6.689947509765625
6.356999999999999,6.832305908203126,0.2835205078125,6.206497192382813
6.367000000000004,6.431399536132813,0.6122009277343751,6.949093627929688
6.377000000000002,6.896008300781251,0.6817352294921876,7.5040222167968755
6.386999999999901,6.866400146484375,0.4894317626953125,7.681072998046876
6.396000000000001,6.347061157226563,0.4065887451171875,6.791931152343751
6.407000000000004,6.335546875,0.12979736328125,6.673348999023438
6.417000000000002,7.235604858398438,-0.3802703857421875,7.046142578125001
6.427,7.548284912109375,-0.7524658203125001,6.813015747070313
6.437000000000005,7.01085205078125,-0.9184509277343752,6.264965820312501
6.446000000000005,6.734060668945313,-0.693548583984375,6.100476074218751
6.456000000000003,6.974813842773438,-0.4505523681640625,7.029693603515626
6.466000000000001,7.1167236328125005,-0.086431884765625,7.392468261718751
6.4759999999999,6.620861816406251,0.42587890625,7.153210449218751
6.486000000000004,6.224740600585938,0.889141845703125,6.909915161132813
6.496000000000002,6.490316772460938,1.0364349365234375,7.224987792968751
6.507000000000005,7.098480224609376,0.8200561523437501,7.488320922851563
6.517000000000003,7.050479125976563,0.376531982421875,6.855184936523438
6.526000000000003,6.763519287109376,-0.260491943359375,6.108700561523438
6.536000000000001,6.985281372070313,-0.7526153564453125,6.543850708007813
6.5459999999999,7.055712890625,-1.1683258056640626,6.889578247070313
6.5560000000000045,7.110891723632813,-1.2697113037109375,7.067974853515626
6.5660000000000025,6.768753051757813,-1.0714263916015625,6.254946899414063
6.5760000000000005,6.929055786132813,-0.4988525390625,6.585122680664063
6.586000000000006,6.848754882812501,0.3608306884765625,7.307382202148438
6.596000000000004,6.924569702148438,1.21363525390625,7.79801025390625
6.606999999999999,6.424969482421876,1.8484161376953123,7.450338745117188
6.6159999999999,5.986380004882813,1.6722625732421876,6.438577270507813
6.626000000000005,7.183566284179688,0.8865997314453126,6.863708496093751
6.636000000000003,7.724288940429688,-0.361578369140625,6.676190185546876
6.646000000000001,7.131976318359375,-1.2357666015625002,6.739144897460938
6.655999999999906,6.297714233398438,-1.4533416748046877,6.731369018554688
6.666000000000004,6.407473754882813,-1.4346496582031252,7.264614868164063
6.676000000000002,7.258633422851563,-0.963909912109375,7.526153564453126
6.6859999999999005,7.03836669921875,-0.1039276123046875,6.709237670898438
6.696000000000005,6.731518554687501,1.0300048828125,6.303695678710938
6.706999999999901,6.752005004882813,1.6505798339843751,6.522467041015625
6.716000000000001,7.157696533203126,1.589419555664063,7.442413330078126
6.7259999999999,6.879559326171876,1.0705291748046877,7.368243408203125
6.736000000000004,6.262722778320313,0.2690155029296875,6.913204956054688
6.746000000000002,6.442166137695313,-0.6117523193359375,6.8430725097656255
6.755999999999901,7.107452392578126,-1.4199951171875,7.171902465820313
6.766000000000005,7.033731079101563,-1.525567626953125,7.1693603515625
6.776000000000003,6.895709228515625,-1.0639495849609375,6.396258544921875
6.786000000000001,6.906027221679688,-0.40733642578125,6.2867980957031255
6.7959999999999,7.447647094726563,0.123516845703125,6.253900146484376
6.807000000000002,7.42357177734375,0.6184814453125,6.910513305664063
6.8160000000000025,6.640151977539063,0.9625640869140626,6.820343017578126
6.8260000000000005,6.0609985351562505,0.9936676025390626,7.334597778320313
6.836000000000006,6.332855224609376,0.6316406250000001,7.726531982421876
6.846000000000004,6.6471801757812505,0.0871795654296875,7.641595458984375
6.856000000000002,6.930401611328126,-0.276043701171875,7.031039428710938
6.8659999999999,6.773239135742188,-0.52158203125,6.174945068359375
6.875,7.295419311523438,-0.5917144775390626,6.4767089843750005
6.885000000000005,7.34581298828125,-0.5893218994140625,6.5114013671875
6.895000000000003,7.207791137695313,-0.3982147216796875,6.816455078125
6.905999999999906,6.675292968750001,-0.120526123046875,6.596038818359376
6.9149999999999,6.463848876953126,0.078057861328125,6.8954101562500005
6.925000000000004,6.730621337890626,0.314324951171875,7.473068237304688
6.935000000000002,6.6501708984375005,0.2307342529296875,7.181622314453126
6.945,6.768902587890626,0.2337249755859375,6.88284912109375
6.956000000000003,6.984085083007813,0.102581787109375,6.349005126953125
6.965000000000003,7.189697265625001,-0.1052734375,6.859671020507813
6.975000000000001,7.4890686035156255,-0.1256103515625,6.9899169921875
6.9849999999999,6.402688598632813,0.0061309814453125,7.119863891601563
6.9950000000000045,6.066680908203125,0.179742431640625,6.932495117187501
7.007000000000005,6.794323730468751,0.014056396484375,7.257885742187501
7.016000000000005,7.3440185546875005,-0.211444091796875,7.090554809570313
7.025000000000006,7.072460937500001,0.0186920166015625,6.672152709960938
7.035000000000004,6.309677124023438,0.407037353515625,6.6830688476562505
7.045000000000002,6.905728149414063,0.34453125,6.822885131835938
7.055,7.425665283203125,-0.171368408203125,7.084423828125001
7.065000000000005,7.174594116210938,-0.3404937744140625,6.58975830078125
7.075000000000003,6.324481201171875,-0.0982452392578125,6.814361572265626
7.085000000000001,6.3241821289062505,-0.029608154296875,7.227081298828126
7.094999999999899,7.164425659179688,-0.1712188720703125,7.471273803710938
7.106999999999999,7.208837890625,-0.1786956787109375,6.839633178710938
7.115000000000002,6.683666992187501,0.1176849365234375,6.031988525390625
7.125,6.753948974609376,0.33316650390625,6.715069580078126
7.135000000000005,7.071115112304688,0.279632568359375,7.3828979492187505
7.145000000000003,6.796865844726563,0.120526123046875,7.380355834960938
7.155000000000001,6.534429931640625,0.09510498046875,6.833950805664063
7.1649999999999,6.436035156250001,-0.0201873779296875,6.5679260253906255
7.175000000000004,7.072161865234375,-0.2811279296875,7.083377075195313
7.185000000000002,7.397552490234376,-0.37503662109375,7.01982421875
7.195,6.83140869140625,-0.3192596435546875,6.531289672851563
7.206999999999901,6.584075927734376,-0.122021484375,6.367996215820313
7.215000000000003,6.884045410156251,-0.0195892333984375,7.067376708984376
7.225000000000001,7.138107299804688,0.1200775146484375,7.436431884765626
7.2349999999999,6.629385375976563,0.2531646728515625,6.972869873046876
7.245000000000003,6.502578735351563,0.315521240234375,6.626095581054688
7.255000000000003,6.796716308593751,0.3114837646484375,6.950140380859375
7.265000000000001,6.999038696289063,0.109759521484375,7.290185546875
7.275000000000006,7.066329956054688,0.0394775390625,6.980795288085938
7.285000000000004,6.680227661132813,-0.2483795166015625,6.3481079101562505
7.295000000000002,7.0105529785156255,-0.4412811279296875,6.514840698242188
7.305,7.039562988281251,-0.4311126708984375,7.087713623046875
7.315000000000005,6.710134887695313,-0.289202880859375,7.156799316406251
7.325000000000003,6.630880737304688,-0.1936492919921875,6.729574584960938
7.335000000000001,6.887335205078125,-0.2720062255859375,6.424221801757813
7.344999999999899,7.2291748046875,-0.02930908203125,6.9001953125
7.353999999999999,6.836941528320313,0.2932403564453125,7.30693359375
7.365000000000002,6.813763427734376,0.67889404296875,7.367495727539063
7.375,6.449343872070313,0.8124298095703125,7.071862792968751
7.384,6.341378784179688,0.5896209716796875,6.750808715820313
7.394000000000005,7.36375732421875,0.2086029052734375,6.964944458007813
7.4040000000000035,7.250408935546876,-0.5417694091796875,6.563140869140626
7.4140000000000015,7.192089843750001,-0.8551971435546876,6.513195800781251
7.423999999999999,6.344369506835938,-0.6998291015625,7.030889892578125
7.434000000000005,6.60172119140625,-0.413018798828125,7.432843017578126
7.444000000000003,7.039413452148438,-0.1757049560546875,7.422674560546875
7.454000000000001,6.909915161132813,0.1667327880859375,6.477456665039063
7.464000000000006,6.825875854492188,0.8423370361328125,6.442465209960938
7.474000000000004,6.70938720703125,1.042266845703125,6.900643920898438
7.484000000000002,7.126293945312501,0.8092895507812501,7.379458618164063
7.494,6.820343017578126,0.2983245849609375,7.13646240234375
7.504000000000005,6.361416625976563,-0.2196685791015625,6.657348632812501
7.514000000000003,6.781314086914063,-0.6208740234375001,6.904382324218751
7.524000000000001,7.128536987304688,-0.9980041503906252,7.146182250976563
7.533999999999999,7.027600097656251,-0.9677978515625,6.812118530273438
7.544000000000004,6.953579711914063,-0.5954528808593751,6.368594360351563
7.554000000000002,6.830661010742188,-0.030804443359375,6.519924926757813
7.564,7.139303588867188,0.3635223388671875,6.834548950195313
7.574000000000005,7.034927368164063,0.6658843994140625,7.247866821289063
7.584000000000003,6.496746826171876,0.7662231445312501,6.826025390625
7.594000000000001,6.289639282226563,0.6727630615234376,7.269998168945313
7.603999999999999,6.563888549804688,0.385205078125,7.378411865234375
7.614000000000004,6.911709594726563,-0.1160400390625,7.350149536132813
7.624000000000002,7.079489135742188,-0.524273681640625,6.584973144531251
7.634,7.023263549804688,-0.74468994140625,6.143392944335938
7.644000000000005,7.185659790039063,-0.6509307861328125,6.638656616210938
7.6540000000000035,6.937878417968751,-0.4655059814453125,6.82303466796875
7.6640000000000015,6.951187133789063,-0.1197784423828125,7.213473510742188
7.673999999999999,6.589459228515626,0.1182830810546875,6.582879638671876
7.684000000000005,6.680975341796875,0.3946258544921875,6.9821411132812505
7.694000000000003,6.628189086914063,0.6012847900390625,7.322335815429688
7.704000000000001,6.588412475585938,0.4438232421875,7.204800415039063
7.714000000000006,7.002926635742188,0.236865234375,6.958963012695313
7.724000000000004,7.020272827148438,-0.19140625,6.216366577148438
7.734000000000002,7.637707519531251,-0.4332061767578125,6.667367553710938
7.744,6.851296997070313,-0.466552734375,6.796716308593751
7.754000000000005,6.2509094238281255,-0.2080047607421875,7.2498107910156255
7.764000000000003,6.410614013671876,-0.0521881103515625,7.357327270507813
7.774000000000001,6.813015747070313,-0.1143951416015625,7.095489501953126
7.783999999999999,7.338336181640625,0.1446014404296875,6.922177124023438
7.794000000000004,6.695779418945313,0.5628540039062501,6.635366821289063
7.803999999999903,6.683666992187501,0.7998687744140626,6.802847290039063
7.814,7.29796142578125,0.32479248046875,6.863409423828125
7.824000000000005,7.224240112304688,-0.2896514892578125,6.669760131835938
7.834000000000003,6.7147705078125,-0.4115234375,6.736154174804688
7.844000000000001,6.281414794921876,-0.37802734375,7.311569213867188
7.853999999999999,6.653161621093751,-0.458477783203125,7.497143554687501
7.862999999999999,7.136312866210938,-0.38699951171875,7.134368896484376
7.874000000000002,7.0808349609375005,-0.0477020263671875,6.163580322265625
7.884,6.884643554687501,0.343634033203125,6.271545410156251
7.892999999999901,7.120761108398438,0.4972076416015625,6.813015747070313
7.902999999999999,7.095339965820313,0.372344970703125,7.323980712890625
7.913000000000004,6.501980590820313,0.1996307373046875,7.092947387695313
7.923000000000002,6.209487915039063,0.0729736328125,7.052124023437501
7.933,6.671853637695313,-0.162396240234375,7.256988525390626
7.943000000000005,7.133172607421876,-0.3605316162109375,7.193435668945313
7.953000000000003,7.091900634765626,-0.36187744140625,6.534130859375001
7.962999999999901,6.900494384765626,-0.2106964111328125,6.2030578613281255
7.972999999999999,6.909466552734376,-0.01136474609375,6.656451416015625
7.983000000000004,7.092349243164063,0.067889404296875,7.232015991210938
7.993000000000002,6.928756713867188,0.114544677734375,7.109695434570313
8.003,6.531140136718751,0.0767120361328125,6.677386474609375
8.013000000000005,6.648077392578125,0.1519287109375,6.976608276367188
8.023000000000003,6.704302978515625,0.133984375,7.354037475585938
8.033000000000001,7.049133300781251,0.127703857421875,7.304541015625
8.043,6.725985717773438,0.03768310546875,6.535028076171876
8.053000000000004,6.991412353515625,-0.161798095703125,6.285452270507813
8.063000000000002,7.142742919921876,-0.1903594970703125,6.775930786132813
8.072999999999901,6.919036865234376,-0.2883056640625,6.958663940429688
8.083000000000006,6.691143798828126,-0.3261383056640625,6.980496215820313
8.093000000000004,6.763668823242188,-0.5402740478515625,6.419137573242188
8.103000000000002,7.006515502929688,-0.3937286376953125,7.002627563476563
8.113,6.814212036132813,-0.0829925537109375,7.174145507812501
8.123000000000005,6.993954467773438,0.417205810546875,7.449591064453125
8.133000000000003,6.678134155273438,0.9215911865234376,7.047189331054688
8.142999999999901,6.138906860351563,0.9138153076171877,6.543551635742188
8.152999999999999,7.30394287109375,0.6631927490234375,7.048535156250001
8.163000000000004,7.181472778320313,-0.03529052734375,6.801800537109376
8.173000000000002,7.095339965820313,-0.506927490234375,6.780715942382813
8.183,6.360519409179688,-0.6691741943359375,6.872381591796875
8.193000000000005,6.608898925781251,-0.7119415283203125,7.201361083984375
8.203000000000003,7.173397827148438,-0.6017333984375001,7.384094238281251
8.212999999999901,6.977655029296876,-0.287109375,6.543701171875001
8.222999999999999,6.835296630859376,0.4131683349609375,6.402987670898438
8.233000000000004,6.6406005859375,0.8336639404296876,6.746322631835938
8.243000000000002,7.064086914062501,0.9174041748046876,7.484283447265626
8.2529999999999,6.854586791992188,0.674407958984375,7.280764770507813
8.263000000000005,6.366799926757813,0.2941375732421875,6.7506591796875
8.273000000000003,6.733163452148438,-0.1317413330078125,6.7602294921875
8.283000000000001,7.059600830078126,-0.6883148193359375,7.106106567382813
8.293,6.987075805664063,-0.8794219970703125,7.111788940429688
8.303000000000004,6.806137084960938,-0.76383056640625,6.540859985351563
8.313000000000002,6.876568603515626,-0.3991119384765625,6.512747192382813
8.322999999999901,7.06827392578125,-0.1745086669921875,6.518878173828125
8.333000000000006,7.35,0.210247802734375,7.084124755859375
8.341999999999906,6.731668090820313,0.578704833984375,6.817352294921876
8.353000000000002,6.259881591796876,0.6524261474609375,7.04434814453125
8.363,6.586917114257813,0.594854736328125,7.369140625000001
8.3719999999999,6.757986450195313,0.235968017578125,7.453329467773438
8.383000000000003,6.939224243164063,-0.0453094482421875,7.002178955078126
8.392000000000003,6.833651733398438,-0.382513427734375,6.247021484375001
8.402000000000001,7.239193725585938,-0.54371337890625,6.573458862304688
8.4119999999999,7.035824584960938,-0.5576202392578126,6.69443359375
8.422000000000004,6.967636108398438,-0.3712982177734375,7.125845336914063
8.432000000000002,6.667068481445313,-0.1003387451171875,6.820941162109375
8.4419999999999,6.683666992187501,0.0022430419921875,6.744528198242188
8.452000000000005,6.84337158203125,0.3339141845703125,7.119863891601563
8.462000000000003,6.797015380859375,0.3744384765625,6.963449096679688
8.472000000000001,6.672302246093751,0.29967041015625,6.973468017578125
8.4819999999999,6.989767456054688,0.0168975830078125,6.417941284179688
8.492000000000004,7.07425537109375,-0.3019134521484375,6.941467285156251
8.502000000000002,7.356130981445313,-0.37025146484375,6.874176025390626
8.512,6.83739013671875,-0.22908935546875,7.243829345703125
8.522000000000006,6.138009643554688,0.106768798828125,6.906625366210938
8.532000000000004,6.522766113281251,0.2044158935546875,6.94864501953125
8.542000000000002,7.096984863281251,0.2250518798828125,7.36734619140625
8.5519999999999,7.409664916992188,0.177947998046875,6.533682250976563
8.562000000000005,6.54429931640625,0.406439208984375,7.012796020507813
8.572000000000003,6.604861450195313,0.46236572265625,6.485382080078126
8.582,7.014889526367188,0.02691650390625,7.413702392578125
8.591999999999906,7.317999267578125,-0.456683349609375,6.748117065429688
8.602000000000004,6.744827270507813,-0.509918212890625,6.619366455078126
8.612000000000002,6.422427368164063,-0.3186614990234375,6.955374145507813
8.6219999999999,6.837240600585938,-0.26019287109375,7.065432739257813
8.632000000000005,7.276129150390625,-0.1571624755859375,7.422225952148438
8.642000000000003,6.855633544921876,0.1218719482421875,6.197225952148438
8.652000000000001,6.637759399414063,0.466851806640625,6.701162719726563
8.6619999999999,6.872531127929688,0.5839385986328125,6.972421264648438
8.672000000000004,6.887036132812501,0.4074859619140625,7.584024047851563
8.682000000000002,6.713125610351563,0.2223602294921875,7.136312866210938
8.6919999999999,6.41629638671875,0.0112152099609375,6.576748657226563
8.702000000000005,6.759182739257813,-0.3218017578125,6.893765258789063
8.712000000000003,7.322784423828126,-0.6069671630859376,6.885092163085938
8.722000000000001,7.343569946289063,-0.6569122314453125,6.847857666015625
8.7319999999999,6.608599853515625,-0.4535430908203125,6.196926879882813
8.742000000000004,6.7234436035156255,-0.1398162841796875,6.754098510742188
8.752000000000002,6.979299926757813,0.1646392822265625,7.405926513671876
8.762,6.85533447265625,0.374737548828125,7.251754760742188
8.772000000000006,6.622955322265626,0.5476013183593751,6.791482543945313
8.782000000000004,6.581982421875001,0.5396759033203126,6.666021728515625
8.792000000000002,6.842324829101563,0.3602325439453125,7.241436767578126
8.8019999999999,7.0942932128906255,0.0861328125,7.252502441406251
8.812000000000005,6.821987915039063,-0.2920440673828125,6.677087402343751
8.822000000000003,6.876119995117188,-0.6163879394531251,6.268554687500001
8.831000000000003,6.934887695312501,-0.718670654296875,6.676190185546876
8.841000000000001,7.040609741210938,-0.5722747802734376,7.123901367187501
8.8509999999999,6.8463623046875,-0.434552001953125,6.828118896484376
8.861000000000004,6.857427978515625,-0.30804443359375,6.384594726562501
8.8719999999999,6.805538940429688,0.089422607421875,6.786996459960938
8.881,6.797015380859375,0.5495452880859375,7.555911254882813
8.891000000000005,6.87686767578125,1.0204345703125002,7.708587646484376
8.901000000000003,6.400595092773438,1.1197265625,7.048684692382813
8.911000000000001,6.4850830078125,0.724951171875,6.366949462890625
8.9209999999999,7.436581420898438,0.1200775146484375,6.746621704101563
8.931000000000004,7.348953247070313,-0.6311920166015625,6.752005004882813
8.941000000000003,6.927859497070313,-1.045108032226563,6.733612060546876
8.951,6.287994384765626,-1.0338928222656252,6.967935180664063
8.961000000000006,6.750210571289063,-0.7239044189453125,7.326672363281251
8.971000000000004,7.006665039062501,-0.2277435302734375,7.440917968750001
8.981000000000002,6.94505615234375,0.3911865234375,6.501232910156251
8.991,6.868344116210938,1.0415191650390625,6.35648193359375
9.001000000000005,6.779818725585938,1.2368133544921875,6.75364990234375
9.011000000000005,7.067526245117188,1.0395751953125,7.510751342773438
9.021,6.68486328125,0.437542724609375,7.318746948242188
9.0309999999999,6.365603637695313,-0.26378173828125,6.751406860351563
9.041000000000004,6.8176513671875005,-0.8746368408203126,6.815707397460938
9.051000000000002,7.057806396484375,-1.22320556640625,7.089508056640626
9.061,6.992309570312501,-1.08204345703125,6.9268127441406255
9.071000000000003,7.010702514648438,-0.6195281982421875,6.401492309570313
9.081000000000005,6.97496337890625,-0.0390289306640625,6.261825561523438
9.091,7.204949951171876,0.375634765625,6.592449951171876
9.1009999999999,7.031188964843751,0.8077941894531251,7.295269775390626
9.111000000000004,6.43424072265625,0.95404052734375,7.201062011718751
9.121000000000002,6.131130981445313,0.795233154296875,7.390075683593751
9.131,6.5245605468750005,0.3742889404296875,7.3245788574218755
9.141000000000004,6.917391967773438,-0.1256103515625,7.294372558593751
9.151000000000003,7.08262939453125,-0.4783660888671875,6.67349853515625
9.161,7.023712158203126,-0.7367645263671876,6.114382934570313
9.171,7.2830078125,-0.7349700927734375,6.423474121093751
9.181000000000004,7.096536254882813,-0.6642395019531251,6.595590209960938
9.191000000000004,7.043450927734376,-0.2691650390625,7.088909912109376
9.201,6.511849975585938,0.1045257568359375,6.889578247070313
9.211000000000006,6.481942749023438,0.4021026611328125,7.145584106445313
9.221000000000004,6.530691528320313,0.7044647216796875,7.3440185546875005
9.231000000000002,6.727780151367188,0.5945556640625,7.1122375488281255
9.241,6.837539672851563,0.3040069580078125,6.7234436035156255
9.251000000000005,7.343121337890626,-0.17884521484375,6.157748413085938
9.261000000000005,7.225585937500001,-0.5514892578125,6.797164916992188
9.271,7.406076049804688,-0.6673797607421875,6.847857666015625
9.28,6.337341308593751,-0.4071868896484375,7.453927612304688
9.291000000000004,5.942864990234376,-0.0405242919921875,6.937728881835938
9.300000000000004,6.7533508300781255,0.1380218505859375,7.457815551757813
9.311,7.332055664062499,0.2477813720703125,6.894662475585938
9.321000000000003,7.24412841796875,0.56524658203125,6.658694458007813
9.330000000000004,6.404183959960938,0.9168060302734377,6.64658203125
9.340000000000003,6.824380493164063,0.6446502685546875,6.683666992187501
9.35,7.284054565429688,-0.1146942138671875,7.329812622070313
9.36,7.082479858398438,-0.650482177734375,6.614581298828125
9.370000000000005,6.350201416015626,-0.5935089111328126,7.060049438476563
9.380000000000004,6.305938720703126,-0.5223297119140625,7.104013061523438
9.39,7.153509521484375,-0.5120117187500001,7.267605590820313
9.400000000000006,7.4803955078125,-0.2775390625,6.73570556640625
9.410000000000004,6.919635009765625,0.2095001220703125,5.780618286132813
9.420000000000002,6.703555297851563,0.6301452636718751,6.787445068359376
9.43,6.9037841796875,0.7092498779296875,7.340878295898438
9.440000000000005,6.74527587890625,0.5226287841796875,7.804888916015625
9.450000000000005,6.323733520507813,0.3378021240234375,6.960009765625
9.46,6.376669311523438,0.0348419189453125,6.64658203125
9.47,7.069619750976563,-0.353802490234375,7.067974853515626
9.480000000000004,7.458114624023438,-0.6450988769531251,6.85294189453125
9.489999999999904,7.054815673828125,-0.6252105712890625,6.514990234375
9.5,6.69742431640625,-0.499749755859375,6.037371826171875
9.510000000000003,7.017581176757813,-0.310736083984375,6.993954467773438
9.520000000000003,7.032684326171876,0.021533203125,7.382150268554688
9.53,6.607403564453126,0.3369049072265625,7.193435668945313
9.54,6.425567626953126,0.6002380371093751,6.808380126953126
9.550000000000004,6.64658203125,0.6153411865234375,6.9133544921875005
9.560000000000002,7.063488769531251,0.4804595947265625,7.3727294921875
9.57,6.971374511718751,0.26019287109375,6.941467285156251
9.580000000000004,6.768603515625,-0.1694244384765625,6.45816650390625
9.590000000000003,6.905130004882813,-0.5899200439453125,6.422427368164063
9.6,7.022067260742188,-0.8279815673828126,6.8355957031250005
9.61,7.017431640625,-0.7792327880859375,7.067825317382813
9.620000000000005,6.798660278320313,-0.7714569091796876,6.405679321289063
9.630000000000004,6.958813476562501,-0.5043853759765625,6.659442138671875
9.64,6.838885498046875,0.0967498779296875,7.012796020507813
9.650000000000006,6.8702880859375,0.80091552734375,7.766906738281251
9.660000000000004,6.805239868164063,1.33804931640625,7.358074951171876
9.669999999999902,6.0968872070312505,1.3165161132812502,6.6609375
9.68,6.791781616210938,0.8982635498046876,6.711181640625001
9.690000000000005,7.380804443359375,0.0629547119140625,6.957318115234376
9.700000000000005,7.300503540039063,-0.8107849121093751,6.844866943359375
9.71,6.561645507812501,-1.2098968505859375,6.549234008789063
9.72,6.436932373046876,-1.1452972412109377,6.999337768554688
9.730000000000004,6.981393432617188,-0.8320190429687501,7.418038940429688
9.740000000000002,7.197323608398438,-0.3566436767578125,7.123751831054688
9.75,6.881951904296876,0.5535827636718751,6.371286010742188
9.760000000000003,6.543551635742188,1.238458251953125,6.459512329101563
9.770000000000003,6.921728515625,1.4376403808593752,7.226931762695313
9.78,7.133023071289063,1.0382293701171876,7.458712768554688
9.79,6.561196899414063,0.4137664794921875,7.022665405273438
9.800000000000004,6.321340942382813,-0.24822998046875,6.596487426757813
9.810000000000002,6.926513671875001,-0.9334045410156252,7.078143310546875
9.82,7.0180297851562505,-1.2475799560546876,7.380505371093751
9.8289999999999,6.933840942382813,-1.0966979980468752,6.743630981445313
9.839000000000006,6.940270996093751,-0.554180908203125,6.338388061523438
9.849000000000004,7.063937377929688,-0.0514404296875,6.1611877441406255
9.859000000000002,7.359719848632813,0.39716796875,6.904232788085938
9.869,7.01683349609375,0.792242431640625,7.040310668945313
9.879000000000003,6.29307861328125,0.8480194091796875,6.983187866210938
9.889000000000005,6.258834838867188,0.6332855224609375,7.340878295898438
9.8989999999999,6.669161987304688,0.2241546630859375,7.488470458984375
9.909,6.862213134765626,-0.1446014404296875,7.415945434570313
9.919000000000004,6.843670654296876,-0.4725341796875,6.377716064453126
9.929000000000002,7.103564453125,-0.6365753173828126,6.306835937500001
9.9389999999999,7.3111206054687505,-0.64599609375,6.433493041992188
9.949000000000003,7.119415283203126,-0.4510009765625,6.937878417968751
9.959000000000003,6.830361938476563,-0.06878662109375,6.940719604492188
9.969,6.516036987304688,0.081048583984375,6.710882568359375
9.979,6.710284423828125,0.3028106689453125,7.160537719726563
9.989000000000004,6.774285888671876,0.432757568359375,7.169061279296876
9.999000000000002,6.727481079101563,0.3769805908203125,7.232015991210938
10.0089999999999,6.78714599609375,0.1631439208984375,6.529644775390626
10.019000000000004,7.084722900390625,-0.1514801025390625,6.546691894531251
10.029000000000003,7.184762573242188,-0.449505615234375,6.742584228515626
10.039,7.232614135742188,-0.5754150390625,6.977505493164063
10.049,6.507513427734375,-0.2476318359375,7.245623779296875
10.059000000000005,6.208889770507813,0.033197021484375,6.96898193359375
10.069000000000004,6.78355712890625,0.2815765380859375,7.495947265625
10.0789999999999,7.204800415039063,0.352606201171875,6.71177978515625
10.089000000000006,7.1002746582031255,0.4988525390625,6.706396484375
10.099000000000004,6.64957275390625,0.6488372802734376,6.468933105468751
10.109000000000002,6.779220581054688,0.362774658203125,7.005767822265626
10.1189999999999,7.017431640625,-0.09869384765625,7.470376586914063
10.129000000000003,6.771444702148438,-0.5043853759765625,6.860119628906251
10.139000000000005,6.55028076171875,-0.545806884765625,6.9866271972656255
10.1489999999999,6.798959350585938,-0.5381805419921876,6.632675170898438
10.159,7.238595581054688,-0.4326080322265625,7.123751831054688
10.169000000000004,7.143640136718751,-0.148638916015625,6.597085571289063
10.179000000000002,6.78116455078125,0.25540771484375,6.488372802734376
10.1889999999999,6.714321899414063,0.508123779296875,6.832305908203126
10.199000000000003,6.93070068359375,0.53773193359375,7.251605224609375
10.209000000000003,6.653460693359375,0.5184417724609376,7.554864501953125
10.219,6.4004455566406255,0.441131591796875,6.9659912109375
10.229,6.4542785644531255,0.1885650634765625,7.015487670898438
10.239000000000004,7.105358886718751,-0.32120361328125,6.760379028320313
10.249000000000002,7.488021850585938,-0.6645385742187501,6.785650634765625
10.2589999999999,6.933392333984376,-0.7227081298828125,6.304592895507813
10.269000000000004,6.824978637695313,-0.5999389648437501,6.432147216796875
10.279000000000003,7.036422729492188,-0.43544921875,7.037319946289063
10.289,7.072909545898438,-0.23447265625,7.003823852539063
10.299,6.698171997070313,0.200079345703125,7.10057373046875
10.309000000000005,6.3295654296875,0.6581085205078125,6.885540771484376
10.318000000000003,6.551028442382813,0.9002075195312501,7.509555053710938
10.328000000000005,6.914251708984375,0.7143341064453126,7.233511352539063
10.338,7.038067626953126,0.3545501708984375,6.758883666992188
10.3479999999999,6.899746704101563,-0.05263671875,6.303097534179688
10.358000000000004,6.7865478515625,-0.5296569824218751,6.540261840820313
10.368000000000002,7.095040893554688,-0.7983734130859376,7.203604125976563
10.3779999999999,6.851296997070313,-1.1488861083984376,6.709536743164063
10.388000000000003,6.9447570800781255,-1.0573699951171875,6.514541625976563
10.399,6.9028869628906255,-0.554779052734375,6.590206909179688
10.409,6.7638183593750005,0.165985107421875,7.337738037109376
10.4179999999999,7.123452758789063,1.01923828125,7.619464111328125
10.428000000000004,6.524859619140625,1.5275115966796875,7.137060546875
10.438000000000002,6.041409301757813,1.5967468261718751,6.6202636718750005
10.448,7.084423828125001,0.9069366455078126,6.826922607421875
10.458000000000006,7.4800964355468755,-0.168975830078125,7.13406982421875
10.468000000000004,7.223043823242188,-1.0943054199218751,6.474166870117188
10.478000000000002,6.262274169921875,-1.3694519042968751,6.830661010742188
10.4879999999999,6.610394287109376,-1.2622344970703123,7.052572631835938
10.499000000000002,7.159790039062501,-1.018191528320313,7.542602539062501
10.508000000000004,7.166818237304688,-0.240155029296875,6.704901123046875
10.518,6.736453247070313,0.802410888671875,6.155056762695313
10.5279999999999,6.577346801757813,1.5403717041015623,6.888082885742188
10.538000000000004,7.133322143554688,1.5891204833984376,7.351046752929688
10.548000000000002,6.859072875976563,1.1153900146484377,7.629034423828125
10.5579999999999,6.360369873046875,0.3940277099609375,6.523065185546876
10.568000000000003,6.46055908203125,-0.4797119140625,6.844418334960938
10.578000000000005,7.193435668945313,-1.296478271484375,7.095938110351563
10.588,7.074703979492188,-1.5752136230468752,7.194931030273438
10.599000000000004,6.848156738281251,-1.202569580078125,6.543402099609375
10.608000000000004,6.834698486328126,-0.499151611328125,6.157000732421875
10.618000000000002,7.207342529296875,0.0560760498046875,6.526504516601563
10.628,7.453628540039063,0.6416595458984375,6.954476928710938
10.638000000000003,6.750808715820313,1.0772583007812502,6.968533325195313
10.648000000000003,6.079391479492188,1.1449981689453126,7.057208251953125
10.658,6.358724975585938,0.80390625,7.560397338867188
10.6679999999999,6.687255859375001,0.1969390869140625,7.690493774414063
10.678000000000004,6.895260620117188,-0.3446807861328125,7.0628906250000005
10.688000000000002,6.848156738281251,-0.747381591796875,6.227432250976563
10.699000000000003,7.215567016601563,-0.8590850830078126,6.306536865234375
10.708000000000006,7.270596313476563,-0.8417388916015626,6.639553833007813
10.718000000000004,7.254147338867188,-0.413616943359375,6.989767456054688
10.728000000000002,6.515289306640626,0.0055328369140625,6.620114135742188
10.7379999999999,6.6950317382812505,0.2875579833984375,6.840081787109376
10.748000000000005,6.686657714843751,0.5259185791015626,7.180126953125001
10.758000000000004,6.765014648437501,0.5758636474609375,7.365103149414063
10.768,6.459213256835938,0.5040863037109375,7.04674072265625
10.7779999999999,6.667218017578126,0.0659454345703125,6.535626220703126
10.7869999999999,7.478900146484375,-0.27275390625,6.851446533203125
10.7989999999999,7.379757690429688,-0.5636016845703126,6.579440307617188
10.8079999999999,6.992459106445313,-0.4744781494140625,6.977804565429688
10.817,6.261227416992188,-0.232977294921875,6.77518310546875
10.827000000000004,6.617272949218751,-0.0299072265625,7.242034912109376
10.837000000000003,6.931597900390625,0.153125,7.421029663085938
10.847,7.188351440429688,0.2382110595703125,6.638806152343751
10.857,6.5739074707031255,0.69085693359375,6.91275634765625
10.867000000000004,6.503326416015626,0.771307373046875,6.572561645507813
10.877000000000002,7.242633056640625,0.390289306640625,7.45347900390625
10.887,7.269699096679688,-0.256005859375,6.580636596679688
10.899,6.642395019531251,-0.462066650390625,6.719107055664063
10.907000000000004,6.359622192382813,-0.3970184326171875,7.053170776367188
10.917000000000002,6.713125610351563,-0.5522369384765625,7.322335815429688
10.927,7.51090087890625,-0.575714111328125,7.158892822265625
10.937000000000005,7.01683349609375,-0.3826629638671875,5.939126586914063
10.947000000000005,6.864306640625,0.1365264892578125,6.31102294921875
10.957,6.744976806640626,0.5655456542968751,7.197622680664063
10.9669999999999,6.814511108398438,0.6497344970703125,7.715615844726563
10.977000000000004,6.634619140625,0.6196777343750001,7.291232299804688
10.987000000000002,6.361715698242188,0.4789642333984375,6.533233642578126
10.999000000000002,6.555813598632813,0.25062255859375,7.034628295898438
11.007000000000003,7.283456420898438,-0.1864715576171875,7.245474243164063
11.017000000000005,7.112985229492188,-0.551788330078125,6.940270996093751
11.027,6.803594970703125,-0.7452880859375001,6.060549926757813
11.0369999999999,6.904232788085938,-0.7364654541015625,6.3361450195312505
11.047000000000004,7.233062744140626,-0.5381805419921876,7.135266113281251
11.057000000000002,7.083676147460938,-0.2133880615234375,7.112387084960938
11.067,6.5090087890625,0.2332763671875,6.815557861328125
11.077000000000004,6.441717529296875,0.5929107666015625,6.701910400390625
11.087000000000003,6.8080810546875,0.7898498535156251,7.503573608398438
11.0979999999999,6.910064697265626,0.7711578369140626,7.3822998046875
11.107,6.7841552734375,0.5223297119140625,6.9396728515625
11.117000000000004,6.596038818359376,-0.0109161376953125,6.249114990234376
11.127000000000002,7.117022705078125,-0.4678985595703125,6.745126342773438
11.137,7.138555908203125,-0.7657745361328125,7.041357421875
11.147000000000006,6.7712951660156255,-1.0075744628906251,6.676788330078126
11.157000000000004,6.916345214843751,-1.0077239990234377,6.293228149414063
11.167000000000002,7.001431274414063,-0.7123901367187501,6.6337219238281255
11.177,6.9582153320312505,-0.0219818115234375,7.340130615234376
11.187000000000005,6.966439819335938,0.7693634033203126,7.472918701171875
11.199000000000003,6.547439575195313,1.3654144287109375,7.183416748046875
11.207,6.049185180664063,1.5224273681640623,6.769351196289063
11.2169999999999,6.902288818359375,1.0962493896484375,7.067825317382813
11.227000000000004,7.435684204101563,0.188714599609375,7.067227172851563
11.237000000000002,7.249511718750001,-0.8557952880859375,6.357379150390625
11.247,6.555514526367188,-1.2496734619140626,6.65555419921875
11.257000000000003,6.590057373046876,-1.182830810546875,7.111788940429688
11.267000000000005,6.9342895507812505,-0.9921722412109376,7.566079711914063
11.277,7.159939575195313,-0.47373046875,6.849203491210938
11.286,6.728378295898438,0.4056915283203125,6.225338745117188
11.296,6.630880737304688,1.2867584228515625,6.8056884765625005
11.307000000000002,7.026553344726563,1.5185394287109375,7.323382568359375
11.316000000000004,7.021170043945313,1.1328857421875,7.428656005859375
11.326,6.569869995117188,0.4954132080078125,6.550729370117188
11.336000000000006,6.458016967773438,-0.2229583740234375,6.800305175781251
11.346000000000004,6.9659912109375,-0.9015533447265626,7.208987426757813
11.355999999999902,6.965542602539063,-1.305300903320313,7.404281616210938
11.366,6.838436889648438,-1.15142822265625,6.7219482421875005
11.376000000000005,6.845913696289063,-0.6159393310546876,6.217114257812501
11.386000000000005,7.117770385742188,-0.0539825439453125,6.471475219726563
11.396,7.500881958007813,0.4251312255859375,6.770996093750001
11.406,7.060797119140625,0.7400543212890626,6.8176513671875005
11.416000000000004,6.229824829101563,0.840093994140625,6.78355712890625
11.426000000000002,6.314163208007813,0.674407958984375,7.547836303710938
11.436,6.623553466796875,0.2848663330078125,7.889077758789063
11.446000000000003,6.789389038085938,-0.17764892578125,7.234408569335938
11.456000000000005,6.887036132812501,-0.472833251953125,6.336294555664063
11.466,7.0748535156250005,-0.6208740234375001,6.139804077148438
11.476,7.3843933105468755,-0.5360870361328125,6.767556762695313
11.486000000000004,7.077993774414063,-0.2863616943359375,7.025955200195313
11.496000000000002,6.674545288085938,-0.0883758544921875,6.690994262695313
11.506,6.719854736328125,0.08433837890625,6.700863647460938
11.516000000000004,6.738397216796876,0.164788818359375,6.94505615234375
11.526000000000003,6.823483276367188,0.3170166015625,7.455572509765625
11.535999999999902,6.542056274414063,0.2495758056640625,7.017282104492188
11.546,6.691592407226563,0.0850860595703125,6.751705932617188
11.556000000000004,7.146780395507813,-0.1327880859375,6.506167602539063
11.566000000000004,7.2856994628906255,-0.3440826416015625,6.84097900390625
11.576,7.267755126953125,-0.293389892578125,6.851147460937501
11.586000000000006,6.425866699218751,-0.1544708251953125,6.942962646484376
11.596000000000004,6.323733520507813,0.1673309326171875,7.271942138671876
11.605999999999902,6.721798706054688,0.18841552734375,7.294223022460938
11.616,7.145135498046876,0.1963409423828125,7.079339599609376
11.626000000000005,7.042404174804688,0.276641845703125,6.372781372070313
11.636000000000005,6.743032836914063,0.416607666015625,6.724041748046876
11.646,6.9157470703125,0.323297119140625,6.9576171875
11.656,7.005618286132813,-0.0587677001953125,7.256988525390626
11.666000000000004,6.869390869140625,-0.302960205078125,6.7892395019531255
11.676000000000002,6.540411376953125,-0.4056915283203125,6.701611328125001
11.685000000000002,6.772341918945313,-0.3234466552734375,7.115826416015626
11.696000000000003,7.120611572265625,-0.27335205078125,7.1361633300781255
11.705000000000004,6.92412109375,-0.1006378173828125,6.881503295898438
11.715000000000003,6.908270263671875,0.137274169921875,6.221600341796876
11.725,6.901989746093751,0.302362060546875,6.81107177734375
11.736000000000004,6.89720458984375,0.4035980224609375,7.139453125
11.745000000000005,6.609197998046875,0.3375030517578125,7.409963989257813
11.756,6.58377685546875,0.2486785888671875,7.041207885742188
11.766000000000004,6.473419189453126,0.049945068359375,6.815707397460938
11.775000000000006,7.037918090820313,-0.2196685791015625,6.9701782226562505
11.785000000000004,7.214968872070313,-0.362176513671875,6.854437255859375
11.795000000000002,6.932196044921875,-0.4936187744140625,6.453979492187501
11.806000000000004,6.940270996093751,-0.4152618408203125,6.465493774414063
11.815000000000005,6.991860961914063,-0.3503631591796875,6.7363037109375
11.825000000000005,6.98154296875,-0.13817138671875,7.196127319335938
11.8349999999999,6.675741577148438,0.1634429931640625,7.096087646484375
11.845,6.412109375000001,0.4514495849609375,7.134518432617188
11.855000000000004,6.613534545898438,0.602032470703125,7.062142944335938
11.865000000000002,6.995150756835938,0.4819549560546875,7.1421447753906255
11.8749999999999,7.108200073242188,0.26856689453125,6.746322631835938
11.885000000000003,6.810623168945313,-0.0548797607421875,6.458914184570313
11.895000000000003,6.832305908203126,-0.2615386962890625,6.887036132812501
11.905,6.883148193359376,-0.5911163330078125,6.954327392578126
11.915,6.85294189453125,-0.6839782714843751,7.032684326171876
11.925000000000004,6.799856567382813,-0.6302947998046875,6.471624755859375
11.935000000000002,6.880456542968751,-0.4951141357421875,6.617272949218751
11.9449999999999,7.083975219726563,-0.10946044921875,6.810623168945313
11.955000000000004,7.00546875,0.3165679931640625,7.248165893554688
11.965000000000003,6.789389038085938,0.7496246337890625,7.130929565429688
11.975,6.667816162109376,0.9936676025390626,7.104910278320313
11.985,6.139056396484375,1.0703796386718751,7.230072021484376
11.995000000000005,6.93907470703125,0.4792633056640625,6.873129272460938
12.005000000000004,7.428506469726563,-0.353802490234375,6.901092529296876
12.0149999999999,7.218856811523438,-1.026715087890625,6.119168090820313
12.025000000000006,6.579739379882813,-0.9248809814453126,6.949093627929688
12.035000000000004,6.468484497070313,-0.6533233642578126,7.268801879882813
12.045000000000002,7.170855712890625,-0.5339935302734375,7.3021484375
12.0549999999999,7.042553710937501,-0.13218994140625,6.743780517578125
12.065000000000005,6.677236938476563,0.7011749267578126,6.2509094238281255
12.075000000000005,6.567327880859375,1.3120300292968752,7.282708740234375
12.085,7.002926635742188,1.0702301025390626,7.14005126953125
12.095,7.092050170898438,0.5163482666015625,7.2889892578125
12.105000000000004,6.625048828125,0.0183929443359375,6.420932006835938
12.115000000000002,6.333004760742188,-0.4101776123046875,6.914401245117188
12.1249999999999,7.135415649414063,-0.9031982421875,7.335494995117188
12.135000000000003,7.179528808593751,-1.1424560546875,7.011300659179688
12.145000000000003,6.713125610351563,-0.8474212646484376,6.470278930664063
12.155,6.793875122070313,-0.1867706298828125,6.25120849609375
12.165,7.188800048828125,0.28172607421875,7.019226074218751
12.175000000000004,7.227081298828126,0.4933197021484375,6.860119628906251
12.185000000000002,6.898251342773438,0.6599029541015625,6.799407958984376
12.194000000000004,6.244778442382813,0.707305908203125,6.848156738281251
12.205000000000004,6.370986938476563,0.4725341796875,7.5737060546875
12.215000000000003,6.853091430664063,0.048150634765625,7.770794677734376
12.224000000000004,6.869839477539063,-0.3823638916015625,6.760079956054688
12.2349999999999,6.89720458984375,-0.5849853515625001,6.193338012695313
12.245000000000005,7.084573364257813,-0.5339935302734375,6.428707885742188
12.254000000000003,7.219454956054688,-0.3829620361328125,7.073358154296876
12.2649999999999,6.980047607421875,-0.134283447265625,6.990664672851563
12.274,6.621459960937501,0.0521881103515625,6.54429931640625
12.285000000000004,6.610992431640626,0.2349212646484375,6.779519653320313
12.294000000000004,6.73570556640625,0.3007171630859375,7.257885742187501
12.304000000000002,6.7040039062500005,0.3306243896484375,7.602416992187501
12.314,6.707443237304688,0.12261962890625,6.714920043945313
12.324000000000003,7.012945556640625,-0.1434051513671875,6.283508300781251
12.334000000000003,7.513592529296876,-0.302960205078125,6.536224365234376
12.344,7.2243896484375005,-0.3279327392578125,6.924569702148438
12.3539999999999,6.4587646484375005,-0.040374755859375,7.380206298828125
12.364000000000004,6.040661621093751,0.1200775146484375,7.063638305664063
12.374000000000002,6.800006103515625,0.0898712158203125,7.267755126953125
12.384,7.338784790039063,0.0755157470703125,6.821838378906251
12.394000000000004,6.985729980468751,0.286212158203125,6.733013916015626
12.404000000000003,6.610244750976563,0.566741943359375,6.667218017578126
12.414,6.757089233398438,0.26318359375,6.818399047851563
12.4239999999999,7.441815185546876,-0.1637420654296875,7.129583740234375
12.434000000000005,6.887783813476563,-0.47911376953125,6.608749389648438
12.444000000000004,6.330761718750001,-0.306549072265625,7.049133300781251
12.454,6.574057006835938,-0.2002288818359375,7.0975830078125
12.464000000000006,7.033880615234375,-0.28531494140625,7.401889038085938
12.474000000000004,7.332653808593751,-0.106768798828125,6.554916381835938
12.484000000000002,6.846212768554688,0.171966552734375,6.1764404296875
12.4939999999999,6.801800537109376,0.4448699951171875,6.671554565429688
12.504000000000003,6.921728515625,0.335260009765625,7.314410400390625
12.514000000000005,6.742584228515626,0.183331298828125,7.499835205078125
12.524,6.512149047851563,0.0847869873046875,6.8550354003906255
12.5339999999999,6.4037353515625,-0.050543212890625,6.87327880859375
12.544000000000004,7.116574096679688,-0.207855224609375,6.949093627929688
12.554000000000002,7.305587768554688,-0.3650177001953125,7.030142211914063
12.564,6.893914794921876,-0.2785858154296875,6.402539062500001
12.574000000000003,6.80748291015625,-0.1514801025390625,6.431399536132813
12.584000000000003,6.8535400390625005,-0.0945068359375,6.967935180664063
12.594,7.120312500000001,-0.0103179931640625,7.284204101562499
12.6039999999999,6.648226928710938,0.1691253662109375,7.173696899414063
12.614000000000004,6.384295654296875,0.2791839599609375,6.710882568359375
12.624000000000002,6.792678833007813,0.3013153076171875,7.069171142578125
12.634,7.121060180664063,0.1712188720703125,7.110443115234376
12.644000000000004,7.033132934570313,0.0249725341796875,6.782061767578125
12.654000000000003,6.728378295898438,-0.0931610107421875,6.495700073242188
12.664,6.675442504882813,-0.300567626953125,6.587216186523438
12.673000000000002,7.035824584960938,-0.461468505859375,7.165771484375001
12.683,7.025057983398438,-0.5725738525390626,6.914700317382813
12.693000000000003,6.726135253906251,-0.4699920654296875,6.6130859375
12.703000000000005,6.888980102539063,-0.15252685546875,6.774136352539063
12.713,6.921878051757813,0.28411865234375,7.298709106445313
12.7229999999999,7.148574829101563,0.7463348388671875,7.523162841796876
12.733000000000004,6.1013732910156255,1.0132568359375,6.847409057617188
12.743000000000002,6.555813598632813,0.748577880859375,6.500933837890625
12.754000000000003,7.399945068359376,0.084637451171875,6.980496215820313
12.763000000000003,7.518975830078125,-0.670819091796875,6.750061035156251
12.774,6.5873657226562505,-0.6639404296875,7.014590454101563
12.7839999999999,6.08970947265625,-0.5911163330078125,6.800155639648438
12.793,6.961654663085938,-0.5985931396484375,7.343869018554688
12.803000000000004,7.45706787109375,-0.4031494140625,7.015637207031251
12.813000000000002,6.922177124023438,0.3049041748046875,6.457269287109376
12.823,6.401791381835938,0.995611572265625,6.646731567382813
12.833000000000006,6.784902954101563,0.9987518310546876,7.050180053710938
12.843000000000004,7.241885375976563,0.645697021484375,7.636062622070313
12.853000000000002,6.718359375,0.2217620849609375,6.789688110351563
12.863,6.286947631835938,-0.1302459716796875,6.643142700195313
12.873000000000005,6.952532958984375,-0.6883148193359375,6.836343383789063
12.882999999999996,7.193585205078126,-1.042266845703125,7.257586669921875
12.893,7.037619018554688,-0.8697021484375,6.800903320312501
12.9029999999999,6.642395019531251,-0.3695037841796875,6.359024047851563
12.913000000000004,6.812417602539063,0.0641510009765625,6.587066650390626
12.923000000000002,7.312017822265625,0.338250732421875,6.984683227539063
12.933,6.981692504882813,0.617584228515625,7.178631591796876
12.943000000000003,6.349154663085938,0.724951171875,6.750808715820313
12.953000000000005,6.357229614257813,0.6198272705078125,7.250408935546876
12.963,6.787295532226563,0.1532745361328125,7.382748413085938
12.9729999999999,7.037469482421876,-0.2068084716796875,7.255493164062501
12.983000000000004,6.88524169921875,-0.4622161865234375,6.402389526367188
12.993000000000002,6.950439453125001,-0.6404632568359375,6.221151733398438
13.003,7.215866088867188,-0.563153076171875,6.805389404296876
13.013000000000003,6.9731689453125005,-0.31761474609375,7.0883117675781255
13.023000000000003,6.659292602539063,0.0773101806640625,7.100723266601563
13.033,6.57420654296875,0.247930908203125,6.557608032226563
13.043,6.795968627929688,0.35948486328125,7.0284973144531255
13.053000000000004,6.954177856445313,0.3541015625,7.110443115234376
13.063000000000002,6.6576477050781255,0.30206298828125,7.137060546875
13.073,6.605908203125001,0.06878662109375,6.641946411132813
13.083000000000006,7.33385009765625,-0.4000091552734375,6.565234375
13.093000000000004,7.459759521484376,-0.5507415771484375,6.831558227539063
13.103000000000002,6.941616821289063,-0.3955230712890625,6.970776367187501
13.113,6.190945434570313,0.0734222412109375,7.165921020507813
13.123000000000005,6.402539062500001,0.2438934326171875,7.0688720703125005
13.133000000000004,7.070068359375001,0.219818115234375,7.30753173828125
13.143,7.374972534179688,0.2561553955078125,6.5275512695312505
13.1529999999999,6.688601684570313,0.516796875,6.833352661132813
13.163000000000004,6.417193603515625,0.6183319091796875,6.780715942382813
13.173000000000002,7.00247802734375,0.085235595703125,7.24412841796875
13.183,7.401290893554688,-0.4625152587890625,6.888980102539063
13.192,6.750360107421876,-0.69205322265625,6.381604003906251
13.202000000000004,6.3833984375,-0.449505615234375,7.054367065429688
13.212000000000003,6.848605346679688,-0.3028106689453125,7.2507080078125
13.221999999999902,7.1693603515625,-0.2543609619140625,7.266259765625
13.232,7.0628906250000005,0.0483001708984375,6.17344970703125
13.242000000000004,6.800454711914063,0.4029998779296875,6.328219604492188
13.252000000000002,6.78056640625,0.6433044433593751,7.120462036132813
13.263000000000003,6.835894775390625,0.4681976318359375,7.580584716796875
13.272000000000006,6.7354064941406255,0.25660400390625,7.37691650390625
13.282000000000004,6.312368774414063,0.1160400390625,6.535476684570313
13.291999999999902,6.548037719726563,-0.1523773193359375,6.962252807617188
13.302,7.463198852539063,-0.428271484375,7.037918090820313
13.312000000000005,7.2767272949218755,-0.5879760742187501,6.832904052734375
13.322000000000005,6.686657714843751,-0.4629638671875,6.165972900390625
13.332,6.719705200195313,-0.2021728515625,6.637460327148438
13.343000000000004,7.005917358398438,-0.006878662109375,7.387084960937501
13.352000000000004,7.014889526367188,0.15611572265625,7.232763671875
13.362000000000002,6.670956420898438,0.3336151123046875,6.754995727539063
13.372,6.452035522460938,0.46954345703125,6.626095581054688
13.382000000000003,6.777725219726563,0.425579833984375,7.281961059570313
13.392000000000005,7.139004516601563,0.228790283203125,7.410412597656251
13.402,6.847259521484376,-0.1302459716796875,6.571066284179688
13.412,6.768753051757813,-0.4222900390625,6.172851562500001
13.422000000000004,6.781912231445313,-0.5266662597656251,6.771893310546876
13.432000000000002,6.970626831054688,-0.6261077880859376,7.370037841796876
13.442,7.014889526367188,-0.4876373291015625,7.082180786132813
13.452000000000004,6.7593322753906255,-0.2729034423828125,6.345864868164063
13.462000000000003,7.064984130859376,0.1454986572265625,6.693087768554688
13.471999999999902,7.215567016601563,0.6530242919921876,7.374523925781251
13.482,6.3107238769531255,1.133782958984375,7.451235961914063
13.492000000000004,6.11004638671875,0.983349609375,6.861166381835938
13.502000000000002,7.038665771484376,0.1568634033203125,6.725238037109375
13.512,7.639801025390626,-0.55926513671875,6.656301879882813
13.522000000000006,6.907073974609376,-0.7188201904296876,7.0569091796875005
13.532000000000004,6.256143188476563,-0.4732818603515625,6.955075073242188
13.542000000000002,6.723144531250001,-0.6246124267578126,7.0090576171875005
13.552,7.473666381835938,-0.57242431640625,6.916494750976563
13.562000000000005,7.088162231445313,0.0587677001953125,6.569869995117188
13.572000000000005,6.396258544921875,0.85474853515625,6.883746337890625
13.582,6.678582763671876,0.9682464599609376,6.9755615234375
13.592,7.0497314453125,0.5932098388671876,7.392318725585938
13.602000000000004,6.925915527343751,0.3838592529296875,6.974514770507813
13.612000000000002,6.368295288085938,0.0755157470703125,6.7099853515625005
13.622,6.773986816406251,-0.4508514404296875,6.792977905273438
13.632000000000003,7.482040405273438,-0.9703399658203126,6.918438720703126
13.642000000000005,6.868194580078126,-0.9458160400390626,6.897055053710938
13.651999999999902,6.546990966796876,-0.3695037841796875,6.6277404785156255
13.662,6.686807250976563,0.026019287109375,6.971524047851563
13.672000000000004,7.216165161132813,0.180340576171875,6.807333374023438
13.682000000000002,7.279269409179688,0.36845703125,6.82542724609375
13.691000000000004,6.638955688476563,0.6421081542968751,6.674844360351563
13.7009999999999,6.217413330078125,0.6793426513671875,7.144985961914063
13.711000000000006,6.810772705078126,0.20576171875,7.5608459472656255
13.721000000000004,7.01982421875,-0.22669677734375,7.156201171875001
13.731000000000002,6.828567504882813,-0.4272247314453125,6.574954223632813
13.7409999999999,6.706546020507813,-0.3542510986328125,6.511700439453126
13.751000000000005,7.03477783203125,-0.3497650146484375,6.935934448242188
13.761000000000005,7.255941772460938,-0.2438934326171875,7.088012695312501
13.772000000000006,6.8116699218750005,-0.033197021484375,6.593646240234375
13.781,6.698620605468751,0.2141357421875,6.558654785156251
13.791000000000004,6.5514770507812505,0.29249267578125,7.013244628906251
13.801000000000002,7.036572265625001,0.1834808349609375,7.369290161132813
13.8109999999999,6.593197631835938,0.0659454345703125,7.101171875
13.821000000000003,6.663180541992188,-0.1897613525390625,6.422726440429688
13.831000000000005,7.203753662109375,-0.218023681640625,6.846661376953126
13.841,7.386187744140625,-0.32838134765625,6.763668823242188
13.851,7.153659057617188,-0.1256103515625,7.19029541015625
13.861000000000004,6.207992553710938,0.2612396240234375,6.688003540039063
13.871000000000002,6.220703125000001,0.3886444091796875,7.078890991210938
13.8809999999999,7.156051635742188,0.249725341796875,7.463796997070313
13.891000000000004,7.311419677734375,-0.0705810546875,6.743930053710938
13.901000000000003,6.732116699218751,0.204864501953125,6.860418701171875
13.911,6.21531982421875,0.2830718994140625,6.521270751953126
13.9209999999999,7.28121337890625,0.0118133544921875,7.37572021484375
13.931000000000004,7.519873046875,-0.478515625,6.705200195312501
13.941000000000004,6.768603515625,-0.5193389892578125,6.357827758789063
13.9509999999999,6.3959594726562505,-0.0729736328125,6.859970092773438
13.961000000000006,6.594992065429688,-0.052337646484375,7.452731323242188
13.971000000000004,7.220053100585938,-0.0103179931640625,7.607800292968751
13.981000000000002,6.999786376953126,0.11304931640625,6.360668945312501
13.9909999999999,6.564785766601563,0.365167236328125,6.253900146484376
14.001000000000005,6.8266235351562505,0.41331787109375,6.848605346679688
14.011000000000005,7.152313232421876,0.160302734375,7.682418823242188
14.021,6.908419799804688,0.026019287109375,7.199417114257813
14.031,6.149972534179688,-0.1359283447265625,6.420333862304688
14.041000000000004,6.655404663085938,-0.2322296142578125,6.7952209472656255
14.051000000000002,7.470526123046875,-0.43724365234375,7.23515625
14.0609999999999,7.1346679687500005,-0.4236358642578125,6.981991577148438
14.071000000000003,6.746173095703125,-0.1422088623046875,6.218609619140626
14.081000000000005,6.605310058593751,0.02930908203125,6.5440002441406255
14.091,7.0524230957031255,0.148040771484375,7.305587768554688
14.100999999999914,7.087863159179688,0.26617431640625,7.501779174804688
14.111000000000004,6.386538696289063,0.352008056640625,6.83798828125
14.121000000000002,6.519177246093751,0.2953338623046875,6.540261840820313
14.1309999999999,6.950439453125001,0.142059326171875,7.218408203125
14.141000000000004,7.181622314453126,-0.0327484130859375,7.193136596679688
14.151000000000003,6.85294189453125,-0.1365264892578125,6.772341918945313
14.161,6.584075927734376,-0.435748291015625,5.958267211914063
14.1709999999999,7.257736206054688,-0.6642395019531251,6.582879638671876
14.181000000000004,7.139602661132813,-0.750372314453125,7.008160400390626
14.191000000000004,6.875222778320313,-0.4629638671875,7.170855712890625
14.2009999999999,6.306387329101563,-0.0174957275390625,6.994253540039063
14.21,6.824081420898438,0.38699951171875,7.103265380859376
14.2199999999999,7.371533203125001,0.96002197265625,7.542453002929688
14.230000000000004,6.296966552734376,1.2552062988281252,6.820941162109375
14.240000000000002,6.465792846679688,1.036135864257813,6.509606933593751
14.25,7.165023803710938,0.1114044189453125,6.736901855468751
14.260000000000003,7.563388061523438,-0.8339630126953126,6.818698120117188
14.270000000000003,6.660189819335938,-0.9574798583984376,7.322335815429688
14.28,6.118420410156251,-0.8330657958984375,6.836941528320313
14.291000000000004,6.93070068359375,-0.7437927246093751,7.189099121093751
14.300000000000004,7.449890136718751,-0.470440673828125,6.702957153320313
14.310000000000002,7.168911743164063,0.41571044921875,6.562841796875
14.32,6.3825012207031255,1.194644165039063,6.607254028320313
14.330000000000004,6.632525634765625,1.22799072265625,7.06229248046875
14.340000000000003,7.15799560546875,0.7992706298828126,7.654904174804688
14.35,6.689648437500001,0.307147216796875,7.045993041992188
14.3599999999999,6.373828125,-0.0919647216796875,6.848455810546875
14.370000000000005,6.78116455078125,-0.7535125732421876,6.637161254882813
14.380000000000004,7.236801147460938,-1.2058593750000002,7.086367797851563
14.391000000000004,7.198818969726563,-1.0524353027343751,6.740640258789063
14.400000000000006,6.685910034179688,-0.412420654296875,6.548187255859376
14.410000000000004,6.595440673828126,0.107965087890625,6.504821777343751
14.420000000000002,7.380056762695313,0.3425872802734375,7.008609008789063
14.4299999999999,7.077993774414063,0.6829315185546876,7.184164428710938
14.440000000000005,6.317453002929688,0.9002075195312501,6.861465454101563
14.450000000000005,6.236404418945313,0.8302246093750001,7.337139892578126
14.46,6.839035034179688,0.1984344482421875,7.241586303710938
14.4699999999999,7.130630493164063,-0.33436279296875,7.195529174804688
14.480000000000004,6.886886596679688,-0.5740692138671876,6.400146484375001
14.4909999999999,6.858026123046876,-0.7367645263671876,6.339584350585938
14.500000000000009,7.230221557617188,-0.7599426269531251,6.772491455078126
14.510000000000003,7.196725463867188,-0.551788330078125,6.90916748046875
14.520000000000003,6.804641723632813,-0.0435150146484375,6.8894287109375005
14.529999999999896,6.461904907226563,0.3034088134765625,6.576150512695313
14.54,6.763070678710938,0.5782562255859376,7.257885742187501
14.550000000000004,6.788043212890625,0.6113037109375,7.2617736816406255
14.559999999999995,6.606207275390625,0.4197479248046875,7.101022338867188
14.570000000000007,6.753500366210938,0.12860107421875,6.587664794921875
14.580000000000004,7.138107299804688,-0.4062896728515625,6.52396240234375
14.591,7.410263061523438,-0.6365753173828126,6.963299560546876
14.599999999999897,7.161434936523438,-0.6132476806640625,6.846063232421876
14.61,6.432745361328125,-0.2806793212890625,7.024160766601563
14.620000000000005,6.279919433593751,0.0797027587890625,6.865652465820313
14.629999999999995,6.927261352539063,0.291595458984375,7.519723510742188
14.640000000000008,7.250857543945313,0.45877685546875,6.865802001953125
14.650000000000006,6.774884033203126,0.6479400634765625,6.731967163085938
14.660000000000004,6.525308227539063,0.8089904785156251,6.712826538085938
14.669999999999996,6.857427978515625,0.380419921875,7.031787109375
14.680000000000009,7.328018188476563,-0.235369873046875,7.229324340820313
14.691000000000004,6.939523315429688,-0.7227081298828125,6.433941650390626
14.699999999999996,6.46953125,-0.7108947753906251,6.8296142578125005
14.70900000000001,6.710882568359375,-0.5621063232421876,7.039413452148438
14.719,7.109994506835938,-0.4696929931640625,7.399945068359376
14.729,7.065432739257813,-0.1054229736328125,6.662283325195313
14.739000000000004,6.856829833984375,0.418402099609375,6.200665283203126
14.749000000000002,6.612039184570313,0.7901489257812501,6.914700317382813
14.759,7.034628295898438,0.7940368652343751,7.340579223632813
14.769000000000004,6.832455444335938,0.5887237548828126,7.61497802734375
14.77900000000001,6.252554321289063,0.3234466552734375,6.678582763671876
14.79,6.407623291015626,-0.1215728759765625,6.845315551757813
14.800000000000004,7.354037475585938,-0.6418090820312501,7.049432373046876
14.809000000000005,7.414898681640626,-0.9414794921875,6.773986816406251
14.819000000000004,6.828567504882813,-0.8767303466796875,6.221749877929688
14.829,6.802847290039063,-0.5284606933593751,6.261227416992188
14.839000000000006,7.0539184570312505,-0.166583251953125,7.227828979492188
14.84900000000001,6.972421264648438,0.2289398193359375,7.232015991210938
14.859000000000002,6.636114501953125,0.7061096191406251,7.1693603515625
14.869,6.232666015625001,0.8877960205078126,6.728826904296875
14.879000000000003,6.788641357421875,0.8212524414062501,7.296017456054688
14.889999999999894,7.001431274414063,0.5211334228515625,7.449441528320313
14.899,6.864605712890626,0.0130096435546875,6.696826171875
14.909,6.852642822265626,-0.4990020751953125,6.233413696289063
14.919000000000011,6.936383056640626,-0.9784149169921876,6.343173217773438
14.929000000000002,7.292578125,-1.2269439697265625,6.93907470703125
14.939,7.186557006835938,-1.053631591796875,6.893765258789063
14.949000000000003,6.603964233398438,-0.548199462890625,6.624151611328125
14.95900000000001,6.639254760742188,0.1662841796875,6.942813110351563
14.969,6.9208312988281255,0.99232177734375,7.726083374023438
14.979,6.383248901367188,1.6722625732421876,7.595538330078125
14.991,6.444558715820313,1.5645965576171876,6.752603149414063
14.999000000000002,7.0628906250000005,0.7560546875,6.491812133789063
15.009,7.513143920898438,-0.2465850830078125,6.4491943359375
15.019000000000004,7.197323608398438,-0.899609375,7.040161132812501
15.02900000000001,6.3525939941406255,-1.1929992675781251,6.9911132812500005
15.039,6.588262939453125,-1.371246337890625,7.006216430664063
15.049,7.0524230957031255,-1.024322509765625,7.233212280273438
15.059000000000005,7.090405273437501,-0.161798095703125,6.717163085937501
15.06900000000001,6.771145629882813,0.90379638671875,6.865652465820313
15.079,6.779519653320313,1.39547119140625,6.431100463867188
15.089000000000006,7.071414184570313,1.3986114501953126,7.190145874023438
15.09900000000001,6.883596801757813,1.0295562744140625,7.1490234375
15.109000000000002,6.401940917968751,0.389990234375,7.115377807617188
15.119,6.59215087890625,-0.486590576171875,7.027450561523438
15.129000000000003,7.015188598632813,-1.24713134765625,6.937579345703125
15.13900000000001,6.899447631835938,-1.334759521484375,7.108349609375001
15.149,6.785949707031251,-0.9230865478515624,6.571963500976563
15.159,6.966888427734376,-0.4248321533203125,6.616973876953126
15.1679999999999,7.525405883789063,-0.064898681640625,6.146084594726563
15.178000000000004,7.381851196289063,0.41331787109375,6.55386962890625
15.189,6.66392822265625,0.7745971679687501,6.731817626953125
15.199000000000003,6.242086791992188,0.9292175292968752,7.573257446289063
15.208000000000006,6.2733398437500005,0.5864807128906251,7.738943481445313
15.218000000000004,6.685610961914063,0.0973480224609375,7.456768798828126
15.228000000000002,6.742434692382813,-0.1902099609375,6.908569335937501
15.2379999999999,6.909915161132813,-0.316717529296875,6.482989501953125
15.248000000000005,7.108648681640625,-0.337652587890625,6.715817260742188
15.258000000000004,7.261026000976563,-0.4370941162109375,6.475811767578126
15.267999999999994,7.044198608398438,-0.321502685546875,6.667666625976563
15.2779999999999,6.842324829101563,-0.251519775390625,6.443511962890626
15.288000000000004,6.646282958984376,-0.0192901611328125,7.201361083984375
15.298000000000002,6.657797241210938,0.00478515625,7.167416381835938
15.307999999999993,6.556411743164063,0.011663818359375,7.168612670898438
15.318000000000003,6.750958251953126,0.1069183349609375,6.877764892578125
15.328000000000005,7.007412719726563,0.0728240966796875,6.661087036132813
15.338,7.504769897460938,0.1918548583984375,6.9567199707031255
15.3479999999999,7.145285034179688,0.1894622802734375,6.725836181640625
15.358000000000004,6.365902709960938,0.3648681640625,6.913803100585938
15.368000000000002,6.269451904296876,0.3037078857421875,6.992309570312501
15.377999999999991,6.822885131835938,-0.0276641845703125,7.552621459960938
15.388000000000003,7.400991821289063,-0.4158599853515625,6.858624267578126
15.398000000000003,6.755593872070313,-0.297576904296875,6.814810180664063
15.408,6.388931274414063,0.17645263671875,6.670806884765626
15.4179999999999,6.948794555664063,0.0985443115234375,7.012945556640625
15.428000000000004,7.717559814453126,-0.2435943603515625,6.798660278320313
15.438000000000002,7.072610473632813,-0.342138671875,6.130981445312501
15.447999999999992,6.328369140625001,0.094805908203125,6.951785278320313
15.458000000000006,6.318200683593751,0.3234466552734375,7.528097534179688
15.468000000000004,6.8702880859375,0.058917236328125,7.87576904296875
15.478000000000002,7.150369262695313,-0.011065673828125,6.620562744140625
15.4879999999999,6.654656982421876,0.1616485595703125,6.154010009765625
15.498000000000005,6.665274047851563,0.2866607666015625,6.716864013671875
15.508000000000004,7.424917602539063,0.08673095703125,7.425964355468751
15.518,7.0344787597656255,-0.119927978515625,7.225137329101563
15.5279999999999,6.312069702148438,-0.1894622802734375,6.209786987304688
15.538000000000004,6.541009521484376,-0.289501953125,6.779071044921875
15.548000000000002,7.323681640625001,-0.3721954345703125,7.343270874023438
15.557999999999993,7.19029541015625,-0.3904388427734375,7.140948486328125
15.568000000000003,6.654656982421876,-0.12142333984375,6.392669677734376
15.578000000000005,6.565084838867188,0.207257080078125,6.396408081054688
15.588,6.932644653320313,0.35469970703125,7.426712036132813
15.5979999999999,7.113134765625,0.453692626953125,7.436880493164063
15.608000000000004,6.616973876953126,0.400457763671875,6.86729736328125
15.618000000000002,6.4423156738281255,0.1789947509765625,6.307135009765625
15.627999999999991,7.069021606445313,-0.0686370849609375,7.031488037109376
15.638000000000003,7.059899902343751,-0.206658935546875,7.471722412109376
15.648000000000003,6.733761596679688,-0.3605316162109375,6.716265869140625
15.658,6.77159423828125,-0.5301055908203125,6.19737548828125
15.667000000000009,7.008908081054688,-0.7822235107421875,6.202011108398438
15.677,7.551126098632813,-0.61907958984375,7.127191162109376
15.687000000000005,6.69981689453125,-0.050543212890625,7.291531372070313
15.698,6.334201049804688,0.4077850341796875,7.008908081054688
15.707000000000008,6.863409423828125,0.680389404296875,7.143789672851563
15.717,6.9088684082031255,0.9963592529296876,7.337588500976563
15.727000000000004,6.338238525390626,1.12451171875,7.005767822265626
15.737000000000007,6.938327026367188,0.5263671875,6.752603149414063
15.747000000000009,7.32607421875,-0.480010986328125,6.319845581054688
15.757000000000003,7.334896850585938,-1.0741180419921876,6.745724487304688
15.767000000000005,6.579141235351563,-0.850262451171875,7.196725463867188
15.777000000000008,6.290536499023438,-0.6642395019531251,7.203454589843751
15.787,7.01683349609375,-0.5748168945312501,7.048236083984375
15.797000000000004,7.229025268554688,-0.0982452392578125,6.561795043945313
15.80700000000001,6.8430725097656255,0.8299255371093751,6.787594604492188
15.817000000000007,6.569869995117188,1.3364044189453126,6.924868774414063
15.827000000000004,6.861614990234376,1.0069763183593752,7.151565551757813
15.837000000000003,7.089358520507813,0.4693939208984375,7.031637573242188
15.847000000000008,6.636862182617188,0.02213134765625,6.828268432617188
15.857,6.379510498046876,-0.43485107421875,7.023114013671876
15.867000000000004,7.134368896484376,-1.0202850341796876,7.0868164062500005
15.876999999999995,7.040161132812501,-1.205560302734375,6.929953002929688
15.887000000000008,6.867745971679688,-0.7375122070312501,6.488372802734376
15.897000000000006,6.840679931640626,-0.064599609375,6.599627685546875
15.907000000000004,7.041806030273438,0.280828857421875,6.676339721679688
15.917000000000009,7.3009521484375,0.4933197021484375,6.917541503906251
15.927,6.757687377929688,0.7059600830078125,6.9157470703125
15.937000000000005,6.147430419921876,0.8287292480468751,7.165322875976563
15.946999999999996,6.443063354492188,0.5043853759765625,7.586566162109375
15.957000000000008,6.996347045898438,-0.112152099609375,7.212127685546876
15.967,7.132275390625001,-0.55926513671875,6.619216918945313
15.977000000000004,6.911709594726563,-0.6637908935546876,6.258386230468751
15.987000000000007,6.898699951171875,-0.5064788818359376,6.777127075195313
15.997000000000009,7.096386718750001,-0.3799713134765625,7.173248291015626
16.006999999999998,6.967935180664063,-0.1658355712890625,6.858773803710938
16.017000000000003,6.807333374023438,0.1398162841796875,6.520672607421876
16.027000000000008,6.569570922851563,0.3449798583984375,6.691143798828126
16.037,6.862213134765626,0.454290771484375,7.30513916015625
16.047000000000004,6.737350463867188,0.297576904296875,7.365701293945313
16.05700000000001,6.702957153320313,-0.0237762451171875,6.685012817382813
16.067,7.036572265625001,-0.2292388916015625,6.490914916992188
16.077000000000005,7.111190795898438,-0.47313232421875,6.753799438476563
16.086999999999996,7.462451171875,-0.4074859619140625,7.128237915039063
16.097,6.533532714843751,-0.0961517333984375,7.022216796875001
16.107000000000006,6.0225677490234375,0.194097900390625,6.83140869140625
16.115999999999993,6.960458374023438,0.3052032470703125,7.278372192382813
16.127000000000002,7.141995239257813,0.249127197265625,7.133770751953126
16.137000000000008,7.082180786132813,0.4373931884765625,6.826025390625
16.146000000000008,6.465493774414063,0.5263671875,6.57779541015625
16.157000000000004,6.83140869140625,0.2923431396484375,6.832305908203126
16.16700000000001,7.2961669921875005,-0.17525634765625,7.156350708007813
16.177,6.904681396484375,-0.5523864746093751,6.719406127929688
16.186,6.621160888671875,-0.5169464111328126,6.727481079101563
16.19599999999999,6.5724121093750005,-0.4699920654296875,6.972720336914063
16.20599999999991,7.033731079101563,-0.2738006591796875,7.41280517578125
16.216,7.024011230468751,0.0195892333984375,6.965243530273438
16.225999999999992,6.820492553710938,0.37144775390625,6.397305297851563
16.235999999999898,6.776379394531251,0.5550781250000001,6.540859985351563
16.246000000000002,6.993655395507813,0.48270263671875,7.154257202148438
16.255999999999993,6.92412109375,0.447711181640625,7.494152832031251
16.266,6.288442993164063,0.2021728515625,6.9958984375
16.276000000000003,6.467437744140626,-0.109759521484375,6.7548461914062505
16.28600000000001,7.174444580078125,-0.596051025390625,6.878662109375001
16.296,7.303344726562501,-0.7076049804687501,6.912307739257813
16.306000000000004,6.960757446289063,-0.5342926025390625,6.458615112304688
16.31599999999991,6.698770141601563,-0.324493408203125,6.470428466796876
16.326,6.997393798828125,-0.09031982421875,6.857427978515625
16.33599999999999,7.080386352539063,0.176153564453125,7.357626342773438
16.345999999999897,6.505569458007813,0.5194885253906251,7.077395629882813
16.356,6.50242919921875,0.6853240966796875,6.935934448242188
16.365999999999993,6.635665893554688,0.515301513671875,6.96658935546875
16.375999999999898,7.183566284179688,0.1763031005859375,7.128237915039063
16.386000000000003,7.004721069335938,-0.057122802734375,6.941616821289063
16.396000000000008,6.62205810546875,-0.354400634765625,6.442465209960938
16.406,6.875970458984376,-0.588873291015625,6.684414672851563
16.416000000000004,7.152761840820313,-0.790447998046875,6.686657714843751
16.42600000000001,7.095339965820313,-0.7973266601562501,6.789089965820313
16.436,6.8954101562500005,-0.5576202392578126,6.433792114257813
16.44599999999999,6.516934204101563,-0.0557769775390625,7.055862426757813
16.45599999999991,6.75723876953125,0.471636962890625,7.482788085937501
16.466,7.063189697265625,0.88944091796875,7.5129943847656255
16.475999999999992,6.728677368164063,1.24952392578125,6.928308105468751
16.485999999999898,6.23924560546875,1.0937072753906252,6.359921264648438
16.496000000000002,7.08861083984375,0.5310028076171875,7.003225708007813
16.505999999999993,7.497293090820313,-0.420794677734375,6.896157836914063
16.516,6.98154296875,-1.1088104248046875,6.754547119140626
16.526000000000003,6.274685668945313,-1.1405120849609376,6.697723388671876
16.53600000000001,6.462951660156251,-0.8749359130859375,7.350149536132813
16.546,7.220950317382813,-0.5265167236328125,7.481143188476563
16.556000000000004,7.144836425781251,0.059814453125,6.636862182617188
16.56599999999991,6.792529296875,0.8794219970703125,6.1611877441406255
16.576,6.62265625,1.4182006835937502,6.695779418945313
16.58599999999999,7.00845947265625,1.257598876953125,7.588958740234376
16.595999999999897,6.921429443359376,0.6765014648437501,7.47261962890625
16.606,6.336593627929688,-0.0282623291015625,6.710134887695313
16.615999999999993,6.522317504882813,-0.64539794921875,6.744378662109376
16.625000000000007,7.221997070312501,-1.194195556640625,7.127191162109376
16.634999999999998,7.106405639648438,-1.2738983154296877,7.132125854492188
16.645000000000003,6.926513671875001,-0.8557952880859375,6.371734619140626
16.654999999999994,6.828866577148438,-0.2262481689453125,6.242535400390626
16.6649999999999,7.139453125,0.2280426025390625,6.512896728515625
16.675000000000004,7.353439331054688,0.6437530517578125,7.227978515625001
16.684999999999995,6.578543090820313,0.9251800537109376,7.089358520507813
16.6949999999999,6.042306518554688,0.9534423828125,7.167266845703126
16.705000000000005,6.40672607421875,0.6494354248046875,7.505517578125
16.714999999999996,6.911111450195313,0.0596649169921875,7.453628540039063
16.725,7.079339599609376,-0.402850341796875,6.859222412109376
16.735000000000007,6.941915893554688,-0.70281982421875,6.037222290039063
16.744999999999997,7.1645751953125005,-0.8185607910156251,6.418539428710938
16.755000000000003,7.266259765625,-0.8082427978515626,6.693237304687501
16.764999999999993,7.138406372070313,-0.4188507080078125,7.079489135742188
16.775,6.423773193359375,-0.0581695556640625,6.5395141601562505
16.785000000000004,6.586019897460938,0.2675201416015625,6.934887695312501
16.794999999999995,6.670806884765626,0.5007965087890626,7.387533569335938
16.8049999999999,6.909317016601563,0.5636016845703126,7.3727294921875
16.815000000000005,6.714321899414063,0.5598632812500001,6.823483276367188
16.824999999999996,6.9208312988281255,0.107366943359375,6.25419921875
16.835,7.5796875,-0.183929443359375,6.952084350585938
16.845000000000006,6.866848754882813,-0.256304931640625,6.988122558593751
16.854999999999997,6.157449340820313,-0.1543212890625,7.208538818359376
16.865000000000002,6.5425048828125005,-0.335260009765625,6.9028869628906255
16.875000000000007,7.223342895507813,-0.4933197021484375,6.970626831054688
16.884999999999998,7.199118041992188,-0.0634033203125,7.026104736328126
16.895000000000003,6.505569458007813,0.5262176513671876,6.789987182617188
