time,ax,ay,az
0.0,-6.833352661132813,0.1051239013671875,6.800604248046875
0.0100000000000015,-6.892568969726563,0.0638519287109375,7.047488403320313
0.0200000000000031,-7.007562255859376,-0.0805999755859375,7.036572265625001
0.0299999999999016,-7.060647583007813,0.063104248046875,6.701312255859375
0.0400000000000027,-7.321139526367188,0.3505126953125,6.384295654296875
0.0499999999999012,-7.100424194335938,0.3569427490234375,6.511849975585938
0.0600000000000022,-6.932345581054688,0.193499755859375,6.753799438476563
0.0700000000000002,-6.770846557617188,0.0174957275390625,7.325625610351563
0.0800000000000018,-6.724789428710938,-0.320306396484375,7.2856994628906255
0.0900000000000034,-6.91514892578125,-0.3576904296875,7.125247192382813
0.1000000000000014,-7.0165344238281255,0.1194793701171875,6.823782348632813
0.1100000000000029,-7.127789306640626,0.3470733642578125,6.695480346679688
0.1199999999999015,-7.17593994140625,0.7316802978515625,6.378762817382813
0.1300000000000025,-6.481793212890626,0.867010498046875,7.156350708007813
0.1399999999999011,-6.5688232421875,0.4236358642578125,7.810870361328125
0.1500000000000021,-7.053619384765626,0.31522216796875,7.59404296875
0.1590000000000024,-6.336593627929688,0.371746826171875,6.982888793945313
0.1690000000000004,-7.3230834960937505,0.236566162109375,6.421978759765626
0.179000000000002,-6.7787719726562505,0.390887451171875,7.1789306640625
0.1889999999999005,-6.518878173828125,0.00657958984375,7.497891235351563
0.1990000000000016,-6.951336669921876,-0.3865509033203125,7.83988037109375
0.2090000000000031,-7.027450561523438,-0.4007568359375,6.711032104492188
0.2190000000000012,-7.448394775390626,-0.3069976806640625,6.027352905273438
0.2290000000000027,-7.464096069335938,-0.1638916015625,6.066680908203125
0.2390000000000007,-7.256988525390626,-0.4418792724609375,6.342724609375001
0.2490000000000023,-6.466390991210938,-0.53533935546875,7.595089721679688
0.2589999999999044,-6.806884765625001,-0.159405517578125,7.269100952148438
0.2690000000000019,-6.60770263671875,0.3865509033203125,7.679876708984375
0.2790000000000034,-6.657797241210938,0.430364990234375,6.9746643066406255
0.2890000000000015,-6.770397949218751,0.1344329833984375,6.949392700195313
0.299000000000003,-7.2961669921875005,-0.10587158203125,7.036572265625001
0.309000000000001,-7.348654174804688,0.1813873291015625,6.296517944335938
0.3190000000000026,-7.658941650390625,0.7393066406250001,5.6183715820312505
0.3290000000000006,-7.54619140625,0.9547882080078126,5.554220581054688
0.3390000000000022,-7.148873901367188,1.0531829833984376,6.516485595703125
0.3489999999999043,-6.9396728515625,1.1052215576171875,7.323831176757813
0.3590000000000017,-7.039114379882813,1.0754638671875,7.422225952148438
0.3690000000000033,-6.622207641601563,0.9455169677734376,6.869839477539063
0.3790000000000013,-6.902288818359375,0.017645263671875,6.414202880859375
0.3890000000000029,-7.096536254882813,-1.002191162109375,7.071563720703126
0.3990000000000009,-7.224090576171876,-1.428369140625,6.978851318359376
0.4090000000000025,-7.079339599609376,-1.3567413330078126,6.789837646484376
0.4190000000000005,-6.647628784179688,-0.8526550292968751,6.753799438476563
0.429000000000002,-6.394613647460938,-0.438140869140625,7.523013305664063
0.4389999999999041,-6.212777709960938,0.050244140625,8.723489379882814
0.4490000000000016,-6.202609252929688,0.750372314453125,8.282806396484375
0.4590000000000032,-6.5006347656250005,0.8985626220703126,7.407720947265625
0.4690000000000012,-7.0018798828125,1.005181884765625,6.385940551757813
0.4790000000000027,-7.571762084960938,0.764129638671875,5.474667358398438
0.4890000000000007,-8.561990356445314,0.2785858154296875,5.444760131835938
0.4990000000000023,-8.345761108398438,0.15791015625,5.118472290039063
0.5090000000000003,-7.307382202148438,0.164788818359375,5.393917846679688
0.5190000000000019,-6.152963256835938,0.0082244873046875,8.09708251953125
0.5290000000000035,-5.544650268554688,-0.3644195556640625,9.911553955078126
0.5390000000000015,-5.267111206054688,-1.1064178466796877,9.777120971679688
0.549000000000003,-6.685311889648438,-1.32010498046875,7.069320678710938
0.559000000000001,-8.005416870117188,-0.6042755126953125,5.314962768554688
0.5690000000000026,-7.999136352539063,0.0797027587890625,5.094696044921875
0.5790000000000006,-7.399047851562501,0.356793212890625,5.940023803710938
0.5890000000000022,-6.832904052734375,0.6204254150390626,7.448245239257813
0.5989999999999043,-6.961654663085938,1.4790618896484375,7.420880126953126
0.6090000000000018,-6.5963378906250005,2.0942535400390625,7.4744140625
0.6190000000000033,-6.6471801757812505,1.6170837402343752,6.362911987304688
0.6280000000000001,-6.9447570800781255,0.5022918701171876,6.832604980468751
0.6380000000000017,-7.249362182617188,-0.6271545410156251,7.045544433593751
0.6480000000000032,-7.676885986328125,-1.1662322998046877,6.319696044921876
0.6580000000000013,-7.498040771484375,-1.131689453125,6.030194091796876
0.6680000000000028,-6.87926025390625,-1.021630859375,5.897106933593751
0.6779999999999013,-6.282312011718751,-0.6655853271484375,8.105755615234376
0.6880000000000024,-6.190197753906251,-0.1260589599609375,8.822332763671875
0.6980000000000004,-6.094046020507813,0.5890228271484376,8.87347412109375
0.708000000000002,-6.495550537109375,1.2529632568359377,6.995001220703125
0.718,-7.162930297851563,1.026715087890625,5.714822387695313
0.7280000000000015,-7.719055175781251,0.5417694091796875,6.191842651367188
0.7380000000000031,-7.971920776367188,0.096002197265625,5.761029052734376
0.7479999999999016,-7.833749389648438,-0.337353515625,5.978305053710938
0.7580000000000027,-7.250558471679688,-0.1380218505859375,5.417544555664063
0.7679999999999012,-6.895111083984376,-0.08553466796875,7.002777099609376
0.7780000000000022,-6.351995849609375,0.1801910400390625,8.447894287109376
0.7880000000000003,-6.20933837890625,0.4696929931640625,7.944854736328126
0.7980000000000018,-6.328817749023438,0.302960205078125,7.7896362304687505
0.8080000000000034,-7.082778930664063,0.2779876708984375,6.281265258789063
0.8180000000000014,-7.725335693359375,0.4260284423828125,5.2748870849609375
0.828000000000003,-8.713320922851564,0.3291290283203125,5.2684570312500005
0.8379999999999015,-7.485778808593751,0.43604736328125,5.9313507080078125
0.8480000000000025,-6.540261840820313,0.6494354248046875,6.811819458007813
0.8580000000000005,-5.631082153320313,0.6168365478515625,9.574798583984377
0.8680000000000021,-5.137762451171875,0.2095001220703125,10.2270751953125
0.8780000000000001,-6.022717285156251,-0.131591796875,7.958163452148438
0.8880000000000017,-7.936630249023438,-0.2029205322265625,5.563641357421876
0.8980000000000032,-8.261721801757814,0.2869598388671875,4.492514038085938
0.9080000000000013,-8.689395141601564,0.1016845703125,4.5017852783203125
0.9180000000000028,-6.902288818359375,-0.2930908203125,7.098629760742188
0.9279999999999012,-5.840133666992188,-0.386102294921875,8.309124755859376
0.9380000000000024,-5.396310424804688,-0.1562652587890625,9.99439697265625
0.9480000000000004,-5.696279907226563,-0.2567535400390625,8.934634399414064
0.958000000000002,-6.626992797851563,-0.5244232177734376,6.769351196289063
0.968,-7.593594360351563,-0.2660247802734375,6.1073547363281255
0.9780000000000016,-8.115475463867188,-0.072674560546875,5.192941284179688
0.9880000000000032,-7.866946411132813,0.0596649169921875,5.8558349609375
0.9980000000000012,-6.986776733398438,0.164788818359375,6.577197265625
1.008000000000003,-6.338238525390626,0.5959014892578125,7.520620727539063
1.0179999999999012,-6.118869018554688,1.0045837402343751,8.824127197265625
1.0280000000000022,-6.248516845703126,0.7852142333984375,7.904928588867188
1.0380000000000005,-6.587216186523438,0.1374237060546875,6.898550415039063
1.0480000000000018,-7.375869750976563,-0.2268463134765625,6.10107421875
1.0580000000000034,-8.009753417968751,-0.3078948974609375,5.797665405273438
1.0680000000000014,-7.830459594726563,-0.3796722412109375,5.787347412109376
1.078000000000003,-6.837240600585938,-0.1745086669921875,6.145187377929688
1.0879999999999015,-6.71776123046875,0.003887939453125,7.706793212890625
1.0970000000000013,-6.3122192382812505,0.4732818603515625,8.3931640625
1.107999999999901,-6.03348388671875,0.7091003417968751,8.156597900390626
1.118000000000002,-6.3833984375,0.4532440185546875,7.389328002929688
1.1270000000000024,-6.924569702148438,0.0557769775390625,6.628936767578126
1.1370000000000005,-7.687802124023438,-0.022430419921875,6.154010009765625
1.147000000000002,-8.740985107421876,0.0043365478515625,4.988525390625
1.1569999999999006,-7.163229370117188,0.4834503173828125,4.7145751953125
1.1670000000000016,-7.173696899414063,0.6663330078125,6.392819213867188
1.1770000000000032,-6.221749877929688,0.4498046875,9.70130615234375
1.1870000000000012,-5.550183105468751,0.1499847412109375,8.874072265625001
1.1970000000000027,-5.8534423828125,-0.34273681640625,9.048880004882813
1.2070000000000007,-6.875671386718751,-0.73272705078125,6.733163452148438
1.2170000000000023,-7.36435546875,-1.11673583984375,5.509060668945313
1.2270000000000003,-8.352191162109376,-0.9090301513671876,5.060153198242188
1.237000000000002,-7.81236572265625,0.2232574462890625,5.70928955078125
1.2470000000000034,-6.994851684570313,1.2592437744140623,6.641198730468751
1.2570000000000014,-5.910714721679688,1.29737548828125,8.630926513671875
1.267000000000003,-5.9276123046875,0.9440216064453124,8.732461547851564
1.277000000000001,-6.427511596679688,0.9284698486328126,8.351144409179689
1.2870000000000026,-7.360018920898438,0.4870391845703125,6.182571411132813
1.2970000000000006,-7.573406982421876,-0.57840576171875,4.871438598632813
1.3070000000000022,-7.802944946289063,-1.45528564453125,5.621960449218751
1.3169999999999042,-7.124649047851563,-1.2876556396484375,7.192089843750001
1.3270000000000015,-6.552972412109376,-0.552984619140625,8.170953369140626
1.3370000000000033,-6.009707641601563,0.093011474609375,7.886386108398438
1.3470000000000013,-6.172851562500001,0.5247222900390626,7.613632202148438
1.3570000000000029,-6.641049194335938,0.94805908203125,7.690045166015626
1.3670000000000009,-7.196426391601563,1.0741180419921876,7.089657592773438
1.3770000000000024,-7.150369262695313,0.5947052001953126,6.221749877929688
1.3870000000000005,-7.092947387695313,0.0094207763671875,5.610147094726563
1.397000000000002,-7.5967346191406255,-0.2691650390625,6.414651489257813
1.406999999999904,-8.011099243164063,-0.07177734375,6.446502685546876
1.4170000000000016,-7.052124023437501,0.280828857421875,6.003277587890626
1.4270000000000032,-6.512448120117188,0.2702117919921875,6.598880004882813
1.4370000000000012,-6.184515380859375,0.187518310546875,8.398846435546876
1.4470000000000027,-6.31162109375,0.1484893798828125,9.034674072265624
1.4570000000000007,-6.537719726562501,0.1786956787109375,7.677932739257813
1.4670000000000023,-7.037170410156251,0.0614593505859375,5.6901489257812505
1.4770000000000003,-7.280615234375,-0.2307342529296875,5.932546997070313
1.487000000000002,-7.457666015625,-0.3129791259765625,6.65196533203125
1.4970000000000034,-7.520919799804688,-0.2471832275390625,7.260876464843751
1.5070000000000014,-6.959262084960938,0.304156494140625,6.268704223632813
1.517000000000003,-6.450390625000001,0.724652099609375,6.467587280273438
1.527000000000001,-6.548934936523438,0.6587066650390625,7.706195068359375
1.5370000000000026,-6.891671752929688,0.499151611328125,7.8392822265625
1.5470000000000006,-7.049133300781251,0.7053619384765626,6.581085205078126
1.5570000000000022,-7.5967346191406255,0.919049072265625,5.230026245117188
1.5670000000000002,-7.242782592773438,0.5070770263671875,6.381155395507813
1.5770000000000015,-6.6696105957031255,-0.3674102783203125,7.106405639648438
1.5870000000000033,-6.698171997070313,-1.020733642578125,8.746517944335938
1.596,-6.524411010742188,-0.839794921875,8.3584716796875
1.6060000000000016,-6.007614135742188,-0.719268798828125,6.577197265625
1.6160000000000032,-6.907971191406251,-0.7496246337890625,6.381903076171875
1.6260000000000012,-7.648773193359376,-0.0494964599609375,7.010702514648438
1.6360000000000028,-7.808029174804688,0.905889892578125,6.603366088867188
1.645999999999901,-6.802548217773438,1.3386474609375,6.162832641601563
1.6560000000000024,-6.6740966796875005,0.97138671875,6.647030639648438
1.6660000000000004,-6.540411376953125,0.4945159912109375,8.227328491210939
1.676000000000002,-6.724639892578126,0.2564544677734375,8.130578613281251
1.686,-6.729873657226563,-0.2014251708984375,6.910961914062501
1.6960000000000015,-6.8610168457031255,-0.880169677734375,5.8474609375
1.706000000000003,-7.173397827148438,-1.2581970214843752,6.710433959960938
1.7159999999999016,-7.377514648437501,-0.9194976806640626,7.751205444335938
1.7260000000000026,-6.920532226562501,-0.242547607421875,7.038067626953126
1.7359999999999012,-6.356332397460938,0.3665130615234375,6.450540161132813
1.7460000000000022,-6.350650024414063,0.7979248046875,7.52047119140625
1.7560000000000002,-6.722845458984375,0.90140380859375,8.398248291015626
1.7660000000000018,-6.5664306640625005,0.8833099365234376,7.653707885742188
1.7760000000000034,-7.327120971679688,0.5953033447265625,5.6218109130859375
1.7860000000000014,-7.909713745117188,0.4194488525390625,4.943066406250001
1.7970000000000006,-8.194879150390626,0.329876708984375,5.186959838867188
1.8059999999999008,-7.580734252929688,0.162396240234375,6.633871459960938
1.8160000000000025,-6.5963378906250005,-0.0192901611328125,7.081283569335938
1.825999999999901,-5.972024536132813,-0.0749176025390625,7.927059936523438
1.836000000000002,-6.054568481445313,-0.122021484375,8.822332763671875
1.846,-5.998492431640625,-0.2978759765625,8.386434936523438
1.8560000000000016,-6.6097961425781255,-0.6104064941406251,7.423721313476563
1.8660000000000032,-7.317700195312501,-0.606817626953125,6.314462280273438
1.8760000000000008,-7.649371337890625,-0.1401153564453125,5.616128540039063
1.8860000000000028,-8.14373779296875,0.4110748291015625,5.47960205078125
1.897000000000002,-7.398150634765625,0.94327392578125,6.000436401367188
1.9060000000000024,-7.158294677734376,1.3361053466796875,6.106158447265625
1.915999999999901,-6.0113525390625,1.6117004394531251,7.974911499023438
1.926000000000002,-6.49644775390625,1.2644775390625,7.822833251953125
1.936,-6.705050659179688,0.1876678466796875,8.989065551757813
1.9460000000000013,-6.589309692382813,-0.7255493164062501,5.8550872802734375
1.956000000000003,-7.099078369140625,-1.6553649902343752,6.845315551757813
1.966000000000001,-7.334298706054688,-1.8582855224609376,6.761126708984375
1.9760000000000024,-7.102966308593751,-1.4739776611328126,6.727780151367188
1.9859999999999007,-6.949691772460938,-0.49287109375,7.265362548828126
1.9960000000000024,-6.432595825195313,1.1399139404296876,6.1107940673828125
2.006,-7.036721801757813,1.8203033447265624,8.406771850585939
2.016000000000002,-6.791781616210938,1.929464721679688,7.290634155273438
2.026000000000004,-6.694732666015626,1.3459747314453123,6.920681762695313
2.0360000000000014,-7.149920654296875,0.5967987060546875,6.268554687500001
2.046000000000003,-7.484432983398438,-0.1652374267578125,6.116476440429688
2.055000000000004,-7.256689453125,-0.9990509033203124,6.743481445312501
2.0650000000000013,-6.785800170898438,-1.48040771484375,6.917990112304688
2.075000000000003,-6.402389526367188,-1.41102294921875,7.850347900390625
2.085000000000001,-6.513494873046875,-0.5902191162109376,7.860964965820313
2.096,-6.702957153320313,0.225201416015625,7.577893066406251
2.1060000000000016,-6.800006103515625,0.8510101318359375,6.787893676757813
2.115000000000002,-6.792080688476563,1.0403228759765626,6.8625122070312505
2.124999999999904,-6.758135986328125,0.8867492675781251,7.071414184570313
2.1350000000000016,-6.9396728515625,0.575115966796875,7.131378173828126
2.145000000000003,-7.637109375,0.151031494140625,6.284255981445313
2.155000000000001,-7.695278930664063,0.05562744140625,5.195932006835938
2.1650000000000027,-7.825076293945313,0.228790283203125,5.277578735351563
2.1750000000000007,-7.447348022460938,0.3207550048828125,6.699218750000001
2.1850000000000023,-6.342874145507813,0.2618377685546875,7.7806640625
2.196000000000001,-6.12200927734375,0.1520782470703125,8.218505859375
2.205000000000002,-5.990567016601563,0.15372314453125,8.361312866210938
2.2150000000000034,-6.38878173828125,0.0127105712890625,7.491909790039063
2.2250000000000014,-7.035525512695313,-0.4498046875,7.130929565429688
2.235000000000003,-7.420431518554688,-0.7602416992187501,6.193936157226563
2.245000000000001,-7.523611450195313,-0.578106689453125,6.043801879882813
2.2550000000000026,-7.28360595703125,-0.112152099609375,6.314761352539063
2.265000000000001,-6.623553466796875,0.26976318359375,6.875970458984376
2.275000000000002,-6.991561889648438,0.677099609375,7.26566162109375
2.284999999999904,-7.33145751953125,1.4330047607421876,6.603067016601563
2.2970000000000006,-6.395062255859376,2.016793823242188,6.244329833984375
2.305000000000004,-7.497891235351563,1.4259765625,6.880157470703126
2.3150000000000013,-6.695779418945313,0.2564544677734375,7.928555297851563
2.325000000000003,-6.791482543945313,-0.8127288818359376,6.859371948242188
2.335000000000001,-6.952532958984375,-1.4461639404296875,7.819992065429688
2.3450000000000024,-6.346163940429688,-1.7631805419921875,6.76322021484375
2.3550000000000004,-6.661236572265626,-1.9236328125,6.989468383789063
2.365000000000002,-7.265512084960938,-0.7373626708984375,7.206146240234376
2.374999999999904,-7.216165161132813,0.8598327636718751,6.671554565429688
2.3850000000000016,-6.953131103515625,1.7338714599609375,7.1944824218750005
2.397000000000002,-6.969131469726563,1.6834777832031251,6.264965820312501
2.405000000000001,-6.777426147460938,1.3703491210937502,7.29197998046875
2.4150000000000027,-6.914550781250001,1.178643798828125,7.345962524414063
2.4250000000000007,-7.082479858398438,0.241351318359375,6.804043579101563
2.4350000000000023,-6.654656982421876,-0.9583770751953126,6.354537963867188
2.4450000000000003,-6.866400146484375,-1.7880035400390626,7.2411376953125
2.455000000000002,-6.977505493164063,-1.6760009765625,7.972668457031251
2.4650000000000034,-6.804641723632813,-1.0735198974609377,7.127789306640626
2.4750000000000014,-6.742135620117188,-0.3074462890625,6.542953491210938
2.485000000000003,-6.659591674804688,0.5280120849609375,7.129284667968751
2.496000000000002,-6.657199096679688,1.1575592041015623,7.84287109375
2.5050000000000026,-6.3259765625,1.4527435302734375,7.985379028320313
2.515000000000001,-6.5329345703125,1.0501922607421876,6.9268127441406255
2.525000000000002,-7.786795043945313,0.6492858886718751,5.791085815429688
2.5340000000000025,-8.186505126953126,0.6105560302734375,4.99151611328125
2.543999999999901,-8.657394409179688,0.3997100830078125,4.398754882812501
2.554000000000002,-7.484732055664063,0.2068084716796875,6.002529907226563
2.564,-6.4013427734375,-0.045159912109375,7.144238281250001
2.5740000000000016,-5.813815307617188,-0.3826629638671875,9.466085815429688
2.584000000000003,-5.2828125,-0.337652587890625,9.512442016601565
2.594000000000001,-5.810375976562501,-0.5873779296875,8.403033447265626
2.6040000000000028,-6.748117065429688,-0.9441711425781252,7.183267211914063
2.6139999999999013,-7.451535034179688,-0.7895507812500001,5.902340698242188
2.6240000000000023,-8.120410156250001,-0.33555908203125,5.8319091796875
2.6340000000000003,-8.087960815429689,0.3983642578125,5.11832275390625
2.644000000000002,-6.93907470703125,1.2308319091796875,6.007165527343751
2.6540000000000035,-6.962850952148438,1.6178314208984377,7.001281738281251
2.664000000000001,-6.692788696289063,1.68018798828125,7.7794677734375
2.674000000000003,-6.466989135742188,1.65028076171875,7.150369262695313
2.684000000000001,-6.810324096679688,0.90977783203125,6.781015014648438
2.6940000000000026,-7.476657104492188,-0.3967193603515625,6.790435791015626
2.703999999999901,-6.773239135742188,-1.5299041748046875,6.908718872070313
2.714000000000002,-6.756042480468751,-1.9846435546875,7.264913940429688
2.724,-6.717163085937501,-1.926324462890625,8.027398681640626
2.7340000000000018,-6.241488647460938,-1.3280303955078123,7.616772460937501
2.744000000000004,-6.680227661132813,-0.258099365234375,6.804342651367188
2.7540000000000013,-7.316354370117188,1.275244140625,6.761575317382813
2.764000000000003,-7.422076416015625,2.38839111328125,6.216366577148438
2.773999999999901,-6.958963012695313,2.1186279296875004,6.773538208007813
2.7840000000000025,-7.084722900390625,1.3839569091796875,6.439474487304688
2.793999999999901,-6.88524169921875,0.66812744140625,7.542602539062501
2.804000000000002,-7.054067993164063,-0.09630126953125,6.7578369140625005
2.814,-6.739144897460938,-1.27703857421875,7.1137329101562505
2.8240000000000016,-6.767108154296875,-1.930810546875,6.482839965820313
2.834000000000003,-6.606805419921876,-1.73402099609375,8.125045776367188
2.844000000000001,-7.024758911132813,-0.816168212890625,7.62454833984375
2.8540000000000028,-6.772491455078126,0.214434814453125,6.630432128906251
2.8639999999999013,-6.760827636718751,0.9296661376953126,6.608001708984376
2.8740000000000023,-6.773687744140625,1.52706298828125,7.073956298828126
2.883999999999901,-6.917840576171876,1.495361328125,8.075100708007813
2.894000000000002,-6.5320373535156255,0.95643310546875,6.800753784179688
2.9040000000000035,-7.063189697265625,0.182733154296875,6.381903076171875
2.914000000000001,-7.763317871093751,-0.2911468505859375,5.803945922851563
2.924000000000003,-8.102017211914063,-0.3841583251953125,5.5859222412109375
2.934000000000001,-7.486077880859375,-0.247930908203125,5.786300659179688
2.9440000000000026,-6.9013916015625005,-0.1140960693359375,6.714620971679688
2.953999999999901,-5.93419189453125,0.1661346435546875,8.301348876953126
2.964000000000002,-6.10526123046875,0.4475616455078125,9.007159423828126
2.9739999999999007,-6.115878295898438,0.3545501708984375,8.494100952148438
2.9840000000000018,-6.540261840820313,0.129498291015625,6.448745727539063
2.994000000000004,-7.319943237304688,-0.289202880859375,6.361566162109376
3.0040000000000013,-7.649371337890625,-0.4777679443359375,6.197824096679688
3.014000000000003,-7.75972900390625,-0.4021026611328125,6.220254516601563
3.0230000000000032,-7.28958740234375,0.0076263427734375,6.0388671875
3.0330000000000013,-6.952682495117188,0.6177337646484375,5.9638000488281255
3.043000000000003,-7.059152221679688,1.2170745849609377,7.1932861328125
3.053000000000001,-5.897406005859375,1.5968963623046877,7.91524658203125
3.0630000000000024,-6.822735595703126,1.069033813476563,7.98941650390625
3.0730000000000004,-6.561495971679688,0.306549072265625,7.858422851562499
3.083000000000002,-7.1286865234375005,-0.4801605224609375,5.747570800781251
3.092999999999904,-7.714718627929688,-1.3364044189453126,6.933392333984376
3.103000000000001,-6.712527465820313,-1.5322967529296876,6.259283447265625
3.113000000000003,-6.6740966796875005,-1.5937561035156251,7.134817504882813
3.123000000000001,-6.8080810546875,-0.383111572265625,7.5043212890625
3.1330000000000027,-6.55386962890625,1.0498931884765623,7.4397216796875005
3.1430000000000007,-6.890625000000001,1.4690429687500002,7.97685546875
3.1530000000000022,-7.021469116210938,1.3878448486328123,5.996697998046876
3.1630000000000003,-7.204650878906251,1.0977447509765623,6.606954956054688
3.173000000000002,-7.282708740234375,0.8664123535156251,6.485382080078126
3.1830000000000034,-7.155453491210938,-0.0838897705078125,6.784304809570313
3.1930000000000014,-6.647927856445313,-0.9781158447265624,6.785351562500001
3.203000000000003,-6.449942016601563,-1.4002563476562502,7.706195068359375
3.213000000000001,-6.707592773437501,-1.1774475097656252,8.221945190429688
3.2230000000000025,-6.69443359375,-0.7804290771484376,7.274783325195313
3.2330000000000005,-6.861764526367188,-0.2842681884765625,6.506167602539063
3.243000000000002,-7.010403442382813,0.5061798095703125,6.738247680664063
3.253,-7.0090576171875005,1.038677978515625,7.282110595703125
3.2630000000000017,-6.612188720703125,1.2381591796875,7.167864990234375
3.2730000000000032,-6.6157775878906255,0.9538909912109376,7.164276123046876
3.2830000000000013,-7.559500122070313,0.6853240966796875,6.137710571289063
3.293000000000003,-7.901937866210938,0.6645385742187501,5.7380004882812505
3.303000000000001,-8.083624267578125,0.47911376953125,4.798464965820313
3.3130000000000024,-7.381851196289063,0.0788055419921875,6.211730957031251
3.3230000000000004,-6.323733520507813,-0.2872589111328125,7.311718750000001
3.333000000000002,-6.106906127929688,-0.5283111572265625,9.153106689453123
3.342999999999904,-5.743084716796876,-0.5598632812500001,9.134713745117187
3.353000000000001,-5.899649047851563,-0.5760131835937501,7.488470458984375
3.363000000000003,-6.813015747070313,-0.72076416015625,7.334149169921876
3.373000000000001,-7.526004028320313,-0.4230377197265625,6.1078033447265625
3.3830000000000027,-7.858422851562499,0.173760986328125,6.170309448242188
3.3930000000000007,-7.962051391601563,0.7734008789062501,5.1383605957031255
3.4030000000000022,-6.692639160156251,1.2538604736328125,6.0609985351562505
3.4130000000000003,-7.002029418945313,1.295281982421875,7.261325073242188
3.423000000000002,-7.114480590820313,1.2430938720703126,7.5497802734375
3.4330000000000034,-6.206497192382813,1.3058990478515626,6.903335571289063
3.4430000000000014,-7.018927001953125,0.5785552978515626,6.620413208007813
3.453000000000003,-7.240240478515625,-0.8088409423828126,7.775729370117188
3.463000000000001,-6.592001342773438,-1.6007843017578127,6.498092651367188
3.4730000000000025,-6.770547485351563,-1.779779052734375,8.349349975585938
3.4830000000000005,-6.590057373046876,-1.5639984130859377,7.164425659179688
3.493000000000002,-6.321640014648438,-0.8773284912109376,6.769650268554688
3.503,-7.61258544921875,0.2504730224609375,7.097732543945313
3.5130000000000017,-6.982739257812501,1.9227355957031247,6.328518676757813
3.5230000000000032,-7.489816284179688,2.259939575195313,6.655255126953126
3.532,-6.665274047851563,1.7008239746093752,6.539962768554688
3.5420000000000016,-6.810324096679688,0.898114013671875,7.3724304199218755
3.552000000000003,-7.074404907226563,0.2316314697265625,7.720849609375
3.562000000000001,-7.091003417968751,-0.5612091064453125,6.143692016601563
3.5720000000000027,-6.692489624023438,-1.5693817138671875,6.3271728515625005
3.5819999999999013,-6.869241333007813,-1.753460693359375,7.472171020507813
3.5920000000000023,-6.765014648437501,-1.3319183349609376,8.095437622070314
3.601999999999901,-6.869689941406251,-0.2714080810546875,7.462301635742188
3.612000000000002,-6.662283325195313,0.72315673828125,6.459661865234375
3.622000000000003,-6.712078857421876,1.2658233642578125,6.597683715820313
3.6320000000000014,-6.764117431640625,1.412518310546875,7.915097045898438
3.642000000000003,-6.736901855468751,1.0501922607421876,7.883096313476563
3.652000000000001,-6.818997192382813,0.4254302978515625,6.3833984375
3.6620000000000026,-7.63651123046875,0.0037384033203125,5.205801391601563
3.671999999999901,-8.321087646484376,-0.14654541015625,5.247671508789063
3.682000000000002,-8.002276611328126,-0.1281524658203125,5.780468750000001
3.6919999999999007,-6.9447570800781255,0.0497955322265625,6.5568603515625
3.7020000000000017,-6.059652709960938,0.090618896484375,8.001229858398439
3.7120000000000033,-5.695233154296876,0.1855743408203125,8.917138671875001
3.722000000000001,-5.847161865234376,0.2860626220703125,9.110488891601562
3.732000000000003,-6.677386474609375,-0.04605712890625,7.47501220703125
3.741999999999901,-7.116574096679688,-0.3739898681640625,5.859124755859376
3.7520000000000016,-7.700363159179688,-0.497357177734375,5.6587463378906255
3.761999999999901,-8.048483276367188,-0.4888336181640625,6.085821533203125
3.772000000000002,-7.0688720703125005,-0.045458984375,6.609197998046875
3.782,-6.570169067382813,0.442327880859375,6.651516723632813
3.7920000000000016,-6.816156005859376,0.8886932373046875,7.297811889648438
3.802000000000003,-7.180725097656251,1.610354614257813,6.753051757812501
3.812000000000001,-6.341976928710938,1.81656494140625,6.983786010742188
3.8220000000000014,-7.329663085937501,0.9153106689453124,6.90677490234375
3.831999999999901,-6.755743408203125,-0.108563232421875,7.57310791015625
3.8420000000000014,-7.068423461914063,-0.90499267578125,6.591403198242188
3.851999999999901,-7.039862060546875,-1.5731201171875002,7.583425903320313
3.862000000000002,-6.268106079101563,-1.6719635009765623,6.954776000976563
3.872000000000003,-6.636563110351563,-1.681982421875,7.272390747070313
3.8820000000000014,-7.045993041992188,-0.3002685546875,7.118817138671876
3.892000000000003,-7.162780761718751,1.3127777099609377,6.897802734375
3.902000000000001,-7.163229370117188,1.7764892578125002,7.051675415039063
3.9120000000000026,-6.878363037109375,1.5529327392578127,5.872433471679688
3.921999999999901,-6.941168212890625,1.221112060546875,7.357177734375001
3.932000000000002,-6.907522583007813,0.916357421875,7.312316894531251
3.9419999999999007,-6.964645385742188,-0.1272552490234375,6.912457275390626
3.9520000000000017,-6.6083007812500005,-1.289898681640625,6.768453979492188
3.961000000000002,-6.784902954101563,-1.855593872070313,7.238595581054688
3.972000000000001,-7.011151123046876,-1.461865234375,7.886685180664063
3.982000000000003,-6.871035766601563,-0.7774383544921876,6.978851318359376
3.992000000000001,-6.70340576171875,-0.16448974609375,6.4168945312500005
4.002000000000002,-6.662432861328125,0.7751953125000001,7.254296875
4.011999999999901,-6.747817993164063,1.3899383544921875,7.8727783203125
4.021000000000001,-6.619216918945313,1.4839965820312502,7.602566528320313
4.031000000000002,-6.636114501953125,1.0786041259765626,6.656900024414063
4.042000000000002,-7.832254028320313,0.5758636474609375,5.420236206054688
4.051000000000002,-8.189645385742189,0.383709716796875,5.4179931640625005
4.060999999999904,-8.275030517578125,0.2863616943359375,4.8397369384765625
4.0710000000000015,-7.293026733398438,-0.0468048095703125,6.414801025390625
4.081000000000003,-6.123504638671875,-0.3470733642578125,7.341625976562501
4.091000000000001,-5.567080688476563,-0.4484588623046875,9.630874633789062
4.101000000000003,-5.8191986083984375,-0.4867401123046875,9.528741455078126
4.111000000000001,-5.9373321533203125,-0.4366455078125,7.749710083007813
4.121000000000002,-7.017431640625,-0.5760131835937501,6.530242919921876
4.131,-7.673446655273438,-0.4526458740234375,5.78465576171875
4.141000000000002,-7.945751953125001,0.0366363525390625,6.082531738281251
4.151000000000003,-7.852590942382813,0.686370849609375,5.506817626953126
4.161000000000001,-7.075152587890625,1.2477294921875002,5.929705810546875
4.171000000000003,-6.88583984375,1.6365234375000002,6.562094116210938
4.181000000000001,-7.036123657226563,1.5442596435546876,7.581332397460938
4.1910000000000025,-6.006716918945313,1.30933837890625,7.464096069335938
4.2010000000000005,-7.106106567382813,0.342138671875,7.422525024414063
4.211000000000002,-6.6764892578125,-0.8732910156250001,7.64488525390625
4.221,-6.847259521484376,-1.7186187744140626,6.0704193115234375
4.231000000000002,-7.111938476562501,-2.1256561279296875,8.368939208984376
4.241000000000003,-6.537570190429688,-1.89791259765625,6.981842041015626
4.251000000000001,-6.490615844726563,-0.95284423828125,6.5568603515625
4.261000000000003,-7.591949462890626,0.6996795654296876,6.525457763671875
4.271000000000001,-6.81705322265625,2.3604278564453125,7.133023071289063
4.281000000000002,-7.153659057617188,2.352651977539063,7.175790405273438
4.291,-6.538467407226563,1.6528228759765626,6.546542358398438
4.301000000000002,-7.095938110351563,0.92413330078125,7.239193725585938
4.311,-7.215567016601563,0.4155609130859375,7.144387817382813
4.3210000000000015,-7.296615600585938,-0.8634216308593751,5.949444580078126
4.331000000000003,-6.648825073242188,-2.0876739501953128,6.259732055664063
4.341000000000001,-6.7662109375,-1.9826995849609377,8.136111450195314
4.351000000000003,-6.656451416015625,-1.15262451171875,8.27652587890625
4.361000000000001,-6.637161254882813,-0.082843017578125,7.154855346679688
4.371000000000002,-6.740939331054688,0.6317901611328125,6.714321899414063
4.381,-6.673797607421876,1.319207763671875,6.790585327148438
4.391000000000002,-6.938327026367188,1.5053802490234376,7.73221435546875
4.401000000000003,-6.682470703125,1.1342315673828125,7.509704589843751
4.411000000000001,-6.860568237304688,0.32359619140625,6.257339477539063
4.420000000000002,-7.724438476562501,-0.11005859375,5.549285888671875
4.430000000000003,-8.383593750000001,0.028411865234375,5.24273681640625
4.440000000000001,-8.094091796875,0.0414215087890625,5.559304809570313
4.450000000000003,-6.688003540039063,0.166583251953125,6.215469360351563
4.459999999999901,-5.981594848632813,0.042169189453125,8.271441650390626
4.471,-5.884097290039063,0.078656005859375,9.578237915039065
4.479999999999901,-5.7115325927734375,0.2017242431640625,9.0810302734375
4.490000000000002,-6.501382446289063,-0.1804901123046875,6.806735229492188
4.5,-7.339682006835938,-0.6465942382812501,5.984585571289063
4.510000000000002,-7.645632934570313,-0.6054718017578126,6.0113525390625
4.520000000000003,-8.076446533203125,-0.4055419921875,6.189450073242188
4.530000000000001,-7.136312866210938,0.085235595703125,6.358724975585938
4.540000000000003,-6.441717529296875,0.70880126953125,6.318051147460938
4.549999999999901,-6.71776123046875,1.05572509765625,7.893115234375
4.560000000000002,-7.2172119140625,1.517193603515625,7.067077636718751
4.569999999999901,-6.673199462890626,1.5877746582031251,6.756341552734376
4.580000000000002,-6.68546142578125,0.8903381347656251,6.025408935546875
4.590000000000003,-7.509854125976563,-0.248828125,7.361514282226563
4.600000000000001,-7.154705810546876,-0.9416290283203126,7.303643798828125
4.610000000000003,-6.887185668945313,-1.4135650634765626,7.263867187500001
4.620000000000001,-6.235058593750001,-1.4974548339843752,7.279418945312501
4.630000000000003,-6.13516845703125,-1.437939453125,7.108947753906251
4.639999999999901,-7.123602294921875,-0.7032684326171875,8.225234985351562
4.650000000000002,-7.212725830078125,1.2762908935546875,6.634619140625
4.659999999999901,-7.514041137695313,2.109954833984375,5.5376220703125005
4.670000000000002,-6.9985900878906255,1.6514770507812502,6.4438110351562505
4.680000000000003,-6.969729614257813,0.9802093505859376,7.013693237304688
4.690000000000001,-6.83798828125,0.6231170654296876,8.170504760742189
4.700000000000003,-6.746023559570313,0.095703125,6.818997192382813
4.710000000000001,-6.448895263671876,-1.1276519775390623,6.700115966796876
4.720000000000002,-6.809875488281251,-1.899557495117188,7.161285400390626
4.729999999999901,-7.225585937500001,-1.6549163818359376,7.6550537109375005
4.740000000000002,-7.062442016601563,-0.6193786621093751,7.416992187500001
4.7499999999999005,-6.690545654296876,0.1595550537109375,5.832955932617188
4.760000000000002,-6.706396484375,0.7901489257812501,6.791333007812501
4.770000000000003,-6.658245849609376,1.3594329833984375,8.361013793945313
4.780000000000001,-6.629833984375001,1.502838134765625,8.025155639648439
4.790000000000003,-6.60411376953125,1.137820434570313,6.525009155273438
4.799999999999901,-7.412356567382813,0.4681976318359375,5.225241088867188
4.810000000000002,-8.259329223632813,0.03887939453125,5.869891357421875
4.819999999999901,-8.218655395507813,-0.088824462890625,5.498294067382813
4.830000000000002,-7.450637817382813,-0.163592529296875,5.723645019531251
4.840000000000003,-6.264218139648438,-0.30804443359375,7.119564819335938
4.850000000000001,-5.622409057617188,-0.284417724609375,8.979196166992189
4.860000000000003,-5.879461669921875,-0.2872589111328125,10.196270751953126
4.870000000000001,-5.973968505859375,-0.2471832275390625,8.084820556640626
4.880000000000003,-6.69383544921875,-0.224603271484375,6.149075317382813
4.889999999999901,-7.750906372070313,-0.22430419921875,5.695382690429688
4.900000000000002,-8.204299926757812,0.008673095703125,5.749365234375
4.909999999999901,-7.767654418945313,0.431561279296875,6.164328002929688
4.920000000000002,-7.024011230468751,0.890936279296875,5.6177734375
4.929000000000002,-6.943112182617188,1.2432434082031252,6.329864501953126
4.940000000000001,-6.629534912109375,1.5566711425781252,7.682717895507813
4.949000000000002,-6.344219970703126,1.358685302734375,8.169009399414064
4.959000000000003,-7.016384887695313,0.2292388916015625,7.729074096679688
4.969000000000001,-6.337640380859376,-0.8477203369140626,6.481344604492188
4.979000000000003,-6.935336303710938,-1.6114013671875,7.496694946289063
4.990000000000002,-7.294223022460938,-1.953390502929688,7.436880493164063
4.999000000000002,-6.601272583007813,-1.7669189453125,6.401043701171876
5.009,-7.118667602539063,-0.73392333984375,6.269451904296876
5.019000000000002,-7.005319213867188,1.2884033203125,6.838436889648438
5.029000000000004,-7.10416259765625,2.2047607421875,7.570416259765626
5.0390000000000015,-6.688900756835938,1.890435791015625,7.567276000976563
5.049000000000003,-6.5688232421875,1.443023681640625,6.824530029296875
5.059000000000001,-7.123153686523438,0.96600341796875,6.735256958007813
5.069000000000003,-7.486825561523438,0.0459075927734375,6.3893798828125
5.079000000000001,-7.0712646484375,-1.378125,6.6083007812500005
5.089000000000002,-6.721499633789063,-1.9804565429687504,6.622357177734376
5.099,-6.5748046875,-1.6179809570312502,7.983135986328126
5.109000000000002,-6.672900390625,-0.7579986572265626,8.148822021484376
5.119000000000003,-6.625198364257813,-0.0007476806640625,7.299905395507813
5.129000000000001,-6.765762329101563,0.8199066162109375,6.422128295898438
5.139000000000003,-6.739743041992188,1.5049316406250002,7.067376708984376
5.149000000000001,-6.882699584960938,1.380517578125,7.850497436523438
5.1590000000000025,-6.52994384765625,0.781475830078125,7.139154052734376
5.1690000000000005,-7.2243896484375005,0.1182830810546875,6.00836181640625
5.179000000000002,-8.273385620117189,-0.0082244873046875,5.254550170898438
5.189,-8.420529174804688,0.30086669921875,4.811474609375001
5.199000000000002,-7.694531250000001,0.313128662109375,5.523715209960938
5.209000000000003,-6.1501220703125,-0.024822998046875,7.543649291992188
5.219000000000001,-5.582632446289063,-0.1520782470703125,9.290380859375
5.229000000000003,-6.012399291992188,0.0587677001953125,9.657342529296876
5.239000000000001,-6.038717651367188,0.2077056884765625,7.5757995605468755
5.249000000000002,-6.910662841796875,-0.2968292236328125,6.113485717773438
5.259,-7.4636474609375005,-0.8155700683593751,6.364108276367188
5.269000000000002,-7.725933837890626,-0.7346710205078125,6.263619995117188
5.279000000000004,-7.798458862304688,-0.1239654541015625,6.319696044921876
5.2890000000000015,-7.082031250000001,0.674407958984375,5.554071044921876
5.299000000000003,-6.809277343750001,1.1879150390625002,6.229226684570313
5.309000000000001,-7.204351806640625,1.5511383056640626,7.515237426757813
5.319000000000003,-6.011053466796875,1.827780151367188,7.891918945312501
5.329000000000001,-6.892419433593751,1.200177001953125,7.563687133789063
5.339000000000002,-6.560897827148438,0.04725341796875,7.106405639648438
5.349,-6.953729248046876,-1.155615234375,6.716714477539063
5.359000000000002,-7.954125976562499,-2.0126068115234377,7.451385498046876
5.369000000000003,-6.51439208984375,-1.87099609375,6.058605957031251
5.379000000000001,-6.319696044921876,-1.4958099365234376,6.343173217773438
5.389000000000003,-6.995150756835938,-0.03050537109375,7.947994995117188
5.398000000000003,-7.043600463867188,1.3343109130859376,8.144784545898439
5.4090000000000025,-6.705349731445313,1.8467712402343752,7.1334716796875
5.418000000000003,-6.911410522460938,1.7883026123046877,5.818002319335938
5.427999999999901,-7.126293945312501,1.140811157226563,6.663330078125001
5.438000000000002,-7.311270141601563,0.4852447509765625,7.108648681640625
5.447999999999901,-7.223641967773438,-0.5154510498046876,6.896606445312501
5.458000000000002,-6.377267456054688,-1.2532623291015623,6.387884521484375
5.4679999999999005,-6.482241821289063,-1.6848236083984376,7.503125000000001
5.4780000000000015,-6.87926025390625,-1.4256774902343752,8.616720581054688
5.488000000000003,-6.776828002929688,-0.733624267578125,7.379159545898438
5.498000000000001,-6.8146606445312505,0.164788818359375,6.164178466796876
5.508000000000003,-6.944009399414063,1.0735198974609377,6.401193237304688
5.517999999999901,-6.956570434570313,1.36376953125,7.291680908203125
5.528000000000002,-6.609048461914063,1.2828704833984377,7.930349731445313
5.537999999999901,-6.690097045898438,0.8815155029296876,6.924420166015626
5.548000000000002,-7.746719360351563,0.4888336181640625,5.57530517578125
5.558000000000003,-7.614080810546875,0.4041961669921875,5.5089111328125
5.568000000000001,-8.117868041992189,-0.087628173828125,5.448199462890625
5.578000000000003,-7.086666870117188,-0.4012054443359375,7.016235351562501
5.588000000000001,-6.348706054687501,-0.2917449951171875,7.156350708007813
5.5980000000000025,-6.0569610595703125,-0.253314208984375,8.897250366210939
5.607999999999901,-5.851797485351563,-0.1574615478515625,8.377911376953126
5.618000000000002,-6.219058227539063,-0.3467742919921875,8.094540405273438
5.627999999999901,-6.986477661132813,-0.3457275390625,6.958963012695313
5.638000000000002,-7.520172119140626,0.051141357421875,5.677737426757813
5.648000000000003,-8.135214233398438,0.3541015625,5.655157470703125
5.658000000000001,-7.594342041015626,0.641510009765625,5.5320892333984375
5.668000000000003,-6.714022827148438,0.7793823242187501,6.840829467773438
5.678000000000001,-6.863858032226563,0.92054443359375,7.146780395507813
5.688000000000002,-7.218557739257813,1.014154052734375,7.146929931640625
5.697999999999901,-5.9866790771484375,1.2063079833984376,6.735256958007813
5.708000000000002,-7.0344787597656255,0.3389984130859375,7.102218627929688
5.7179999999999005,-6.9731689453125005,-0.7565032958984376,8.46673583984375
5.7280000000000015,-6.987673950195313,-1.15142822265625,6.2210021972656255
5.738000000000003,-6.866101074218751,-1.3124786376953126,7.590902709960938
5.748000000000001,-6.588113403320313,-1.1922515869140626,6.758584594726563
5.758000000000003,-6.554766845703125,-0.9428253173828126,7.002328491210938
5.767999999999901,-7.485330200195313,0.13817138671875,7.359420776367188
5.778000000000002,-6.793576049804688,1.83450927734375,6.599926757812501
5.7890000000000015,-7.220950317382813,1.9740264892578123,6.653460693359375
5.798000000000002,-6.698620605468751,1.13826904296875,6.691293334960938
5.808000000000003,-6.924868774414063,0.4894317626953125,7.438076782226563
5.818000000000001,-7.22020263671875,0.3401947021484375,7.540359497070313
5.828000000000003,-6.966290283203126,-0.2187713623046875,5.759982299804688
5.838000000000001,-6.714920043945313,-1.3479187011718752,6.545944213867188
5.8480000000000025,-6.858624267578126,-1.6351776123046875,7.833001708984375
5.857000000000003,-6.777426147460938,-0.93011474609375,7.911807250976563
5.867000000000001,-6.824230957031251,0.080450439453125,7.355532836914063
5.877000000000002,-6.768753051757813,0.5866302490234375,6.073858642578125
5.889000000000003,-6.659741210937501,0.8172149658203126,6.909765625
5.898000000000003,-6.843222045898438,0.9927703857421876,8.116372680664064
5.907,-6.657348632812501,0.8185607910156251,7.855731201171875
5.917000000000002,-6.65555419921875,0.278436279296875,6.204852294921875
5.927000000000003,-7.446899414062501,-0.173760986328125,5.587417602539063
5.937000000000001,-8.278170776367189,-0.092413330078125,5.794674682617188
5.947000000000003,-8.109494018554688,0.2621368408203125,5.734112548828126
5.957000000000001,-7.090554809570313,0.4924224853515625,6.026007080078125
5.967000000000002,-6.0121002197265625,0.363970947265625,7.377514648437501
5.977,-6.09808349609375,0.2552581787109375,8.9685791015625
5.988000000000003,-6.104364013671876,0.3548492431640625,9.219201660156251
5.997000000000003,-6.524111938476563,0.0557769775390625,7.127340698242188
6.0070000000000014,-6.929653930664063,-0.5701812744140625,5.854788208007813
6.017000000000003,-7.437777709960938,-0.9036468505859376,6.157449340820313
6.027000000000001,-7.934088134765625,-0.8537017822265626,6.932644653320313
6.037000000000003,-7.060946655273438,-0.1625457763671875,6.589010620117188
6.047000000000001,-6.655853271484376,0.4047943115234375,6.133673095703125
6.057000000000002,-6.469680786132813,0.8115325927734376,7.531536865234376
6.067,-6.613385009765626,1.337750244140625,7.870236206054688
6.077000000000002,-7.447946166992188,1.359133911132813,7.315606689453125
6.088000000000001,-7.088162231445313,1.2481781005859376,5.100677490234375
6.097000000000001,-7.331158447265626,0.7086517333984376,5.020675659179688
6.107000000000003,-7.93558349609375,0.009869384765625,7.115826416015626
6.117000000000001,-6.420632934570313,-0.549993896484375,8.068072509765626
6.127000000000002,-6.065185546875,-1.3396942138671877,8.034725952148438
6.1370000000000005,-6.052774047851563,-1.6459442138671876,8.395855712890626
6.147000000000002,-6.169711303710938,-1.380068969726563,8.160934448242188
6.157,-7.310671997070313,-0.7514190673828125,6.720901489257813
6.167000000000002,-7.8632080078125,0.404644775390625,4.928561401367188
6.177000000000003,-7.592098999023438,1.7183197021484375,5.415301513671875
6.188000000000002,-7.431646728515625,2.1456939697265627,6.956420898437501
6.197000000000003,-6.460858154296876,1.5518859863281251,7.751504516601563
6.207000000000001,-6.067727661132813,0.7873077392578126,8.280862426757814
6.217000000000002,-6.288143920898438,0.1389190673828125,7.762271118164063
6.227,-7.008609008789063,-0.850262451171875,6.825277709960938
6.237000000000002,-7.456768798828126,-1.8532012939453129,6.335995483398438
6.247000000000003,-7.374075317382813,-2.0528320312500004,6.261676025390625
6.256999999999902,-7.015936279296875,-1.2438415527343751,6.530691528320313
6.267000000000003,-6.699368286132813,-0.0743194580078125,7.556808471679688
6.277000000000001,-6.380557250976563,0.820355224609375,8.069717407226562
6.2890000000000015,-6.231320190429688,1.4509490966796876,7.775729370117188
6.297000000000001,-6.5353271484375,1.7536102294921876,7.431646728515625
6.307000000000002,-6.959710693359376,1.4650054931640626,6.905429077148438
6.317,-7.512097167968751,0.5087219238281251,6.050680541992188
6.327000000000002,-7.822833251953125,-0.1882659912109375,5.3297668457031255
6.337000000000003,-8.328265380859376,-0.417205810546875,5.08721923828125
6.346999999999902,-7.81834716796875,-0.168377685546875,5.598333740234375
6.356000000000002,-6.691741943359376,0.064898681640625,6.659890747070313
6.366000000000003,-5.820843505859376,-0.1143951416015625,8.813360595703125
6.376000000000001,-5.474368286132813,-0.088525390625,9.506011962890623
6.386000000000003,-5.833255004882813,0.00657958984375,9.29337158203125
6.397000000000002,-6.607403564453126,-0.1299468994140625,6.924270629882813
6.406000000000002,-7.219903564453125,-0.4367950439453125,5.778524780273438
6.415999999999901,-8.013641357421875,-0.5363861083984376,5.469284057617188
6.426000000000002,-8.130429077148438,-0.09151611328125,5.9747161865234375
6.4359999999999005,-7.684213256835938,0.7393066406250001,5.6108947753906255
6.4460000000000015,-6.950289916992188,1.362124633789063,6.00357666015625
6.457000000000001,-6.526205444335938,1.5044830322265623,7.184613037109376
6.466000000000001,-6.0580078125000005,1.50672607421875,8.315255737304689
6.476000000000003,-6.68785400390625,0.9166564941406252,8.587112426757812
6.485999999999901,-6.756491088867188,-0.131591796875,7.023712158203126
6.496000000000002,-6.916195678710938,-1.1566619873046875,5.520724487304688
6.505999999999901,-7.277923583984376,-1.8279296875,7.120162963867188
6.516000000000002,-7.487124633789063,-1.8460235595703127,7.341925048828125
6.526000000000003,-6.583627319335938,-1.176251220703125,6.9540283203125
6.536000000000001,-6.43125,0.007177734375,6.504522705078125
6.546000000000003,-6.576748657226563,1.2999176025390626,7.658343505859375
6.556000000000001,-7.099826049804688,1.9680450439453123,8.138653564453126
6.5660000000000025,-7.208987426757813,1.7751434326171875,6.741537475585938
6.575999999999901,-6.907971191406251,1.155914306640625,5.917593383789063
6.586000000000002,-7.030142211914063,0.28232421875,6.0479888916015625
6.595999999999901,-7.433291625976563,-0.6616973876953125,7.212875366210938
6.606000000000002,-6.974215698242188,-1.2955810546875002,7.431347656250001
6.616000000000003,-6.404782104492188,-1.4198455810546875,6.995300292968751
6.626000000000001,-6.31700439453125,-1.1264556884765626,7.50133056640625
6.636000000000003,-6.900643920898438,-0.4329071044921875,7.825375366210938
6.646000000000001,-6.960757446289063,0.3337646484375,7.636660766601563
6.656000000000002,-6.794323730468751,0.988134765625,6.150421142578126
6.665999999999901,-6.862811279296875,1.2692626953125,6.447998046875001
6.676000000000002,-6.887484741210938,1.0376312255859377,7.282260131835938
6.6859999999999005,-6.752603149414063,0.47911376953125,7.551724243164063
6.6960000000000015,-7.403384399414063,-0.000299072265625,6.495999145507813
6.706000000000003,-7.896554565429688,-0.0490478515625,4.9514404296875005
6.716000000000001,-7.917340087890626,0.139068603515625,5.119070434570313
6.726000000000003,-6.878363037109375,0.1511810302734375,6.919784545898438
6.736000000000001,-6.459213256835938,-0.1640411376953125,8.288787841796875
6.746000000000002,-5.908770751953125,0.0562255859375,8.601467895507813
6.755999999999901,-6.393417358398438,0.480609130859375,7.526303100585938
6.766000000000002,-6.549234008789063,0.493170166015625,6.868643188476563
6.776000000000003,-7.216763305664063,-0.16090087890625,6.784753417968751
6.786000000000001,-7.322933959960938,-0.7168762207031251,6.918588256835938
6.796000000000003,-7.3111206054687505,-0.4792633056640625,6.287844848632813
6.806000000000001,-7.293774414062501,-0.0803009033203125,6.177487182617188
6.815000000000001,-6.644338989257813,0.26378173828125,6.53592529296875
6.825000000000003,-7.087265014648438,0.3578399658203125,7.135565185546875
6.836000000000002,-7.041656494140626,1.0023406982421876,7.2019592285156255
6.845000000000002,-6.596487426757813,1.6598510742187502,6.388183593750001
6.855,-7.414749145507813,1.3808166503906252,6.744677734375
6.865000000000002,-6.6681152343750005,0.4868896484375,7.387084960937501
6.876000000000001,-6.903485107421876,-0.6676788330078125,7.2865966796875
6.884999999999902,-6.939822387695313,-1.2788330078125,8.103961181640626
6.895000000000003,-6.033782958984375,-1.5349884033203127,6.72135009765625
6.905000000000001,-6.786099243164063,-1.7094970703125,6.664675903320313
6.915000000000003,-7.437030029296875,-0.509918212890625,6.9635986328125
6.925000000000001,-7.331008911132813,0.8900390625000001,6.82303466796875
6.935000000000002,-7.019076538085938,1.447509765625,7.170855712890625
6.945,-6.691891479492188,1.3630218505859375,6.166870117187501
6.955000000000002,-6.678582763671876,1.1221191406250002,7.510751342773438
6.965000000000003,-6.948345947265626,0.937890625,7.982238769531251
6.975000000000001,-7.050479125976563,0.0949554443359375,6.47850341796875
6.985000000000003,-6.722097778320313,-0.8764312744140625,6.106756591796875
6.995000000000001,-7.066778564453125,-1.4765197753906252,6.949841308593751
7.005000000000003,-6.970925903320313,-1.3316192626953125,8.072558593750001
7.015000000000001,-6.710882568359375,-0.8365051269531251,7.367495727539063
7.025000000000002,-6.6705078125,-0.204864501953125,6.5963378906250005
7.035,-6.650320434570313,0.64898681640625,7.009506225585938
7.045000000000002,-6.723593139648438,1.060211181640625,7.761074829101563
7.055000000000003,-6.533682250976563,1.1233154296875,7.942013549804688
7.065000000000001,-6.617272949218751,0.7313812255859375,6.800305175781251
7.075000000000003,-7.565032958984376,0.4738800048828125,5.67938232421875
7.085000000000001,-8.116671752929689,0.549993896484375,5.405731201171875
7.095000000000002,-8.590850830078125,0.5057312011718751,4.655657958984375
7.105,-7.311270141601563,0.416009521484375,6.040213012695313
7.115000000000002,-6.390277099609375,0.122918701171875,6.991711425781251
7.125,-5.899349975585938,-0.171368408203125,9.461151123046877
7.135000000000002,-5.5687255859375,-0.326287841796875,9.416589355468751
7.145000000000003,-5.881704711914063,-0.569134521484375,7.998837280273438
7.155000000000001,-6.882699584960938,-0.90738525390625,6.957467651367188
7.165000000000003,-7.515686035156251,-0.8572906494140625,5.806637573242188
7.175000000000001,-7.92601318359375,-0.411224365234375,6.193637084960938
7.185000000000002,-7.746719360351563,0.278436279296875,5.544201660156251
7.195,-6.860867309570313,1.0823425292968751,6.201712036132813
7.205000000000002,-6.915597534179688,1.5828399658203127,7.052273559570313
7.215000000000003,-6.913204956054688,1.7721527099609375,7.340728759765626
7.224999999999902,-6.708190917968751,1.6927490234375002,6.838735961914063
7.235000000000003,-6.923373413085938,1.023126220703125,6.473419189453126
7.245000000000001,-7.439422607421876,-0.2352203369140625,7.081433105468751
7.255000000000003,-6.612936401367188,-1.4196960449218752,7.218707275390625
7.265000000000001,-6.571514892578126,-1.9829986572265623,7.696624755859376
7.275000000000002,-6.56583251953125,-2.11444091796875,7.966986083984375
7.285,-6.175543212890625,-1.5930084228515626,7.150817871093751
7.293999999999901,-7.204052734375001,-0.335858154296875,6.903335571289063
7.305000000000003,-7.409963989257813,1.462762451171875,6.271096801757813
7.313999999999901,-7.375271606445313,2.4206909179687504,6.271395874023438
7.324000000000002,-7.059750366210938,2.102926635742188,6.851147460937501
7.334000000000003,-6.728527832031251,1.5508392333984375,7.054815673828125
7.344000000000001,-6.830361938476563,0.7880554199218751,7.624847412109376
7.354000000000003,-6.839334106445313,-0.254510498046875,6.912905883789063
7.364000000000001,-6.792230224609376,-1.6021301269531252,6.840530395507813
7.374000000000002,-7.01444091796875,-2.0607574462890628,6.501681518554688
7.383999999999901,-6.983187866210938,-1.7118896484375,7.664624023437501
7.394000000000002,-6.9103637695312505,-0.8202056884765626,7.296615600585938
7.4040000000000035,-6.629086303710938,0.2160797119140625,6.973916625976563
7.4140000000000015,-6.687106323242188,1.1357269287109375,7.01683349609375
7.424000000000003,-6.611141967773438,1.7450866699218752,7.623800659179688
7.434000000000001,-6.656301879882813,1.5556243896484376,7.780215454101563
7.444000000000003,-6.501083374023438,0.7587463378906251,6.866549682617188
7.453999999999901,-7.1541076660156255,-0.0610107421875,6.28470458984375
7.464000000000002,-8.181121826171875,-0.414215087890625,5.7474212646484375
7.473999999999901,-8.412603759765625,-0.3817657470703125,4.970132446289063
7.484000000000002,-7.610491943359375,-0.064898681640625,5.052975463867188
7.494000000000003,-6.660040283203125,0.1544708251953125,6.940270996093751
7.504000000000001,-5.8072357177734375,0.3201568603515625,9.150265502929688
7.514000000000003,-5.8127685546875005,0.5486480712890626,9.647323608398438
7.524000000000001,-5.899499511718751,0.46416015625,8.1957763671875
7.534000000000002,-6.641796875000001,-0.0073272705078125,6.262124633789063
7.543999999999901,-7.490264892578126,-0.581695556640625,6.247021484375001
7.554000000000002,-8.081979370117189,-0.8468231201171875,6.045147705078126
7.563999999999901,-7.855880737304688,-0.6051727294921876,5.904733276367188
7.574000000000002,-7.009655761718751,0.0985443115234375,5.886489868164063
7.584000000000003,-6.473718261718751,0.6059204101562501,6.955673217773438
7.594000000000001,-6.487774658203126,1.0524353027343751,8.330957031250001
7.604000000000003,-7.127340698242188,1.4626129150390623,7.492507934570313
7.614000000000001,-6.307882690429688,1.592410278320313,6.472671508789063
7.624000000000002,-7.129583740234375,0.8958709716796875,5.8366943359375005
7.633999999999901,-7.562939453125001,-0.28172607421875,7.752850341796876
7.644000000000002,-7.286447143554688,-1.0744171142578125,6.546691894531251
7.6540000000000035,-6.889727783203125,-1.47921142578125,7.249212646484375
7.6640000000000015,-5.9877258300781255,-1.4496032714843752,7.260427856445313
7.674000000000003,-6.123654174804688,-1.31771240234375,7.398599243164063
7.684000000000001,-7.3440185546875005,-0.4128692626953125,8.434884643554689
7.694000000000003,-6.947598266601563,1.4153594970703125,6.4542785644531255
7.704000000000001,-7.433291625976563,2.0015411376953125,5.445956420898438
7.714000000000002,-7.2288757324218755,1.606915283203125,6.180328369140626
7.723999999999901,-7.176837158203125,0.9174041748046876,7.1908935546875
7.734000000000002,-6.704901123046875,0.5909667968750001,8.122952270507813
7.744000000000003,-6.572113037109376,-0.14295654296875,6.722994995117188
7.754000000000001,-6.367248535156251,-1.3609283447265623,6.8774658203125005
7.763000000000002,-6.9582153320312505,-1.8104339599609376,7.712924194335938
7.774000000000001,-7.358224487304688,-1.4561828613281251,7.320840454101563
7.783000000000001,-6.851446533203125,-0.5374328613281251,6.764566040039063
7.793000000000003,-6.728228759765625,0.1679290771484375,6.050830078125
7.803000000000001,-6.851895141601563,0.9440216064453124,7.368841552734375
7.813000000000002,-6.713125610351563,1.4174530029296877,8.284451293945313
7.823,-6.4755126953125,1.4904266357421876,7.524060058593751
7.833000000000002,-6.5619445800781255,0.9748260498046876,6.511102294921876
7.843,-7.392767333984375,0.2083038330078125,5.717364501953125
7.8530000000000015,-8.111886596679689,-0.0955535888671875,6.393865966796875
7.863000000000003,-8.31361083984375,-0.2196685791015625,5.121014404296876
7.873000000000001,-7.520620727539063,-0.084637451171875,5.1189208984375005
7.883000000000003,-6.278872680664063,0.0094207763671875,7.021319580078125
7.893000000000001,-6.115280151367188,-0.1327880859375,9.148321533203124
7.903000000000002,-5.56334228515625,-0.036187744140625,10.132867431640626
7.913,-5.809927368164063,0.057122802734375,7.8464599609375005
7.923000000000002,-6.831857299804688,-0.13099365234375,6.459213256835938
7.933000000000003,-7.553967285156251,-0.2836700439453125,5.875573730468751
7.942999999999902,-8.222991943359375,-0.396868896484375,5.942117309570313
7.953000000000003,-7.692886352539063,-0.0035888671875,6.007165527343751
7.963000000000001,-7.1122375488281255,0.610107421875,5.604464721679688
7.973000000000002,-6.7243408203125,1.0853332519531251,7.049880981445313
7.983,-6.494952392578125,1.2392059326171876,7.961004638671875
7.993000000000002,-6.844418334960938,1.059014892578125,7.716961669921876
8.003,-6.440371704101563,0.844281005859375,6.597683715820313
8.013000000000002,-6.910513305664063,0.2045654296875,5.92880859375
8.023000000000003,-7.769598388671875,-0.530853271484375,7.291680908203125
8.032999999999902,-7.097732543945313,-1.0343414306640626,6.9686828613281255
8.043000000000003,-6.587066650390626,-1.065594482421875,7.101321411132813
8.053,-6.842175292968751,-0.9972564697265626,7.702755737304688
8.063000000000002,-5.893667602539063,-0.8900390625000001,7.915695190429688
8.073,-6.522766113281251,-0.260491943359375,7.432095336914063
8.083000000000002,-7.622305297851563,1.0382293701171876,6.417492675781251
8.093,-7.42716064453125,1.985690307617188,6.00238037109375
8.103000000000002,-7.300354003906251,1.30694580078125,6.453231811523438
8.113000000000003,-6.7961181640625,0.4047943115234375,6.600375366210938
8.122999999999902,-6.688601684570313,0.1425079345703125,7.602267456054688
8.133000000000003,-6.8702880859375,0.15133056640625,7.885189819335938
8.143,-6.543850708007813,-0.6660339355468751,7.082778930664063
8.153000000000002,-6.8131652832031255,-1.5628021240234375,6.450689697265625
8.163,-6.910812377929688,-1.202569580078125,7.385589599609376
8.173000000000002,-7.25908203125,-0.2280426025390625,7.214520263671876
8.183000000000003,-7.045843505859375,0.4442718505859375,6.692788696289063
8.193000000000001,-6.503176879882813,0.5621063232421876,6.449942016601563
8.203000000000003,-6.447250366210938,0.7452880859375001,7.604959106445313
8.213000000000001,-6.693386840820313,0.95643310546875,8.627038574218751
8.223000000000003,-6.434988403320313,0.66693115234375,7.251156616210938
8.233,-7.050479125976563,-0.1140960693359375,5.961557006835938
8.243000000000002,-7.826870727539063,-0.386102294921875,5.270849609375
8.252000000000002,-8.55167236328125,0.1024322509765625,5.5029296875
8.261999999999901,-7.855282592773438,0.620574951171875,5.842825317382813
8.272000000000002,-6.686807250976563,0.6776977539062501,6.174346923828126
8.282999999999902,-5.8815551757812505,0.4562347412109375,8.19996337890625
8.292000000000002,-6.083578491210938,0.4083831787109375,9.18555603027344
8.302000000000003,-5.9892211914062505,0.399859619140625,8.89739990234375
8.312000000000001,-6.737350463867188,-0.2908477783203125,6.4791015625
8.322000000000003,-7.090106201171875,-1.0920623779296876,5.937930297851563
8.332,-7.775430297851563,-1.1997283935546876,6.222796630859375
8.342000000000002,-7.766458129882813,-0.7795318603515625,6.878811645507813
8.3519999999999,-6.754397583007813,0.0557769775390625,6.249563598632813
8.362000000000002,-6.528298950195313,0.6759033203125,6.539065551757813
8.372000000000003,-6.996795654296876,1.421490478515625,7.269998168945313
8.382000000000001,-7.38887939453125,2.2167236328125,7.005169677734376
8.392000000000003,-7.014291381835938,2.2521636962890628,5.969332885742188
8.402000000000001,-7.079937744140626,1.322198486328125,5.963650512695313
8.412000000000003,-6.548934936523438,-0.216229248046875,7.898947143554688
8.422,-6.568075561523438,-1.4419769287109376,8.528643798828126
8.432000000000002,-7.161135864257813,-2.3529510498046875,8.483184814453125
8.4419999999999,-6.125149536132813,-2.61448974609375,6.244180297851563
8.452000000000002,-6.380258178710938,-2.08214111328125,5.597286987304688
8.462000000000003,-7.860964965820313,-0.393878173828125,7.247268676757813
8.472000000000001,-7.428356933593751,1.8834075927734373,7.569967651367188
8.482000000000003,-6.977206420898438,2.684622192382813,6.67947998046875
8.492,-6.341229248046876,2.4002044677734378,6.052325439453125
8.502000000000002,-6.6995178222656255,1.7536102294921876,7.308728027343751
8.511999999999901,-7.259231567382813,0.9577789306640626,8.361911010742189
8.522000000000002,-7.012945556640625,-0.3712982177734375,6.657199096679688
8.5319999999999,-6.723144531250001,-2.0751129150390626,5.539266967773438
8.542000000000002,-6.913055419921876,-2.768063354492188,6.936831665039063
8.552000000000003,-7.055413818359376,-2.2234527587890627,8.2962646484375
8.562000000000001,-6.787594604492188,-0.9341522216796876,7.959060668945313
8.572000000000003,-6.379211425781251,0.2935394287109375,6.397903442382813
8.582,-6.466989135742188,1.3987609863281252,6.652114868164063
8.592000000000002,-6.691592407226563,2.162591552734375,8.212823486328126
8.6019999999999,-6.877166748046876,2.060906982421875,8.08990478515625
8.612000000000002,-6.857278442382813,1.2312805175781252,6.28709716796875
8.622000000000003,-7.634866333007813,0.3497650146484375,4.697976684570313
8.632000000000001,-8.346807861328125,-0.1281524658203125,5.204006958007813
8.642000000000003,-8.384341430664064,-0.3626251220703125,5.639157104492188
8.652000000000001,-7.389477539062501,-0.5238250732421875,6.093597412109375
8.662000000000003,-5.828170776367188,-0.4816558837890625,7.418936157226563
8.672,-5.254849243164063,-0.371746826171875,9.503768920898438
8.682000000000002,-5.6046142578125,-0.2235565185546875,10.587008666992189
8.6919999999999,-6.2242919921875,-0.231182861328125,8.258132934570312
8.702000000000002,-6.878512573242188,-0.143853759765625,5.495602416992188
8.711000000000002,-7.869937133789063,-0.0162994384765625,5.033535766601563
8.721,-8.401687622070312,0.069683837890625,5.8023010253906255
8.732999999999901,-7.99599609375,0.4723846435546875,6.0304931640625
8.741000000000003,-7.093096923828125,1.0905670166015626,5.878414916992188
8.751000000000001,-6.663778686523438,1.502688598632813,6.136065673828125
8.761000000000003,-6.503475952148438,1.5061279296875,7.834796142578125
8.771,-6.416595458984376,1.0812957763671875,8.419482421875001
8.781000000000002,-6.902139282226563,0.2141357421875,7.667465209960938
8.791,-6.475363159179688,-0.7940368652343751,6.784454345703126
8.801000000000002,-7.051675415039063,-1.7241516113281252,6.309677124023438
8.811,-7.205697631835938,-2.0870758056640626,7.994351196289063
8.821000000000002,-6.851147460937501,-1.7533111572265627,6.928158569335938
8.831000000000003,-6.577197265625,-0.645697021484375,6.215618896484376
8.841000000000001,-7.096685791015625,1.0652954101562502,6.635067749023438
8.851000000000003,-6.9701782226562505,2.238555908203125,7.666717529296876
8.861,-6.960458374023438,2.134030151367188,7.548284912109375
8.871000000000002,-6.809875488281251,1.583438110351563,6.582580566406251
8.881,-7.045693969726563,0.9166564941406252,6.506915283203125
8.891000000000002,-7.115975952148438,-0.0979461669921875,6.828866577148438
8.901000000000003,-7.228576660156251,-1.4113220214843751,6.718508911132813
8.910999999999902,-6.678732299804688,-2.033541870117188,6.82841796875
8.921000000000003,-6.631777954101563,-1.6200744628906252,7.523162841796876
8.931000000000001,-6.581384277343751,-0.8744873046875,7.978799438476563
8.941000000000003,-6.728976440429688,-0.005682373046875,7.392169189453125
8.951,-6.782659912109375,0.8900390625000001,6.908569335937501
8.961000000000002,-6.934140014648438,1.7456848144531252,6.497494506835938
8.971,-7.00546875,1.7213104248046875,7.146481323242188
8.981000000000002,-6.809277343750001,1.064697265625,6.962402343750001
8.991000000000003,-6.823333740234376,0.1184326171875,6.93668212890625
9.000999999999902,-7.616323852539063,-0.351409912109375,6.08671875
9.011000000000005,-7.980145263671876,-0.3937286376953125,5.593548583984376
9.021,-7.553817749023438,-0.398663330078125,5.474517822265625
9.031000000000002,-6.705200195312501,-0.394476318359375,6.890774536132813
9.041,-5.92821044921875,-0.27335205078125,8.879904174804688
9.051000000000002,-5.956622314453125,0.1604522705078125,8.909811401367188
9.061,-6.326425170898438,0.49346923828125,8.234506225585939
9.071000000000002,-6.876718139648438,0.5788543701171875,5.865255737304688
9.081000000000005,-7.427459716796876,0.2663238525390625,5.9563232421875005
9.090999999999902,-7.711428833007813,-0.0417205810546875,6.338836669921876
9.101000000000004,-7.5025268554687505,-0.073870849609375,6.504971313476563
9.111,-7.370635986328126,0.1401153564453125,6.06279296875
9.121000000000002,-6.7234436035156255,0.4526458740234375,6.283508300781251
9.131,-6.730172729492188,0.5459564208984375,7.485778808593751
9.141000000000002,-6.694134521484376,0.454888916015625,7.899395751953126
9.151000000000003,-5.8550872802734375,0.45518798828125,7.702606201171876
9.161,-7.1346679687500005,0.32838134765625,6.662582397460938
9.171000000000005,-7.4292541503906255,-0.0351409912109375,7.429104614257813
9.1809999999999,-7.450936889648438,-0.346624755859375,5.370440673828125
9.191000000000004,-7.40562744140625,-0.650482177734375,6.950588989257813
9.200000000000005,-6.247918701171876,-0.5775085449218751,7.260278320312499
9.21,-6.010006713867188,-0.5550781250000001,7.654605102539063
9.220000000000002,-7.005917358398438,-0.007476806640625,8.023959350585939
9.231000000000002,-6.738546752929688,1.0039855957031252,6.791781616210938
9.240000000000002,-7.42955322265625,1.02222900390625,6.616375732421876
9.2499999999999,-7.3009521484375,0.5266662597656251,5.906079101562501
9.260000000000002,-7.210034179687501,0.1341339111328125,6.632077026367188
9.270000000000003,-6.929354858398438,0.252716064453125,7.519873046875
9.281000000000002,-6.658096313476563,-0.01854248046875,6.978253173828126
9.291,-6.3645568847656255,-0.6261077880859376,7.273287963867188
9.3,-6.693237304687501,-0.672613525390625,7.768551635742188
9.310000000000002,-6.970626831054688,-0.459075927734375,7.5129943847656255
9.3199999999999,-7.00845947265625,-0.133685302734375,6.643890380859376
9.330000000000002,-7.0138427734375,0.019140625,6.213076782226563
9.340000000000003,-7.045394897460938,0.2980255126953125,6.851147460937501
9.35,-6.78056640625,0.5782562255859376,7.643838500976563
9.360000000000005,-6.537121582031251,0.6383697509765626,7.449591064453125
9.37,-6.373379516601563,0.38341064453125,7.230670166015625
9.380000000000004,-7.245025634765626,0.2241546630859375,6.284555053710938
9.39,-7.97745361328125,0.4939178466796875,6.258685302734375
9.400000000000002,-8.190841674804688,0.6014343261718751,4.996450805664063
9.4099999999999,-7.297363281250001,0.5262176513671876,5.5859222412109375
9.420000000000002,-6.421978759765626,0.2002288818359375,7.129434204101563
9.430000000000003,-6.344967651367188,-0.2331268310546875,8.988467407226564
9.44,-5.945108032226563,-0.220416259765625,9.11856384277344
9.450000000000005,-6.166571044921875,-0.3216522216796875,7.127191162109376
9.46,-6.780715942382813,-0.6572113037109375,6.611590576171875
9.470000000000002,-7.317550659179688,-0.682781982421875,6.686508178710938
9.479999999999905,-7.756588745117188,-0.4173553466796875,6.8080810546875
9.490000000000002,-7.41160888671875,0.3198577880859375,5.893966674804688
9.4999999999999,-6.972271728515626,0.95164794921875,5.73082275390625
9.510000000000002,-6.835446166992188,1.2553558349609375,7.062591552734376
9.520000000000003,-6.983187866210938,1.3224975585937502,7.623800659179688
9.53,-7.047039794921876,1.1711669921875,6.9941040039062505
9.540000000000004,-6.48807373046875,0.7433441162109375,6.157299804687501
9.55,-7.046142578125001,-0.0222808837890625,6.556710815429688
9.560000000000002,-7.570565795898438,-0.8744873046875,7.780215454101563
9.569999999999904,-6.752154541015625,-1.3193572998046876,6.946701049804688
9.580000000000002,-6.2628723144531255,-1.1949432373046875,7.624249267578126
9.590000000000003,-6.636563110351563,-1.1100067138671876,7.376168823242188
9.6,-6.191244506835938,-0.6313415527343751,7.7029052734375005
9.610000000000005,-7.592398071289063,0.3701019287109375,7.155154418945313
9.62,-7.2408386230468755,1.8131256103515627,5.865853881835938
9.630000000000004,-7.3828979492187505,1.97208251953125,5.684616088867188
9.64,-7.096536254882813,1.125408935546875,6.953131103515625
9.650000000000002,-6.652264404296876,0.3859527587890625,7.918835449218751
9.6599999999999,-6.609347534179688,-0.0333465576171875,7.769747924804688
9.670000000000002,-6.746771240234375,-0.5184417724609376,6.543252563476563
9.680000000000003,-6.6217590332031255,-1.4301635742187502,6.779519653320313
9.69,-7.325027465820313,-1.5508392333984375,7.278521728515625
9.700000000000005,-6.993655395507813,-0.805401611328125,7.316055297851563
9.709000000000003,-6.964794921875001,0.157012939453125,6.461007690429688
9.718999999999902,-6.742584228515626,0.895123291015625,6.842773437500001
9.729000000000005,-6.742135620117188,1.2341217041015626,7.287643432617188
9.739,-6.584674072265625,1.2523651123046875,7.987173461914063
9.749000000000002,-6.665872192382813,0.862225341796875,7.506564331054688
9.759,-6.5090087890625,0.1323394775390625,6.529196166992188
9.769000000000002,-7.527050781250001,-0.67530517578125,6.05322265625
9.78,-7.880554199218751,-0.7603912353515625,6.098382568359376
9.789,-8.148672485351563,-0.3605316162109375,5.5320892333984375
9.799000000000005,-7.085919189453126,0.2513702392578125,5.756991577148438
9.808999999999902,-6.381155395507813,0.649884033203125,7.23037109375
9.819000000000004,-6.142346191406251,0.8028594970703126,9.02540283203125
9.829,-6.229077148437501,0.85474853515625,8.922372436523439
9.839000000000002,-6.223544311523438,0.696539306640625,6.979449462890625
9.849,-7.16636962890625,0.0333465576171875,5.972772216796876
9.859000000000002,-7.578042602539063,-0.7565032958984376,6.2150207519531255
9.869000000000003,-7.705746459960938,-1.039126586914063,6.5514770507812505
9.880000000000004,-7.518975830078125,-0.844580078125,6.498242187500001
9.889000000000005,-6.223992919921876,-0.1763031005859375,6.51439208984375
9.8989999999999,-6.432745361328125,0.2332763671875,7.605108642578125
9.909000000000002,-6.489569091796875,0.7819244384765626,8.556307983398439
9.919,-7.232015991210938,1.403994750976563,6.829165649414063
9.929000000000002,-7.131527709960938,1.7631805419921875,5.4588165283203125
9.939,-7.746868896484376,1.4271728515625002,4.894317626953125
9.949000000000002,-7.797860717773438,0.5341430664062501,6.922625732421875
9.959000000000003,-6.556561279296876,-0.2367156982421875,7.555313110351563
9.968999999999902,-6.1381591796875,-1.1775970458984375,8.357275390625
9.98,-6.145935058593751,-1.7785827636718752,8.595187377929689
9.989,-5.903536987304688,-1.9611663818359373,7.416543579101563
9.999000000000002,-7.24771728515625,-1.47921142578125,7.027749633789063
10.009,-7.844366455078125,0.21234130859375,5.689999389648438
10.019000000000002,-7.784851074218751,1.56534423828125,5.322888183593751
10.029000000000003,-7.073358154296876,1.9806060791015627,6.683517456054688
10.039,-6.694284057617188,1.8591827392578129,7.355532836914063
10.049000000000005,-6.1671691894531255,1.5019409179687502,8.6192626953125
10.058999999999902,-6.368743896484376,0.6957916259765625,7.763766479492188
10.069000000000004,-6.764715576171875,-0.7868591308593751,6.9223266601562505
10.080000000000002,-7.395458984375001,-1.8617248535156248,5.9431640625
10.089000000000002,-7.534527587890626,-2.140609741210937,6.474316406250001
10.099,-7.107302856445313,-1.5662414550781252,6.908569335937501
10.109000000000002,-6.54788818359375,-0.7822235107421875,7.330709838867188
10.119000000000003,-6.336743164062501,0.2763427734375,7.655203247070313
10.1279999999999,-6.223992919921876,1.4741271972656251,8.306881713867188
10.139000000000005,-6.609347534179688,1.963558959960937,7.753298950195313
10.1489999999999,-6.670806884765626,1.693646240234375,6.6995178222656255
10.158,-7.265362548828126,0.8384490966796876,5.937481689453126
10.169,-8.191439819335939,0.1686767578125,5.618820190429688
10.178,-8.455221557617188,-0.0225799560546875,4.940075683593751
10.189,-8.22867431640625,-0.0180938720703125,4.557861328125
10.1979999999999,-6.833053588867188,-0.1184326171875,6.488821411132813
10.208000000000002,-5.683120727539063,-0.2678192138671875,8.656796264648438
10.2179999999999,-5.2804199218750005,-0.3617279052734375,10.679421997070314
10.228000000000002,-5.439376831054688,-0.456982421875,9.558947753906253
10.238000000000005,-6.18302001953125,-0.5049835205078126,7.096685791015625
10.248,-7.444805908203126,-0.5550781250000001,5.91385498046875
10.258000000000004,-8.282955932617188,-0.436944580078125,5.25589599609375
10.268,-8.270245361328126,0.0958526611328125,5.5933990478515625
10.278000000000002,-7.79202880859375,0.9021514892578124,5.306588745117188
10.2879999999999,-6.720303344726563,1.648785400390625,6.191244506835938
10.298000000000002,-6.674395751953125,1.873239135742188,7.5138916015625
10.308000000000003,-6.805538940429688,1.5696807861328126,8.001977539062501
10.318,-6.050680541992188,1.1246612548828123,7.34102783203125
10.328000000000005,-6.821688842773438,0.06519775390625,6.748416137695313
10.338,-7.098031616210938,-1.311431884765625,7.864404296875
10.348000000000004,-7.052871704101563,-2.1832275390625,6.355285644531251
10.358,-7.079339599609376,-2.1391143798828125,7.378860473632813
10.368000000000002,-6.842175292968751,-1.3977142333984376,6.771743774414063
10.3779999999999,-6.450390625000001,-0.2619873046875,6.677087402343751
10.388000000000002,-6.950439453125001,0.9230865478515624,7.883395385742188
10.398000000000003,-6.7159667968750005,2.12520751953125,7.175491333007813
10.408,-7.0524230957031255,2.517291259765625,6.957467651367188
10.418000000000005,-7.347607421875001,1.7576477050781252,6.302200317382813
10.428,-7.141098022460938,0.4998992919921875,6.380108642578126
10.438000000000002,-7.006814575195313,-0.6343322753906251,7.050180053710938
10.448,-6.965841674804688,-1.4898284912109376,6.866848754882813
10.458000000000002,-6.564935302734376,-1.89552001953125,7.3096252441406255
10.4679999999999,-6.593347167968751,-1.64908447265625,7.688998413085938
10.478000000000002,-6.572711181640625,-0.9706390380859377,7.7435791015625
10.488000000000005,-6.821838378906251,0.2201171875,7.140499877929688
10.498,-7.0748535156250005,1.2930389404296876,6.721798706054688
10.508000000000004,-6.9540283203125,1.7473297119140627,6.459063720703125
10.518,-6.93907470703125,1.58448486328125,6.9327941894531255
10.528000000000002,-6.787295532226563,1.0658935546875,7.418338012695313
10.537999999999904,-6.819894409179688,0.16807861328125,6.917391967773438
10.548000000000002,-7.365551757812501,-0.4915252685546875,6.165225219726563
10.558000000000003,-7.852740478515625,-0.67410888671875,5.5739593505859375
10.568,-7.963397216796875,-0.6243133544921875,5.505172729492188
10.578000000000005,-6.7653137207031255,-0.1335357666015625,6.857577514648438
10.588,-6.056512451171876,0.0471038818359375,8.15869140625
10.598000000000004,-5.832806396484376,0.179443359375,9.103610229492189
10.608,-6.198721313476563,0.6471923828125,8.3154052734375
10.618000000000002,-6.965393066406251,0.7212127685546875,6.684414672851563
10.627000000000002,-7.224987792968751,0.34512939453125,5.850900268554688
10.638000000000002,-7.595687866210938,-0.256005859375,5.852545166015625
10.647000000000002,-7.816851806640625,-0.491973876953125,6.549682617187501
10.657,-7.565631103515625,-0.04246826171875,6.1432434082031255
10.667000000000002,-6.618170166015625,0.430364990234375,6.477456665039063
10.677000000000003,-6.318798828125001,0.3246429443359375,7.464544677734375
10.686999999999902,-6.213076782226563,0.249127197265625,8.529989624023438
10.697000000000005,-6.964794921875001,0.55029296875,7.779318237304688
10.707,-6.864755249023438,0.7131378173828126,6.135617065429688
10.717000000000002,-7.163677978515626,0.5613586425781251,5.269204711914063
10.727,-8.089755249023439,-0.0992919921875,6.536373901367188
10.737000000000002,-7.2243896484375005,-0.227593994140625,6.896008300781251
10.747000000000003,-6.559103393554688,-0.1114044189453125,7.31650390625
10.757,-6.031838989257813,-0.33197021484375,8.133868408203126
10.767000000000005,-5.890228271484375,-0.7805786132812501,8.151065063476564
10.776999999999902,-6.895260620117188,-0.7837188720703125,7.996743774414063
10.787000000000004,-7.335644531250001,0.2141357421875,6.177935791015625
10.797,-7.863955688476563,0.8540008544921875,4.9743194580078125
10.807000000000002,-7.487423706054688,0.7428955078125,5.9874267578125
10.817,-7.059002685546876,0.4299163818359375,7.147528076171875
10.827000000000002,-6.2643676757812505,0.5537322998046875,8.385836791992189
10.837000000000003,-6.269451904296876,0.599041748046875,7.75673828125
10.847,-6.276629638671875,-0.1063201904296875,7.379159545898438
10.857000000000005,-7.105508422851563,-0.7309326171875,6.819595336914063
10.8669999999999,-7.451385498046876,-0.97318115234375,6.950140380859375
10.877000000000002,-7.167715454101563,-0.70999755859375,6.245077514648438
10.887,-6.959112548828125,-0.395074462890625,6.371435546875
10.897000000000002,-6.886587524414063,0.053533935546875,7.128387451171876
10.907,-6.513046264648438,0.6107055664062501,7.98642578125
10.917000000000002,-6.502578735351563,1.1041748046875002,7.853936767578125
10.927000000000003,-6.511102294921876,1.0528839111328123,6.964495849609375
10.936999999999902,-7.122406005859376,0.5893218994140625,6.253302001953125
10.947000000000005,-7.594192504882813,0.3925323486328125,6.324481201171875
10.9569999999999,-8.381350708007814,0.199481201171875,5.409768676757813
10.967000000000002,-7.679428100585938,0.1954437255859375,5.274288940429688
10.977,-6.715219116210938,0.1051239013671875,6.2601806640625
10.987000000000002,-6.431549072265626,-0.2775390625,8.396902465820313
10.997000000000003,-5.900994873046876,-0.2869598388671875,9.358120727539063
11.007,-5.86241455078125,-0.1532745361328125,8.27652587890625
11.017000000000005,-6.466989135742188,-0.33436279296875,7.117471313476563
11.026999999999902,-7.008160400390626,-0.4547393798828125,6.514840698242188
11.037000000000004,-7.704251098632813,-0.4086822509765625,6.660189819335938
11.0469999999999,-8.02410888671875,0.03529052734375,5.684167480468751
11.057000000000002,-7.192388916015625,0.77579345703125,5.692391967773438
11.067,-7.096835327148438,1.1129974365234376,5.912210083007813
11.077000000000002,-6.846063232421876,1.158905029296875,7.810870361328125
11.087000000000003,-6.718508911132813,1.1638397216796876,7.628735351562501
11.097,-6.100924682617188,0.9346008300781252,7.313363647460938
11.107000000000005,-7.267755126953125,0.0880767822265625,6.552224731445313
11.116000000000003,-7.207342529296875,-0.7439422607421875,7.096087646484375
11.127000000000002,-6.986477661132813,-1.1820831298828125,6.528598022460938
11.136000000000005,-6.904232788085938,-1.292291259765625,7.464544677734375
11.147000000000002,-6.575851440429688,-1.086978149414063,7.424020385742188
11.156000000000002,-6.350949096679688,-0.518890380859375,7.2387451171875
11.165999999999904,-7.022067260742188,0.5588165283203126,7.430599975585938
11.176000000000002,-7.088162231445313,1.5737182617187502,6.530841064453125
11.1859999999999,-7.260128784179688,1.532147216796875,6.731069946289063
11.196000000000002,-7.064984130859376,1.0741180419921876,6.303845214843751
11.206000000000005,-6.963897705078126,0.4595245361328125,7.156051635742188
11.216,-6.953131103515625,-0.07596435546875,7.207043457031251
11.226000000000004,-6.887933349609376,-0.5875274658203126,6.825576782226563
11.236,-6.730322265625,-1.050640869140625,6.860269165039063
11.246000000000002,-6.697125244140626,-1.0658935546875,7.458114624023438
11.255999999999904,-6.781463623046876,-0.6895111083984375,7.758233642578125
11.266000000000002,-6.897055053710938,-0.0270660400390625,7.089059448242188
11.276000000000003,-6.964047241210938,0.5857330322265626,6.564785766601563
11.286,-6.837689208984376,1.05093994140625,6.468035888671875
11.296000000000005,-6.874176025390626,0.9338531494140626,7.587164306640625
11.306,-6.600823974609376,0.572723388671875,7.513143920898438
11.316000000000004,-6.7937255859375005,0.165985107421875,6.744229125976563
11.326,-7.641445922851563,-0.0946563720703125,6.043502807617188
11.336000000000002,-7.982089233398438,0.058319091796875,5.28460693359375
11.345999999999904,-7.668063354492188,0.2014251708984375,5.894564819335938
11.356000000000002,-6.728976440429688,0.14415283203125,6.9492431640625005
11.366000000000003,-6.100625610351563,0.1242645263671875,8.280114746093751
11.376,-6.261676025390625,0.2835205078125,8.478399658203125
11.386000000000005,-6.39476318359375,0.4059906005859375,7.648623657226563
11.396,-6.708190917968751,0.1694244384765625,6.638656616210938
11.406000000000002,-7.325924682617188,-0.4367950439453125,6.531439208984375
11.416,-7.342523193359375,-0.6383697509765626,6.67589111328125
11.426000000000002,-7.284503173828125,-0.4457672119140625,6.563140869140626
11.4359999999999,-6.9755615234375,-0.0859832763671875,6.527999877929688
11.446000000000002,-6.676339721679688,0.284417724609375,6.641049194335938
11.456000000000005,-7.037170410156251,0.6711181640625,7.461105346679688
11.466,-7.2632690429687505,1.16578369140625,6.901989746093751
11.476000000000004,-6.330313110351563,1.480706787109375,6.454428100585938
11.486,-7.261325073242188,0.9951629638671876,6.513046264648438
11.496000000000002,-7.471572875976563,0.1242645263671875,7.524658203125001
11.506,-6.756491088867188,-0.3123809814453125,6.378912353515625
11.516000000000002,-6.802249145507813,-0.9248809814453126,7.52884521484375
11.526000000000003,-6.344967651367188,-1.413116455078125,7.3933654785156255
11.536,-6.336593627929688,-1.5364837646484375,7.874722290039063
11.546000000000005,-7.117172241210938,-0.7719055175781251,7.542303466796875
11.556,-7.021618652343751,0.695343017578125,5.703158569335938
11.566000000000004,-7.4899658203125,1.3405914306640625,6.636712646484376
11.575000000000005,-7.236053466796876,1.3986114501953126,6.336593627929688
11.586000000000002,-6.948944091796876,1.174755859375,7.446600341796875
11.595999999999904,-6.533831787109375,1.0107147216796877,7.47261962890625
11.605,-6.585571289062501,0.2213134765625,6.927859497070313
11.615000000000002,-6.809875488281251,-0.754559326171875,7.071115112304688
11.625,-7.039562988281251,-1.2981231689453123,7.219006347656251
11.635000000000002,-6.976010131835938,-1.423883056640625,7.229623413085938
11.645000000000003,-6.832305908203126,-1.0174438476562502,6.647778320312501
11.654999999999902,-6.850997924804688,-0.4370941162109375,7.0628906250000005
11.665000000000004,-6.740042114257813,0.4188507080078125,7.383197021484375
11.6749999999999,-6.6071044921875,1.0944549560546877,7.577743530273438
11.685000000000002,-6.480148315429688,1.3648162841796876,7.274484252929688
11.695,-6.694284057617188,1.1032775878906251,6.939971923828126
11.705000000000002,-7.507611083984376,0.7472320556640626,6.190347290039063
11.715000000000003,-8.29925537109375,0.6395660400390626,5.377020263671875
11.725,-8.481240844726564,0.40733642578125,4.5137481689453125
11.735000000000005,-7.111041259765625,0.2839691162109375,5.489022827148438
11.744999999999902,-6.58616943359375,-0.261688232421875,7.675091552734376
11.755000000000004,-5.77030029296875,-0.6527252197265625,9.760223388671877
11.765,-5.3366455078125,-0.57242431640625,9.266305541992187
11.775000000000002,-5.945257568359375,-0.629248046875,7.988369750976563
11.785,-6.927261352539063,-0.710296630859375,6.792977905273438
11.795000000000002,-7.6221557617187505,-0.57362060546875,6.131729125976563
11.805000000000003,-8.052520751953125,-0.1299468994140625,5.858078002929688
11.815,-7.534527587890626,0.6104064941406251,5.613436889648438
11.825000000000005,-7.030740356445313,1.2553558349609375,5.935089111328125
11.8349999999999,-6.964645385742188,1.53125,7.225286865234375
11.845000000000002,-7.106405639648438,1.5847839355468751,7.25728759765625
11.855,-6.6875549316406255,1.4120697021484376,6.850250244140626
11.865000000000002,-6.2045532226562505,0.5794525146484375,6.765463256835938
11.875,-7.376766967773438,-0.6910064697265625,7.419833374023438
11.885000000000002,-6.996347045898438,-1.5521850585937502,8.007510375976564
11.895000000000003,-6.680975341796875,-1.6754028320312502,6.297415161132813
11.905,-6.710284423828125,-1.4999969482421875,7.413104248046875
11.915000000000004,-6.414501953125001,-1.1485870361328123,7.227230834960938
11.9249999999999,-6.866699218750001,-0.179443359375,7.643539428710938
11.935000000000002,-7.246670532226563,1.4874359130859376,7.024908447265625
11.945,-7.089208984375,2.481552124023437,5.421731567382813
11.955000000000002,-7.188949584960938,1.9065856933593752,6.873129272460938
11.965000000000003,-7.079339599609376,1.03060302734375,6.888531494140626
11.975,-6.974215698242188,0.246734619140625,7.928704833984375
11.985000000000005,-6.854138183593751,-0.4496551513671875,6.714172363281251
11.994999999999902,-6.499737548828126,-1.3758819580078123,6.274087524414063
12.005000000000004,-7.063339233398438,-1.8920806884765624,7.175491333007813
12.0149999999999,-6.985430908203125,-1.3338623046875,7.9795471191406255
12.025000000000002,-6.706396484375,-0.3600830078125,7.498040771484375
12.034000000000002,-6.600225830078125,0.5019927978515626,6.238497924804688
12.045000000000002,-6.945953369140626,1.1370727539062502,7.009805297851563
12.054000000000002,-6.897354125976563,1.5550262451171877,7.663876342773438
12.0639999999999,-6.775332641601563,1.3634704589843751,7.441067504882813
12.074000000000002,-6.648526000976563,0.6223693847656251,6.455624389648438
12.084000000000003,-6.969879150390626,-0.172564697265625,6.278872680664063
12.094,-7.820590209960938,-0.6374725341796875,6.498840332031251
12.104000000000005,-8.245272827148439,-0.5313018798828125,5.687457275390625
12.114,-7.529891967773438,-0.0275146484375,5.173052978515625
12.124000000000002,-6.635964965820313,0.240753173828125,6.623703002929688
12.134,-5.739794921875,0.3337646484375,8.965438842773438
12.144000000000002,-6.034231567382813,0.372344970703125,9.671697998046875
12.154000000000003,-6.0868682861328125,0.448907470703125,8.320938110351562
12.164,-6.7937255859375005,0.356195068359375,5.506219482421876
12.174000000000005,-7.712026977539063,-0.208453369140625,5.8366943359375005
12.184,-7.97147216796875,-0.661846923828125,6.1178222656250005
12.194000000000004,-7.548434448242188,-0.5924621582031251,6.598880004882813
12.204,-6.952682495117188,-0.085833740234375,6.433792114257813
12.214000000000002,-6.195431518554688,0.485693359375,6.786697387695313
12.223999999999904,-6.454876708984376,0.664837646484375,8.499185180664064
12.234000000000002,-6.739593505859376,0.8551971435546876,7.911508178710938
12.244000000000003,-7.071115112304688,0.9559844970703124,6.624600219726563
12.254,-7.166220092773438,0.8076446533203125,5.0531250000000005
12.264000000000005,-7.204501342773438,0.3529052734375,6.078942871093751
12.274,-8.141943359375,-0.307147216796875,7.251605224609375
12.284000000000002,-6.648226928710938,-0.3351104736328125,7.237997436523438
12.294,-6.210534667968751,-0.5326477050781251,6.867596435546876
12.304000000000002,-5.994754028320313,-0.8303741455078125,8.701956176757813
12.313999999999904,-6.266311645507813,-1.00428466796875,8.62344970703125
12.324000000000002,-7.10057373046875,-0.6642395019531251,7.204650878906251
12.334000000000003,-7.461404418945313,0.676800537109375,5.18890380859375
12.344,-7.9421630859375005,1.338198852539063,4.7624267578125
12.354000000000005,-7.351644897460938,1.1446990966796875,6.991561889648438
12.364,-6.906924438476563,0.71478271484375,7.684512329101563
12.374000000000002,-5.940921020507813,0.586181640625,8.468380737304688
12.384,-6.163580322265625,0.2307342529296875,7.175790405273438
12.394000000000002,-6.752154541015625,-0.7074554443359375,7.390524291992188
12.404000000000003,-7.393066406250001,-1.30335693359375,6.893017578125001
12.414,-7.383047485351563,-1.2562530517578123,6.312518310546875
12.424000000000005,-7.00546875,-0.5997894287109375,6.279171752929688
12.434,-6.843521118164063,-0.101983642578125,6.868493652343751
12.444000000000004,-6.671554565429688,0.5284606933593751,7.983285522460938
12.454,-6.447998046875001,1.2288879394531251,7.960406494140625
12.464000000000002,-6.582580566406251,1.43734130859375,7.151715087890626
12.474,-6.572561645507813,1.0370330810546875,6.5592529296875
12.484000000000002,-7.222296142578125,0.2573516845703125,6.641497802734375
12.494000000000003,-8.036669921875001,-0.165985107421875,6.245974731445313
12.504,-8.272039794921875,-0.0785064697265625,4.855288696289063
12.514000000000005,-7.718905639648438,0.2296875,4.793231201171875
12.524,-6.667218017578126,0.066094970703125,7.005618286132813
12.534000000000002,-5.7459259033203125,-0.1834808349609375,9.263015747070312
12.543000000000005,-5.71646728515625,-0.2220611572265625,10.005462646484377
12.553000000000004,-5.72723388671875,-0.05084228515625,8.159289550781251
12.563000000000002,-6.641348266601563,-0.0820953369140625,6.255993652343751
12.574000000000002,-7.754644775390625,-0.49945068359375,6.217562866210938
12.583000000000006,-7.967733764648438,-0.4696929931640625,5.915051269531251
12.593,-7.814907836914063,0.0346923828125,5.888284301757813
12.603000000000003,-7.254595947265625,0.7562042236328126,5.734262084960938
12.613000000000005,-6.568374633789063,1.250421142578125,6.523214721679688
12.623000000000005,-6.696826171875,1.2309814453125,8.138653564453126
12.633000000000004,-6.929504394531251,1.0847351074218752,7.8015991210937505
12.643000000000004,-6.1567016601562505,0.8369537353515626,6.839633178710938
12.653000000000002,-6.699069213867188,0.0366363525390625,6.288891601562501
12.663,-7.866497802734376,-1.0268646240234376,7.443759155273438
12.673000000000004,-7.103115844726563,-1.2646270751953126,6.626544189453125
12.683000000000003,-6.872830200195313,-0.9897796630859376,6.453680419921875
12.693000000000003,-6.549084472656251,-0.7701110839843751,7.3224853515625
12.703000000000005,-6.3107238769531255,-0.31761474609375,7.849151611328126
12.713000000000005,-6.856381225585938,0.35469970703125,8.432791137695313
12.723000000000004,-6.706396484375,1.3585357666015625,6.434988403320313
12.733,-7.390524291992188,1.5791015625000002,5.85643310546875
12.743000000000002,-7.455722045898438,0.9794616699218752,6.375921630859375
12.753,-7.188949584960938,0.2501739501953125,6.749462890625001
12.763000000000003,-6.889578247070313,-0.27454833984375,7.543948364257813
12.773000000000003,-6.476409912109376,-0.5148529052734375,6.682321166992188
12.783000000000005,-6.495550537109375,-0.9126190185546876,7.613931274414063
12.793000000000005,-6.896456909179688,-0.9673492431640626,7.758682250976563
12.803000000000004,-6.718658447265626,-0.6403137207031251,7.28360595703125
12.813000000000002,-6.923223876953125,0.0342437744140625,6.658544921875
12.823,-7.1454345703125,0.6492858886718751,6.390426635742188
12.833000000000002,-7.038217163085938,0.9064880371093752,6.857278442382813
12.843,-6.767556762695313,0.9770690917968752,7.283456420898438
12.853000000000003,-6.713873291015625,0.7358673095703125,7.34342041015625
12.863000000000005,-6.702508544921876,0.271856689453125,6.789688110351563
12.873000000000005,-7.0569091796875005,-0.1329376220703125,6.584075927734376
12.883000000000004,-7.821786499023438,-0.3170166015625,6.199917602539063
12.893000000000004,-7.834796142578125,-0.2259490966796875,5.748019409179688
12.903000000000002,-6.836343383789063,0.185125732421875,6.149822998046876
12.913,-6.629534912109375,0.176751708984375,7.463946533203125
12.923000000000004,-6.238049316406251,0.2211639404296875,8.583822631835938
12.933000000000003,-6.479998779296875,0.5311523437500001,7.986724853515626
12.943000000000003,-6.556411743164063,0.5588165283203126,7.047637939453126
12.953000000000005,-7.037020874023438,0.1861724853515625,6.060848999023438
12.963000000000005,-7.347158813476563,-0.361279296875,6.716864013671875
12.973000000000004,-7.661483764648438,-0.5640502929687501,6.7548461914062505
12.983,-6.9994873046875,-0.2693145751953125,6.517831420898438
12.993000000000002,-6.752005004882813,0.0381317138671875,6.363809204101563
13.003,-6.661236572265626,0.1042266845703125,7.341177368164063
13.012,-7.185659790039063,0.6344818115234375,7.259829711914063
13.022000000000002,-6.946102905273438,1.2804779052734376,6.979000854492188
13.033000000000005,-6.620861816406251,1.3823120117187502,5.8296661376953125
13.042000000000002,-7.3245788574218755,0.6320892333984376,7.415945434570313
13.052000000000003,-6.993954467773438,-0.058319091796875,7.188351440429688
13.062,-6.861465454101563,-0.5136566162109375,6.892120361328126
13.072000000000005,-6.690396118164063,-0.8196075439453125,7.4086181640625
13.083000000000002,-6.5425048828125005,-1.140960693359375,6.803445434570313
13.092000000000002,-6.896606445312501,-1.2643280029296875,7.892517089843751
13.102,-6.830361938476563,-0.293988037109375,6.961355590820313
13.113000000000005,-7.132873535156251,0.614593505859375,6.730621337890626
13.122000000000003,-7.199417114257813,1.126904296875,6.475213623046876
13.132,-7.203753662109375,1.059014892578125,6.664227294921876
13.142000000000005,-6.629983520507813,0.8695526123046876,7.409664916992188
13.151999999999902,-6.789837646484376,0.702520751953125,6.952233886718751
13.162000000000004,-6.721798706054688,0.07237548828125,7.460507202148438
13.1719999999999,-6.6980224609375005,-0.639715576171875,6.892120361328126
13.182000000000002,-7.000534057617188,-1.1988311767578126,7.396057128906251
13.192,-7.0105529785156255,-1.0996887207031252,7.051077270507813
13.202000000000002,-6.859222412109376,-0.7858123779296876,6.692190551757813
13.212000000000003,-6.899896240234376,-0.1942474365234375,6.903036499023438
13.222,-6.683666992187501,0.3533538818359375,7.506564331054688
13.232000000000005,-6.5425048828125005,0.786260986328125,7.6718017578125
13.2419999999999,-6.393118286132813,1.0771087646484376,7.367047119140626
13.252000000000002,-7.205398559570313,1.009368896484375,6.3825012207031255
13.2619999999999,-7.6837646484375,0.9353485107421876,5.892172241210938
13.273000000000003,-8.278768920898438,0.8350097656250001,4.881008911132813
13.282,-7.962799072265626,0.6000885009765625,5.555715942382813
13.292000000000002,-6.878363037109375,0.20396728515625,6.337939453125
13.302,-6.3893798828125,-0.3282318115234375,7.925115966796875
13.312000000000005,-5.970977783203125,-0.5837890625000001,9.140097045898438
13.322000000000005,-5.710635375976563,-0.5606109619140626,8.411557006835938
13.3319999999999,-6.297564697265625,-0.9191986083984376,8.135812377929689
13.342,-6.832305908203126,-0.98275146484375,6.66990966796875
13.352000000000004,-7.590454101562501,-0.538031005859375,6.454876708984376
13.362000000000002,-7.968182373046876,0.256304931640625,5.5603515625
13.372,-7.236352539062499,1.0095184326171875,5.665924072265625
13.382000000000003,-7.0808349609375005,1.3329650878906252,6.386688232421876
13.392000000000005,-7.234558105468751,1.6151397705078123,7.0344787597656255
13.402,-7.377514648437501,1.7802276611328127,6.763967895507813
13.412,-6.073709106445313,1.6927490234375002,6.337939453125
13.422000000000004,-7.293475341796875,0.1828826904296875,7.16397705078125
13.432000000000002,-6.153561401367188,-1.2238037109375002,8.784201049804688
13.4419999999999,-6.570019531250001,-1.9369415283203129,7.425366210937501
13.451999999999998,-6.89720458984375,-2.1588531494140626,7.682418823242188
13.462000000000003,-6.720303344726563,-1.6680755615234375,6.127841186523438
13.472,-7.312017822265625,-0.890936279296875,6.554617309570313
13.482,-7.282559204101563,0.677398681640625,6.868792724609375
13.492000000000004,-6.942813110351563,2.167227172851563,6.641647338867188
13.501000000000005,-6.800305175781251,2.473626708984375,7.724737548828125
13.511000000000005,-6.617422485351563,1.842584228515625,6.965692138671876
13.521,-6.747967529296876,0.7672698974609375,7.447946166992188
13.5309999999999,-7.1789306640625,-0.1519287109375,6.707293701171875
13.540999999999997,-7.254147338867188,-1.1399139404296876,6.264218139648438
13.551000000000002,-7.132574462890625,-1.810284423828125,6.30504150390625
13.5609999999999,-6.69981689453125,-1.9545867919921875,7.43314208984375
13.572000000000005,-6.565982055664063,-1.1807373046875,8.018576049804688
13.581000000000005,-6.639404296875001,0.1359283447265625,7.809524536132813
13.591,-6.567477416992188,1.1225677490234376,6.91275634765625
13.6009999999999,-6.585720825195313,1.557568359375,6.7578369140625005
13.610999999999995,-6.913653564453125,1.435546875,7.523013305664063
13.621000000000002,-6.820492553710938,0.913067626953125,7.303195190429688
13.631,-7.187603759765626,0.1878173828125,6.321041870117188
13.640999999999998,-8.012744140625001,-0.2284912109375,5.055517578125
13.651000000000003,-8.325125122070313,-0.317315673828125,4.923776245117188
13.661,-7.55277099609375,-0.0031402587890625,5.843273925781251
13.672000000000004,-6.717163085937501,0.1733123779296875,7.459310913085938
13.681000000000004,-5.650521850585938,0.136077880859375,8.898745727539064
13.691000000000004,-5.533883666992188,0.2477813720703125,8.935980224609375
13.701,-6.222796630859375,0.3078948974609375,8.360714721679688
13.710999999999906,-7.130780029296876,0.0961517333984375,6.558355712890625
13.721000000000004,-7.524508666992188,-0.3590362548828125,5.753103637695313
13.731000000000002,-7.78544921875,-0.724951171875,5.6141845703125
13.7409999999999,-7.462899780273438,-0.5501434326171876,6.424221801757813
13.751000000000005,-6.9701782226562505,0.1112548828125,6.922177124023438
13.761000000000005,-6.706546020507813,0.5434143066406251,7.235604858398438
13.771999999999998,-6.351696777343751,1.0044342041015626,7.23336181640625
13.7809999999999,-6.787893676757813,1.21004638671875,7.453778076171876
13.790999999999997,-7.329663085937501,1.1129974365234376,6.808828735351563
13.801000000000002,-6.670059204101563,0.8719451904296875,5.9578186035156255
13.8109999999999,-7.7746826171875005,0.2092010498046875,5.976959228515625
13.821000000000003,-7.22379150390625,-0.2660247802734375,7.385589599609376
13.831000000000005,-6.814959716796875,-0.7182220458984375,6.5125976562500005
13.841,-6.1716552734375005,-1.2586456298828126,8.800201416015625
13.8509999999999,-6.008212280273438,-1.3552459716796876,8.046090698242189
13.860999999999995,-6.460858154296876,-1.0132568359375,7.674044799804688
13.8719999999999,-7.3350463867187505,0.0035888671875,6.622207641601563
13.881,-7.715316772460938,1.119876098632813,5.182772827148438
13.890999999999998,-7.637557983398438,1.55457763671875,6.356332397460938
13.901000000000003,-7.149472045898438,1.32967529296875,6.536672973632813
13.911,-6.293377685546876,0.8845062255859376,7.971771240234376
13.9209999999999,-6.294274902343751,0.49227294921875,7.8509460449218755
13.931000000000004,-6.583926391601563,-0.231182861328125,7.542901611328125
13.941000000000004,-6.886138916015626,-1.047052001953125,6.8702880859375
13.950000000000005,-7.215866088867188,-1.53543701171875,6.6217590332031255
13.960999999999906,-7.155154418945313,-1.4053405761718751,6.7189575195312505
13.972,-7.025506591796876,-0.7120910644531251,6.781015014648438
13.981000000000002,-6.682769775390626,0.1102081298828125,7.288241577148438
13.9909999999999,-6.464895629882813,0.8459259033203126,7.578790283203125
14.0,-6.38040771484375,1.3432830810546876,7.829711914062501
14.010000000000003,-6.450839233398438,1.43973388671875,7.444058227539063
14.019999999999996,-7.217062377929688,0.98634033203125,6.491961669921875
14.03,-7.964294433593751,0.6144439697265626,5.443563842773438
14.0399999999999,-8.54090576171875,0.330474853515625,4.509411621093751
14.050000000000004,-7.996444702148438,0.2005279541015625,5.022918701171875
14.060000000000002,-7.064236450195313,0.02572021484375,6.476559448242188
14.07,-5.963949584960938,-0.3832611083984375,8.80767822265625
14.0799999999999,-5.386590576171876,-0.5538818359375001,9.538311767578126
14.089999999999996,-5.2804199218750005,-0.5342926025390625,9.296960449218751
14.1,-6.517532348632813,-0.7068572998046876,7.718157958984375
14.11,-7.1885009765625005,-0.7227081298828125,6.382949829101563
14.120000000000005,-7.900592041015625,-0.3967193603515625,5.408721923828125
14.130000000000004,-8.200860595703126,0.13936767578125,5.420684814453125
14.14,-7.381253051757813,0.9634613037109376,5.82293701171875
14.1499999999999,-7.003225708007813,1.520184326171875,6.431549072265626
14.159999999999997,-6.825277709960938,1.6860198974609375,7.509106445312501
14.170000000000002,-6.665274047851563,1.5925598144531252,7.220651245117188
14.18,-6.7279296875000005,0.92353515625,7.123602294921875
14.190000000000005,-6.261975097656251,-0.0779083251953125,6.7745849609375
14.199999999999996,-7.344168090820313,-1.131390380859375,7.416842651367188
14.21,-7.364205932617188,-1.7585449218750002,7.486227416992188
14.2199999999999,-6.722396850585938,-1.4919219970703126,5.621661376953125
14.230000000000004,-6.749911499023438,-1.07486572265625,7.829711914062501
14.240000000000002,-6.635665893554688,-0.5037872314453126,7.805038452148438
14.25,-6.235806274414063,0.424981689453125,7.713522338867188
14.260000000000003,-7.30513916015625,1.5457550048828126,6.773986816406251
14.269999999999996,-7.0712646484375,2.3284271240234378,5.788095092773438
14.28,-7.494003295898438,1.5957000732421875,6.534729003906251
14.29,-7.181173706054688,0.448907470703125,6.841278076171876
14.300000000000004,-6.841726684570313,-0.416607666015625,7.270745849609375
14.310000000000002,-6.710882568359375,-0.796429443359375,7.16038818359375
14.32,-6.674993896484375,-1.1735595703125,7.007113647460938
14.3299999999999,-6.737350463867188,-1.4929687500000002,7.107601928710938
14.339999999999996,-6.817950439453125,-0.9239837646484376,7.985678100585938
14.35,-6.640750122070313,0.015850830078125,7.229324340820313
14.36,-7.054965209960938,0.856243896484375,6.420184326171875
14.370000000000005,-7.034329223632813,1.2520660400390626,6.9432617187500005
14.380000000000004,-6.806436157226563,1.30335693359375,6.731817626953125
14.39,-6.758584594726563,0.9064880371093752,7.5129943847656255
14.3999999999999,-6.804193115234376,0.3194091796875,7.019525146484376
14.410000000000004,-6.991561889648438,-0.3385498046875,6.55028076171875
14.420000000000002,-7.755841064453126,-0.6610992431640625,5.7937774658203125
14.43,-7.935733032226563,-0.287109375,5.494854736328126
14.440000000000005,-7.489517211914063,0.1643402099609375,6.313864135742188
14.449999999999996,-6.462203979492188,0.4007568359375,7.1062561035156255
14.459000000000003,-5.642895507812501,0.399560546875,8.745919799804689
14.469,-6.134121704101563,0.3458770751953125,8.901138305664062
14.480000000000004,-6.461306762695313,0.4768707275390625,7.829263305664063
14.489000000000004,-7.251156616210938,0.2606414794921875,5.67698974609375
14.499000000000002,-7.734457397460938,-0.3904388427734375,5.6288391113281255
14.509,-7.510302734375,-0.6745574951171875,6.1073547363281255
14.518999999999998,-7.242633056640625,-0.6129486083984376,7.158892822265625
14.529000000000003,-6.661236572265626,-0.0892730712890625,7.270446777343751
14.539,-6.339584350585938,0.4427764892578125,6.934439086914063
14.549,-6.897952270507813,0.8245422363281251,7.308279418945313
14.559000000000005,-6.995449829101563,1.14185791015625,7.224987792968751
14.569000000000004,-6.936383056640626,1.0229766845703123,6.666320800781251
14.579,-6.803594970703125,0.6998291015625,6.179281616210938
14.589,-7.899844360351563,0.057122802734375,6.6166748046875
14.599000000000004,-7.357925415039063,-0.1232177734375,6.375323486328125
14.609000000000002,-6.709686279296876,-0.4182525634765625,6.671554565429688
14.619,-5.955426025390626,-0.9230865478515624,8.225982666015625
14.629000000000003,-6.200216674804688,-1.1381195068359375,8.5379150390625
14.639000000000005,-6.683517456054688,-0.8028594970703126,8.416043090820313
14.649,-6.905877685546876,0.2507720947265625,5.892620849609376
14.659,-7.825674438476563,0.8463745117187501,5.291934204101563
14.669000000000004,-7.74716796875,1.002789306640625,6.148178100585938
14.679000000000002,-7.22080078125,0.9751251220703124,6.970028686523438
14.689,-6.3319580078125,0.8025604248046876,7.917190551757813
14.699000000000003,-6.148776245117188,0.4510009765625,7.123303222656251
14.709000000000003,-6.5245605468750005,-0.2429962158203125,8.036520385742188
14.719,-6.94864501953125,-0.7449890136718751,7.438674926757813
14.729,-7.158294677734376,-1.1729614257812502,6.505718994140626
14.739000000000004,-7.105059814453125,-1.05692138671875,6.352294921875001
14.749000000000002,-7.049432373046876,-0.6602020263671875,6.582131958007813
14.759,-6.970776367187501,0.0608612060546875,7.445553588867188
14.768999999999998,-6.645086669921875,0.8254394531250001,7.512695312500001
14.779000000000003,-6.343322753906251,1.2312805175781252,7.283157348632813
14.789,-6.375921630859375,1.2700103759765626,7.104013061523438
14.799,-7.448544311523438,0.976171875,6.692190551757813
14.809000000000005,-8.188897705078126,0.6911560058593751,5.855236816406251
14.819000000000004,-8.087811279296876,0.469244384765625,4.431353759765625
14.829,-7.450189208984375,0.1446014404296875,5.310028076171875
14.839,-6.798660278320313,-0.4457672119140625,7.569668579101563
14.849000000000004,-5.963650512695313,-0.7019226074218751,8.993701171875001
14.859000000000002,-5.650521850585938,-0.5867797851562501,9.322381591796876
14.869,-5.833554077148438,-0.5363861083984376,7.798757934570313
14.879000000000003,-6.443661499023438,-0.6044250488281251,7.275381469726563
14.889000000000005,-7.679129028320313,-0.4918243408203125,6.719107055664063
14.899,-7.861264038085938,0.10048828125,5.959313964843751
14.909,-7.668362426757813,0.7618865966796875,5.018582153320313
14.919000000000004,-7.192837524414063,1.143353271484375,5.797366333007813
14.929000000000002,-6.964645385742188,1.2691131591796876,7.059899902343751
14.938000000000002,-7.371383666992188,1.3305725097656251,7.366000366210938
14.9479999999999,-6.553421020507813,1.304254150390625,6.9612060546875005
14.957999999999998,-5.897256469726563,0.6521270751953125,6.572711181640625
14.968000000000004,-7.4935546875,-0.7861114501953126,8.094839477539063
14.978000000000002,-6.726135253906251,-1.499847412109375,7.770046997070313
14.988,-6.749761962890625,-1.5448577880859375,6.700115966796876
14.998000000000005,-6.905429077148438,-1.3821624755859376,6.871633911132813
15.008000000000004,-6.585421752929688,-0.9275726318359376,6.574057006835938
15.0179999999999,-7.296765136718751,-0.020037841796875,7.880554199218751
15.028,-6.779071044921875,1.5796997070312502,7.044049072265626
15.038000000000004,-7.115078735351563,2.182180786132813,5.929705810546875
15.048000000000002,-6.937878417968751,1.678094482421875,7.208837890625
15.058,-6.750360107421876,0.7971771240234375,7.0210205078125005
15.068000000000003,-7.1908935546875,-0.1042266845703125,7.727279663085938
15.078000000000005,-7.029544067382813,-0.53773193359375,6.145785522460938
15.088,-6.804043579101563,-1.19808349609375,6.09329833984375
15.098,-7.111639404296875,-1.4910247802734375,7.406973266601563
15.108000000000004,-6.570318603515625,-1.0971466064453126,7.981790161132813
15.118000000000002,-6.597235107421875,-0.224005126953125,7.811019897460938
15.1279999999999,-6.83140869140625,0.7582977294921875,6.62564697265625
15.138000000000003,-6.816604614257813,1.30634765625,6.417492675781251
15.148000000000003,-6.760528564453126,1.2741973876953123,7.415945434570313
15.158,-6.908270263671875,0.789251708984375,7.602566528320313
15.168,-6.9277099609375,0.248828125,6.7398925781250005
15.178000000000004,-7.243829345703125,-0.170172119140625,5.630184936523438
15.188000000000002,-8.021865844726562,-0.286810302734375,5.547042846679688
15.1979999999999,-7.981640625000001,-0.2038177490234375,6.015838623046875
15.207999999999998,-6.839035034179688,0.045458984375,6.643292236328126
15.218000000000004,-6.024810791015625,0.2103973388671875,7.905526733398438
15.228000000000002,-6.041259765625,0.288604736328125,8.675637817382814
15.238,-6.3451171875000005,0.416009521484375,8.398397827148438
15.248000000000005,-6.57420654296875,0.40015869140625,7.090554809570313
15.258000000000004,-7.471273803710938,-0.0497955322265625,5.8326568603515625
15.2679999999999,-7.348654174804688,-0.4385894775390625,6.142495727539063
15.278,-7.684512329101563,-0.496759033203125,6.221450805664063
15.288000000000004,-7.2498107910156255,-0.265576171875,6.9985900878906255
15.298000000000002,-6.384893798828125,0.2385101318359375,6.564785766601563
15.308,-6.584225463867188,0.3576904296875,7.600921630859376
15.318000000000003,-6.965093994140625,0.7759429931640626,7.341326904296875
15.328000000000005,-7.041506958007813,1.1713165283203126,6.905877685546876
15.338,-6.551028442382813,1.206756591796875,6.194384765625
15.348,-7.737747192382813,0.4119720458984375,6.700714111328126
15.358000000000004,-7.1191162109375,-0.148040771484375,7.101470947265626
15.368000000000002,-6.930999755859376,-0.4024017333984375,6.205300903320313
15.3779999999999,-6.450540161132813,-0.7901489257812501,8.087512207031251
15.388000000000003,-6.377566528320313,-0.9558349609375,7.327270507812501
15.396999999999906,-6.7363037109375,-1.1191284179687502,8.257086181640625
15.407000000000004,-6.694882202148438,-0.258697509765625,6.620114135742188
15.417000000000002,-7.353738403320313,0.6198272705078125,6.3002563476562505
15.428000000000004,-7.604959106445313,0.9591247558593752,6.636563110351563
15.437000000000005,-7.211679077148438,0.9162078857421876,6.255993652343751
15.447000000000005,-6.591702270507813,0.7415496826171876,7.37691650390625
15.457,-6.535476684570313,0.6950439453125,7.105358886718751
15.4669999999999,-6.708639526367188,0.18602294921875,7.899993896484376
15.476999999999997,-6.690695190429688,-0.4222900390625,7.162930297851563
15.487000000000002,-6.8864379882812505,-1.04794921875,6.948046875
15.4969999999999,-7.257736206054688,-1.0144531250000002,6.78116455078125
15.507000000000003,-7.079040527343751,-0.6555664062500001,6.576449584960938
15.517000000000005,-6.893017578125001,-0.2723052978515625,6.933541870117188
15.527,-6.608450317382813,0.228790283203125,7.532583618164063
15.5369999999999,-6.418240356445313,0.7210632324218751,7.666717529296876
15.546999999999995,-6.438278198242188,1.0457061767578126,7.5378173828125
15.557000000000002,-7.121957397460938,1.0546783447265626,6.605310058593751
15.567,-7.851992797851563,0.91097412109375,5.721102905273438
15.576999999999906,-8.125494384765625,0.7116424560546876,4.92572021484375
15.587000000000003,-7.535574340820313,0.5498443603515626,5.711233520507813
15.597,-7.153659057617188,0.023626708984375,6.840380859375
15.6069999999999,-6.360369873046875,-0.38460693359375,7.904779052734375
15.617000000000004,-6.040661621093751,-0.4729827880859375,8.421725463867189
15.627000000000002,-5.780767822265625,-0.5386291503906251,8.346060180664063
15.637,-6.369641113281251,-0.816168212890625,7.935134887695313
15.646999999999906,-6.863558959960938,-0.8218505859375,7.301400756835938
15.656999999999996,-7.662530517578125,-0.325091552734375,6.187207031250001
15.667000000000002,-7.652511596679688,0.4481597900390625,5.3571319580078125
15.6769999999999,-7.460806274414063,1.0196868896484377,5.608950805664063
15.687000000000005,-7.087115478515625,1.206158447265625,6.6549560546875
15.697000000000005,-7.311718750000001,1.4629119873046876,6.955673217773438
15.707,-6.810174560546876,1.6303924560546876,6.914700317382813
15.7169999999999,-6.343621826171876,1.2649261474609377,6.563140869140626
15.726999999999997,-7.243081665039063,-0.1727142333984375,7.888031005859376
15.737000000000002,-6.2099365234375,-1.3133758544921876,7.6574462890625
15.7469999999999,-6.573010253906251,-1.821798706054688,7.826870727539063
15.757000000000003,-7.145285034179688,-1.9070343017578129,7.386038208007813
15.767000000000005,-6.522018432617188,-1.3893402099609375,6.168215942382813
15.777,-7.482040405273438,-0.5321990966796876,6.7506591796875
15.7869999999999,-7.125546264648438,1.2520660400390626,6.616226196289063
15.796999999999995,-7.188949584960938,2.1999755859375,6.784005737304688
15.807000000000002,-6.477307128906251,2.1157867431640627,7.517630004882813
15.817,-6.679629516601563,1.380218505859375,7.082928466796876
15.826999999999906,-6.789389038085938,0.5247222900390626,7.769897460937501
15.837000000000003,-7.417141723632813,-0.2576507568359375,6.13157958984375
15.847,-7.079937744140626,-1.334759521484375,6.342575073242188
15.8569999999999,-7.188351440429688,-1.756900024414063,6.113784790039063
15.867000000000004,-6.632376098632813,-1.5254180908203123,7.8943115234375005
15.877000000000002,-6.734658813476563,-0.5818450927734375,8.016183471679689
15.885999999999996,-6.513345336914063,0.406439208984375,7.459759521484376
15.896,-6.598281860351563,1.2285888671875,6.654058837890625
15.9059999999999,-6.7174621582031255,1.483697509765625,7.137509155273438
15.916000000000004,-7.022067260742188,1.1481384277343751,7.645184326171876
15.926000000000002,-6.796716308593751,0.4879364013671875,6.798959350585938
15.936,-7.252053833007813,-0.2202667236328125,6.027801513671875
15.946000000000003,-7.900442504882813,-0.3883453369140625,5.435638427734375
15.955999999999996,-7.943209838867188,-0.2758941650390625,5.915499877929688
15.966,-7.254296875,0.018841552734375,6.025857543945313
15.976,-6.274386596679688,0.2220611572265625,7.728775024414063
15.986000000000004,-6.070269775390625,0.43365478515625,8.301199340820313
15.996000000000002,-6.2568908691406255,0.566143798828125,8.920877075195314
16.006,-6.3929687500000005,0.5161987304687501,7.159490966796875
16.0159999999999,-7.061993408203126,-0.0061309814453125,6.213674926757813
16.025999999999996,-7.4920593261718755,-0.5330963134765625,6.297714233398438
16.036,-7.521069335937501,-0.6054718017578126,6.233114624023438
16.046,-7.587014770507813,-0.5176940917968751,6.680377197265625
16.056000000000004,-6.414950561523438,-0.0309539794921875,6.527850341796875
16.066000000000003,-6.560897827148438,0.22669677734375,7.427459716796876
16.076,-6.767108154296875,0.7826721191406251,7.6460815429687505
16.0859999999999,-7.174295043945313,1.2985717773437502,6.834100341796876
16.096000000000004,-6.608749389648438,1.5143524169921876,6.193038940429688
16.106,-7.819692993164063,0.9824523925781252,5.999090576171875
16.116,-7.168463134765625,0.12919921875,7.426712036132813
16.126000000000005,-6.850100708007813,-0.4523468017578125,6.517532348632813
16.135999999999996,-6.553570556640626,-1.2507202148437502,8.386285400390626
16.146,-5.886190795898438,-1.6021301269531252,7.818048095703125
16.1559999999999,-6.382052612304688,-1.615289306640625,7.446749877929688
16.166000000000004,-7.518975830078125,-0.5758636474609375,7.024011230468751
16.176000000000002,-7.425515747070313,1.0738189697265623,5.765066528320313
16.186,-7.614529418945313,1.529156494140625,6.112588500976563
16.196000000000005,-6.960757446289063,1.47322998046875,6.365902709960938
16.205999999999996,-6.600823974609376,1.304254150390625,7.796813964843751
16.216,-6.471325683593751,1.087127685546875,8.187103271484375
16.226,-6.579739379882813,0.0853851318359375,7.046142578125001
16.236000000000004,-6.814959716796875,-1.127801513671875,6.569122314453126
16.246000000000002,-7.271942138671876,-1.708001708984375,7.0138427734375
16.256,-7.23515625,-1.618878173828125,6.90318603515625
16.2659999999999,-6.798062133789063,-0.98155517578125,6.755145263671875
16.276000000000003,-6.642544555664063,-0.3228485107421875,7.269699096679688
16.286,-6.541757202148438,0.7098480224609376,7.434188842773438
16.296,-6.5592529296875,1.511810302734375,7.984780883789063
16.306000000000004,-6.582431030273438,1.7002258300781252,7.21182861328125
16.315999999999995,-6.847259521484376,1.22021484375,6.5568603515625
16.326,-7.633819580078126,0.6433044433593751,5.799908447265626
16.3359999999999,-8.407818603515626,0.2998199462890625,5.5065185546875
16.345,-8.163476562500001,0.103778076171875,4.88983154296875
16.356,-7.312017822265625,-0.079254150390625,5.4586669921875
16.366,-6.2003662109375,-0.4918243408203125,7.961602783203125
16.376000000000005,-5.575753784179688,-0.584686279296875,9.691586303710938
16.385999999999996,-5.59085693359375,-0.509918212890625,9.880899047851564
16.395000000000003,-5.9048828125,-0.4451690673828125,7.611837768554688
16.405,-6.982739257812501,-0.390887451171875,6.295172119140625
16.415,-7.865301513671875,-0.24583740234375,5.963650512695313
16.425000000000004,-8.174990844726564,0.10108642578125,5.605511474609376
16.435000000000002,-7.581332397460938,0.689361572265625,5.8969573974609375
16.445,-7.234707641601563,1.2481781005859376,5.587417602539063
16.455,-6.656451416015625,1.5049316406250002,7.237100219726563
16.465000000000003,-6.9635986328125,1.3957702636718752,7.362860107421875
16.475,-6.345864868164063,1.0433135986328126,7.68077392578125
16.485,-6.694882202148438,0.34632568359375,6.726284790039063
16.495000000000005,-7.00487060546875,-0.772503662109375,7.462152099609375
16.505000000000003,-6.915298461914063,-1.63831787109375,6.820941162109375
16.515,-6.786846923828126,-1.714581298828125,7.545892333984375
16.525,-7.198669433593751,-1.343731689453125,7.077545166015626
16.535000000000004,-6.264218139648438,-0.6219207763671876,6.718508911132813
16.545,-6.9866271972656255,0.328082275390625,7.264016723632813
16.555,-7.015188598632813,1.5918121337890627,7.245773315429688
16.565000000000005,-7.119564819335938,2.1092071533203125,6.670806884765626
16.575000000000003,-6.990963745117188,1.6046722412109375,6.580337524414063
16.585,-6.997692871093751,0.7478302001953125,6.653909301757813
16.595,-6.976757812500001,-0.0638519287109375,7.272390747070313
16.605000000000004,-7.243380737304688,-0.699530029296875,6.776080322265625
16.615000000000002,-6.609646606445313,-1.3987609863281252,6.971524047851563
16.625,-6.826174926757813,-1.4554351806640626,6.827670288085938
16.635000000000005,-6.675741577148438,-0.972882080078125,7.966986083984375
16.645000000000003,-6.821090698242188,-0.08314208984375,7.444357299804688
16.655,-6.839633178710938,0.73392333984375,7.020571899414063
16.665,-6.850848388671875,1.22320556640625,6.28111572265625
16.675000000000004,-6.798211669921876,1.2731506347656252,7.127639770507813
16.685000000000002,-6.91514892578125,0.8833099365234376,7.721597290039063
16.695,-6.6645263671875,0.2400054931640625,6.939373779296876
16.705,-7.205548095703126,-0.394476318359375,6.177188110351563
