time,ax,ay,az
0.0,0.2480804443359375,8.419631958007812,5.023965454101563
0.0109999999999956,0.1215728759765625,8.49066162109375,5.034881591796875
0.0210000000000007,-0.1200775146484375,8.29925537109375,4.89581298828125
0.0309999999999988,-0.409130859375,8.282208251953126,4.843026733398438
0.0409999999999968,-0.8136260986328125,8.301947021484375,5.465994262695313
0.0509999999999948,-1.1405120849609376,8.154953002929688,5.0954437255859375
0.0609999999999999,-1.094903564453125,8.22987060546875,4.871289062500001
0.0709999999999979,-0.655865478515625,8.216262817382812,4.960861206054688
0.0809999999999959,0.1087127685546875,8.078091430664063,4.7050048828125
0.091000000000001,0.277838134765625,8.725433349609375,4.246975708007813
0.100999999999999,0.6084625244140626,9.495693969726563,6.107504272460938
0.1109999999999971,0.777288818359375,7.201211547851563,6.434390258789063
0.1209999999999951,0.150433349609375,6.905429077148438,5.364309692382813
0.1310000000000002,0.9090301513671876,9.22637939453125,4.1503753662109375
0.1419999999999959,0.9775177001953126,9.004318237304688,1.83271484375
0.152000000000001,0.6805389404296875,8.347555541992188,7.003524780273438
0.161999999999999,0.451300048828125,7.658941650390625,6.752154541015625
0.171999999999997,0.282025146484375,8.697171020507813,4.635769653320313
0.181999999999995,-0.59036865234375,8.523709106445313,4.90538330078125
0.1920000000000001,-0.56763916015625,7.895956420898438,4.262677001953126
0.2019999999999981,-1.1595031738281252,8.761471557617188,5.726934814453125
0.2119999999999962,-1.1731109619140625,8.515484619140626,5.341281127929688
0.2219999999999942,-1.166680908203125,8.3512939453125,4.993161010742188
0.2319999999999993,-0.6868194580078125,8.5714111328125,4.864260864257813
0.2419999999999973,-0.2157806396484375,8.479296875000001,4.578646850585938
0.2519999999999953,0.1902099609375,8.161981201171876,5.637362670898438
0.2620000000000004,0.474029541015625,8.404379272460938,5.7305236816406255
0.2719999999999984,0.8492156982421876,8.567373657226563,4.6602935791015625
0.2819999999999965,0.9365447998046876,8.797061157226564,4.011904907226563
0.2929999999999992,1.4934173583984376,8.382247924804688,4.500140380859375
0.3029999999999972,1.2389068603515625,8.256188964843751,5.238250732421875
0.3129999999999953,0.5531341552734376,8.349798583984375,4.9922637939453125
0.3230000000000004,-0.0019439697265625,8.066128540039063,4.786950683593751
0.3329999999999984,-0.1401153564453125,8.1826171875,6.2721435546875
0.3429999999999964,0.0423187255859375,8.135214233398438,5.423526000976563
0.3529999999999944,-0.260491943359375,8.313760375976564,5.519976806640625
0.3629999999999995,-0.225201416015625,8.235104370117188,4.541860961914063
0.3729999999999975,-0.1706207275390625,8.58277587890625,4.667620849609375
0.3829999999999955,-0.071478271484375,8.5115966796875,4.6882568359375005
0.3930000000000007,-0.421990966796875,8.209982299804688,4.778726196289063
0.4029999999999987,-0.5700317382812501,7.615426635742188,5.0136474609375
0.4129999999999967,-1.0316497802734377,6.0121002197265625,4.654611206054688
0.4229999999999947,-0.80570068359375,8.688497924804688,5.2349609375
0.4339999999999975,0.8354583740234376,13.714407348632813,7.3455139160156255
0.4439999999999955,0.5866302490234375,8.425164794921876,4.369894409179688
0.4540000000000006,0.165386962890625,5.008114624023438,5.4767608642578125
0.4639999999999986,-0.3959716796875,7.498040771484375,2.714529418945313
0.4739999999999966,0.6461456298828125,8.659637451171875,2.356988525390625
0.4839999999999946,0.0952545166015625,9.5523681640625,7.294223022460938
0.4939999999999998,0.69085693359375,9.1312744140625,9.20364990234375
0.5039999999999978,0.4103271484375,8.455072021484376,4.16009521484375
0.5139999999999958,-0.216229248046875,6.894064331054688,5.218960571289063
0.5240000000000009,0.02572021484375,7.161434936523438,-1.27703857421875
0.5339999999999989,-0.5486480712890626,11.471664428710938,8.525204467773438
0.5439999999999969,-0.2023223876953125,8.355331420898438,6.443661499023438
0.5539999999999949,-0.996807861328125,7.8270202636718755,5.711383056640625
0.5649999999999977,-0.5082733154296876,8.13416748046875,4.620965576171876
0.5749999999999957,0.30625,7.540658569335938,3.80419921875
0.5850000000000009,0.320306396484375,8.194879150390626,5.015740966796876
0.5949999999999989,0.1734619140625,8.993850708007812,4.988076782226563
0.6049999999999969,0.5115631103515625,9.324774169921875,5.063592529296876
0.6149999999999949,0.1299468994140625,8.4039306640625,6.583477783203126
0.625,0.7285400390625001,7.410412597656251,3.533987426757813
0.634999999999998,0.6960906982421875,8.298208618164063,5.286251831054688
0.644999999999996,0.48330078125,8.069866943359376,4.849905395507813
0.654999999999994,-0.09869384765625,8.32318115234375,5.258587646484376
0.6649999999999991,-0.2002288818359375,9.017926025390626,4.92930908203125
0.6749999999999972,-0.2127899169921875,8.65455322265625,5.0475921630859375
0.6849999999999952,-0.137872314453125,8.154354858398438,5.061798095703125
0.6950000000000003,-0.445318603515625,7.7193542480468755,5.285504150390626
0.7049999999999983,-0.295184326171875,8.168710327148439,4.356735229492188
0.7149999999999963,-0.3958221435546875,8.549578857421876,5.033685302734376
0.7249999999999943,-0.1840789794921875,8.548382568359376,5.546295166015625
0.7359999999999971,-0.066693115234375,8.601617431640626,4.93529052734375
0.7459999999999951,-0.0016448974609375,8.313162231445313,5.821292114257813
0.7560000000000002,0.260491943359375,7.752999877929688,4.52496337890625
0.7669999999999959,0.3768310546875,8.339181518554689,5.559902954101563
0.7759999999999962,0.2989227294921875,8.4278564453125,3.822891235351563
0.7859999999999943,0.2184722900390625,8.594589233398438,5.289840698242188
0.7959999999999994,0.3084930419921875,8.542999267578125,5.2340637207031255
0.8059999999999974,0.490179443359375,8.25260009765625,5.2315216064453125
0.8159999999999954,0.2103973388671875,7.489517211914063,4.4614105224609375
0.8260000000000005,0.0584686279296875,7.037469482421876,4.755099487304688
0.8359999999999985,-0.21533203125,8.224636840820313,5.3701416015625005
0.8459999999999965,-0.6144439697265626,10.936624145507814,5.09918212890625
0.8559999999999945,-0.4562347412109375,10.20972900390625,6.883596801757813
0.8669999999999973,-0.136077880859375,6.318350219726563,3.3878906250000003
0.8769999999999953,-0.157611083984375,6.984085083007813,6.171356201171876
0.8870000000000005,0.3949249267578125,8.072409057617188,1.030303955078125
0.8969999999999985,0.3007171630859375,8.76580810546875,6.754248046875
0.9069999999999964,-0.21353759765625,9.107647705078126,9.948788452148438
0.9169999999999944,0.5206848144531251,9.017327880859376,3.674850463867188
0.9269999999999996,0.0282623291015625,8.163327026367188,3.928463745117188
0.9369999999999976,-0.5253204345703125,7.2976623535156255,1.0866790771484376
0.9469999999999956,-1.2897491455078125,9.485824584960938,6.587814331054688
0.9570000000000008,-0.1239654541015625,9.209332275390626,6.554766845703125
0.9679999999999964,0.1197784423828125,7.992706298828126,5.666372680664063
0.9769999999999968,0.4364959716796875,8.095736694335939,5.421432495117188
0.9879999999999995,0.1754058837890625,7.688848876953125,3.990072631835938
0.997,0.1843780517578125,7.863656616210938,5.062994384765625
1.0079999999999956,0.2379119873046875,8.923568725585938,4.3846984863281255
1.018000000000001,0.7137359619140625,9.453076171875,5.4646484375
1.0279999999999987,0.5447601318359375,8.879306030273439,4.429110717773438
1.0379999999999967,-0.0599639892578125,7.622753906250001,5.864358520507813
1.0479999999999947,0.3545501708984375,7.457516479492188,4.252359008789063
1.0579999999999998,0.2548095703125,8.26575927734375,5.628091430664063
1.0679999999999978,0.2409027099609375,8.269796752929688,4.198675537109375
1.077999999999996,-0.3392974853515625,8.987869262695312,5.415899658203125
1.088000000000001,-0.4960113525390625,8.728125,5.455078125
1.097999999999999,-0.5281616210937501,8.118466186523438,4.986581420898438
1.107999999999997,-0.200677490234375,7.913900756835938,5.650521850585938
1.117999999999995,-0.21593017578125,7.807730102539063,3.806292724609375
1.128,-0.295184326171875,8.657693481445314,5.598184204101563
1.1389999999999958,-0.4711883544921875,8.481689453125,4.473074340820313
1.147999999999996,0.007476806640625,8.6515625,6.163580322265625
1.158999999999999,0.084637451171875,8.425762939453126,4.6733032226562505
1.168999999999997,0.337652587890625,8.189047241210938,5.154959106445313
1.178999999999995,0.1280029296875,8.090353393554688,4.659396362304688
1.189,0.3385498046875,8.081530761718751,4.811325073242188
1.198999999999998,0.2615386962890625,7.597482299804688,4.419390869140625
1.208999999999996,0.3757843017578125,7.445852661132813,5.011404418945313
1.218999999999994,0.079852294921875,8.524905395507814,5.845217895507813
1.2289999999999992,0.083740234375,11.406466674804689,5.020526123046875
1.2389999999999972,-0.45877685546875,10.138998413085938,6.632376098632813
1.2489999999999952,-0.5298065185546875,5.159295654296876,2.855242919921875
1.2590000000000003,-1.0582672119140626,6.869390869140625,5.481845092773438
1.269999999999996,0.3748870849609375,8.015734863281251,2.8226440429687503
1.2789999999999964,0.714483642578125,10.2115234375,7.757336425781251
1.2899999999999991,0.5075256347656251,9.242529296875,8.597879028320314
1.2999999999999972,0.4086822509765625,7.83988037109375,3.345870971679688
1.3099999999999952,-0.0420196533203125,7.247567749023438,3.045004272460938
1.3200000000000005,0.134881591796875,8.268899536132814,2.589068603515625
1.3299999999999983,0.145050048828125,11.089450073242189,7.783056640625
1.3399999999999963,0.2074066162109375,8.469876098632813,5.0306945800781255
1.3499999999999943,-0.3760833740234375,7.054965209960938,5.981146240234375
1.3599999999999994,0.1099090576171875,7.011599731445313,4.3547912597656255
1.3699999999999974,-0.4544403076171875,8.406472778320314,4.469635009765625
1.3799999999999957,-0.260791015625,9.630575561523438,5.749215698242188
1.3900000000000006,-0.21234130859375,9.09478759765625,4.651171875
1.3999999999999986,0.689361572265625,8.5546630859375,6.239544677734376
1.4099999999999966,0.277239990234375,7.342523193359375,4.527355957031251
1.4199999999999946,0.356195068359375,7.833450317382813,4.49326171875
1.4309999999999974,0.0997406005859375,8.624945068359375,3.544454956054688
1.4409999999999954,0.2848663330078125,8.892764282226564,5.936285400390625
1.4510000000000003,0.182135009765625,8.525503540039063,4.861569213867188
1.4609999999999983,-0.11424560546875,8.382098388671876,6.186309814453126
1.4709999999999963,0.0399261474609375,7.883694458007813,4.238900756835938
1.4809999999999943,-0.294586181640625,8.121755981445313,5.138211059570313
1.4909999999999997,-0.21234130859375,7.880554199218751,5.000637817382813
1.5009999999999977,-0.3904388427734375,8.309722900390625,4.771548461914063
1.5109999999999957,-0.4294677734375,8.958111572265626,6.020175170898438
1.5210000000000008,-0.260491943359375,8.608944702148438,4.421484375
1.5309999999999988,-0.1090118408203125,8.405426025390625,5.2672607421875
1.5409999999999968,0.0321502685546875,7.7896362304687505,4.6583496093750005
1.5509999999999948,0.40015869140625,8.11083984375,5.233914184570313
1.561,0.251519775390625,8.3740234375,5.0878173828125
1.5719999999999956,0.285614013671875,8.677581787109375,4.92392578125
1.5820000000000007,0.2298370361328125,8.713619995117188,4.867849731445313
1.5919999999999987,0.3401947021484375,8.297760009765625,5.6046142578125
1.6019999999999968,0.3754852294921875,7.681671142578126,4.723248291015626
1.6119999999999948,0.3105865478515625,7.004421997070313,3.710739135742188
1.622,0.4765716552734375,6.925765991210938,4.373483276367188
1.631999999999998,-0.01495361328125,9.276773071289064,5.112490844726563
1.641999999999996,0.259295654296875,13.447784423828129,9.105255126953123
1.652000000000001,0.078955078125,8.469876098632813,3.9142578125
1.661999999999999,-0.441131591796875,4.993011474609375,3.946258544921875
1.671999999999997,-0.5522369384765625,6.366201782226563,3.3406372070312504
1.681999999999995,-0.732427978515625,8.964242553710939,3.9658477783203128
1.6920000000000002,-0.6293975830078126,10.803088378906253,9.143536376953126
1.7019999999999982,-0.3366058349609375,8.647674560546875,8.148672485351563
1.7119999999999962,0.4873382568359375,7.598678588867188,2.8473175048828128
1.7219999999999942,0.0849365234375,6.8116699218750005,3.605764770507813
1.732999999999997,-0.8338134765625,9.184210205078124,-0.3709991455078125
1.742999999999995,-1.0969970703125,11.228369140625,10.966531372070314
1.753,0.457879638671875,7.7555419921875,4.139010620117188
1.762999999999998,1.414910888671875,6.944308471679688,6.2090393066406255
1.772999999999996,-0.0139068603515625,7.261325073242188,4.23486328125
1.782999999999994,-0.2080047607421875,8.567822265625,4.0591583251953125
1.7929999999999993,0.1734619140625,9.401934814453126,5.807684326171875
1.8029999999999973,0.355596923828125,9.208734130859376,4.511355590820313
1.8129999999999955,0.2011260986328125,8.796612548828126,6.199319458007813
1.8230000000000004,-0.2262481689453125,7.401290893554688,5.014843750000001
1.8329999999999984,-0.0782073974609375,7.5144897460937505,3.864761352539063
1.8429999999999964,0.2930908203125,8.315554809570314,3.9704833984375
1.8529999999999944,0.3566436767578125,8.645132446289063,5.387338256835938
1.8639999999999968,-0.3241943359375,8.617318725585939,6.0161376953125005
1.8739999999999952,-0.5156005859375,8.782257080078125,5.228680419921876
1.8840000000000003,0.026318359375,8.254244995117189,5.214474487304688
1.8939999999999984,0.49586181640625,7.7435791015625,4.530645751953125
1.9039999999999964,0.270361328125,7.767953491210938,5.188156127929688
1.9139999999999944,-0.1375732421875,8.2675537109375,4.269705200195313
1.924,-0.23267822265625,9.132919311523438,5.440274047851563
1.9339999999999973,0.1712188720703125,8.740536499023438,5.28819580078125
1.9439999999999955,0.3814666748046875,8.446398925781251,5.210287475585938
1.9540000000000008,0.04605712890625,7.829711914062501,5.205950927734375
1.9639999999999984,-0.0614593505859375,7.791729736328126,4.7675109863281255
1.9739999999999969,-0.153125,8.376116943359376,5.1014251708984375
1.985,0.13338623046875,8.767153930664064,4.569973754882813
1.994,0.0378326416015625,8.801846313476563,5.0999298095703125
2.0049999999999955,-0.1134979248046875,8.340826416015625,5.504425048828125
2.015000000000001,-0.258697509765625,7.676287841796875,4.986431884765626
2.0249999999999986,-0.188116455078125,6.26676025390625,3.57451171875
2.0349999999999966,-0.6434539794921875,6.031689453125001,3.872088623046875
2.0449999999999946,0.2561553955078125,11.610733032226562,6.190197753906251
2.055,1.0338928222656252,15.492840576171876,9.935928344726562
2.0649999999999977,0.269464111328125,5.77269287109375,0.9230865478515624
2.074999999999996,-0.6769500732421876,2.2252471923828128,4.658200073242188
2.085000000000001,-1.532595825195313,7.889376831054688,3.711935424804688
2.094999999999999,0.4116729736328125,11.299099731445311,5.5092102050781255
2.104999999999997,2.1545166015625004,11.323025512695311,11.800344848632813
2.114999999999995,0.40673828125,6.071615600585938,1.0433135986328126
2.125,-0.4275238037109375,7.344467163085938,4.8318115234375005
2.135999999999996,-0.381317138671875,7.042553710937501,1.6635894775390627
2.146000000000001,0.011065673828125,11.451925659179688,6.728826904296875
2.155999999999999,0.317913818359375,10.501025390625,8.01453857421875
2.165999999999997,-0.3013153076171875,5.869891357421875,2.191152954101563
2.175999999999995,-0.9764709472656252,6.893167114257813,7.342971801757813
2.186,0.0179443359375,6.9701782226562505,1.80460205078125
2.195999999999998,0.4027008056640625,11.4592529296875,8.392416381835938
2.205999999999996,0.0471038818359375,8.96259765625,4.003680419921875
2.216000000000001,0.176153564453125,7.8838439941406255,5.127294921875
2.225999999999999,0.2435943603515625,6.980197143554688,4.561001586914063
2.235999999999997,0.1631439208984375,7.676138305664063,4.530047607421875
2.245999999999995,0.7261474609375,9.807177734375,5.087518310546876
2.256999999999998,-0.057122802734375,9.167013549804688,5.025460815429688
2.2659999999999982,0.1855743408203125,8.391519165039064,6.0704193115234375
2.275999999999996,0.1260589599609375,7.661483764648438,5.753851318359375
2.286999999999999,0.5468536376953126,7.746420288085938,4.557412719726563
2.296999999999997,-0.4341033935546875,8.24542236328125,2.59774169921875
2.306999999999995,-0.4089813232421875,8.825323486328125,5.248568725585938
2.317,-0.3949249267578125,8.581130981445312,4.913906860351563
2.326999999999998,-0.2367156982421875,8.6611328125,7.000085449218751
2.336999999999996,-0.390887451171875,7.85244140625,5.077200317382813
2.346999999999994,0.0073272705078125,8.176187133789064,4.767660522460938
2.357,-0.1332366943359375,8.031137084960939,4.908074951171876
2.369,0.244940185546875,8.041305541992188,4.148281860351563
2.376999999999996,-0.0596649169921875,8.708685302734375,5.288345336914063
2.3870000000000005,0.384906005859375,8.898297119140626,5.025311279296876
2.3969999999999985,0.2806793212890625,8.763265991210938,5.554220581054688
2.4069999999999965,0.215032958984375,7.8868347167968755,5.024114990234375
2.4169999999999945,0.3028106689453125,7.725186157226563,5.113836669921875
2.4279999999999973,0.375634765625,8.176187133789064,5.0954437255859375
2.437999999999996,-0.0701324462890625,8.660086059570313,4.815213012695313
2.4480000000000004,-0.186920166015625,8.67728271484375,4.584179687500001
2.4579999999999984,-0.3074462890625,8.401239013671876,4.987628173828125
2.468999999999994,0.23865966796875,7.086068725585938,4.899252319335938
2.4779999999999944,0.1658355712890625,6.979299926757813,4.838839721679688
2.4879999999999995,-0.079254150390625,8.735452270507814,3.99141845703125
2.4979999999999976,-0.126507568359375,11.830850219726564,6.734210205078125
2.507999999999996,0.045458984375,10.2151123046875,6.948345947265626
2.5180000000000007,0.1700225830078125,5.029348754882813,3.712234497070313
2.5279999999999987,-0.2298370361328125,6.319696044921876,4.337893676757813
2.5379999999999967,0.3563446044921875,8.747116088867188,2.244088745117188
2.5479999999999947,0.3072967529296875,10.28150634765625,6.7339111328125005
2.558,-0.1840789794921875,8.437426757812501,10.258477783203126
2.5700000000000003,0.55029296875,8.091549682617188,3.8475646972656254
2.5790000000000006,-0.1386199951171875,7.921527099609375,3.8731353759765614
2.588999999999998,-0.30565185546875,7.949789428710938,-0.4945159912109375
2.5989999999999966,-1.8953704833984373,10.338629150390624,8.033380126953126
2.6089999999999947,0.004486083984375,8.692535400390625,7.475610351562499
2.619,0.1718170166015625,7.395010375976563,5.786749267578125
2.628999999999998,-0.2595947265625,7.619015502929688,3.915155029296875
2.638999999999996,-0.078955078125,8.213421630859376,3.744683837890625
2.649000000000001,-0.0901702880859375,8.9087646484375,4.94486083984375
2.658999999999999,0.2367156982421875,8.838482666015626,5.850302124023438
2.668999999999997,0.653173828125,8.809472656250001,5.3761230468750005
2.678999999999995,0.2322296142578125,8.177233886718751,5.520425415039063
2.689,0.1712188720703125,7.453927612304688,4.219161987304688
2.698999999999998,0.31522216796875,8.255889892578125,4.826876831054688
2.708999999999996,0.5227783203125,8.40811767578125,5.214923095703125
2.719999999999999,0.0608612060546875,8.748611450195312,4.535879516601563
2.729999999999997,-0.356494140625,8.9673828125,5.1507720947265625
2.739999999999995,-0.2379119873046875,8.293872070312501,4.985684204101563
2.75,0.017645263671875,7.78006591796875,4.9683380126953125
2.759999999999998,-0.0982452392578125,7.731167602539063,5.408721923828125
2.769999999999996,-0.1447509765625,8.388827514648439,5.083630371093751
2.779999999999994,-0.3808685302734375,8.731713867187501,5.279672241210938
2.789999999999999,-0.21234130859375,8.536120605468751,4.655059814453125
2.799999999999997,0.1431060791015625,8.41708984375,5.30015869140625
2.809999999999995,0.4287200927734375,8.31121826171875,4.92093505859375
2.8200000000000003,0.21593017578125,7.969827270507813,4.811474609375001
2.8299999999999983,0.0243743896484375,8.27054443359375,4.775585937500001
2.841000000000001,0.2289398193359375,8.609243774414063,5.205502319335938
2.8499999999999943,0.4143646240234375,8.403781127929689,5.769403076171876
2.860999999999997,0.08673095703125,8.375070190429689,5.065237426757813
2.870999999999995,-0.1520782470703125,8.28370361328125,4.676144409179688
2.881,-0.1170867919921875,8.389874267578126,4.842129516601563
2.8909999999999982,-0.043963623046875,7.604061889648438,4.462008666992188
2.900999999999996,-0.29249267578125,6.887933349609376,4.7829132080078125
2.9109999999999943,-0.38460693359375,7.414898681640626,4.903289794921875
2.921,-0.5994903564453126,10.741030883789064,5.219110107421876
2.9309999999999974,0.3216522216796875,13.197161865234376,7.372280883789063
2.9409999999999954,-0.1766021728515625,5.936285400390625,3.068780517578125
2.9510000000000005,-0.7986724853515625,4.204357910156251,6.651367187500001
2.9609999999999985,-0.0462066650390625,7.50850830078125,1.9231842041015623
2.9709999999999965,1.33984375,11.37356872558594,4.887887573242188
2.9809999999999945,0.6984832763671875,9.729718017578126,9.749008178710938
2.9919999999999973,0.665435791015625,7.588809204101563,4.991217041015625
3.001999999999996,0.046954345703125,7.66103515625,4.950094604492188
3.0120000000000005,0.28890380859375,6.93309326171875,-0.19918212890625
3.0219999999999985,-0.6655853271484375,10.734451293945312,4.846316528320313
3.0319999999999965,-0.268267822265625,9.911853027343753,9.2293701171875
3.0419999999999945,-0.0716278076171875,6.913653564453125,5.206250000000001
3.052,-0.5755645751953126,6.954776000976563,6.347360229492188
3.0619999999999976,0.04605712890625,7.713970947265626,2.0164947509765625
3.071999999999996,-0.208154296875,9.957611083984377,4.575955200195313
3.0820000000000007,-0.1351806640625,8.6802734375,4.645040893554688
3.0919999999999987,0.182733154296875,8.537615966796876,7.002328491210938
3.1019999999999968,0.804205322265625,8.319442749023438,6.280218505859375
3.1119999999999948,0.5181427001953125,7.552023315429688,4.087719726562501
3.122,0.4852447509765625,8.168261718750001,3.997848510742188
3.131999999999998,0.2911468505859375,8.524157714843751,4.500289916992188
3.1430000000000007,0.352606201171875,8.660833740234375,5.25230712890625
3.1529999999999987,-0.30206298828125,8.745770263671876,5.265017700195313
3.1629999999999967,-0.11783447265625,8.776574707031251,5.128341674804688
3.1729999999999947,-0.423187255859375,7.884591674804688,4.183721923828125
3.183,-0.5359375000000001,7.753298950195313,6.054269409179688
3.192999999999998,-0.4318603515625,7.573406982421876,4.9683380126953125
3.202999999999996,-0.3539520263671875,8.748760986328126,5.765963745117188
3.213000000000001,-0.477618408203125,8.834295654296875,4.4265686035156255
3.222999999999999,-0.0064300537109375,8.731863403320313,4.637564086914063
3.232999999999997,0.172265625,8.428753662109376,5.251858520507813
3.242999999999995,0.4673004150390625,7.624996948242188,4.777081298828126
3.253,0.2576507568359375,8.018276977539063,5.3910766601562505
3.262999999999998,0.445916748046875,8.501278686523438,5.004525756835938
3.274000000000001,0.5342926025390625,8.881250000000001,5.415151977539063
3.282999999999994,0.286212158203125,8.37342529296875,4.726239013671876
3.293999999999997,0.0973480224609375,8.274282836914063,5.494107055664063
3.303999999999995,0.2089019775390625,8.230917358398438,4.664630126953125
3.314,-0.2106964111328125,8.224337768554689,4.596890258789063
3.323999999999998,-0.135479736328125,7.730419921875001,4.2647705078125
3.333999999999996,0.040972900390625,7.425515747070313,4.6404052734375005
3.343999999999994,0.267669677734375,7.75614013671875,6.172103881835938
3.353999999999999,-0.3748870849609375,9.649118041992187,4.557412719726563
3.363999999999997,-0.084637451171875,11.761166381835938,7.25968017578125
3.3739999999999952,0.0674407958984375,7.684661865234376,3.502883911132813
3.3840000000000003,0.0925628662109375,5.6034179687500005,6.120513916015625
3.3939999999999984,-0.060711669921875,6.996646118164063,2.2079010009765625
3.4039999999999964,0.0705810546875,9.57449951171875,4.364959716796875
3.4139999999999944,-0.2872589111328125,9.986920166015626,8.697769165039062
3.4239999999999995,-0.015850830078125,8.312564086914064,7.453329467773438
3.434999999999995,0.241351318359375,7.980145263671876,4.4658966064453125
3.4450000000000003,-0.2776885986328125,7.529293823242188,1.4952117919921877
3.4549999999999983,-0.7514190673828125,8.973962402343751,2.844775390625
3.4649999999999963,-0.6759033203125,9.1970703125,6.384594726562501
3.4749999999999943,0.1466949462890625,8.656945800781251,7.365850830078125
3.4869999999999948,0.018243408203125,7.83031005859375,6.580038452148438
3.494999999999997,0.3084930419921875,7.755093383789063,5.080789184570313
3.5049999999999955,-0.294586181640625,8.040856933593751,2.625106811523437
3.515000000000001,0.00418701171875,8.449389648437501,4.336248779296875
3.5249999999999986,0.3204559326171875,9.182266235351562,5.488275146484376
3.5349999999999966,0.44561767578125,8.889025878906251,5.9730712890625
3.5449999999999946,-0.3422882080078125,8.372976684570313,4.9322998046875
3.555,0.1317413330078125,7.818496704101563,5.200119018554688
3.5659999999999954,0.4960113525390625,7.933639526367188,4.7844085693359375
3.5760000000000005,0.4281219482421875,8.051473999023438,4.646685791015625
3.586999999999996,-0.1111053466796875,8.595187377929689,4.422381591796875
3.5959999999999965,-0.1972381591796875,9.202902221679688,4.782315063476563
3.6059999999999945,-0.077459716796875,8.523858642578126,5.4075256347656255
3.616,0.0958526611328125,8.015585327148438,5.310626220703125
3.6259999999999977,0.105572509765625,7.434936523437501,5.423226928710938
3.635999999999996,0.049346923828125,8.079287719726564,5.525958251953125
3.646000000000001,-0.1999298095703125,8.364602661132814,4.673751831054688
3.655999999999999,-0.178546142578125,8.938372802734376,4.701864624023438
3.665999999999997,0.07476806640625,8.678927612304689,4.772146606445313
3.675999999999995,0.1544708251953125,8.4158935546875,5.601473999023438
3.6869999999999976,0.042767333984375,8.093942260742189,4.72235107421875
3.695999999999998,-0.0085235595703125,8.027099609375,4.8198486328125005
3.7070000000000007,0.1514801025390625,8.344714355468751,5.000189208984375
3.716999999999999,0.2583984375,8.383294677734376,5.695681762695313
3.7269999999999968,0.087628173828125,8.600271606445313,5.2923828125000005
3.7369999999999934,-0.1173858642578125,8.321835327148438,4.69244384765625
3.747,-0.045758056640625,7.676885986328125,4.258489990234375
3.756999999999998,0.1751068115234375,6.467437744140626,4.0352325439453125
3.766999999999996,0.1897613525390625,7.303195190429688,4.889532470703125
3.777000000000001,-0.0770111083984375,12.272430419921877,6.117971801757813
3.786999999999999,0.506927490234375,12.911398315429688,8.002874755859375
3.796999999999997,-0.2507720947265625,4.585824584960938,2.663238525390625
3.806999999999995,-0.9630126953125,3.9028930664062496,5.553622436523438
3.817,-0.208453369140625,8.144335937500001,0.8728424072265626
3.826999999999998,0.6132476806640625,12.229812622070312,6.691891479492188
3.836999999999996,0.01614990234375,9.929647827148438,11.638845825195313
3.846999999999994,0.3034088134765625,6.605758666992188,2.9244781494140626
3.8569999999999993,-0.3120819091796875,7.242034912109376,4.771697998046875
3.867999999999995,0.0203369140625,7.315158081054688,-0.772503662109375
3.878,-0.701025390625,11.734100341796877,5.295074462890625
3.887999999999998,-0.1763031005859375,9.5284423828125,10.747909545898438
3.897999999999996,0.22669677734375,6.318499755859375,2.9335998535156254
3.907999999999994,-0.064300537109375,7.617221069335938,7.65445556640625
3.9179999999999993,0.2226593017578125,6.985879516601563,0.7014739990234375
3.927999999999997,0.287408447265625,10.18580322265625,5.4647979736328125
3.9379999999999953,0.10467529296875,8.820239257812501,5.0774993896484375
3.948,0.624761962890625,9.07684326171875,6.671554565429688
3.9579999999999984,0.367559814453125,8.1646728515625,6.325228881835938
3.967999999999997,0.2869598388671875,7.1167236328125005,3.096145629882813
3.9779999999999935,0.0626556396484375,8.307180786132813,4.2351623535156255
3.988999999999997,0.079852294921875,8.325274658203126,4.704855346679688
3.9979999999999976,-0.0788055419921875,8.655899047851562,5.4897705078125005
4.009,-0.7259979248046875,8.863455200195313,5.344720458984376
4.018999999999998,-0.3016143798828125,8.755191040039064,5.3964599609375
4.028999999999996,-0.108563232421875,7.881600952148438,4.489373779296876
4.038999999999994,-0.1999298095703125,7.416244506835938,5.6871582031250005
4.049,-0.200079345703125,7.652810668945313,4.592404174804688
4.0589999999999975,-0.059515380859375,9.07669372558594,5.277578735351563
4.068999999999996,0.0669921875,9.054562377929688,4.883551025390625
4.079000000000001,0.2966796875,8.690890502929689,4.664181518554688
4.088999999999999,0.3527557373046875,8.210430908203126,5.499490356445313
4.098999999999997,0.5586669921875,7.516433715820313,5.4229278564453125
4.108999999999995,0.3192596435546875,8.108148193359376,4.7672119140625
4.119,0.1146942138671875,8.543148803710938,4.355838012695313
4.128999999999998,0.135479736328125,8.914297485351563,5.331112670898438
4.140000000000001,-0.0719268798828125,8.533279418945312,5.691046142578125
4.149999999999999,-0.21712646484375,8.095138549804688,5.151220703125
4.159999999999997,-0.2083038330078125,8.151513671875001,4.358978271484375
4.169999999999995,0.0478515625,7.344317626953125,3.892276000976562
4.18,0.360382080078125,6.392221069335938,4.350454711914063
4.189999999999998,-0.0165985107421875,7.888629150390625,4.678985595703125
4.199999999999996,0.2121917724609375,13.191030883789065,8.376565551757814
4.210000000000001,0.232379150390625,11.328109741210938,6.724490356445313
4.219999999999999,0.1670318603515625,4.487579345703125,1.3784240722656251
4.229999999999997,-0.3856536865234375,5.286251831054688,4.880859375
4.239999999999995,-0.3333160400390625,8.802294921875001,3.0273590087890625
4.25,-0.1819854736328125,11.382540893554689,8.342620849609375
4.259999999999998,-0.20875244140625,8.914895629882814,8.794369506835938
4.269999999999996,0.4376922607421875,7.32607421875,2.6402099609375003
4.279999999999994,-0.121124267578125,7.324279785156251,3.731524658203125
4.290999999999997,-0.8604309082031251,7.538714599609375,2.228536987304688
4.300999999999995,-1.0364349365234375,11.360708618164065,7.258035278320313
4.311,0.207855224609375,9.004168701171876,6.265414428710938
4.320999999999998,0.6691741943359375,6.947299194335938,5.600427246093751
4.330999999999996,0.0474029541015625,7.204052734375001,4.831961059570313
4.341000000000001,0.0456085205078125,7.7657104492187505,3.52965087890625
4.350999999999999,0.35589599609375,9.662725830078124,5.134472656250001
4.360999999999997,0.4224395751953125,9.00745849609375,5.153164672851563
4.370999999999995,0.300567626953125,8.99130859375,6.504522705078125
4.381,-0.1553680419921875,7.706344604492188,5.497396850585938
4.390999999999998,0.021832275390625,7.302447509765625,3.694290161132813
4.400999999999996,0.2500244140625,8.421575927734375,4.356286621093751
4.410999999999994,0.35111083984375,8.71317138671875,4.549038696289063
4.420999999999999,-0.3892425537109375,8.7293212890625,5.146286010742188
4.431999999999995,-0.6570617675781251,8.680572509765625,5.8800598144531255
4.442,-0.0674407958984375,8.375518798828125,5.39825439453125
4.451999999999998,0.3401947021484375,7.844366455078125,4.510757446289063
4.461999999999996,0.0043365478515625,7.717559814453126,4.88385009765625
4.471999999999994,-0.0500946044921875,8.1168212890625,4.868298339843751
4.481999999999999,-0.0788055419921875,8.957513427734376,5.695233154296876
4.491999999999997,0.181536865234375,8.622702026367188,4.7528564453125
4.501999999999995,0.3102874755859375,8.613879394531251,4.876522827148438
4.5120000000000005,0.277838134765625,8.203103637695314,5.2194091796875
4.521999999999999,0.090020751953125,7.730718994140625,5.022021484375
4.5319999999999965,-0.125311279296875,8.0103515625,4.972076416015625
4.5419999999999945,0.06400146484375,8.690292358398438,4.948748779296875
4.552999999999997,0.1828826904296875,8.923419189453126,5.253802490234375
4.561999999999998,-0.1434051513671875,8.410360717773438,5.22000732421875
4.571999999999996,-0.3600830078125,8.021865844726562,4.883700561523438
4.582999999999998,-0.1215728759765625,7.313214111328126,4.391726684570313
4.592999999999996,0.1233673095703125,6.843820190429688,4.719210815429688
4.602999999999994,0.093310546875,7.602267456054688,4.462158203125
4.613,-0.133984375,11.921768188476562,5.50113525390625
4.6229999999999976,0.189312744140625,12.567913818359376,8.084671020507812
4.632999999999996,-0.3476715087890625,4.918392944335938,2.3966156005859376
4.643000000000001,-0.92891845703125,4.789642333984375,6.676339721679688
4.652999999999999,-0.0195892333984375,7.5997253417968755,0.6627441406250001
4.662999999999997,1.3002166748046875,11.750997924804688,6.234609985351563
4.672999999999995,0.2392578125,9.348101806640626,10.730264282226564
4.683,0.5553771972656251,7.3111206054687505,3.2637756347656253
4.692999999999998,0.026617431640625,7.717559814453126,5.814413452148438
4.704000000000001,0.456683349609375,6.979598999023438,-0.981854248046875
4.713999999999999,-0.5956024169921875,11.338278198242188,5.127593994140625
4.723999999999997,-0.2382110595703125,9.365896606445313,10.116418457031251
4.733999999999995,-0.06519775390625,6.958364868164063,3.907827758789063
4.744,-0.3754852294921875,7.1215087890625,6.454428100585938
4.753999999999998,0.1685272216796875,7.784252929687501,2.3906341552734376
4.763999999999996,-0.3046051025390625,9.687847900390626,4.942617797851563
4.774000000000001,-0.3061004638671875,8.799752807617189,4.90179443359375
4.783999999999999,0.2782867431640625,8.694180297851563,6.896008300781251
4.793999999999997,0.8676086425781251,8.275628662109376,5.583230590820313
4.803999999999995,0.4376922607421875,7.446600341796875,3.86461181640625
4.814,0.09869384765625,8.180523681640626,4.234713745117188
4.823999999999998,0.3351104736328125,8.746368408203125,4.934542846679688
4.833999999999996,0.2809783935546875,8.578289794921876,5.299560546875
4.844999999999999,-0.23865966796875,8.675787353515625,5.045498657226563
4.854999999999997,-0.209051513671875,8.6264404296875,5.386141967773438
4.864999999999995,-0.1212738037109375,7.971322631835938,4.281668090820313
4.875,-0.3521575927734375,7.625595092773438,5.603118896484375
4.884999999999998,-0.2797821044921875,7.79202880859375,4.576702880859376
4.894999999999996,-0.204266357421875,8.985775756835938,5.972024536132813
4.904999999999994,-0.280230712890625,8.66651611328125,4.744631958007813
4.914999999999999,-0.2295379638671875,8.560943603515625,4.875775146484376
4.924999999999997,0.200677490234375,8.274432373046876,4.780819702148438
4.934999999999995,0.4849456787109375,7.882199096679688,5.286550903320313
4.945,0.256304931640625,7.909115600585938,5.08243408203125
4.954999999999998,0.0961517333984375,8.602365112304689,4.5351318359375
4.964999999999996,0.34453125,8.9685791015625,5.711981201171875
4.974999999999994,0.3464752197265625,8.397052001953126,5.015740966796876
4.984999999999999,0.1326385498046875,7.990612792968751,5.290438842773438
4.995999999999995,0.151031494140625,7.697671508789063,4.004727172851563
5.006,0.251220703125,7.242184448242188,4.35150146484375
5.015999999999998,0.2966796875,7.398001098632813,5.148080444335938
5.025999999999996,-0.1739105224609375,9.83050537109375,4.8724853515625
5.035999999999994,-0.103179931640625,12.199905395507812,7.790982055664063
5.045999999999999,-0.0725250244140625,8.117269897460938,3.7381042480468754
5.055999999999997,-0.4498046875,5.2075958251953125,5.4493957519531255
5.065999999999995,-0.2678192138671875,6.470578002929688,2.0245697021484377
5.0760000000000005,-0.1045257568359375,9.476254272460938,5.533883666992188
5.088000000000001,-0.14774169921875,10.281655883789064,8.216561889648439
5.0959999999999965,-0.1469940185546875,8.759378051757814,7.552920532226563
5.1059999999999945,0.198883056640625,7.537966918945313,3.5902130126953127
5.116,-0.122021484375,7.2865966796875,2.136871337890625
5.125999999999998,-0.6560150146484376,9.135610961914065,2.566339111328125
5.1370000000000005,-0.41092529296875,10.173989868164064,8.128933715820313
5.146999999999999,0.54730224609375,8.281759643554688,6.170907592773438
5.1569999999999965,0.241949462890625,7.317251586914063,5.998492431640625
5.1669999999999945,0.06400146484375,7.363159179687501,4.376473999023438
5.177,-0.0118133544921875,8.248263549804689,3.505874633789063
5.187999999999995,-0.1176849365234375,9.213668823242188,4.90538330078125
5.196999999999996,0.212042236328125,9.054263305664064,5.190548706054688
5.207000000000001,0.1894622802734375,8.870632934570313,6.149972534179688
5.216999999999999,-0.1646392822265625,7.72623291015625,5.473919677734376
5.226999999999997,0.011962890625,7.571163940429688,3.875228881835938
5.236999999999995,0.2065093994140625,8.376116943359376,5.055816650390625
5.247,0.4128692626953125,8.37222900390625,4.256695556640626
5.256999999999998,-0.1359283447265625,8.756088256835938,5.305990600585938
5.266999999999996,-0.2726043701171875,8.723788452148439,5.276531982421876
5.277000000000001,0.1529754638671875,8.513690185546876,5.34801025390625
5.287999999999997,0.2806793212890625,7.823580932617188,4.774987792968751
5.297999999999995,0.174658203125,7.604510498046875,4.9921142578125
5.308,-0.021533203125,8.252450561523439,5.257540893554688
5.317999999999998,-0.13338623046875,8.660684204101564,5.297018432617188
5.327999999999996,-0.1128997802734375,8.733358764648438,4.912860107421875
5.338000000000001,0.0575714111328125,8.706890869140626,4.5152435302734375
5.347999999999999,0.0835906982421875,8.237197875976562,5.5859222412109375
5.357999999999997,-0.031103515625,7.694531250000001,4.662387084960938
5.367999999999995,-0.215032958984375,8.151663208007813,5.27025146484375
5.378,0.1114044189453125,8.627038574218751,4.721603393554688
5.387999999999998,0.17406005859375,8.823678588867189,5.459414672851563
5.397999999999996,0.04486083984375,8.291329956054689,5.247073364257813
5.407999999999994,-0.128302001953125,8.030838012695312,4.579693603515626
5.418999999999997,-0.012860107421875,7.286447143554688,4.414306640625
5.428999999999995,0.1123016357421875,6.408670043945313,4.1937408447265625
5.439,-0.0011962890625,8.33155517578125,5.1129394531250005
5.448999999999998,0.287109375,13.445989990234375,6.985879516601563
5.458999999999996,0.42169189453125,10.911203002929687,6.101971435546876
5.468999999999994,-0.451898193359375,3.571371459960938,3.1875122070312503
5.478999999999999,-0.954937744140625,5.163482666015625,4.16607666015625
5.488999999999997,0.0420196533203125,9.370382690429688,3.815264892578125
5.498999999999995,1.080996704101563,12.219345092773438,9.099871826171876
5.509,0.4885345458984375,9.062338256835938,6.951336669921876
5.518999999999998,-0.179443359375,6.242984008789063,3.195138549804688
5.528999999999996,-0.64300537109375,7.294223022460938,3.070425415039063
5.538999999999994,-0.28411865234375,8.52894287109375,2.0362335205078126
5.549,-0.0213836669921875,11.78045654296875,9.062487792968753
5.5589999999999975,0.1592559814453125,7.713970947265626,3.98125
5.57,-0.20157470703125,6.6262451171875005,7.432693481445313
5.579999999999998,0.03170166015625,7.041058349609376,4.002035522460938
5.589999999999996,0.1682281494140625,8.607598876953126,3.999942016601562
5.599999999999994,0.222808837890625,10.1146240234375,5.430853271484375
5.609999999999999,0.085833740234375,8.807080078125,4.390530395507813
5.619999999999997,0.73990478515625,8.659637451171875,6.862213134765626
5.629999999999996,0.3098388671875,7.1002746582031255,4.713528442382813
5.640000000000001,0.39896240234375,7.739541625976563,4.228433227539063
5.649999999999999,-0.137274169921875,8.756387329101564,3.810031127929688
5.659999999999997,-0.0251220703125,8.967233276367189,5.713626098632813
5.669999999999995,-0.45518798828125,8.418136596679688,5.006320190429688
5.68,-0.485394287109375,8.377462768554688,6.103317260742188
5.690999999999995,-0.174957275390625,8.189794921875,4.498196411132813
5.7010000000000005,-0.103179931640625,8.046240234375,4.48907470703125
5.710999999999999,-0.385205078125,7.835842895507813,5.081088256835938
5.719999999999999,-0.1392181396484375,8.230618286132813,4.8636627197265625
5.7309999999999945,-0.0348419189453125,9.0858154296875,6.318051147460938
5.741,0.2543609619140625,8.389575195312501,4.3129211425781255
5.750999999999998,0.20516357421875,8.609393310546876,5.066732788085938
5.760999999999996,0.4329071044921875,7.996295166015625,4.668069458007813
5.771000000000001,0.4993011474609375,7.8494506835937505,5.480499267578125
5.780999999999999,0.288006591796875,8.159738159179689,4.91375732421875
5.790999999999997,0.076263427734375,8.788388061523438,5.039816284179688
5.800999999999995,0.07596435546875,8.977700805664064,4.966842651367188
5.811,-0.162994384765625,8.225833129882814,5.475265502929688
5.820999999999998,-0.113348388671875,7.866497802734376,4.9589172363281255
5.830999999999996,-0.198583984375,7.59703369140625,4.125552368164063
5.841000000000001,0.03887939453125,7.275082397460938,4.539617919921875
5.850999999999999,0.0219818115234375,7.348056030273438,4.64219970703125
5.861999999999995,-0.282025146484375,10.2031494140625,5.355487060546875
5.872,0.227593994140625,12.637448120117188,8.419631958007812
5.881999999999998,0.2092010498046875,7.081732177734375,2.6633880615234378
5.891999999999996,-0.10467529296875,4.787100219726563,5.935238647460938
5.902000000000001,-0.1679290771484375,7.125994873046875,1.8472198486328129
5.911999999999999,0.5043853759765625,10.7271240234375,5.454928588867188
5.921999999999997,-0.0680389404296875,9.726278686523438,9.987368774414064
5.931999999999995,0.34512939453125,7.703503417968751,4.348959350585938
5.942,-0.3506622314453125,7.835842895507813,4.679434204101563
5.951999999999998,-0.4062896728515625,7.385739135742188,1.1592041015625
5.961999999999996,-1.0223785400390626,9.932339477539063,4.8751770019531255
5.971999999999994,-0.3273345947265625,10.046435546875,8.370584106445314
5.981999999999999,0.3911865234375,7.335794067382813,4.395315551757813
5.992999999999995,-0.0402252197265625,7.3604675292968755,6.68486328125
6.003,0.0657958984375,7.595687866210938,2.983395385742188
6.012999999999998,0.11663818359375,9.168209838867188,4.694537353515625
6.022999999999996,0.2902496337890625,8.681021118164063,4.586273193359375
6.032999999999994,0.35888671875,8.804238891601564,6.255245971679688
6.042999999999999,0.4892822265625,8.493801879882813,5.576052856445313
6.052999999999997,0.0148040771484375,7.687054443359376,4.602124023437501
6.062999999999995,0.208453369140625,7.9092651367187505,4.292584228515626
6.073,0.3506622314453125,8.493951416015626,4.664480590820313
6.082999999999998,0.26378173828125,8.528195190429688,5.3115234375
6.092999999999996,-0.557171630859375,8.419183349609376,4.853045654296875
6.102999999999994,-0.41690673828125,8.792724609375,5.641848754882813
6.113,-0.0237762451171875,8.31361083984375,4.712930297851563
6.123999999999995,-0.0082244873046875,7.895358276367188,5.4060302734375005
6.134,-0.2093505859375,7.676138305664063,4.548291015625001
6.143999999999998,-0.122918701171875,8.677880859375001,5.497396850585938
6.153999999999996,-0.073870849609375,8.660684204101564,4.9264678955078125
6.163999999999994,0.154022216796875,8.511447143554689,4.764071655273438
6.174,0.2636322021484375,8.500231933593751,5.1717071533203125
6.1839999999999975,0.42169189453125,8.107699584960939,5.035330200195313
6.193999999999996,0.115142822265625,7.912854003906251,5.49156494140625
6.205999999999996,0.0701324462890625,8.173345947265625,4.305145263671875
6.213999999999999,0.2519683837890625,8.916839599609375,5.469433593750001
6.223999999999997,0.14654541015625,8.491110229492188,4.9299072265625
6.233999999999995,-0.1308441162109375,8.248114013671875,5.394366455078125
6.244,-0.226397705078125,7.566229248046875,4.0392700195312505
6.253999999999998,-0.6195281982421875,6.571963500976563,4.3245849609375
6.263999999999996,-0.4206451416015625,7.319644165039063,5.064938354492188
6.274999999999999,-0.2238555908203125,11.922067260742187,5.705252075195313
6.284999999999997,0.4843475341796875,13.148562622070314,7.9556213378906255
6.294999999999995,-0.2699127197265625,4.63382568359375,2.1136932373046875
6.305999999999997,-1.164288330078125,4.597637939453126,6.1740478515625
6.314999999999998,-0.1353302001953125,7.535873413085938,1.2728515625
6.324999999999996,1.7847137451171875,11.729464721679689,7.003524780273438
6.335000000000001,1.48040771484375,10.17982177734375,10.075296020507814
6.344999999999999,0.58857421875,7.042404174804688,3.721206665039063
6.354999999999997,-0.1236663818359375,7.063488769531251,4.17265625
6.364999999999995,0.0623565673828125,7.211978149414063,-0.1218719482421875
6.375,-0.7970275878906251,11.905169677734376,7.1780334472656255
6.384999999999998,-0.11663818359375,9.340176391601563,7.301101684570313
6.394999999999996,-0.584088134765625,6.1118408203125005,5.249615478515626
6.405999999999999,-0.54371337890625,7.154855346679688,5.859423828125
6.415999999999997,0.058917236328125,7.913302612304688,2.7940826416015625
6.425999999999995,-0.069384765625,9.972116088867187,5.595193481445313
6.436,-0.314923095703125,8.849697875976563,5.01304931640625
6.445999999999998,0.4462158203125,8.800201416015625,6.0962890625
6.455999999999996,0.8036071777343751,7.641445922851563,5.305093383789063
6.466000000000001,0.6628936767578125,7.402188110351563,3.855340576171875
6.475999999999999,0.442626953125,8.556307983398439,4.1683197021484375
6.485999999999997,0.1568634033203125,9.094488525390624,5.83250732421875
6.495999999999995,0.2914459228515625,8.420678710937501,5.206997680664063
6.506,-0.197088623046875,8.692834472656251,5.577099609375001
6.515999999999998,0.2100982666015625,8.212374877929689,4.550982666015625
6.525999999999996,-0.509619140625,7.9325927734375,3.929360961914063
6.535999999999994,-0.591864013671875,8.010650634765625,5.557211303710938
6.545999999999999,-0.5754150390625,7.966986083984375,4.482345581054688
6.555999999999997,-0.33795166015625,9.230416870117187,6.491812133789063
6.565999999999995,-0.399560546875,8.241534423828126,5.051181030273438
6.576999999999998,-0.0826934814453125,8.511895751953126,5.0782470703125
6.586999999999996,-0.0955535888671875,7.941265869140626,4.372137451171875
6.596999999999994,0.5728729248046875,7.955322265625001,4.782464599609376
6.606999999999999,0.4376922607421875,8.368490600585938,5.1298370361328125
6.616999999999997,0.4553375244140625,8.767752075195313,4.975515747070313
6.626999999999995,0.3019134521484375,8.797808837890626,5.326925659179688
6.6370000000000005,0.3386993408203125,8.178430175781251,5.609100341796875
6.646999999999999,0.3739898681640625,7.944107055664063,5.423675537109375
6.6569999999999965,0.2280426025390625,8.018276977539063,4.1743011474609375
6.6669999999999945,-0.1592559814453125,8.114129638671876,4.1164306640625
6.677,-0.086431884765625,7.390972900390626,4.472775268554688
6.686999999999998,-0.1419097900390625,8.147775268554689,5.8414794921875
6.696999999999996,-0.42767333984375,9.677529907226564,5.254400634765625
6.707999999999998,-0.48988037109375,11.159881591796877,6.566879272460938
6.717999999999996,-0.189910888671875,8.129681396484376,4.5940490722656255
6.727999999999994,0.1112548828125,5.190548706054688,5.057461547851563
6.738,0.289801025390625,7.031637573242188,2.6170318603515628
6.7479999999999976,0.575714111328125,9.137554931640626,3.5508850097656253
6.757999999999996,0.30325927734375,10.390817260742187,9.303689575195314
6.768000000000001,0.0240753173828125,8.418734741210939,8.11083984375
6.777999999999999,0.319708251953125,7.828216552734376,4.277182006835938
6.787999999999997,-0.01256103515625,7.499685668945313,1.845724487304688
6.797999999999995,-0.6548187255859376,9.249856567382814,1.1541198730468751
6.808,-1.3091888427734375,9.732110595703126,8.03128662109375
6.817999999999998,-0.0728240966796875,8.493502807617189,6.996646118164063
6.827999999999996,-0.0405242919921875,7.500582885742188,5.659344482421876
6.838000000000001,0.0279632568359375,7.522116088867188,5.289093017578125
6.848999999999997,-0.227593994140625,8.035623168945314,2.7912414550781253
6.858999999999995,-0.2208648681640625,8.874072265625001,4.691845703125001
6.869,0.3243438720703125,9.041104125976563,5.877218627929688
6.878999999999998,0.7554565429687501,8.979644775390625,5.26427001953125
6.888999999999996,0.0001495361328125,8.134466552734375,5.465396118164063
6.899000000000001,0.283221435546875,7.491012573242188,4.168469238281251
6.908999999999999,0.4215423583984375,8.167514038085939,5.540463256835938
6.918999999999997,0.5674896240234375,8.154055786132814,4.2743408203125
6.928999999999995,-0.0322998046875,8.852688598632813,5.112490844726563
6.939,-0.2136871337890625,9.049478149414064,4.873382568359375
6.948999999999998,-0.1303955078125,8.426211547851564,5.329019165039063
6.958999999999996,-0.0749176025390625,7.89610595703125,4.859774780273438
6.968999999999994,-0.1239654541015625,7.581481933593751,5.095593261718751
6.979999999999997,-0.05802001953125,8.259927368164064,5.551528930664063
6.989999999999995,-0.372943115234375,8.53492431640625,4.855438232421875
7.0,-0.28232421875,8.668310546875,5.070770263671875
7.009999999999998,0.072674560546875,8.656945800781251,4.703359985351563
7.019999999999996,0.2827728271484375,8.232861328125,5.606707763671875
7.029999999999994,0.1819854736328125,7.9227233886718755,4.471728515625
7.039999999999999,0.0303558349609375,8.256936645507814,5.080789184570313
7.049999999999997,0.3108856201171875,8.461502075195312,4.794427490234376
7.059999999999995,0.35709228515625,8.474661254882813,5.7249908447265625
7.07,0.1460968017578125,8.222094726562501,4.811474609375001
7.079999999999998,-0.16568603515625,7.504470825195313,3.950146484375
7.089999999999996,-0.47193603515625,6.939224243164063,5.271896362304688
7.099999999999994,-0.2124908447265625,8.56483154296875,5.461956787109376
7.109999999999999,0.078057861328125,12.046929931640626,6.166571044921875
7.119999999999997,-0.0647491455078125,9.810916137695314,5.393319702148438
7.131,-0.78297119140625,5.249615478515626,3.8936218261718754
7.140999999999998,-0.4888336181640625,6.395361328125,3.4960052490234377
7.150999999999996,0.7968780517578126,8.417239379882814,3.529800415039063
7.160999999999994,0.9440216064453124,10.260421752929688,8.628982543945312
7.170999999999999,0.7553070068359375,9.280511474609376,9.495693969726563
7.180999999999997,0.1798919677734375,7.658343505859375,3.29158935546875
7.190999999999995,-0.15791015625,7.197323608398438,2.007073974609375
7.2010000000000005,-0.1233673095703125,8.818594360351563,0.434552001953125
7.2109999999999985,-0.13338623046875,10.958905029296876,9.275576782226564
7.2209999999999965,0.2476318359375,8.2866943359375,5.714971923828125
7.230999999999994,-0.7681671142578126,6.962402343750001,6.661834716796876
7.241,-0.09630126953125,7.04075927734375,3.789993286132813
7.250999999999998,-0.315521240234375,8.353536987304688,4.212731933593751
7.260999999999996,0.1114044189453125,9.410607910156251,5.139108276367188
7.271000000000001,-0.0689361572265625,9.198565673828126,4.409222412109376
7.2819999999999965,0.5897705078125001,9.12708740234375,6.879559326171876
7.291999999999994,0.5049835205078126,7.495947265625,4.463653564453125
7.302,0.6168365478515625,7.578790283203125,4.913159179687501
7.311999999999998,0.27275390625,8.097531127929688,3.4290130615234378
7.321999999999996,0.2522674560546875,8.721694946289062,5.550332641601563
7.332000000000001,-0.1786956787109375,8.56243896484375,5.07047119140625
7.341999999999999,-0.3241943359375,8.829360961914062,5.600427246093751
7.351999999999997,-0.08314208984375,8.331704711914064,5.14822998046875
7.361999999999995,-0.228192138671875,7.909713745117188,4.9234771728515625
7.372,-0.251519775390625,7.578491210937501,5.2098388671875
7.381999999999998,-0.7916442871093751,8.03128662109375,4.305593872070313
7.391999999999996,-0.2627349853515625,9.032730102539062,5.7242431640625
7.402000000000001,-0.05921630859375,8.699264526367188,4.738351440429688
7.412999999999997,0.125311279296875,8.692236328125,5.690447998046875
7.422999999999995,0.116937255859375,7.935134887695313,4.488476562500001
7.433,0.436944580078125,7.980294799804688,5.253802490234375
7.442999999999998,0.4514495849609375,8.05042724609375,5.004525756835938
7.452999999999996,0.4266265869140625,8.616571044921876,4.674349975585938
7.463000000000001,0.2187713623046875,8.79990234375,5.186810302734376
7.472999999999999,0.16807861328125,8.539111328125001,5.5220703125
7.482999999999997,0.0820953369140625,8.100521850585938,5.0561157226562505
7.492999999999995,0.0634033203125,7.580136108398438,4.063793945312501
7.503,0.0450103759765625,6.7638183593750005,3.8785186767578126
7.512999999999998,0.063104248046875,6.931448364257813,5.081387329101563
7.522999999999996,-0.34632568359375,10.732357788085938,6.078045654296876
7.532999999999994,0.1831817626953125,13.210021972656252,8.266058349609375
7.542999999999999,-0.0477020263671875,6.959561157226563,1.519586181640625
7.552999999999997,-0.6930999755859375,4.834054565429688,5.501284790039063
7.564,-0.5673400878906251,6.472671508789063,2.733819580078125
7.573999999999998,0.0776092529296875,10.612878417968751,7.096685791015625
7.583999999999996,0.13936767578125,10.5357177734375,10.078286743164064
7.593999999999994,0.4251312255859375,7.83629150390625,2.6584533691406254
7.603999999999999,-0.0052337646484375,7.172500610351563,4.006970214843751
7.613999999999997,-0.5634521484375,7.186407470703125,2.041168212890625
7.623999999999995,-0.4780670166015625,10.59598083496094,5.381805419921875
7.634,0.1311431884765625,10.474856567382814,8.617617797851564
7.643999999999998,0.5537322998046875,6.469979858398438,2.5147491455078126
7.653999999999996,0.4065887451171875,7.294073486328125,7.917041015625
7.663999999999994,-0.1984344482421875,6.814810180664063,2.974871826171875
7.673999999999999,-0.12620849609375,9.978845214843751,5.535079956054688
7.683999999999997,0.203369140625,9.309820556640624,3.9697357177734376
7.695,0.1712188720703125,9.055609130859375,5.450143432617188
7.704999999999998,0.06400146484375,7.943060302734375,6.3944641113281255
7.714999999999996,-0.05084228515625,7.10416259765625,4.441372680664063
7.724999999999994,0.222808837890625,8.068072509765626,3.951641845703125
7.734999999999999,0.23746337890625,8.739489746093751,4.2336669921875005
7.744999999999997,0.2115936279296875,8.859268188476562,5.7175140380859375
7.7549999999999955,-0.5531341552734376,8.391519165039064,5.559454345703125
7.765000000000001,-0.1843780517578125,8.520718383789063,5.739047241210938
7.774999999999999,0.305352783203125,8.123699951171876,4.176544189453125
7.784999999999997,0.3937286376953125,8.013491821289064,5.1392578125
7.794999999999995,-0.1386199951171875,7.651165771484376,4.40653076171875
7.806999999999995,-0.201275634765625,8.676983642578126,5.382702636718751
7.814999999999998,-0.10108642578125,8.784051513671876,5.703607177734376
7.824999999999996,0.2274444580078125,8.704049682617189,4.828671264648438
7.835000000000001,0.0227294921875,8.449240112304688,4.946804809570313
7.8459999999999965,0.050244140625,7.715615844726563,4.767361450195313
7.855999999999994,-0.0800018310546875,7.950686645507813,5.612838745117188
7.866,0.05682373046875,8.319293212890626,4.509710693359375
7.875999999999998,0.0817962646484375,9.051721191406251,5.129388427734376
7.885999999999996,0.016448974609375,8.420529174804688,4.703359985351563
7.896000000000001,-0.201275634765625,7.299606323242188,5.039666748046876
7.9069999999999965,-0.4463653564453125,6.047689819335938,4.3103790283203125
7.915999999999997,-0.6591552734375,7.895208740234375,4.4135589599609375
7.925999999999995,0.7479797363281251,13.9523193359375,7.89012451171875
7.936,0.481207275390625,11.061337280273438,4.949795532226563
7.945999999999998,-0.3943267822265625,3.638812255859375,4.0497375488281255
7.955999999999996,-0.8810668945312501,4.75584716796875,3.5721191406250004
7.966000000000001,-0.271856689453125,9.559246826171876,4.365109252929688
7.975999999999999,2.0577667236328128,11.979339599609377,9.151461791992189
7.985999999999997,1.164736938476563,8.794818115234376,6.00596923828125
7.997,-0.355596923828125,6.360668945312501,3.721505737304688
8.006999999999998,-0.65137939453125,7.283755493164063,2.985040283203125
8.016999999999996,-0.0785064697265625,9.2532958984375,2.6101531982421875
8.027000000000001,0.066094970703125,11.334689331054689,8.519671630859376
8.036999999999999,0.0674407958984375,7.595986938476563,4.030895996093751
8.046999999999997,-0.8728424072265626,6.496298217773438,6.873577880859376
8.056999999999995,-0.1191802978515625,6.9746643066406255,3.916351318359376
8.067,-0.07716064453125,9.237594604492188,4.909869384765625
8.076999999999998,0.3853546142578125,10.357022094726563,6.004324340820313
8.086999999999996,-0.0468048095703125,8.432940673828126,3.688458251953125
8.096999999999994,0.6762023925781251,7.935433959960938,6.514691162109376
8.107999999999997,0.3757843017578125,6.843521118164063,3.7533569335937504
8.116999999999997,0.8632720947265625,8.555111694335938,5.387338256835938
8.128,-0.1018341064453125,9.169406127929689,3.991717529296875
8.137,0.0548797607421875,8.83878173828125,5.720953369140625
8.147999999999996,-0.236566162109375,8.172149658203125,5.491415405273438
8.157999999999994,0.1930511474609375,7.9556213378906255,5.908023071289063
8.168,-0.10048828125,7.967285156250001,3.518585205078125
8.177999999999997,-0.5894714355468751,8.322732543945314,4.3054443359375005
8.187999999999995,-0.6036773681640626,8.403033447265626,5.169314575195313
8.198,-0.277239990234375,8.5594482421875,5.840133666992188
8.207999999999998,-0.3542510986328125,8.496792602539063,6.2688537597656255
8.217999999999996,-0.089422607421875,8.197869873046876,3.916949462890625
8.227999999999994,-0.0602630615234375,8.419631958007812,5.326776123046876
8.238,0.3696533203125,7.897601318359375,4.075009155273438
8.247999999999998,0.4498046875,8.237197875976562,5.661886596679688
8.257999999999996,0.4227386474609375,8.5427001953125,4.71397705078125
8.268,0.3841583251953125,8.867941284179688,5.661587524414063
8.278999999999996,0.2201171875,8.46075439453125,4.911663818359376
8.288999999999994,0.113946533203125,7.991360473632813,5.015292358398438
8.299,0.2492767333984375,7.685559082031251,4.984039306640625
8.308999999999997,0.2977264404296875,7.426263427734375,4.088018798828125
8.318999999999996,0.27454833984375,7.527200317382813,4.825979614257813
8.329,-0.0360382080078125,8.683862304687501,3.774142456054688
8.338999999999999,-0.2483795166015625,11.56497497558594,7.449291992187501
8.348999999999997,0.012860107421875,9.901834106445314,6.351397705078125
8.358999999999995,0.0653472900390625,5.708392333984375,3.720309448242188
8.369,-0.524273681640625,6.323883056640626,4.19359130859375
8.378999999999998,-0.4218414306640625,8.435333251953125,3.415106201171876
8.388999999999996,-0.1359283447265625,10.259225463867187,7.555462646484376
8.399000000000001,-0.0743194580078125,8.621954345703125,8.53193359375
8.409999999999997,0.50064697265625,8.268600463867188,3.6033721923828126
8.419999999999995,-0.31761474609375,7.867843627929688,2.53792724609375
8.43,-1.176699829101563,8.020968627929689,3.202017211914063
8.439999999999998,-0.474029541015625,9.918582153320314,6.323883056640626
8.449999999999996,0.3170166015625,8.865548706054689,7.507760620117188
8.46,0.37982177734375,7.351644897460938,4.971478271484376
8.469999999999999,-0.1523773193359375,7.604959106445313,4.850354003906251
8.479999999999997,-0.129498291015625,8.170654296875,3.774142456054688
8.489999999999995,0.2896514892578125,8.953176879882813,4.841381835937501
8.5,0.4079345703125,8.858221435546875,5.399600219726563
8.509999999999998,0.3291290283203125,8.740087890625,5.5280517578125
8.519999999999996,-0.2280426025390625,8.123550415039062,5.528948974609375
8.529999999999994,0.0710296630859375,7.586566162109375,4.260882568359375
8.540999999999997,0.294586181640625,8.314059448242189,4.9948059082031255
8.549999999999997,0.5084228515625,8.401089477539063,4.533486938476563
8.561,-0.2651275634765625,8.643637084960938,5.030096435546875
8.570999999999998,-0.4774688720703125,8.61029052734375,5.104116821289063
8.580999999999996,-0.1308441162109375,8.551074218750001,5.392572021484376
8.591000000000001,0.2859130859375,8.006613159179688,4.805642700195313
8.600999999999999,-0.01734619140625,7.801449584960938,5.0064697265625
8.610999999999997,-0.0656463623046875,8.300750732421875,5.3302154541015625
8.620999999999995,-0.18004150390625,8.548083496093751,5.054022216796875
8.631,0.1469940185546875,8.630926513671875,5.0818359375
8.640999999999998,0.3019134521484375,8.471371459960938,4.717416381835938
8.650999999999996,0.38819580078125,8.37342529296875,5.236904907226563
8.660999999999994,-0.057122802734375,7.951882934570313,4.881307983398438
8.671,-0.0653472900390625,8.126242065429688,4.99151611328125
8.680999999999997,0.142657470703125,8.540756225585938,5.030844116210938
8.692,0.317315673828125,8.614178466796876,5.600128173828125
8.701,-0.0992919921875,8.341873168945312,5.039816284179688
8.711999999999996,-0.2618377685546875,8.049380493164064,4.3776702880859375
8.721999999999994,0.01734619140625,7.257138061523438,4.39935302734375
8.732,0.5060302734375001,6.460110473632813,4.344622802734375
8.741999999999997,0.076263427734375,8.826071166992188,5.209539794921875
8.751999999999995,0.2160797119140625,13.707229614257814,7.587164306640625
8.762,-0.02572021484375,9.858917236328123,5.158398437500001
8.771999999999998,-0.7840179443359375,3.7161224365234378,4.412661743164063
8.781999999999996,-0.83082275390625,5.303897094726563,3.4659484863281254
8.791999999999994,0.1825836181640625,9.746316528320314,2.162890625
8.802,0.4690948486328125,11.56512451171875,9.431692504882813
8.811999999999998,-0.0025421142578125,8.653955078125001,9.41419677734375
8.823999999999998,0.4083831787109375,7.02879638671875,3.335104370117188
8.832,0.183929443359375,7.228576660156251,3.221456909179688
8.842999999999996,0.0596649169921875,8.634515380859376,-1.4531921386718751
8.852999999999994,-1.0065277099609375,11.62314453125,9.725979614257811
8.863,0.013458251953125,8.068521118164064,6.941915893554688
8.872999999999998,0.24703369140625,6.5329345703125,6.158645629882813
8.882999999999996,-0.06041259765625,7.0856201171875,4.299163818359375
8.893,0.083740234375,8.536868286132814,3.2749908447265628
8.902999999999999,-0.174957275390625,9.763961791992188,5.324533081054688
8.912999999999997,0.2097991943359375,8.788388061523438,5.04833984375
8.924,0.5830413818359376,8.771041870117188,6.78953857421875
8.933,0.3398956298828125,7.6000244140625,5.210287475585938
8.942999999999998,0.087030029296875,7.478302001953126,3.238055419921875
8.952999999999996,0.0438140869140625,8.580831909179688,5.00108642578125
8.963000000000001,0.3976165771484375,8.579486083984376,5.022918701171875
8.972999999999999,-0.29129638671875,8.715414428710938,5.094845581054688
8.983999999999995,-0.5404235839843751,8.747116088867188,5.229278564453125
8.994,-0.1601531982421875,8.299853515625001,5.27862548828125
9.003999999999998,0.0243743896484375,7.829861450195313,4.646984863281251
9.013999999999996,-0.2032196044921875,7.572659301757813,5.140155029296875
9.024,-0.0100189208984375,8.304638671875,5.097537231445313
9.034,-0.0973480224609375,8.979943847656251,5.381954956054688
9.043999999999995,0.0291595458984375,8.571859741210938,4.987628173828125
9.053999999999997,0.160003662109375,8.572308349609376,4.509411621093751
9.064,0.4418792724609375,8.134317016601564,5.388235473632813
9.073999999999998,0.3946258544921875,7.718157958984375,5.052676391601563
9.083999999999996,0.016448974609375,8.202655029296876,4.837344360351563
9.093999999999994,0.020037841796875,8.707339477539064,4.924822998046875
9.104,0.2062103271484375,8.885137939453125,5.458517456054688
9.113999999999995,0.0022430419921875,8.3441162109375,5.412908935546875
9.125,-0.03828125,7.819842529296875,4.364361572265626
9.134999999999998,0.1987335205078125,7.423870849609376,4.116879272460938
9.144999999999996,0.687567138671875,7.050628662109376,4.534085083007813
9.154999999999994,0.5658447265625001,8.293722534179688,5.019479370117188
9.165,-0.1040771484375,11.495590209960938,6.192440795898438
9.174999999999995,0.2253509521484375,10.7079833984375,7.3368408203125
9.184999999999995,0.07835693359375,5.767608642578125,2.75445556640625
9.195,-0.377130126953125,6.081036376953126,5.084378051757813
9.204999999999998,-0.5408721923828126,7.880105590820313,2.9111694335937504
9.214999999999996,-0.7310821533203126,10.47889404296875,6.854287719726563
9.224999999999994,-0.7989715576171875,9.376364135742188,10.012640380859375
9.235,0.179443359375,7.97984619140625,2.45
9.244999999999996,-0.371746826171875,7.567724609375,4.273294067382813
9.254999999999995,-0.5618072509765626,7.713522338867188,1.4068359375
9.265,-0.9920227050781252,9.894207763671876,6.308929443359376
9.275999999999996,0.4581787109375,9.20828552246094,7.350299072265625
9.285999999999994,0.57960205078125,7.769747924804688,5.6644287109375
9.296,0.4031494140625,7.566677856445313,5.604165649414063
9.305999999999996,0.0136077880859375,7.654754638671876,3.1613433837890628
9.315999999999995,0.427374267578125,8.6802734375,4.36705322265625
9.326,0.4306640625,9.039758300781251,5.239596557617188
9.336,0.384307861328125,8.968728637695314,5.531939697265625
9.345999999999997,-0.3407928466796875,8.503073120117188,5.927014160156251
9.355999999999996,-0.1854248046875,7.505218505859376,4.570571899414063
9.366,0.0572723388671875,8.065231323242188,4.56802978515625
9.375999999999998,0.2558563232421875,8.252450561523439,4.792034912109376
9.385999999999996,-0.1638916015625,8.544195556640625,4.5436553955078125
9.396999999999998,-0.5763122558593751,8.777920532226563,5.323336791992188
9.406,-0.262286376953125,8.69522705078125,5.40782470703125
9.416999999999994,0.1828826904296875,8.239141845703125,4.919290161132813
9.427,0.3840087890625,7.703952026367188,5.388833618164063
9.436999999999998,0.23865966796875,7.90328369140625,4.681527709960938
9.446999999999996,0.1105072021484375,8.447894287109376,5.285055541992188
9.457,0.15850830078125,8.70001220703125,4.995553588867188
9.467,0.3605316162109375,8.6216552734375,4.955926513671876
9.476999999999997,0.279632568359375,8.585617065429688,5.0281524658203125
9.486999999999997,0.0946563720703125,8.020370483398438,5.150173950195313
9.497,-0.2480804443359375,7.916891479492188,4.978207397460938
9.506999999999998,-0.1016845703125,8.254693603515626,4.8509521484375
9.516999999999996,-0.02332763671875,8.656796264648438,5.216867065429688
9.527,-0.0192901611328125,8.273385620117189,4.8497558593750005
9.537,-0.2633331298828125,7.175491333007813,4.2187133789062505
9.546999999999995,-0.033795166015625,6.953131103515625,4.687359619140626
9.558,-0.2453887939453125,9.31251220703125,5.2887939453125
9.567999999999998,0.5881256103515625,13.13046875,7.780963134765625
9.577999999999996,0.222808837890625,8.114428710937501,3.773095703125
9.588,-0.8100372314453126,4.603021240234376,5.079293823242188
9.598,-0.5522369384765625,6.292480468750001,3.38609619140625
9.607999999999995,0.6557159423828125,9.482684326171876,2.4799072265625
9.617999999999997,0.7120910644531251,11.33169860839844,11.235397338867188
9.628,0.485992431640625,8.464343261718751,5.860321044921875
9.637999999999998,0.2332763671875,7.4666381835937505,5.094845581054688
9.647999999999996,0.0586181640625,6.581533813476563,1.326385498046875
9.657999999999994,-0.7621856689453126,9.907965087890624,0.5505920410156251
9.668,-0.956732177734375,10.647271728515626,11.150012207031253
9.677999999999995,-0.0076263427734375,7.56533203125,4.117178344726563
9.687999999999995,-0.3141754150390625,6.922177124023438,7.115078735351563
9.698999999999998,-0.1601531982421875,7.116424560546876,3.1202209472656253
9.708999999999996,0.0095703125,8.973812866210938,4.0673828125
9.718999999999994,0.2859130859375,9.735101318359376,5.4498443603515625
9.729,0.4122711181640625,8.778219604492188,5.470480346679688
9.738999999999995,0.6464447021484375,8.316452026367188,5.579791259765625
9.748999999999995,0.3398956298828125,7.457666015625,5.124453735351563
9.759,0.5594146728515625,7.870983886718751,4.338043212890625
9.768999999999998,0.26497802734375,8.6910400390625,4.39337158203125
9.778999999999996,0.1221710205078125,8.68446044921875,5.5021820068359375
9.788999999999994,-0.4021026611328125,8.760125732421876,4.932598876953126
9.799,-0.43485107421875,8.553466796875,5.620016479492188
9.808999999999996,-0.12979736328125,7.791281127929688,4.0512329101562505
9.818999999999996,-0.518890380859375,8.004818725585938,5.128790283203125
9.829999999999998,-0.301763916015625,7.988220214843751,5.003179931640625
9.839999999999996,-0.36068115234375,8.496044921875,5.7242431640625
9.849999999999994,-0.1885650634765625,8.604608154296876,5.136566162109375
9.86,0.0602630615234375,8.603411865234376,5.0057220458984375
9.869999999999996,0.6296966552734375,8.469277954101564,4.988674926757813
9.879999999999995,0.4015045166015625,7.853039550781251,4.42447509765625
9.89,0.33914794921875,8.056707763671875,5.168865966796876
9.9,0.3644195556640625,8.4757080078125,4.846914672851563
9.909999999999997,0.4568328857421875,8.821286010742188,5.851348876953125
9.919999999999996,0.1134979248046875,8.391668701171875,4.6715087890625
9.93,-0.0788055419921875,8.287442016601563,5.316009521484375
9.939999999999998,0.0154022216796875,7.72623291015625,4.473223876953125
9.949999999999996,0.27933349609375,7.313214111328126,4.352847290039063
9.96,0.2465850830078125,7.38828125,4.1200195312500005
9.97,-0.0118133544921875,9.334793090820312,5.3451690673828125
9.979999999999997,-0.1535736083984375,11.575891113281251,7.141247558593751
9.991,0.015850830078125,8.7568359375,5.314364624023438
10.000999999999998,-0.1565643310546875,5.625399780273438,4.151870727539063
10.010999999999996,-0.28172607421875,6.555664062500001,3.5944000244140626
10.021,-0.2905487060546875,8.962149047851563,4.902243041992188
10.031,-0.2277435302734375,10.4663330078125,8.0641845703125
10.040999999999997,0.0142059326171875,8.892315673828126,7.115228271484376
10.050999999999997,0.5561248779296876,7.69931640625,3.1478851318359378
10.061,-0.5055816650390625,7.368093872070313,2.4876831054687503
10.070999999999998,-0.9709381103515624,8.651113891601563,3.5422119140625004
10.080999999999996,-0.476123046875,10.333843994140626,8.102166748046876
10.091,0.358587646484375,8.276077270507812,5.7110839843750005
10.101,0.0770111083984375,7.079040527343751,5.6920928955078125
10.110999999999995,-0.294586181640625,7.463497924804688,4.514047241210938
10.120999999999997,-0.222509765625,8.650964355468751,3.259588623046876
10.131999999999998,0.21832275390625,9.314157104492187,5.547940063476563
10.141999999999996,0.3820648193359375,8.846707153320313,5.105313110351563
10.152,0.3351104736328125,8.60072021484375,5.712429809570313
10.162,-0.16807861328125,7.7196533203125,5.687457275390625
10.171999999999995,0.2932403564453125,7.777523803710938,3.970034790039063
10.181999999999997,0.484796142578125,8.423669433593751,4.675396728515626
10.192,0.4942169189453125,8.43802490234375,4.460214233398438
10.201999999999998,-0.2124908447265625,8.733657836914062,5.3151123046875
10.211999999999996,-0.340045166015625,8.508755493164063,5.4782562255859375
10.221999999999994,-0.026318359375,8.391220092773438,5.167669677734375
10.232,0.170172119140625,7.950836181640626,4.7564453125
10.241999999999996,0.0850860595703125,7.89012451171875,5.308084106445313
10.251999999999995,-0.188714599609375,8.233309936523439,5.107107543945313
10.262,-0.3349609375,8.572756958007814,4.994955444335938
10.271999999999998,-0.032598876953125,8.708834838867189,4.789492797851563
10.282999999999994,0.307745361328125,8.683114624023439,5.132977294921876
10.293,0.20516357421875,8.11383056640625,5.0662841796875
10.302999999999995,-0.13577880859375,7.793374633789063,5.00946044921875
10.312999999999995,-0.0095703125,8.279067993164062,4.986880493164063
10.323,0.359185791015625,8.603112792968751,5.326776123046876
10.332999999999998,0.3055023193359375,8.649618530273438,5.008563232421875
10.342999999999996,-0.0402252197265625,8.339929199218751,4.880709838867188
10.352999999999994,-0.0985443115234375,7.941116333007813,4.956076049804688
10.363,0.0572723388671875,7.007861328125,3.988577270507813
10.372999999999998,0.039178466796875,6.253152465820313,4.37064208984375
10.382999999999996,-0.2932403564453125,9.44156188964844,5.0423583984375
10.393999999999998,0.5522369384765625,14.479583740234377,9.005963134765626
10.403999999999996,0.017047119140625,8.436380004882814,3.049191284179688
10.413999999999994,-0.7977752685546876,3.4079284667968754,4.450942993164063
10.424999999999995,-1.1481384277343751,6.324630737304688,3.690103149414063
10.433999999999996,0.1999298095703125,10.257879638671875,5.194735717773438
10.443999999999996,1.1752044677734377,11.042196655273438,10.682861328125
10.454,0.2201171875,7.954275512695313,3.2634765625
10.464,-0.22490234375,7.520620727539063,3.902294921875
10.473999999999997,-0.0251220703125,7.173098754882813,2.260836791992188
10.483999999999996,-0.06998291015625,9.222042846679688,4.267910766601563
10.494,0.1215728759765625,11.123245239257812,9.520068359375
10.503999999999998,0.3066986083984375,6.862960815429688,2.551535034179688
10.513999999999996,-0.3261383056640625,6.906625366210938,7.866049194335938
10.525,0.143853759765625,7.353588867187501,2.9410766601562504
10.534,0.0327484130859375,9.582424926757811,4.8801116943359375
10.544999999999996,-0.2118927001953125,9.4650390625,4.837942504882813
10.553999999999997,0.055926513671875,8.780612182617189,4.894467163085938
10.564999999999998,0.5088714599609375,8.000631713867188,6.534429931640625
10.574999999999996,0.28172607421875,6.910961914062501,4.655657958984375
10.585,0.2265472412109375,8.154953002929688,4.759735107421875
10.595,-0.102880859375,9.106451416015624,4.092205810546876
10.604999999999997,0.0548797607421875,8.974710083007814,5.325878906250001
10.614999999999997,-0.3506622314453125,8.314508056640626,5.036227416992188
10.625,-0.0004486083984375,8.336489868164064,5.849255371093751
10.634999999999998,-0.0109161376953125,7.991958618164063,4.2266387939453125
10.644999999999996,-0.15850830078125,7.965191650390626,4.696630859375
10.654999999999994,-0.21951904296875,8.16407470703125,5.051480102539063
10.665,0.1215728759765625,8.718255615234376,5.495303344726563
10.674999999999995,-0.0777587890625,8.53671875,5.797665405273438
10.684999999999995,-0.019439697265625,8.309124755859376,4.409970092773438
10.695999999999998,0.0303558349609375,8.524307250976562,4.906878662109375
10.705999999999996,0.4077850341796875,8.057156372070313,4.775137329101563
10.716,0.162994384765625,7.988519287109375,5.1249023437500005
10.726,0.120526123046875,8.417837524414063,4.7947265625
10.735999999999995,0.03050537109375,8.882147216796875,5.804394531250001
10.745999999999997,0.1586578369140625,8.435781860351563,5.079592895507813
10.756,-0.0647491455078125,7.964593505859375,5.038320922851563
10.765999999999998,0.188116455078125,7.847357177734375,4.486233520507813
10.775999999999996,0.2462860107421875,7.458862304687501,3.9866333007812496
10.785999999999994,0.347821044921875,7.246520996093751,4.890728759765626
10.796,-0.1963409423828125,9.140396118164062,4.633078002929688
10.805999999999996,0.1565643310546875,12.4043212890625,7.806085205078125
10.815999999999995,0.095404052734375,9.136209106445314,5.010955810546875
10.826999999999998,-0.2304351806640625,4.735360717773438,4.626348876953125
10.836,-0.350213623046875,5.850003051757813,2.8570373535156253
10.846999999999994,-0.1351806640625,9.827215576171875,3.9458099365234376
10.857,0.0901702880859375,10.833294677734376,8.046389770507814
10.866999999999996,-0.1242645263671875,8.282058715820312,8.5618408203125
10.876999999999995,0.2106964111328125,7.569519042968751,4.140505981445313
10.887,-0.1245635986328125,7.292578125,1.964157104492188
10.896999999999998,-0.8211029052734375,8.801397705078125,1.7615356445312502
10.906999999999996,-0.716278076171875,10.554708862304688,8.469577026367189
10.916999999999994,0.4975067138671875,8.641244506835939,6.054119873046876
10.927,0.26258544921875,6.844268798828126,6.282461547851563
10.936999999999998,-0.0001495361328125,7.200015258789063,3.96749267578125
10.946999999999996,0.06400146484375,8.658441162109376,3.36336669921875
10.957,0.087628173828125,9.424664306640626,5.173352050781251
10.967,0.2199676513671875,8.793322753906251,5.349206542968751
10.977999999999994,0.290997314453125,8.738143920898438,6.506466674804688
10.988,-0.126507568359375,7.667166137695313,5.0640411376953125
10.997999999999998,-0.003887939453125,7.523760986328125,3.8574340820312494
11.007999999999996,0.1227691650390625,8.417239379882814,4.8868408203125
11.018,0.323895263671875,8.561093139648438,4.596142578125001
11.028,-0.30625,8.827267456054688,5.289093017578125
11.037999999999997,-0.3207550048828125,8.595037841796875,5.292980957031251
11.047999999999996,0.102581787109375,8.304040527343751,5.21043701171875
11.058,0.2811279296875,7.864105224609376,4.5458984375
11.067999999999998,0.0740203857421875,7.757336425781251,5.115032958984376
11.077999999999996,0.0052337646484375,8.435931396484376,5.169763183593751
11.088,-0.0928619384765625,8.836837768554688,5.531790161132813
11.098,0.032598876953125,8.525653076171876,4.676443481445313
11.107999999999995,0.1973876953125,8.506063842773438,4.811325073242188
11.117999999999997,0.2633331298828125,8.121456909179688,5.431900024414063
11.128999999999998,0.0010467529296875,7.820291137695313,4.477410888671876
11.138999999999996,-0.2364166259765625,8.327517700195314,5.226437377929688
11.149,0.0261688232421875,8.620309448242189,4.965048217773438
11.159,0.0871795654296875,8.703152465820313,5.625997924804688
11.168999999999995,-0.13577880859375,8.117120361328126,5.1739501953125
11.178999999999997,-0.15731201171875,8.216860961914064,4.620068359375001
11.189,-0.017047119140625,7.885189819335938,4.562496948242188
11.198999999999998,0.120526123046875,6.748117065429688,4.026409912109376
11.208999999999996,0.02392578125,7.219454956054688,5.244232177734375
11.218999999999994,-0.2476318359375,10.725329589843753,5.481546020507813
11.229,0.545208740234375,13.330548095703126,8.143887329101563
11.238999999999995,-0.08912353515625,6.299658203125,2.3574371337890625
11.248999999999995,-0.7527648925781251,4.2864532470703125,5.71048583984375
11.259,-0.13458251953125,6.989169311523438,2.340689086914063
11.269999999999996,0.9024505615234376,11.022457885742188,4.676144409179688
11.279999999999994,0.4018035888671875,10.414144897460938,11.286837768554689
11.29,0.410626220703125,7.353140258789063,3.474920654296876
11.299999999999995,0.0213836669921875,7.847357177734375,6.496298217773438
11.309999999999995,0.160003662109375,6.602169799804688,-0.220416259765625
11.32,-0.83560791015625,10.878604125976564,2.192648315429688
11.329999999999998,-0.7898498535156251,10.12957763671875,11.63794860839844
11.339999999999996,0.1128997802734375,7.0736572265625,2.4965057373046875
11.349999999999994,-0.32359619140625,7.282708740234375,8.541354370117189
11.36,0.023028564453125,6.682769775390626,1.5897186279296875
11.369999999999996,0.35230712890625,9.94534912109375,4.5316925048828125
11.379999999999995,-0.0288604736328125,9.029440307617188,4.749716186523438
11.39,0.50543212890625,8.762667846679689,6.156552124023438
11.400999999999996,0.710296630859375,8.457763671875,6.669760131835938
11.410999999999994,0.4233367919921875,7.322933959960938,4.020428466796876
11.421,0.2456878662109375,8.040109252929689,4.171759033203125
11.430999999999996,0.2187713623046875,8.477352905273438,4.481149291992188
11.442999999999998,0.0961517333984375,8.537765502929688,5.346365356445313
11.451,-0.5767608642578126,8.792276000976564,5.0894622802734375
11.461,-0.4115234375,8.905624389648438,5.668765258789063
11.470999999999997,-0.208154296875,8.055511474609375,4.309332275390625
11.480999999999996,-0.408233642578125,7.674493408203125,5.283261108398438
11.491,-0.3407928466796875,7.57908935546875,4.868896484375
11.500999999999998,-0.1227691650390625,8.751303100585938,5.662335205078126
11.510999999999996,-0.1502838134765625,8.824575805664063,4.936785888671875
11.521,0.0949554443359375,8.619561767578126,4.368099975585938
11.531,0.3404937744140625,8.580233764648439,5.403936767578125
11.543,0.7065582275390625,7.704251098632813,5.028451538085938
11.552,0.3375030517578125,7.914349365234376,5.221203613281251
11.561999999999998,0.2337249755859375,8.429949951171876,4.414157104492188
11.571999999999996,0.3330169677734375,8.916690063476564,5.690298461914063
11.582,0.136676025390625,8.467483520507812,5.1021728515625
11.592,-0.189013671875,8.236300659179689,5.137612915039063
11.601999999999997,-0.112451171875,8.056707763671875,4.520327758789063
11.611999999999997,0.06998291015625,7.327120971679688,4.3372955322265625
11.622,0.187518310546875,6.8678955078125,4.716519165039063
11.631999999999998,-0.0641510009765625,8.381201171875,4.4385314941406255
11.643,-0.1567138671875,12.19317626953125,7.056161499023438
11.652,0.0180938720703125,10.771835327148438,6.534130859375001
11.662999999999997,-0.0035888671875,5.052825927734375,3.269158935546875
11.671999999999995,-0.3629241943359375,5.39227294921875,4.591207885742188
11.681999999999997,0.12979736328125,8.713470458984375,2.848065185546876
11.692999999999998,0.1757049560546875,10.811163330078124,6.912008666992188
11.702999999999996,-0.3769805908203125,8.898147583007812,10.319338989257814
11.713,0.4541412353515625,8.007809448242188,3.4252746582031253
11.723,-0.1185821533203125,7.4905639648437505,3.366506958007813
11.732999999999995,-0.4658050537109375,7.786346435546876,0.753662109375
11.742999999999997,-1.362124633789063,10.325769042968751,6.271096801757813
11.753,0.20875244140625,9.628033447265626,8.118615722656251
11.762999999999998,0.437542724609375,7.00247802734375,5.670858764648438
11.772999999999996,0.057122802734375,7.077694702148438,5.698672485351563
11.782999999999994,0.000299072265625,8.00257568359375,2.75206298828125
11.793,0.04844970703125,9.068170166015626,4.132730102539063
11.802999999999995,0.2406036376953125,9.047833251953126,5.761328125
11.812999999999995,0.37862548828125,8.792575073242189,5.651119995117188
11.823,0.103778076171875,8.566925048828125,5.915200805664063
11.832999999999998,0.002691650390625,7.340579223632813,4.1642822265625
11.843999999999994,0.3153717041015625,8.008407592773438,4.509710693359375
11.854,0.3820648193359375,8.310321044921876,4.761080932617188
11.863999999999995,-0.0442626953125,8.544046020507814,4.848110961914063
11.873999999999995,-0.470440673828125,8.953775024414064,5.637362670898438
11.884,-0.15491943359375,8.719900512695313,5.4012451171875
11.893999999999998,0.0527862548828125,8.09588623046875,4.294528198242188
11.903999999999996,0.057122802734375,7.502078247070313,5.337692260742188
11.913999999999994,0.057421875,7.975958251953125,5.158847045898438
11.924,-0.1266571044921875,8.534176635742188,5.157800292968751
11.933999999999996,-0.227593994140625,8.874371337890626,4.80130615234375
11.943999999999996,0.1924530029296875,8.70838623046875,4.919290161132813
11.954,0.3150726318359375,8.430548095703125,5.453433227539063
11.964999999999996,0.132489013671875,7.71187744140625,4.934243774414063
11.974999999999994,-0.1598541259765625,7.891021728515626,4.7289306640625
11.985,0.159405517578125,8.726031494140626,5.106210327148438
11.994999999999996,0.2483795166015625,8.650814819335938,5.2026611328125005
12.004999999999995,0.0339447021484375,8.486474609375001,5.120266723632813
12.015,-0.28172607421875,7.778720092773438,4.893869018554688
12.025,-0.128900146484375,7.041806030273438,4.374978637695313
12.034999999999997,-0.23028564453125,6.636264038085938,4.594497680664063
12.044999999999996,-0.410626220703125,9.5332275390625,4.478457641601563
12.055,0.4191497802734375,13.95276794433594,7.838684082031251
12.064999999999998,0.1437042236328125,8.128335571289064,4.153366088867188
12.074999999999996,-0.8351593017578126,3.825582885742188,5.381356811523438
12.085,-0.5456573486328126,6.201861572265625,2.841036987304688
12.095999999999997,0.8381500244140626,10.591943359375,4.542459106445313
12.104999999999997,1.4431732177734375,11.0955810546875,9.650613403320314
12.114999999999997,0.430963134765625,7.66641845703125,4.823886108398438
12.125999999999998,-0.404644775390625,7.157098388671876,4.490719604492188
12.135999999999996,-0.23626708984375,7.375570678710938,1.8108825683593752
12.146,0.005084228515625,9.741680908203126,3.744085693359376
12.156,-0.1532745361328125,10.819088745117188,9.168209838867188
12.165999999999997,0.1161895751953125,6.87626953125,3.505874633789063
12.175999999999997,-0.68487548828125,7.086068725585938,7.878012084960938
12.186,0.0669921875,7.266857910156251,2.5422637939453128
12.195999999999998,0.1407135009765625,9.799551391601565,4.43045654296875
12.205999999999996,-0.0873291015625,9.032730102539062,4.7316223144531255
12.216,-0.0186920166015625,8.478399658203125,5.730075073242188
12.226,0.7022216796875,8.308676147460938,6.961505126953125
12.235999999999995,0.5749664306640625,7.485629272460938,4.203012084960938
12.245999999999997,0.42109375,8.266806030273438,3.8043487548828128
12.256999999999998,-0.16090087890625,8.631973266601562,4.3604736328125
12.266999999999996,0.206060791015625,8.593243408203126,5.7290283203125005
12.277,-0.3470733642578125,8.317648315429688,5.073312377929688
12.287,-0.222808837890625,8.663226318359376,5.614932250976563
12.296999999999995,-0.125311279296875,8.345910644531251,4.277630615234376
12.306999999999997,-0.204864501953125,8.064932250976563,5.4468536376953125
12.317,-0.5025909423828125,7.508807373046875,4.696331787109376
12.326999999999998,-0.227593994140625,8.521166992187501,5.457171630859375
12.336999999999996,-0.088226318359375,8.88543701171875,5.422329711914063
12.346999999999994,0.0527862548828125,8.5020263671875,4.233367919921875
12.357,-0.0731231689453125,8.585916137695314,5.110247802734375
12.366999999999996,0.465057373046875,7.894012451171876,4.973272705078125
12.376999999999995,0.5004974365234376,8.009753417968751,5.848358154296875
12.387,0.2758941650390625,8.190093994140625,4.223049926757813
12.396999999999998,0.1574615478515625,8.889923095703125,5.509808349609376
12.406999999999996,0.26976318359375,8.628085327148439,4.710089111328125
12.418,0.10228271484375,7.990164184570313,5.408572387695313
12.427999999999995,0.1912567138671875,7.15440673828125,3.7049072265625
12.437999999999995,0.1948455810546875,7.195230102539063,4.76781005859375
12.448,0.0399261474609375,8.553167724609375,5.479901123046876
12.457999999999998,-0.3385498046875,11.611032104492187,5.768954467773438
12.467999999999996,-0.088824462890625,10.470669555664063,7.179080200195313
12.477999999999994,-0.14534912109375,5.1392578125,2.349810791015625
12.488,-0.3518585205078125,6.464596557617188,6.195880126953125
12.497999999999998,0.0052337646484375,7.912106323242188,0.46356201171875
12.507999999999996,-0.0011962890625,10.628280639648438,8.398547363281251
12.518,-0.179443359375,9.086712646484376,9.845907592773438
12.528,0.451898193359375,7.8632080078125,3.3048980712890628
12.537999999999997,-0.0752166748046875,7.663577270507813,3.9479034423828128
12.549,-0.295184326171875,7.713970947265626,-0.5733215332031251
12.558999999999996,-1.1575592041015623,10.629327392578126,7.878610229492188
12.568999999999996,0.436346435546875,8.870932006835938,7.698568725585938
12.579,0.3599334716796875,7.353887939453125,5.694784545898438
12.589,-0.03050537109375,7.429403686523438,4.880709838867188
12.598999999999997,-0.2169769287109375,8.077642822265625,3.154464721679688
12.608999999999996,-0.108563232421875,8.906970214843751,4.86112060546875
12.619,0.074169921875,9.02420654296875,5.250064086914063
12.628999999999998,0.2660247802734375,8.971868896484375,5.549136352539063
12.638999999999996,-0.011962890625,8.350994873046876,5.966790771484376
12.649,0.046954345703125,7.334597778320313,4.3966613769531255
12.659,0.2205657958984375,8.017678833007814,4.380212402343751
12.668999999999995,0.499151611328125,8.522213745117188,4.921383666992188
12.68,0.171368408203125,8.657693481445314,4.703359985351563
12.689999999999998,-0.310137939453125,8.832351684570312,5.2031097412109375
12.699999999999996,-0.145947265625,8.417837524414063,5.199520874023438
12.71,0.2522674560546875,8.157495117187501,5.000039672851563
12.72,0.204266357421875,7.584472656250001,5.619418334960938
12.729999999999997,0.0049346923828125,7.9565185546875,4.795175170898438
12.739999999999997,-0.2851654052734375,8.670553588867188,5.0191802978515625
12.75,-0.1706207275390625,8.754592895507812,5.1021728515625
12.759999999999998,0.103179931640625,8.589953613281251,5.133126831054688
12.769999999999996,0.049945068359375,8.286395263671876,4.645639038085938
12.779999999999994,0.0121124267578125,8.094390869140625,5.1488281250000005
12.79,-0.089422607421875,8.023062133789063,5.0734619140625
12.799999999999995,0.10467529296875,8.384939575195313,5.0127502441406255
12.809999999999995,0.1463958740234375,8.533279418945312,5.192941284179688
12.82,0.193798828125,8.474960327148438,5.125949096679688
12.830999999999996,-0.07716064453125,7.681521606445313,4.515692138671875
12.841,-0.12860107421875,6.832604980468751,4.104916381835938
12.851,-0.389093017578125,7.303793334960938,4.806539916992188
12.860999999999995,0.064898681640625,11.544488525390626,6.415100097656251
12.870999999999997,0.5262176513671876,12.30607604980469,7.233959960937501
12.881,-0.2337249755859375,5.212081909179688,2.2336212158203126
12.890999999999998,-1.167578125,5.349057006835938,5.083630371093751
12.900999999999996,-0.1060211181640625,7.576547241210938,3.5688293457031253
12.910999999999994,1.547100830078125,11.186947631835938,7.61497802734375
12.921,0.8842071533203125,10.125689697265626,8.414248657226564
12.930999999999996,0.1697235107421875,6.997991943359375,2.818756103515625
12.940999999999995,-0.636724853515625,7.343121337890626,3.8376953125
12.951,-0.319110107421875,7.774234008789063,2.249472045898438
12.961999999999996,0.03529052734375,11.319436645507814,7.199417114257813
12.970999999999997,0.1511810302734375,9.125143432617188,6.0165863037109375
12.982,-0.425579833984375,6.491812133789063,5.119070434570313
12.991999999999996,-0.3050537109375,7.056011962890626,5.817105102539063
13.001999999999995,0.0955535888671875,7.911209106445313,3.2519622802734376
13.012,0.1882659912109375,10.101315307617188,5.807086181640625
13.021999999999998,-0.0035888671875,8.98353271484375,3.897509765625
13.031999999999996,0.488385009765625,8.735452270507814,6.96898193359375
13.043999999999995,0.4397857666015625,7.227978515625001,4.777081298828126
13.052,0.5825927734375,7.775280761718751,4.854092407226563
13.061999999999998,0.290399169921875,8.5235595703125,3.5481933593750004
13.071999999999996,-0.136676025390625,8.823529052734376,4.910916137695313
13.082999999999998,-0.1963409423828125,8.491708374023439,5.719906616210938
13.092,-0.3198577880859375,8.406771850585939,5.711383056640625
13.102999999999994,0.000897216796875,8.365350341796876,5.264419555664063
13.111999999999997,-0.323895263671875,7.944256591796876,3.6455413818359377
13.122999999999998,-0.4254302978515625,8.118466186523438,5.4733215332031255
13.132999999999996,-0.313427734375,8.03726806640625,4.858728027343751
13.143999999999998,-0.083441162109375,8.767602539062501,6.067727661132813
13.153,-0.1143951416015625,8.470474243164062,4.354940795898438
13.162999999999997,0.202471923828125,8.787042236328126,5.298065185546875
13.172999999999996,0.2298370361328125,8.069866943359376,4.769754028320313
13.183,0.43485107421875,7.764065551757813,5.1039672851562505
13.192999999999998,0.2735015869140625,8.143588256835939,5.287149047851563
13.202999999999996,0.4044952392578125,8.793322753906251,4.671359252929688
13.213,0.1710693359375,8.869436645507813,5.414553833007813
13.223,0.0064300537109375,8.100521850585938,4.5212249755859375
13.233999999999996,0.161199951171875,7.468731689453126,4.93529052734375
13.244,0.479412841796875,6.889727783203125,4.60391845703125
13.253,0.2986236572265625,7.9720703125,4.7076965332031255
13.263999999999996,-0.253912353515625,10.739385986328124,4.764669799804688
13.274,-0.331072998046875,11.838925170898438,7.807131958007813
13.284,0.036187744140625,6.700863647460938,3.63671875
13.293999999999995,-0.4580291748046875,4.8365966796875,5.9264160156250005
13.303999999999997,-0.23447265625,7.359121704101563,1.54261474609375
13.314,-0.1350311279296875,10.41788330078125,5.27025146484375
13.323999999999998,-0.2914459228515625,10.002322387695314,10.506109619140624
13.333999999999996,0.2325286865234375,8.009005737304689,4.895364379882813
13.343999999999994,0.1559661865234375,7.531536865234376,4.439727783203125
13.354,-0.1502838134765625,7.422225952148438,0.405242919921875
13.363999999999995,-1.16339111328125,10.122399902343751,4.464401245117188
13.373999999999995,-0.1332366943359375,9.717605590820312,9.005963134765626
13.384999999999998,0.6548187255859376,7.5318359375,5.376422119140625
13.394999999999996,0.1332366943359375,7.057357788085938,5.552127075195313
13.404999999999994,-0.1155914306640625,7.731915283203126,3.9209869384765614
13.415,-0.138470458984375,8.96259765625,3.7072998046875
13.424999999999995,0.0946563720703125,9.090151977539064,5.610595703125
13.434999999999995,0.35828857421875,8.844314575195312,5.678036499023438
13.445,0.252716064453125,8.588458251953126,5.588165283203125
13.454999999999998,-0.2289398193359375,7.477554321289063,4.6015258789062505
13.464999999999996,0.0958526611328125,7.85782470703125,4.099981689453125
13.474999999999994,0.4677490234375,8.497540283203126,5.138211059570313
13.485,0.2978759765625,8.458511352539062,4.770501708984376
13.494999999999996,-0.351409912109375,8.746817016601563,5.324981689453125
13.505000000000004,-0.2693145751953125,8.74906005859375,5.059405517578125
13.514999999999992,0.1577606201171875,8.210580444335939,5.213128662109376
13.525,0.1987335205078125,7.633969116210938,4.8964111328125
13.535000000000004,0.0853851318359375,7.870086669921876,5.097985839843751
13.546,-0.142059326171875,8.570065307617188,5.19488525390625
13.556000000000004,-0.2322296142578125,8.784500122070312,4.879513549804688
13.565999999999995,-0.0423187255859375,8.512942504882814,5.121014404296876
13.576,0.283819580078125,8.579934692382814,4.80908203125
13.585999999999991,0.197686767578125,8.028744506835938,5.480499267578125
13.595999999999997,-0.0462066650390625,7.83629150390625,4.673153686523438
13.606000000000002,-0.1108062744140625,8.394509887695314,4.722650146484376
13.615999999999993,0.2585479736328125,8.656497192382814,5.337393188476563
13.625999999999998,0.2117431640625,8.478549194335939,5.51309814453125
13.636000000000005,-0.06639404296875,7.566528320312501,4.323239135742188
13.645999999999994,-0.1649383544921875,6.932345581054688,4.222601318359375
13.656,0.0408233642578125,7.413104248046875,5.006918334960938
13.666000000000004,-0.0067291259765625,11.205789184570314,5.381954956054688
13.677,0.322698974609375,12.363497924804689,7.971920776367188
13.68699999999999,-0.2213134765625,5.519827270507813,1.8627716064453128
13.696999999999996,-1.0501922607421876,5.511752319335938,6.515737915039063
13.707,-0.18243408203125,7.190594482421876,2.16707763671875
13.716999999999992,0.93489990234375,10.946493530273438,6.763369750976563
13.726999999999997,0.6066680908203126,9.8861328125,9.5475830078125
13.737000000000002,0.367559814453125,7.687652587890626,3.0397705078125004
13.746999999999993,-0.308642578125,7.412655639648438,3.982745361328125
13.756999999999998,-0.279632568359375,7.211080932617188,1.6555145263671875
13.767000000000005,-0.2296875,11.160330200195313,6.6995178222656255
13.776999999999994,0.1511810302734375,9.3884765625,7.109994506835938
13.787,-0.17166748046875,6.669311523437501,4.662835693359376
13.797000000000004,-0.3512603759765625,7.169509887695313,5.8012542724609375
13.806999999999997,0.109161376953125,7.985229492187501,3.1740539550781253
13.817,0.0880767822265625,9.928302001953126,5.8117218017578125
13.827999999999996,0.006878662109375,8.671899414062501,3.821694946289063
13.838,0.3159698486328125,8.760574340820312,6.9088684082031255
13.847999999999992,0.5815460205078126,7.778271484375001,5.062396240234375
13.857999999999995,0.4557861328125,7.571463012695313,4.698574829101563
13.868000000000002,0.313128662109375,8.254095458984375,3.8773223876953127
13.877999999999991,-0.13218994140625,8.932241821289063,4.81865234375
13.887999999999998,0.0246734619140625,8.683712768554688,5.457919311523438
13.898000000000003,-0.3853546142578125,8.394061279296876,5.572164916992188
13.907999999999994,-0.0740203857421875,8.286993408203125,4.878317260742188
13.918,-0.197686767578125,8.017678833007814,4.303350830078125
13.928000000000004,-0.2953338623046875,8.076446533203125,5.638409423828126
13.937999999999995,-0.2906982421875,7.919583129882813,4.675994873046875
13.948,-0.1996307373046875,8.837286376953125,5.920285034179688
13.957999999999991,-0.030804443359375,8.589205932617189,4.545300292968751
13.969,0.2044158935546875,8.640646362304688,5.1392578125
13.978999999999992,0.205462646484375,8.121606445312501,4.575955200195313
13.988999999999995,0.3090911865234375,7.914947509765626,5.068975830078125
13.999000000000002,0.3529052734375,8.1479248046875,5.4467041015625
14.008999999999991,0.3384002685546875,8.65814208984375,4.984637451171875
14.018999999999998,0.15611572265625,8.732162475585938,5.029498291015625
14.029000000000003,-0.008673095703125,8.217010498046875,4.792782592773438
14.038999999999994,0.21533203125,7.597930908203126,5.081387329101563
14.049,0.4690948486328125,6.8918212890625,3.8981079101562495
14.059000000000005,0.30924072265625,7.85423583984375,5.116229248046875
14.068999999999996,-0.246734619140625,10.4328369140625,4.9245239257812505
14.079,-0.0360382080078125,12.034368896484375,8.107400512695314
14.088999999999992,-0.067889404296875,6.951336669921876,3.36934814453125
14.098999999999997,-0.5731719970703125,4.992861938476563,5.350253295898438
14.109000000000002,-0.283221435546875,7.244277954101563,2.180685424804688
14.119999999999996,-0.21353759765625,10.024453735351564,4.954730224609375
14.130000000000004,-0.426177978515625,10.26221618652344,10.163372802734376
14.139999999999992,0.088525390625,8.089007568359376,5.434292602539063
14.15,0.435150146484375,7.579837036132813,4.8516998291015625
14.162,0.0192901611328125,6.896008300781251,0.6189300537109376
14.169999999999996,-1.0611083984375,10.329656982421875,3.104818725585938
14.18,-0.450701904296875,9.93817138671875,9.744970703125
14.18999999999999,0.7660736083984375,7.740139770507813,5.140304565429688
14.199999999999996,0.1679290771484375,6.884643554687501,5.857330322265625
14.21,-0.1075164794921875,7.438226318359375,3.619970703125
14.219999999999992,-0.2074066162109375,9.209332275390626,3.8462188720703128
14.229999999999997,0.0381317138671875,9.20484619140625,5.405731201171875
14.240000000000002,0.405242919921875,8.862557983398439,5.6751953125000005
14.249999999999991,0.050244140625,8.393014526367189,6.065634155273438
14.261999999999992,-0.1610504150390625,7.530789184570313,4.636666870117188
14.270999999999994,0.0485992431640625,7.892816162109375,4.094747924804688
14.281,0.412420654296875,8.464492797851562,4.68466796875
14.291000000000004,0.3552978515625,8.567523193359376,4.779623413085938
14.300999999999997,-0.2420989990234375,8.778817749023439,5.73740234375
14.311,-0.26617431640625,8.623748779296875,5.093499755859376
14.32099999999999,0.16209716796875,8.112185668945314,4.700070190429688
14.330999999999996,0.2510711669921875,7.809225463867188,5.076751708984375
14.341,0.204266357421875,7.804141235351563,4.99510498046875
14.350999999999992,-0.1547698974609375,8.539410400390626,5.5570617675781255
14.362000000000002,-0.2978759765625,8.696572875976564,4.79173583984375
14.371000000000002,0.0227294921875,8.746517944335938,5.059255981445313
14.381999999999998,0.316119384765625,8.52056884765625,5.014544677734375
14.390999999999998,0.15133056640625,7.867095947265626,5.052676391601563
14.401000000000003,-0.238958740234375,7.897750854492188,4.659396362304688
14.412,-0.1251617431640625,8.404678344726562,5.0782470703125
14.422000000000004,0.24464111328125,8.728125,5.372085571289063
14.431999999999997,0.1686767578125,8.567971801757814,5.212530517578125
14.442,-0.0877777099609375,8.189196777343751,4.961459350585938
14.451999999999993,-0.160003662109375,7.653259277343751,4.390081787109375
14.461999999999996,-0.0599639892578125,6.657049560546875,4.19957275390625
14.472,-0.3868499755859375,6.782211303710938,4.6033203125
14.481999999999992,-0.107366943359375,11.656192016601564,6.183767700195313
14.491999999999996,0.6465942382812501,13.594180297851564,8.300750732421875
14.502000000000002,-0.027813720703125,5.289093017578125,1.3008148193359377
14.511999999999992,-0.9963592529296876,4.137515258789063,5.30972900390625
14.521999999999998,-0.7796813964843751,7.30155029296875,3.011956787109375
14.532999999999994,1.0815948486328126,12.030929565429688,7.751953125000001
14.543,1.6220184326171876,10.248159790039065,9.065328979492188
14.553000000000004,0.288604736328125,6.5514770507812505,2.680584716796876
14.562999999999995,-0.455487060546875,7.5796875,3.7192626953125
14.573,-0.2121917724609375,7.555911254882813,1.5429138183593751
14.582999999999991,0.0180938720703125,11.352932739257811,7.717410278320313
14.592999999999996,0.229986572265625,9.362756347656251,5.978753662109376
14.603000000000002,-0.4119720458984375,6.445904541015626,5.356234741210938
14.612999999999992,-0.37802734375,6.814212036132813,5.966790771484376
14.622999999999998,-0.0240753173828125,7.811318969726563,2.9331512451171875
14.633000000000004,0.1902099609375,10.815798950195314,5.887387084960938
14.642999999999994,-0.107965087890625,8.70419921875,3.8382934570312495
14.653,0.3949249267578125,8.457614135742189,6.840530395507813
14.663000000000004,0.55567626953125,7.237997436523438,5.035778808593751
14.672999999999996,0.593658447265625,7.597482299804688,4.366006469726563
14.684000000000005,0.184228515625,8.640048217773439,4.134225463867188
14.693999999999996,-0.01256103515625,9.195126342773438,5.4060302734375005
14.704,0.07357177734375,8.662478637695314,5.115032958984376
14.713999999999992,-0.4840484619140625,8.151812744140626,5.5824829101562505
14.723999999999997,0.0665435791015625,8.091699218750001,5.0064697265625
14.734000000000002,-0.273651123046875,8.121905517578126,3.973922729492188
14.743999999999993,-0.5476013183593751,8.129830932617189,5.105014038085938
14.753999999999998,-0.563153076171875,8.074053955078126,5.055517578125
14.764000000000005,-0.045758056640625,9.079086303710938,6.486578369140625
14.773999999999994,0.0219818115234375,8.247964477539064,4.619918823242188
14.784,-0.0192901611328125,8.5474853515625,4.5521789550781255
14.794000000000004,0.1634429931640625,8.016033935546876,4.791586303710938
14.803999999999997,0.6799407958984376,8.073904418945313,5.056265258789063
14.814,0.355596923828125,8.250357055664063,5.185015869140625
14.823999999999993,0.2340240478515625,8.611935424804688,4.870242309570313
14.835,0.196490478515625,8.890371704101563,5.693887329101563
14.844999999999992,0.080450439453125,8.117419433593751,5.08123779296875
14.854999999999997,-0.0046356201171875,8.102166748046876,4.8546905517578125
14.865000000000002,-0.00418701171875,7.966387939453125,4.497149658203125
14.874999999999991,0.0937591552734375,7.768850708007813,4.2460784912109375
14.884999999999998,-0.0079254150390625,7.109396362304688,4.422232055664063
14.895000000000003,-0.1209747314453125,8.364303588867188,5.332608032226563
14.904999999999994,-0.10587158203125,11.257080078125,6.815856933593751
14.915,-0.0590667724609375,10.841668701171876,7.011151123046876
14.925000000000004,0.0865814208984375,6.079391479492188,2.6571075439453127
14.934999999999995,-0.4520477294921875,5.414553833007813,4.744781494140625
14.945,0.409130859375,7.853338623046875,2.604022216796875
14.955999999999996,0.320306396484375,10.032229614257814,5.182473754882813
14.966,0.0040374755859375,10.032229614257814,11.366241455078123
14.975999999999992,0.318212890625,7.961154174804688,3.73421630859375
14.985999999999995,-0.117236328125,7.305737304687501,5.560052490234376
14.996000000000002,-0.17286376953125,6.95701904296875,0.0251220703125
15.005999999999991,-1.5735687255859376,10.702899169921876,4.01414794921875
15.015999999999998,-0.5588165283203126,10.006658935546875,9.893460083007811
15.026000000000003,0.5310028076171875,7.405477905273438,4.3701934814453125
15.035999999999994,-0.071478271484375,6.973318481445313,5.713626098632813
15.046,0.0097198486328125,7.40921630859375,3.7976196289062494
15.056000000000004,-0.0001495361328125,9.117367553710938,4.127047729492188
15.065999999999995,0.0823944091796875,9.551022338867188,5.8371429443359375
15.076,0.5954528808593751,8.854632568359376,5.512350463867188
15.085999999999991,0.174658203125,8.2244873046875,5.9029388427734375
15.095999999999997,0.0453094482421875,7.192239379882813,4.142599487304688
15.106000000000002,0.23028564453125,8.176336669921875,4.7899414062500005
15.116999999999996,0.310137939453125,8.742630004882812,4.3058929443359375
15.127000000000002,0.0779083251953125,8.743377685546875,5.2434844970703125
15.136999999999992,-0.3416900634765625,8.8058837890625,5.337542724609375
15.146999999999998,-0.1317413330078125,8.284002685546875,5.70450439453125
15.157000000000004,0.1039276123046875,7.760327148437501,4.0497375488281255
15.166999999999994,-0.014654541015625,7.865451049804688,4.912261962890625
15.177,0.11005859375,8.263217163085939,4.9384307861328125
15.18699999999999,-0.1972381591796875,8.5977294921875,5.716616821289063
15.198,-0.21473388671875,8.5427001953125,5.33365478515625
15.207999999999991,0.070880126953125,8.544644165039063,4.97117919921875
15.216999999999992,0.403448486328125,8.4158935546875,5.061648559570313
15.226999999999997,0.12979736328125,7.83629150390625,4.416101074218751
15.237000000000002,-0.033795166015625,8.080484008789064,4.9593658447265625
15.246999999999993,-0.0195892333984375,8.630477905273438,4.904187011718751
15.258000000000004,0.290997314453125,8.649169921875,5.9228271484375
15.267999999999994,0.0011962890625,8.511148071289064,4.91375732421875
15.278,-0.069384765625,8.265908813476564,4.91973876953125
15.288000000000004,-0.0608612060546875,8.065380859375,5.098434448242188
15.297999999999996,0.122021484375,7.382150268554688,4.347164916992188
15.308,-0.03170166015625,7.082479858398438,4.149179077148438
15.31799999999999,0.09630126953125,8.006463623046876,4.745828247070313
15.329,-0.252117919921875,10.93946533203125,6.021969604492188
15.338,0.449505615234375,12.189886474609375,7.747915649414063
15.347999999999992,-0.1233673095703125,5.86241455078125,2.4806549072265627
15.357999999999995,-0.5148529052734375,4.765118408203126,5.229428100585938
15.368000000000002,-0.264678955078125,7.353887939453125,2.961114501953125
15.378999999999998,0.8388977050781251,11.293865966796876,5.945556640625
15.389000000000005,0.193499755859375,10.101913452148438,10.407864379882811
15.398999999999994,0.500347900390625,7.054367065429688,3.1534179687500004
15.407999999999994,-0.12501220703125,7.759130859375,4.670611572265625
15.419000000000004,-0.20755615234375,7.45048828125,-0.189910888671875
15.428999999999997,-1.4561828613281251,10.97879333496094,7.425964355468751
15.439,0.029010009765625,9.398944091796876,7.281512451171875
15.448999999999993,0.17764892578125,6.61966552734375,4.939178466796875
15.458999999999996,-0.465655517578125,7.051525878906251,5.863162231445313
15.469,-0.008673095703125,7.905825805664063,2.512506103515625
15.478999999999992,0.3132781982421875,10.22049560546875,5.910565185546876
15.488999999999995,0.5259185791015626,8.833847045898438,4.545001220703125
15.499000000000002,0.6892120361328126,8.404977416992189,6.420184326171875
15.508999999999991,0.605621337890625,7.64847412109375,5.3586273193359375
15.518999999999998,0.3372039794921875,7.631726074218751,3.864013671875
15.531,0.376531982421875,8.516232299804688,4.475018310546876
15.538999999999994,0.0910675048828125,8.874969482421875,5.222848510742188
15.550000000000004,-0.112750244140625,8.641992187500001,5.194287109375001
15.559999999999995,-0.8680572509765626,8.454623413085939,5.541958618164063
15.57,-0.2056121826171875,8.250506591796876,4.930206298828125
15.579999999999991,-0.444122314453125,7.891619873046875,3.7086456298828128
15.589999999999996,-0.4131683349609375,8.091699218750001,5.7481689453125
15.6,-0.37742919921875,8.093942260742189,4.771697998046875
15.609999999999992,-0.2005279541015625,8.861212158203125,6.338088989257813
15.619999999999996,-0.0035888671875,8.391070556640626,4.451092529296876
15.630000000000004,0.4131683349609375,8.633319091796876,4.938729858398438
15.639999999999992,0.6177337646484375,8.070764160156251,5.0550689697265625
15.65,0.545208740234375,7.856478881835938,4.684817504882813
15.660000000000004,0.2752960205078125,8.398547363281251,5.208792114257813
15.671,0.46595458984375,8.759677124023439,4.727734375000001
15.681000000000004,0.331072998046875,8.738143920898438,5.599530029296876
15.690999999999995,-0.0174957275390625,8.04324951171875,5.019927978515625
15.701,-0.25780029296875,8.008706665039064,5.534332275390625
15.710999999999991,-0.28232421875,8.260226440429689,4.606610107421876
15.720999999999997,-0.17286376953125,8.359219360351563,4.56982421875
15.731000000000002,-0.2633331298828125,7.355682373046876,3.848312377929688
15.740999999999993,0.10706787109375,7.146481323242188,4.821493530273438
15.750999999999998,0.0686370849609375,8.148971557617188,5.392572021484376
15.761000000000005,0.0674407958984375,12.372619628906252,6.372183227539063
15.770999999999994,0.2130889892578125,11.33768005371094,7.375122070312501
15.781,0.3518585205078125,4.104916381835938,1.292291259765625
15.791000000000004,0.070880126953125,5.40782470703125,7.328018188476563
15.802,-0.0765625,8.486773681640626,0.2441925048828125
15.81199999999999,-0.1553680419921875,12.11541748046875,7.122555541992188
15.821999999999996,-0.2788848876953125,8.575149536132812,10.313806152343751
15.832,0.30146484375,6.827819824218751,3.5393707275390627
15.841999999999992,-0.2106964111328125,7.847656250000001,5.224942016601563
15.851999999999997,-0.4095794677734375,7.87576904296875,-1.2538604736328125
15.863999999999995,-1.6224670410156252,11.261566162109377,7.268951416015626
15.871999999999993,-0.12620849609375,8.726779174804689,8.217010498046875
15.881999999999998,0.75186767578125,6.639105224609375,5.354888916015625
15.892000000000005,0.145947265625,7.391421508789063,5.229129028320313
15.901999999999994,0.0249725341796875,8.477801513671876,2.820700073242188
15.912,0.1303955078125,9.4614501953125,4.855288696289063
15.922000000000004,0.3180633544921875,8.697470092773438,5.3605712890625
15.931999999999997,0.3698028564453125,8.606851196289064,6.5173828125
15.94299999999999,0.0590667724609375,8.042800903320312,5.457022094726563
15.952999999999996,-0.0354400634765625,7.42476806640625,3.689205932617188
15.963999999999992,0.039178466796875,8.107998657226563,4.410418701171875
15.972999999999992,0.4270751953125,8.741583251953125,5.359225463867188
15.982999999999995,-0.09749755859375,8.691638183593751,5.293429565429688
15.993000000000002,-0.402252197265625,8.727227783203126,5.0520782470703125
16.002999999999993,-0.098394775390625,8.486923217773438,4.817156982421875
16.012999999999998,0.438739013671875,8.015585327148438,4.550534057617188
16.023000000000003,0.1287506103515625,7.615277099609376,5.585772705078125
16.032999999999994,-0.0222808837890625,8.041604614257814,4.970281982421875
16.043,-0.3458770751953125,8.98712158203125,5.301654052734375
16.053000000000004,0.03349609375,8.800350952148438,5.030844116210938
16.064,0.196490478515625,8.424118041992188,4.969683837890625
16.073,0.217724609375,8.000631713867188,4.9005981445312505
16.08299999999999,0.0512908935546875,7.979397583007813,4.995852661132813
16.094,-0.046954345703125,8.262469482421876,4.91495361328125
16.103999999999992,-0.01495361328125,8.603561401367188,4.7559967041015625
16.113999999999997,0.1502838134765625,8.622402954101563,5.5280517578125
16.124000000000002,-0.0115142822265625,8.376266479492188,5.382254028320313
16.133999999999993,-0.0710296630859375,8.215664672851563,5.3690948486328125
16.144,-0.08553466796875,8.090652465820312,4.321295166015625
16.154000000000003,-0.003887939453125,7.346859741210938,4.472177124023438
16.163999999999994,-0.110357666015625,7.027600097656251,4.951290893554688
16.174,-0.15252685546875,8.200262451171875,4.607357788085938
16.184000000000005,-0.332269287109375,11.389419555664062,5.125799560546875
16.193999999999996,0.255108642578125,12.164166259765626,7.494451904296875
16.204,-0.1410125732421875,5.15361328125,3.6213165283203126
16.21399999999999,-0.5899200439453125,4.136318969726563,6.341378784179688
16.223999999999997,0.0450103759765625,8.159289550781251,1.6879638671875
16.234999999999992,1.17236328125,12.176577758789064,4.46514892578125
16.244999999999997,0.570928955078125,9.5332275390625,11.232705688476564
16.255000000000003,0.5477508544921875,6.362014770507813,3.547296142578125
16.264999999999993,-0.1807891845703125,7.954724121093751,6.0464935302734375
16.275,0.23387451171875,7.4800964355468755,-0.8674591064453125
16.285000000000004,-0.8510101318359375,11.419924926757814,3.483294677734375
16.294999999999995,-0.47791748046875,9.103759765625,11.1601806640625
16.305,0.0282623291015625,6.384893798828125,4.318304443359375
16.31499999999999,-0.3629241943359375,7.470077514648438,6.526205444335938
16.324999999999996,0.0548797607421875,7.965789794921876,1.6685241699218751
16.335,0.1697235107421875,10.060491943359375,4.796969604492188
16.34499999999999,0.09749755859375,8.508157348632814,4.826129150390625
16.354999999999997,0.49586181640625,8.594589233398438,7.577743530273438
16.365000000000002,0.8435333251953125,8.118316650390625,5.126248168945313
16.374999999999993,0.38221435546875,7.405029296875001,3.9311553955078127
16.386000000000003,0.33077392578125,8.272637939453126,4.293182373046875
16.395999999999994,0.236566162109375,8.727825927734376,5.141500854492188
16.406,0.091815185546875,8.655599975585938,5.620913696289063
16.416000000000004,-0.7959808349609375,8.659487915039064,4.626348876953125
16.425999999999995,-0.3428863525390625,8.709881591796876,5.063742065429688
16.436,-0.2764923095703125,7.94993896484375,4.187460327148438
16.44599999999999,-0.48748779296875,7.5892578125,5.917892456054688
16.455999999999996,-0.490478515625,7.805935668945313,4.7540527343750005
16.466,-0.217425537109375,9.047235107421876,6.02750244140625
16.475999999999992,-0.024822998046875,8.752798461914063,4.646536254882813
16.485999999999997,0.15791015625,8.426809692382813,4.6707611083984375
16.496000000000002,0.3096893310546875,8.128036499023438,5.087368774414063
16.505999999999993,0.6304443359375,7.891619873046875,4.921383666992188
16.517000000000003,0.5109649658203126,8.253646850585938,5.144491577148438
16.526000000000003,0.2884552001953125,8.596981811523438,4.389782714843751
16.537,0.338250732421875,8.713769531250001,5.99759521484375
16.547000000000004,0.1435546875,8.233010864257814,5.439974975585938
16.556999999999995,0.0121124267578125,8.194729614257813,5.0291992187500005
16.567,-0.253912353515625,8.159738159179689,4.082037353515625
16.57699999999999,-0.17764892578125,7.64847412109375,4.370791625976563
16.586999999999996,-0.1782470703125,7.270147705078125,5.165426635742188
16.597,-0.170770263671875,7.978201293945313,4.968487548828126
16.606999999999992,-0.4797119140625,10.473809814453126,5.109948730468751
16.616999999999997,-0.06160888671875,11.242425537109376,7.008908081054688
16.627000000000002,0.06998291015625,7.065582275390626,3.814666748046875
16.636999999999993,-0.24703369140625,5.21641845703125,5.8012542724609375
16.647,0.030206298828125,7.750906372070313,3.105416870117188
16.657000000000004,0.9343017578125,10.333395385742188,4.753903198242188
16.668,0.2117431640625,9.330157470703126,8.348751831054688
16.677,0.61309814453125,8.053717041015625,5.20445556640625
16.687999999999995,0.10347900390625,7.904031372070313,4.8557373046875005
16.698,-0.389093017578125,7.437777709960938,1.8529022216796875
16.70799999999999,-0.95882568359375,9.505712890625,4.985684204101563
16.717999999999996,-0.228192138671875,9.698614501953124,6.757537841796876
16.728,-0.1446014404296875,8.135662841796876,5.852096557617188
16.737999999999992,-0.3099884033203125,7.2393432617187505,5.702410888671875
16.747999999999998,-0.0249725341796875,7.761074829101563,3.84786376953125
16.758000000000003,-0.0444122314453125,8.704797363281251,4.236807250976563
16.767999999999994,0.0007476806640625,8.676684570312501,4.673452758789063
16.778,0.252117919921875,8.896054077148438,6.401641845703126
16.788000000000004,0.516796875,8.637805175781251,5.226138305664063
16.797999999999995,0.1694244384765625,7.915844726562501,4.8452697753906255
16.808,0.39896240234375,7.860067749023438,4.16129150390625
16.818999999999996,0.4868896484375,8.256039428710938,5.160641479492188
16.829,0.2711090087890625,8.316003417968751,4.38858642578125
16.83899999999999,-0.3624755859375,8.796762084960939,5.439526367187501
16.848999999999997,-0.18004150390625,8.865399169921876,5.384048461914063
16.859,-0.07476806640625,8.292227172851563,4.768408203125
16.868999999999993,-0.090618896484375,7.668362426757813,5.369992065429688
16.878999999999998,-0.246734619140625,7.748812866210938,4.6812286376953125
16.889000000000003,-0.117236328125,8.522363281250001,5.812469482421875
16.898999999999994,-0.3075958251953125,8.555709838867188,4.225292968750001
16.909,-0.126507568359375,8.859417724609376,5.3246826171875
16.919000000000004,0.134881591796875,8.48468017578125,4.8606719970703125
16.928999999999995,0.314324951171875,8.1120361328125,5.630484008789063
16.939,0.0844879150390625,7.726382446289063,4.620217895507813
16.94899999999999,0.256304931640625,8.389276123046876,4.735958862304688
16.96,0.34512939453125,8.6994140625,5.362664794921876
16.96999999999999,0.2657257080078125,8.275927734375001,5.039517211914063
16.981999999999992,-0.1643402099609375,7.550976562500001,4.782464599609376
16.990000000000002,-0.079254150390625,7.14244384765625,4.457522583007813
16.999999999999993,-0.098394775390625,7.87218017578125,5.01903076171875
17.009999999999998,-0.139068603515625,11.027392578125,4.774090576171876
17.020000000000003,-0.234771728515625,11.617013549804687,7.464395141601563
17.029999999999994,-0.2763427734375,5.630484008789063,3.296524047851563
17.04,-0.9386383056640626,5.1682678222656255,6.539364624023438
17.050000000000004,-0.088226318359375,7.807131958007813,1.839892578125
17.059999999999995,1.0364349365234375,11.47659912109375,6.333303833007813
17.07,0.75904541015625,9.55535888671875,9.0331787109375
17.082,0.4502532958984375,6.881652832031251,4.295425415039063
17.091,-0.1395172119140625,7.777523803710938,4.117178344726563
17.100999999999992,0.0641510009765625,7.847207641601563,0.71298828125
17.110999999999997,-0.160003662109375,11.197415161132811,6.8595214843750005
17.121000000000002,0.1571624755859375,8.803790283203126,6.558804321289063
17.130999999999993,-0.37623291015625,6.620861816406251,6.024212646484376
17.141,-0.2367156982421875,7.248464965820313,5.662933349609375
17.151000000000003,0.06280517578125,8.321835327148438,2.671163940429688
17.160999999999994,-0.0420196533203125,9.958956909179689,5.547042846679688
17.171,-0.0961517333984375,8.195626831054689,3.7938812255859378
17.181999999999995,0.2835205078125,8.629132080078126,7.643090820312499
17.190999999999995,0.6449493408203125,7.947396850585938,4.4359893798828125
17.201,0.3289794921875,8.027249145507813,4.777529907226563
17.21099999999999,0.19200439453125,8.114727783203126,3.4249755859375
17.220999999999997,-0.09510498046875,8.56064453125,5.67459716796875
17.231,0.239556884765625,8.449240112304688,5.430105590820313
17.241999999999997,-0.426177978515625,8.42486572265625,5.284158325195313
