time,ax,ay,az
0.0,0.2092010498046875,8.121456909179688,5.391824340820313
0.0100000000000015,0.3935791015625,7.8015991210937505,5.310476684570313
0.0199999999999995,0.185723876953125,6.848455810546875,2.6819305419921875
0.0300000000000011,-0.407635498046875,8.413201904296876,3.855340576171875
0.0399999999999991,-0.54969482421875,8.576196289062501,5.988473510742188
0.0500000000000007,-0.0351409912109375,8.758181762695314,6.985729980468751
0.0600000000000022,-0.57242431640625,11.869729614257814,6.750061035156251
0.0700000000000002,-0.0139068603515625,9.110040283203126,4.4479522705078125
0.0800000000000018,-0.5208343505859375,5.341131591796875,4.48907470703125
0.0899999999999998,0.298773193359375,7.024609375000001,3.964202880859376
0.100999999999999,0.640911865234375,9.054562377929688,3.5867736816406253
0.1110000000000006,0.2423980712890625,9.874020385742188,6.693087768554688
0.1210000000000022,0.073870849609375,9.34541015625,7.264465332031251
0.1310000000000002,0.249725341796875,8.818295288085938,4.948898315429688
0.1410000000000018,0.6646881103515625,7.378561401367188,4.201217651367188
0.1509999999999998,0.905889892578125,6.697125244140626,3.0865753173828128
0.1610000000000013,0.356494140625,8.799005126953126,3.7246459960937504
0.1709999999999993,-0.717474365234375,9.652407836914064,5.2808685302734375
0.1810000000000009,-0.7913452148437501,8.699264526367188,6.177337646484376
0.1909999999999989,-0.5058807373046875,8.361013793945313,6.106457519531251
0.2010000000000005,-0.0420196533203125,7.893414306640626,4.959814453125
0.211000000000002,-0.47911376953125,6.98692626953125,4.490121459960938
0.221,-0.7968780517578126,7.502227783203126,4.963702392578125
0.2310000000000016,-0.5103668212890625,9.276025390625,5.21881103515625
0.2409999999999996,-0.0680389404296875,9.769943237304688,4.662237548828125
0.2519999999999989,-0.05084228515625,8.553167724609375,5.21282958984375
0.2620000000000004,0.32359619140625,7.965939331054688,5.628091430664063
0.272000000000002,0.6634918212890626,7.694830322265625,4.570571899414063
0.282,0.7651763916015626,7.599575805664063,4.339837646484376
0.2920000000000016,0.9637603759765626,8.578140258789062,5.451788330078125
0.3019999999999996,0.8828613281250001,9.239089965820312,5.320196533203125
0.3120000000000011,0.1864715576171875,8.796014404296876,5.017086791992188
0.3219999999999992,-0.278436279296875,8.141195678710938,5.141650390625
0.3320000000000007,0.1774993896484375,7.526004028320313,4.63861083984375
0.3420000000000023,-0.0653472900390625,6.903485107421876,3.3594787597656253
0.3520000000000003,-0.4906280517578125,7.705447387695313,4.090261840820313
0.3620000000000019,-0.1973876953125,8.168261718750001,4.860971069335938
0.3719999999999999,-0.60233154296875,9.890768432617188,8.851342773437501
0.3829999999999991,-1.1476898193359375,11.3683349609375,5.435638427734375
0.3930000000000007,-0.6346313476562501,8.851641845703126,5.7936279296875
0.4030000000000022,0.0231781005859375,5.774487304687501,4.743435668945313
0.4130000000000002,0.5800506591796876,6.2135253906250005,1.9626617431640627
0.4230000000000018,0.7928405761718751,10.289431762695314,4.974020385742188
0.4329999999999998,0.1072174072265625,9.320736694335938,4.696929931640625
0.4430000000000014,-0.052935791015625,9.993350219726564,8.948989868164062
0.4529999999999994,0.4714874267578125,8.369387817382814,5.171408081054688
0.4630000000000009,0.5754150390625,6.547140502929688,3.8323120117187504
0.472999999999999,0.6165374755859375,7.097134399414063,4.281069946289063
0.4830000000000005,0.16329345703125,8.851492309570313,3.091510009765625
0.4930000000000021,-0.5064788818359376,10.365396118164064,5.162884521484376
0.5030000000000001,-0.4296173095703125,8.985177612304689,5.210736083984376
0.5130000000000017,0.085833740234375,8.378958129882813,6.7243408203125
0.5229999999999997,0.1810882568359375,7.280914306640626,4.151272583007813
0.5339999999999989,-0.5976959228515626,7.105209350585938,4.748968505859375
0.5440000000000005,-0.243743896484375,7.837936401367188,4.608554077148438
0.554000000000002,0.2412017822265625,9.072207641601564,5.723196411132813
0.5640000000000001,0.3264373779296875,9.039309692382814,5.380160522460938
0.5740000000000016,0.3530548095703125,8.784799194335939,5.256045532226563
0.5839999999999996,0.5643493652343751,8.309872436523438,5.390927124023438
0.5940000000000012,0.197088623046875,7.49295654296875,3.480303955078125
0.6039999999999992,-0.1580596923828125,7.992108154296876,4.979104614257813
0.6140000000000008,-0.021234130859375,8.343817138671875,5.228829956054688
0.6240000000000023,-0.17047119140625,9.095236206054688,5.675045776367188
0.6340000000000003,-0.5618072509765626,8.817248535156251,5.040414428710938
0.6440000000000019,-0.334063720703125,8.174093627929688,5.164230346679688
0.6539999999999999,-0.2453887939453125,5.962902832031251,4.261630249023438
0.6640000000000015,-0.7739990234375,4.454232788085938,3.180783081054688
0.6739999999999995,-0.3883453369140625,12.340469360351564,4.583581542968751
0.6850000000000023,0.545208740234375,14.455807495117188,4.833755493164063
0.6950000000000003,0.066693115234375,7.864852905273438,9.280960083007812
0.7050000000000018,-0.8317199707031251,3.8215454101562494,8.446099853515626
0.7149999999999999,0.4263275146484375,5.766262817382813,1.3857513427734376
0.7250000000000014,1.5263153076171876,9.790280151367188,0.322998046875
0.7349999999999994,1.487286376953125,10.802938842773438,3.828125
0.745000000000001,-0.7375122070312501,9.871328735351565,11.3037353515625
0.754999999999999,-0.2851654052734375,8.474810791015626,8.165270996093751
0.7650000000000006,0.8519073486328126,6.890625000000001,2.758343505859376
0.7750000000000021,1.4763702392578126,7.64488525390625,1.6972351074218752
0.7850000000000001,0.7624847412109376,7.773934936523438,3.392526245117188
0.7959999999999994,-1.1772979736328126,8.47271728515625,6.704751586914063
0.8049999999999997,-1.9121185302734376,10.123895263671876,8.085867309570313
0.8150000000000013,-0.209051513671875,9.582275390625,4.267013549804688
0.8260000000000005,0.370849609375,8.582925415039064,3.2136810302734378
0.8360000000000021,-0.5277130126953126,6.4156982421875,4.381109619140625
0.8460000000000001,-0.1625457763671875,6.617572021484375,5.018133544921875
0.8560000000000016,-0.179443359375,8.489764404296876,5.292233276367188
0.8659999999999997,0.4658050537109375,10.1361572265625,4.78515625
0.8780000000000001,0.4858428955078125,9.63909912109375,4.796520996093751
0.8859999999999992,-0.0569732666015625,7.900741577148438,6.576300048828125
0.8960000000000008,0.03349609375,6.57779541015625,5.96051025390625
0.9059999999999988,0.485992431640625,7.284802246093751,4.105514526367188
0.9160000000000004,0.465057373046875,8.868389892578126,3.7663665771484376
0.926000000000002,0.117236328125,9.798205566406253,4.3896331787109375
0.936,-0.5147033691406251,8.967083740234376,6.1190185546875
0.9460000000000016,-0.6854736328125001,7.949639892578125,6.0005859375
0.9570000000000008,0.0095703125,7.875320434570313,5.532986450195313
0.9670000000000024,0.2474822998046875,7.596136474609375,3.950146484375
0.9789999999999992,-0.0979461669921875,7.158444213867188,3.372189331054688
0.987000000000002,-0.30086669921875,6.943560791015625,4.527505493164063
0.997,0.289801025390625,7.261474609375001,4.203610229492188
1.0070000000000014,0.22669677734375,13.65967712402344,7.765261840820313
1.0169999999999997,0.2956329345703125,12.817190551757813,4.040765380859376
1.027000000000001,-0.4607208251953125,5.102621459960938,7.792477416992188
1.036999999999999,0.001495361328125,3.5631469726562504,7.820889282226563
1.0470000000000006,0.8773284912109376,6.054718017578125,-1.140362548828125
1.0570000000000022,2.02950439453125,12.870574951171877,3.279925537109375
1.0670000000000002,-0.1679290771484375,10.515530395507811,6.294424438476563
1.0779999999999994,-1.8514068603515623,10.119558715820313,10.085165405273438
1.0869999999999995,-1.3627227783203126,7.092050170898438,7.174444580078125
1.097999999999999,-0.24822998046875,4.948300170898438,-0.4056915283203125
1.1080000000000003,-0.2738006591796875,8.910110473632812,3.7648712158203126
1.118000000000002,-0.6398651123046876,8.71915283203125,3.312673950195313
1.128,-1.296478271484375,9.543096923828124,8.858071899414064
1.1380000000000017,-0.2367156982421875,9.22757568359375,6.900494384765626
1.1479999999999997,0.9039459228515626,9.295166015625,4.927365112304688
1.1580000000000013,1.0703796386718751,6.917990112304688,1.6964874267578127
1.1679999999999993,1.4120697021484376,6.891372680664063,4.231423950195313
1.1780000000000008,0.7134368896484375,7.49833984375,5.211334228515625
1.1879999999999988,1.0938568115234375,9.658837890625,5.609100341796875
1.1980000000000004,0.8359069824218751,9.877011108398438,5.01903076171875
1.208000000000002,0.2977264404296875,8.76221923828125,5.428311157226563
1.218,0.0186920166015625,7.234707641601563,6.589459228515626
1.2280000000000015,-0.679791259765625,6.352294921875001,4.338043212890625
1.2390000000000008,-1.0054809570312502,8.116372680664064,4.909271240234375
1.2490000000000023,-0.4868896484375,9.461599731445313,3.5797454833984377
1.2590000000000003,-0.8255889892578125,9.81839294433594,4.85992431640625
1.269000000000002,-1.2927398681640625,8.647973632812501,5.868994140625
1.279,-0.370550537109375,7.677932739257813,6.0689239501953125
1.2890000000000017,0.3689056396484375,7.330410766601563,4.873233032226563
1.2989999999999997,0.54371337890625,7.461853027343751,4.119122314453126
1.309000000000001,0.2761932373046875,6.0759521484375005,4.1738525390625005
1.318999999999999,0.174658203125,6.063540649414063,4.3537445068359375
1.3290000000000006,1.1829803466796875,15.911093139648438,6.202310180664063
1.3390000000000022,0.884954833984375,13.0527099609375,2.746978759765625
1.3490000000000002,-0.1664337158203125,4.84796142578125,10.284048461914065
1.3590000000000018,-0.19678955078125,2.1528717041015626,5.547192382812501
1.3689999999999998,0.469842529296875,7.606454467773438,1.376629638671875
1.379999999999999,0.8197570800781251,11.42156982421875,0.4388885498046875
1.3900000000000006,-1.19927978515625,10.567868041992188,7.25908203125
1.400000000000002,-2.2096954345703126,9.815701293945311,12.9043701171875
1.41,-0.3751861572265625,7.013095092773438,6.405679321289063
1.4200000000000017,0.352606201171875,6.342724609375001,0.1709197998046875
1.4299999999999995,0.9845458984375,9.264959716796875,1.0877258300781252
1.4400000000000013,1.404144287109375,8.240487670898439,2.972030639648437
1.4499999999999993,-0.5209838867187501,8.454025268554688,9.918731689453123
1.4600000000000009,0.209649658203125,9.564929199218753,8.358770751953125
1.4699999999999989,1.7263946533203127,9.522610473632811,4.46514892578125
1.4800000000000004,0.9271240234375,7.432095336914063,1.843331909179688
1.490000000000002,-0.4759735107421875,6.546243286132813,3.904986572265625
1.5,-0.6352294921875,7.614230346679688,5.860919189453125
1.5100000000000016,-0.0462066650390625,9.270492553710938,4.793978881835938
1.5199999999999996,-0.5040863037109375,10.249505615234376,4.930355834960938
1.5309999999999988,-0.6907073974609376,9.124993896484376,4.632778930664063
1.5410000000000004,-0.710296630859375,7.450936889648438,6.401193237304688
1.551000000000002,-0.6138458251953125,6.158645629882813,5.189053344726563
1.561,-0.115740966796875,7.5384155273437505,5.284457397460938
1.5710000000000015,0.386700439453125,8.998785400390625,4.004278564453125
1.5809999999999995,0.2274444580078125,10.074099731445314,4.5112060546875
1.591000000000001,-0.225799560546875,9.040206909179688,5.607156372070313
1.600999999999999,0.390887451171875,7.775280761718751,5.844021606445313
1.6110000000000009,0.9506011962890626,7.584173583984375,4.796221923828125
1.6210000000000022,0.92293701171875,7.903732299804688,4.245779418945313
1.6310000000000002,0.2316314697265625,8.269647216796876,4.088916015625
1.6410000000000018,-0.2095001220703125,8.025155639648439,5.514892578125
1.6509999999999998,-0.0411224365234375,5.368048095703125,5.326776123046876
1.661999999999999,-0.4870391845703125,8.680871582031251,4.368548583984375
1.6720000000000006,-0.4604217529296875,14.820675659179688,3.605764770507813
1.6820000000000022,-0.7931396484375001,10.008303833007814,5.5331359863281255
1.6920000000000002,-1.4291168212890626,4.092205810546876,10.48487548828125
1.7020000000000015,-0.005682373046875,4.67210693359375,4.655358886718751
1.7119999999999995,1.33565673828125,9.342868041992189,1.85364990234375
1.7220000000000013,1.65028076171875,11.220144653320313,0.6027801513671875
1.731999999999999,-0.066693115234375,9.960452270507814,8.302993774414062
1.7420000000000009,-0.8182617187500001,8.235104370117188,10.185055541992188
1.751999999999999,0.6841278076171875,6.700863647460938,5.2629241943359375
1.7620000000000005,1.3613769531250002,7.761074829101563,1.0883239746093751
1.772000000000002,0.5852844238281251,9.159088134765623,1.4416778564453123
1.782,-1.0546783447265626,8.127737426757813,6.667068481445313
1.7920000000000016,-1.6528228759765626,8.207141113281251,8.292974853515625
1.802,-0.1263580322265625,9.570462036132811,6.588861083984376
1.8120000000000007,0.5474517822265625,9.230267333984376,2.770306396484376
1.8230000000000004,-0.3240447998046875,7.616473388671875,2.739950561523438
1.833000000000002,-0.9005065917968751,6.733761596679688,5.299411010742188
1.843,0.376531982421875,7.936181640625,6.007315063476563
1.853000000000001,1.1013336181640625,9.321185302734376,5.110995483398438
1.8629999999999995,0.6047241210937501,9.738540649414062,4.065737915039063
1.873000000000001,0.0399261474609375,8.999981689453126,5.241690063476563
1.8829999999999991,0.093609619140625,6.836492919921875,5.8965087890625005
1.893000000000001,0.1828826904296875,6.489270019531251,5.842526245117188
1.9030000000000025,0.4987030029296875,8.408416748046875,4.757791137695313
1.9130000000000005,0.09390869140625,9.807177734375,3.1893066406250004
1.9230000000000016,-0.7669708251953126,9.3107177734375,4.979104614257813
1.933,-0.9000579833984376,8.234954833984375,6.283209228515625
1.9430000000000007,0.01734619140625,7.574603271484375,6.015689086914063
1.9540000000000008,0.058917236328125,7.671054077148438,4.047494506835938
1.963000000000001,-0.1834808349609375,7.09818115234375,3.396713256835938
1.974,-1.0418182373046876,4.935739135742188,4.390829467773438
1.984000000000001,-0.737213134765625,11.130123901367188,6.093597412109375
1.9960000000000024,0.7020721435546875,15.497775268554689,4.3939697265625
2.0040000000000013,-0.0539825439453125,9.154901123046876,6.939971923828126
2.014,-0.4954132080078125,2.3888397216796875,8.053567504882814
2.024000000000001,0.02093505859375,4.027905273437501,3.1875122070312503
2.033999999999999,1.3844055175781251,10.633514404296877,0.8365051269531251
2.0440000000000005,2.3774749755859377,11.716455078125,1.8745849609375
2.054000000000002,-0.06220703125,9.73465270996094,11.48841247558594
2.064,-1.1743072509765626,8.271591186523438,10.845257568359376
2.0740000000000016,0.6246124267578126,6.027203369140626,2.1930969238281253
2.084,1.2975250244140626,8.034426879882814,0.7556060791015625
2.096,1.113894653320313,8.944952392578125,1.6640380859375
2.1050000000000004,-1.0229766845703123,8.291329956054689,6.261676025390625
2.115000000000002,-2.112347412109376,9.1049560546875,10.173541259765626
2.125,0.3384002685546875,9.467880249023438,5.591156005859375
2.1350000000000016,1.0516876220703126,9.164920043945314,3.6953369140625
2.145,-0.3871490478515625,6.0150909423828125,1.9907745361328129
2.155000000000001,-1.0107147216796877,7.190145874023438,5.9253692626953125
2.164999999999999,-0.048748779296875,8.568869018554688,5.199221801757813
2.1750000000000007,0.5881256103515625,10.117315673828124,4.733865356445313
2.1850000000000023,0.300567626953125,9.88538513183594,4.534683227539063
2.196000000000001,0.0148040771484375,8.020669555664064,5.529248046875001
2.205000000000002,0.0106170654296875,6.636264038085938,5.720953369140625
2.215,0.2139862060546875,6.802249145507813,4.694387817382813
2.2250000000000014,0.657958984375,8.505615234375,5.305990600585938
2.2349999999999994,0.0593658447265625,9.372177124023438,3.91246337890625
2.246000000000002,-0.8260375976562501,9.629678344726564,6.1142333984375
2.256,-0.7753448486328126,8.34232177734375,5.33843994140625
2.266000000000002,0.1209747314453125,7.666867065429688,5.215521240234375
2.276,0.2699127197265625,7.700512695312501,4.003979492187501
2.2860000000000014,-0.08134765625,8.205197143554688,4.088467407226563
2.296,-0.4415802001953125,7.824777221679688,5.021871948242188
2.306000000000001,0.29847412109375,5.917742919921875,5.199969482421875
2.315999999999999,0.3422882080078125,8.216113281250001,5.103817749023438
2.3260000000000005,0.7168762207031251,14.544332885742188,4.137216186523438
2.336000000000002,0.7744476318359376,10.57938232421875,4.536776733398438
2.346,-0.9314605712890626,4.046298217773438,10.054660034179689
2.3560000000000016,0.5972473144531251,4.835549926757813,5.704354858398438
2.366,0.8417388916015626,8.460604858398439,-0.3084930419921875
2.376999999999999,1.263580322265625,11.573648071289064,3.0427612304687504
2.3870000000000005,-1.3447784423828126,10.32816162109375,7.792327880859376
2.397000000000002,-1.8706970214843752,8.1359619140625,10.586709594726564
2.407,-0.714483642578125,6.511251831054688,5.261279296875
2.4170000000000016,-0.1999298095703125,7.836590576171876,1.1342315673828125
2.427,0.5371337890625001,9.258230590820313,0.8975158691406251
2.437000000000001,-1.07247314453125,8.188299560546875,5.476312255859376
2.446999999999999,-1.1620452880859375,8.394061279296876,9.534872436523438
2.4570000000000007,0.5737701416015626,9.105554199218751,6.671853637695313
2.4670000000000023,0.9649566650390624,9.129779052734376,3.620718383789063
2.4770000000000003,0.796429443359375,7.573855590820313,2.4375885009765628
2.487000000000002,0.45997314453125,7.173098754882813,4.8502044677734375
2.497,0.7765411376953125,7.824627685546876,5.5021820068359375
2.507000000000001,0.91815185546875,9.492105102539064,5.513397216796875
2.5180000000000007,0.5778076171875001,9.602014160156251,4.031195068359375
2.5280000000000022,-0.1087127685546875,8.839080810546875,5.307785034179688
2.5380000000000003,-0.5716766357421875,7.16337890625,5.670111083984375
2.548000000000002,-0.364569091796875,6.569720458984375,5.632876586914063
2.558,-0.2609405517578125,8.043698120117188,4.901046752929688
2.5680000000000014,-0.442926025390625,9.528890991210938,4.019381713867188
2.5779999999999994,-0.8993103027343751,9.532180786132812,4.591058349609376
2.588000000000001,-0.7796813964843751,8.344564819335938,5.594744873046875
2.597999999999999,-0.03768310546875,7.79501953125,6.372183227539063
2.6080000000000005,0.6353790283203126,7.609744262695313,4.294528198242188
2.618000000000002,0.2284912109375,7.738494873046876,3.662139892578125
2.628,0.2214630126953125,5.929107666015625,4.3896331787109375
2.6380000000000017,0.25301513671875,6.692938232421875,5.210885620117188
2.648,1.0654449462890625,15.12513122558594,4.847512817382813
2.6580000000000013,0.4131683349609375,12.710272216796875,4.044204711914063
2.668,-0.390887451171875,5.489620971679688,10.15335388183594
2.678000000000001,-0.342437744140625,1.9889801025390623,5.9687347412109375
2.689,0.466552734375,7.937826538085938,1.7112915039062502
2.6990000000000016,0.7753448486328126,11.172442626953126,0.325390625
2.709,-0.9319091796875,10.689141845703126,5.582333374023438
2.719000000000001,-2.1127960205078127,9.38309326171875,12.448135375976564
2.728999999999999,-0.3061004638671875,6.963150024414063,7.0736572265625
2.7390000000000008,0.687567138671875,6.46055908203125,2.05821533203125
2.7490000000000023,1.12152099609375,8.875119018554688,0.9680969238281252
2.7590000000000003,0.85355224609375,8.794369506835938,2.95782470703125
2.769000000000002,-0.6742584228515626,8.542550659179689,8.617169189453126
2.779,0.411822509765625,9.03482360839844,8.03607177734375
2.789000000000001,1.3776763916015626,9.568667602539064,4.71397705078125
2.8000000000000007,0.6615478515625001,7.994650268554688,2.1811340332031253
2.809000000000001,-0.5754150390625,6.338986206054688,3.777880859375
2.8200000000000003,-0.456085205078125,7.7073913574218755,6.334201049804688
2.830000000000002,-0.030206298828125,9.14966735839844,5.068527221679688
2.84,-0.2429962158203125,9.950582885742188,4.3485107421875
2.8500000000000014,-0.6948944091796876,9.228024291992188,5.100079345703126
2.8599999999999994,-0.5713775634765625,7.517330932617188,5.424722290039063
2.870000000000001,-0.3892425537109375,6.539962768554688,5.287747192382813
2.879999999999999,0.112152099609375,7.501181030273438,5.457321166992188
2.890000000000001,0.42528076171875,8.992056274414063,4.5406646728515625
2.900000000000002,0.059515380859375,9.702203369140626,4.339089965820313
2.91,-0.258697509765625,8.983981323242189,5.770449829101563
2.9200000000000017,0.4281219482421875,7.94156494140625,5.64110107421875
2.93,0.914862060546875,7.579388427734376,4.813119506835938
2.9400000000000013,0.5316009521484375,8.046090698242189,3.927117919921875
2.9510000000000005,0.0826934814453125,8.223141479492188,4.224395751953125
2.961000000000002,0.0838897705078125,5.986828613281251,5.0546203613281255
2.971,0.21832275390625,5.296868896484376,3.986782836914063
2.9810000000000016,-0.5127593994140626,16.142724609375,6.515139770507813
2.991,0.1688262939453125,13.17936706542969,3.5232208251953128
3.001000000000001,-1.54500732421875,3.993511962890625,9.946395874023438
3.0109999999999992,-0.656463623046875,3.057565307617188,7.998837280273438
3.021000000000001,0.6745574951171875,7.111489868164063,-0.526068115234375
3.030999999999999,1.8114807128906247,12.023602294921876,-0.8517578125
3.0410000000000004,0.56165771484375,11.09378662109375,6.200216674804688
3.051000000000002,-1.8388458251953128,8.943606567382814,14.465676879882814
3.061,-0.6974365234375001,6.788192749023438,7.695877075195313
3.071000000000001,0.183331298828125,6.037521362304688,0.9532928466796876
3.0809999999999995,1.04017333984375,9.83648681640625,-0.923834228515625
3.091000000000001,0.680389404296875,8.3225830078125,2.373886108398437
3.1020000000000003,-1.574017333984375,8.093643188476562,10.475753784179688
3.112000000000002,-0.4786651611328125,9.797308349609375,8.702853393554689
3.122,0.9532928466796876,9.444253540039064,4.433895874023438
3.132000000000001,0.27335205078125,7.565032958984376,1.4545379638671876
3.1419999999999995,-0.46954345703125,6.819744873046876,4.189404296875001
3.152000000000001,0.303558349609375,7.048834228515625,5.6696624755859375
3.161999999999999,0.6925018310546875,9.307278442382811,5.58726806640625
3.1720000000000006,0.46954345703125,10.409808349609376,4.609750366210938
3.182000000000002,0.1257598876953125,9.520217895507812,4.0614013671875
3.192,-0.368157958984375,7.367495727539063,6.536224365234376
3.2020000000000017,-0.019439697265625,5.903088378906251,5.335598754882813
3.212,0.2729034423828125,7.414749145507813,5.059255981445313
3.222999999999999,0.019140625,9.301446533203126,3.708795166015625
3.232,-0.4837493896484375,9.914993286132812,4.816558837890625
3.242000000000001,-0.7271942138671875,8.918185424804689,5.876620483398438
3.253,-0.160601806640625,7.804739379882813,6.02152099609375
3.2630000000000017,0.4786651611328125,7.598977661132813,5.356533813476563
3.273,0.23985595703125,7.880105590820313,3.007769775390625
3.2830000000000013,-0.25181884765625,8.433090209960938,4.2839111328125
3.293,-0.152227783203125,7.639651489257813,5.529547119140625
3.303000000000001,0.2220611572265625,4.505075073242188,5.914303588867188
3.312999999999999,0.2839691162109375,9.071609497070312,4.156506347656251
3.3230000000000004,0.9700408935546876,17.912634277343752,2.85673828125
3.333000000000002,-0.01495361328125,10.0117431640625,4.2037597656250005
3.343,-1.2229064941406251,0.7478302001953125,14.035910034179688
3.353000000000001,-0.1380218505859375,3.937734985351563,4.489224243164063
3.3629999999999995,1.062005615234375,10.982232666015626,1.340740966796875
3.373000000000001,1.1805877685546875,11.818438720703126,-1.2060089111328125
3.3840000000000003,-0.456683349609375,10.5237548828125,2.6140411376953128
3.394000000000002,-3.039022827148438,7.315307617187501,19.53106384277344
3.404,0.1706207275390625,5.320645141601563,2.911917114257813
3.414000000000001,0.5834899902343751,8.145831298828126,0.3805694580078125
3.4239999999999995,1.65267333984375,10.596578979492188,0.226995849609375
3.434000000000001,0.723455810546875,7.650268554687501,4.506420898437501
3.443999999999999,-0.6877166748046876,7.470526123046875,12.734646606445311
3.4540000000000006,0.8385986328125,10.102810668945311,6.807034301757813
3.464000000000002,1.5249694824218751,9.73719482421875,1.7570495605468752
3.474,0.60113525390625,7.243231201171875,-0.497955322265625
3.4840000000000018,-1.925875854492188,6.616375732421876,7.535873413085938
3.494,-0.708502197265625,7.638305664062501,6.052923583984375
3.504999999999999,0.2583984375,9.298904418945312,5.591754150390625
3.515000000000001,-0.509320068359375,10.354629516601562,3.7591888427734377
3.525000000000002,-0.4816558837890625,8.955569458007814,4.395465087890625
3.535,-0.4939178466796875,6.785202026367188,6.484036254882813
3.5450000000000017,0.047552490234375,6.055914306640625,6.103317260742188
3.555,0.7870086669921875,8.298806762695314,4.7066497802734375
3.5650000000000013,0.5274139404296876,9.977499389648438,3.0127044677734376
3.575,-0.302960205078125,9.799102783203123,4.741192626953126
3.585000000000001,-0.0740203857421875,8.121157836914064,6.200814819335938
3.594999999999999,0.5854339599609375,7.27403564453125,6.533981323242188
3.605,0.7632324218750001,7.913751220703125,4.384100341796875
3.615000000000002,0.1200775146484375,8.380154418945313,3.359329223632813
3.625,-0.47672119140625,8.748461914062501,4.614834594726563
3.6350000000000016,-0.33017578125,7.995248413085938,6.080587768554688
3.645,0.137872314453125,6.9970947265625005,5.797216796875
3.655000000000001,-0.0776092529296875,6.149374389648438,2.316912841796875
3.664999999999999,-0.6009857177734376,11.132217407226562,5.0136474609375
3.676000000000002,-0.6044250488281251,13.583862304687502,4.640255737304688
3.686,-1.29677734375,7.052572631835938,7.528097534179688
3.696999999999999,-0.408233642578125,4.431204223632813,10.659982299804687
3.706,0.7255493164062501,5.97965087890625,1.6843750000000002
3.716000000000001,2.010662841796876,11.458953857421877,0.6051727294921876
3.725999999999999,1.7736480712890623,9.534872436523438,1.7434417724609377
3.7360000000000007,-0.5292083740234376,9.602911376953124,11.591592407226564
3.746000000000002,0.011962890625,7.94754638671875,8.488418579101562
3.756,0.5164978027343751,6.555065917968751,2.7555023193359376
3.766000000000002,0.5090209960937501,8.981439208984376,1.5388763427734375
3.776,-0.408233642578125,8.613131713867189,3.929360961914063
3.786000000000002,-1.4017517089843752,7.492807006835938,6.6157775878906255
3.7970000000000006,-1.3959197998046875,9.027197265625,7.5856689453125
3.807000000000002,0.3958221435546875,9.94833984375,5.4179931640625005
3.817,-0.00299072265625,8.400341796875,1.3960693359375
3.8270000000000017,-1.1186798095703123,7.11851806640625,5.086022949218751
3.837,0.350811767578125,7.0593017578125,5.539715576171876
3.847000000000001,1.3873962402343751,8.65216064453125,5.636465454101563
3.8569999999999993,1.1061187744140626,9.489712524414063,4.581637573242188
3.867000000000001,0.3656158447265625,9.558798217773438,3.7078979492187503
3.876999999999999,0.3635223388671875,8.137307739257814,6.011502075195313
3.887000000000001,0.2406036376953125,6.570916748046876,5.887088012695313
3.898,0.3153717041015625,7.327120971679688,5.575604248046876
3.907,-0.0354400634765625,8.8178466796875,4.075906372070313
3.9170000000000016,-0.6042755126953125,9.638800048828124,4.277780151367188
3.927,-1.1907562255859376,8.914147949218751,5.5096588134765625
3.937000000000001,-0.551788330078125,7.917041015625,5.6560546875
3.948,-0.1114044189453125,7.868890380859375,5.338888549804688
3.958000000000002,-0.23028564453125,8.219552612304689,3.975119018554688
3.968,-0.5330963134765625,8.169458007812501,4.273144531250001
3.9780000000000015,-0.1978363037109375,8.404379272460938,5.361169433593751
3.988,0.1927520751953125,7.020571899414063,6.510354614257813
3.998000000000001,0.092413330078125,4.80369873046875,4.488327026367188
4.007999999999999,0.2675201416015625,12.24222412109375,3.796871948242188
4.018000000000001,1.2996185302734375,15.305172729492188,1.6277008056640627
4.028000000000002,-0.6238647460937501,6.957916259765626,9.247613525390626
4.038,-0.5728729248046875,1.3343109130859376,9.534872436523438
4.048000000000002,0.7744476318359376,7.03836669921875,4.673901367187501
4.058,1.6250091552734376,11.556900024414062,0.6072662353515625
4.068000000000001,1.6274017333984376,10.348498535156253,-1.6070648193359376
4.077999999999999,-1.7166748046875002,9.045889282226565,10.89639892578125
4.089000000000002,-2.069281005859376,7.544696044921875,14.295504760742189
4.099,0.5079742431640626,6.570468139648438,0.256005859375
4.109000000000002,1.117034912109375,9.093591308593751,1.7021697998046876
4.119,0.6884643554687501,9.719100952148438,1.0524353027343751
4.129000000000001,-1.18253173828125,6.827072143554688,8.137008666992188
4.138999999999999,-0.018243408203125,8.666217041015626,9.421374511718753
4.149000000000001,1.1141937255859375,9.702203369140626,3.6301391601562494
4.158999999999999,1.3145721435546875,9.564779663085938,3.6636352539062496
4.1690000000000005,-0.2938385009765625,6.1764404296875,2.3966156005859376
4.179000000000002,-1.158905029296875,7.221548461914063,7.954425048828125
4.189,0.7502227783203126,8.697320556640626,4.802951049804688
4.199999999999999,0.429766845703125,9.93458251953125,3.964651489257813
4.209,-0.7002777099609375,9.655697631835938,4.045401000976563
4.219999999999999,-0.5479003906250001,7.864254760742188,5.192791748046876
4.228999999999999,-0.2286407470703125,6.513793945312501,6.546841430664063
4.240000000000002,0.26617431640625,7.219305419921875,4.912710571289063
4.25,0.150433349609375,9.188995361328123,5.047741699218751
4.260000000000002,-0.477020263671875,9.183312988281251,3.520529174804688
4.27,-0.832318115234375,8.900540161132813,6.852642822265626
4.280000000000001,0.09271240234375,7.766009521484375,4.914205932617188
4.289999999999999,0.623565673828125,8.081680297851562,5.218212890625001
4.300000000000001,0.343035888671875,8.292376708984376,3.865209960937501
4.310000000000002,-0.1556671142578125,8.435482788085938,3.814816284179688
4.32,-0.118731689453125,8.44879150390625,5.983538818359375
4.330000000000002,0.4350006103515625,8.082727050781251,6.206198120117188
4.34,0.5718261718750001,6.824530029296875,5.055816650390625
4.350999999999999,-0.0309539794921875,6.667218017578126,3.3138702392578128
4.359999999999999,-0.2313323974609375,12.21695251464844,4.8246337890625
4.371000000000002,-0.1254608154296875,10.8814453125,3.7665161132812495
4.381,-0.327484130859375,6.893167114257813,8.239739990234376
4.391000000000002,0.1786956787109375,5.538369750976563,6.790585327148438
4.401,0.5650970458984376,7.377514648437501,2.069430541992188
4.411000000000001,0.2714080810546875,10.300347900390626,2.7468292236328127
4.420999999999999,-0.8124298095703125,9.303390502929688,5.90667724609375
4.431000000000001,-0.151031494140625,8.963046264648439,10.2390380859375
4.440999999999999,-0.090020751953125,7.8129638671875,6.346313476562501
4.4510000000000005,-0.068487548828125,7.677035522460938,1.304852294921875
4.461000000000002,0.3946258544921875,9.264361572265626,2.3350067138671875
4.471,0.2289398193359375,8.149569702148439,4.564889526367188
4.481999999999999,-0.48509521484375,7.6335205078125,7.132275390625001
4.491,-0.2667724609375,9.209780883789064,7.856777954101563
4.501000000000001,0.2732025146484375,9.013140869140626,4.03568115234375
4.510999999999999,0.011962890625,8.187850952148438,3.6667755126953128
4.522000000000002,-0.0841888427734375,7.248016357421876,4.538272094726563
4.532,0.3838592529296875,7.87218017578125,5.475265502929688
4.542000000000002,0.2763427734375,9.127536010742189,4.700070190429688
4.552,-0.030804443359375,9.546536254882811,3.940875244140625
4.562000000000001,0.28232421875,9.07669372558594,5.065985107421875
4.571999999999999,0.2528656005859375,7.382748413085938,5.857778930664063
4.582000000000001,0.0471038818359375,6.970626831054688,5.6213623046875005
4.592000000000002,0.003289794921875,8.156597900390626,4.68048095703125
4.602,0.032598876953125,8.878558349609376,4.459466552734376
4.612000000000002,-0.2932403564453125,8.928204345703126,4.888934326171875
4.622,-0.3135772705078125,8.474810791015626,5.774038696289063
4.6320000000000014,-0.098992919921875,8.044146728515626,5.278326416015625
4.642,-0.0551788330078125,8.102017211914063,4.89342041015625
4.653000000000002,-0.055029296875,8.263516235351563,4.526907348632813
4.661999999999999,0.06220703125,8.424267578125,4.3118743896484375
4.673000000000002,-0.019140625,8.536868286132814,5.834600830078125
4.683,0.0814971923828125,8.079287719726564,5.526406860351563
4.693000000000001,-0.067889404296875,6.938925170898438,4.484588623046875
4.702999999999999,-0.7253997802734375,6.252554321289063,4.211685180664063
4.713000000000001,-0.0396270751953125,11.4185791015625,4.269107055664063
4.722999999999999,0.6148925781250001,12.874462890625,3.8593780517578127
4.7330000000000005,-0.6610992431640625,7.099676513671875,8.387631225585938
4.743000000000002,-0.3886444091796875,3.9920166015625,7.785897827148438
4.753,0.9063385009765624,7.115975952148438,3.40224609375
4.763000000000002,1.0274627685546875,10.3299560546875,0.4167572021484375
4.773,0.2549591064453125,10.544540405273438,2.8328125
4.783000000000001,-0.9633117675781252,8.386883544921876,12.316543579101564
4.792999999999999,-0.0562255859375,7.720550537109376,7.206893920898438
4.804000000000002,0.77998046875,8.027697753906251,3.059957885742188
4.815000000000001,1.222607421875,8.509503173828126,1.1879150390625002
4.824000000000002,0.4696929931640625,8.443258666992188,3.858331298828125
4.834,-0.9495544433593752,8.044595336914064,6.596786499023438
4.844000000000001,-0.086431884765625,8.919680786132814,8.457913208007813
4.853999999999999,0.8021118164062501,9.255987548828124,3.925772094726563
4.864000000000001,0.6226684570312501,8.761621093750001,3.836199951171875
4.874000000000002,-0.6986328125000001,6.939971923828126,4.031045532226563
4.884,-0.49825439453125,7.221997070312501,6.202011108398438
4.894000000000002,0.032000732421875,8.892913818359375,4.710836791992188
4.904,0.10706787109375,10.115521240234376,4.139907836914063
4.914999999999999,-0.268267822265625,9.113330078125,4.460214233398438
4.924,-0.3608306884765625,7.414450073242188,5.6871582031250005
4.935000000000002,-0.15491943359375,6.995449829101563,6.021670532226563
4.943999999999999,0.5030395507812501,7.76212158203125,4.277780151367188
4.955000000000002,0.251519775390625,8.764013671875,4.967141723632813
4.965,-0.121124267578125,9.103759765625,5.099481201171876
4.975000000000001,-0.4350006103515625,8.632870483398438,5.962005615234375
4.984999999999999,-0.103179931640625,8.108596801757812,4.859326171875001
4.995000000000001,0.3672607421875,8.222094726562501,4.977310180664063
5.004999999999999,0.3617279052734375,8.178280639648438,3.71806640625
5.016000000000002,-0.2525665283203125,8.282806396484375,4.4322509765625
5.025000000000002,-0.2588470458984375,8.438473510742188,6.265563964843751
5.035,0.1614990234375,8.33514404296875,5.8206939697265625
5.045000000000002,0.16807861328125,7.494003295898438,4.735659790039063
5.055,0.0145050048828125,5.543304443359375,2.9005523681640626
5.065000000000001,-0.173760986328125,10.428201293945314,5.0939483642578125
5.074999999999999,-0.0674407958984375,12.952969360351563,3.94775390625
5.085000000000001,-0.457879638671875,8.245571899414063,6.92412109375
5.096,-0.309539794921875,5.483489990234375,9.579583740234376
5.106000000000002,0.5084228515625,5.421881103515625,2.2019195556640625
5.116,1.3032073974609375,9.849795532226564,1.965353393554688
5.126000000000001,0.095703125,9.988265991210938,4.0033813476562505
5.135999999999999,-0.2954833984375,9.397448730468753,9.037515258789064
5.146000000000001,-0.5132080078125001,8.382098388671876,9.123797607421876
5.155999999999999,0.2184722900390625,7.447348022460938,2.7075012207031253
5.166,0.6416595458984375,8.678179931640626,1.8588836669921875
5.176000000000002,0.207257080078125,8.296563720703126,3.3856475830078128
5.186,-0.8933288574218751,7.715914916992188,6.054718017578125
5.1960000000000015,-0.6192291259765625,9.005813598632812,8.333499145507814
5.206,0.2296875,9.140396118164062,5.021871948242188
5.217000000000002,0.28531494140625,8.89739990234375,3.8836029052734378
5.227,-0.1736114501953125,7.339532470703125,3.886593627929688
5.237000000000002,0.0079254150390625,7.162481689453125,5.19010009765625
5.247,0.454888916015625,8.679974365234376,5.009759521484376
5.2570000000000014,0.605023193359375,9.60306091308594,4.548590087890625
5.267,0.3724945068359375,9.161929321289064,4.1260009765625005
5.277000000000001,0.032000732421875,8.139251708984375,6.035128784179688
5.286999999999999,0.136376953125,7.179827880859375,5.763421630859376
5.297000000000001,0.1449005126953125,7.350448608398438,4.760632324218751
5.307000000000002,-0.09869384765625,8.446548461914062,4.979403686523438
5.317,-0.1529754638671875,9.026150512695311,4.6587982177734375
5.327000000000002,-0.6096588134765626,9.024356079101564,4.952487182617188
5.337,-0.5962005615234376,8.322134399414063,5.600128173828125
5.347000000000001,-0.0901702880859375,8.022912597656251,5.43175048828125
5.3580000000000005,0.1242645263671875,8.011099243164063,4.2205078125
5.368000000000002,-0.1837799072265625,8.355630493164064,4.277182006835938
5.378,0.014654541015625,8.505914306640626,5.388833618164063
5.388000000000002,0.23626708984375,8.404229736328126,5.9706787109375
5.398,0.457281494140625,8.45716552734375,5.2098388671875
5.408000000000001,0.236865234375,7.808776855468751,4.213629150390625
5.417999999999999,0.0539825439453125,5.226138305664063,3.635372924804688
5.428000000000001,-0.3629241943359375,7.307830810546876,4.1906005859375
5.437999999999999,0.0825439453125,15.522897338867187,4.8382415771484375
5.448,-0.0913665771484375,11.170797729492188,6.273788452148438
5.458000000000002,-0.7331756591796875,4.068728637695313,9.793270874023438
5.468,-0.515899658203125,3.8610229492187504,5.198025512695313
5.4780000000000015,0.9706390380859377,8.349948120117189,1.0887725830078123
5.488,1.463360595703125,11.336334228515623,-1.1997283935546876
5.498000000000001,-0.121124267578125,10.820883178710938,7.844515991210938
5.507999999999999,-1.8143218994140624,8.205346679687501,14.332589721679687
5.519000000000002,0.3931304931640625,6.890774536132813,5.397955322265625
5.529,0.9162078857421876,7.695129394531251,1.3515075683593751
5.5390000000000015,1.30634765625,9.323876953125,-0.008074951171875
5.549,0.0683380126953125,7.543798828125,4.587619018554688
5.559000000000001,-1.0890716552734376,8.688497924804688,9.204098510742188
5.568999999999999,0.34991455078125,9.610687255859377,7.133920288085938
5.579000000000001,1.2581970214843752,9.414346313476564,4.085775756835938
5.589000000000002,0.2570526123046875,7.313363647460938,2.721856689453125
5.599,-0.9482086181640624,6.639404296875001,5.140902709960938
5.609000000000002,-0.1308441162109375,7.787243652343751,5.804095458984375
5.619,0.01734619140625,9.442608642578126,4.2097412109375005
5.629000000000001,-0.1818359375,10.448837280273438,4.4075775146484375
5.640000000000001,-0.360980224609375,8.695825195312501,4.801156616210938
5.650000000000002,-0.4852447509765625,6.919186401367188,6.100775146484375
5.66,-0.0503936767578125,6.5604492187500005,5.38389892578125
5.670000000000002,0.5505920410156251,8.227777099609376,4.733416748046875
5.68,0.1867706298828125,9.048580932617188,4.195535278320313
5.690000000000001,-0.387298583984375,9.373373413085938,5.7649169921875005
5.699999999999999,-0.3349609375,8.509951782226564,5.887835693359375
5.710000000000001,0.2450897216796875,8.099774169921876,5.042807006835938
5.719999999999999,0.6211730957031251,7.977005004882813,4.150225830078125
5.73,0.2711090087890625,8.074502563476564,3.699224853515626
5.740000000000002,-0.20875244140625,8.368789672851562,4.915252685546875
5.75,-0.143255615234375,8.478399658203125,6.663778686523438
5.760000000000002,0.2295379638671875,8.68924560546875,5.948098754882813
5.77,0.1912567138671875,7.612884521484376,4.0916076660156255
5.780000000000001,-0.0524871826171875,5.228680419921876,3.0469482421875003
5.789999999999999,-0.332568359375,8.284750366210938,4.355838012695313
5.801000000000002,-0.11005859375,14.54208984375,5.234661865234376
5.811,-0.1854248046875,9.900338745117187,5.280120849609375
5.8210000000000015,-0.5387786865234375,5.417694091796875,11.352334594726564
5.831,0.2241546630859375,3.9203887939453126,3.194839477539063
5.841000000000001,0.92532958984375,9.0977783203125,-0.5417694091796875
5.850999999999999,1.1544189453125,10.6577392578125,3.619073486328125
5.861000000000001,-0.5132080078125001,9.951480102539064,8.490960693359376
5.871000000000002,-0.780279541015625,8.962896728515625,11.694024658203126
5.881,-0.0043365478515625,6.995150756835938,3.707748413085938
5.891000000000002,0.363372802734375,8.104559326171875,1.203466796875
5.901,0.5879760742187501,8.45716552734375,1.58388671875
5.911000000000001,-0.6216217041015626,7.645632934570313,4.911215209960938
5.920999999999999,-1.2357666015625002,9.139199829101564,9.6169677734375
5.931000000000001,-0.0788055419921875,9.3131103515625,6.211880493164063
5.942,0.344232177734375,9.260324096679687,4.48070068359375
5.952000000000002,0.199481201171875,7.22618408203125,2.7276885986328128
5.962,-0.018243408203125,6.710134887695313,4.8965606689453125
5.972000000000001,0.2594451904296875,8.114727783203126,5.088565063476563
5.981999999999999,0.54132080078125,9.911404418945311,4.835101318359375
5.992000000000001,0.5396759033203126,9.749905395507811,4.000689697265625
6.001999999999999,0.1425079345703125,8.610888671875001,5.840582275390625
6.0120000000000005,0.1419097900390625,6.830960083007813,6.08671875
6.022000000000002,0.092413330078125,6.841427612304688,4.8557373046875005
6.032,0.0533843994140625,8.224038696289064,4.705752563476563
6.042000000000002,-0.07835693359375,9.074600219726562,4.366455078125
6.052,-0.448907470703125,9.40582275390625,5.451638793945313
6.062000000000001,-0.7659240722656251,8.523858642578126,5.405282592773438
6.071999999999999,-0.1783966064453125,8.126391601562501,5.849703979492188
6.083000000000002,0.1638916015625,7.651165771484376,3.770703125
6.093,-0.0701324462890625,8.130279541015625,4.220208740234376
6.1030000000000015,-0.0892730712890625,8.476007080078126,5.246774291992188
6.113,0.146246337890625,8.306283569335939,5.895611572265626
6.123000000000001,0.0823944091796875,7.397103881835938,4.888784790039063
6.132999999999999,0.18243408203125,6.072064208984376,3.8725372314453126
6.143000000000001,0.31043701171875,10.17742919921875,4.4681396484375
6.153000000000002,0.7117919921875,14.150604248046877,4.522720336914063
6.163,-0.6449493408203125,7.997491455078125,7.481292724609376
6.173000000000002,-0.5292083740234376,2.9741241455078127,8.490960693359376
6.183,0.0610107421875,6.110494995117188,2.2982208251953127
6.193000000000001,1.3579376220703123,10.957858276367189,0.8871978759765625
6.202999999999999,0.7795318603515625,10.878903198242188,1.4531921386718751
6.213000000000001,-2.1394134521484376,8.72633056640625,13.054953002929688
6.224,-0.9353485107421876,7.708438110351563,9.685604858398438
6.234000000000002,0.6072662353515625,6.904083251953126,2.2108917236328125
6.244,1.0992401123046875,9.0762451171875,0.5987426757812501
6.254000000000001,1.146942138671875,8.579486083984376,2.397811889648437
6.263999999999999,-0.9694427490234376,8.432342529296875,7.810571289062499
6.274000000000001,-0.178546142578125,8.543896484375,8.071511840820314
6.283999999999999,1.2915435791015626,9.379803466796876,4.8751770019531255
6.2940000000000005,1.1635406494140623,8.919232177734376,3.476116943359376
6.304000000000002,-0.268865966796875,6.479998779296875,3.5333892822265627
6.314,-0.7804290771484376,7.114031982421875,6.422576904296876
6.324000000000002,0.2319305419921875,9.094338989257814,5.383749389648438
6.334,0.179443359375,10.272235107421876,3.9534362792968754
6.344000000000001,-0.6473419189453126,9.30518493652344,3.4813507080078128
6.353999999999999,-0.8303741455078125,7.705746459960938,6.21531982421875
6.364000000000001,-0.293988037109375,6.429156494140625,5.7937774658203125
6.375,0.152227783203125,7.408767700195313,4.684518432617188
6.385000000000002,0.2241546630859375,9.168060302734377,4.472177124023438
6.395000000000003,0.114544677734375,9.437374877929688,4.5342346191406255
6.405000000000001,-0.5199371337890626,8.506213378906251,6.55626220703125
6.417000000000002,-0.0447113037109375,7.768551635742188,5.821441650390625
6.424999999999997,0.798223876953125,8.169458007812501,4.626947021484376
6.435000000000002,0.7134368896484375,8.316152954101563,3.136221313476563
6.445,-0.0994415283203125,8.522363281250001,4.27733154296875
6.454999999999998,-0.160302734375,8.380902099609376,6.045745849609375
6.465000000000003,0.13577880859375,8.405575561523438,6.568972778320313
6.475000000000001,0.3273345947265625,8.386883544921876,4.978506469726563
6.484999999999999,0.1543212890625,7.395458984375001,3.3886383056640628
6.494999999999997,-0.0955535888671875,5.5844268798828125,3.2044097900390627
6.506,-0.6072662353515625,9.727474975585938,5.633624267578125
6.517000000000003,-0.15970458984375,13.39170837402344,6.34990234375
6.526000000000003,-0.084637451171875,8.369985961914063,5.133425903320313
6.536000000000001,-0.2500244140625,5.755197143554688,8.319143676757813
6.545999999999999,0.3204559326171875,5.282513427734376,1.493716430664063
6.555999999999997,0.8507110595703126,9.067123413085938,2.630340576171875
6.5660000000000025,-0.2373138427734375,10.330255126953126,5.544650268554688
6.5760000000000005,-0.2857635498046875,10.003668212890624,9.097927856445311
6.585999999999999,-0.3219512939453125,8.571710205078126,9.204098510742188
6.596000000000004,0.0976470947265625,6.701910400390625,1.56055908203125
6.606000000000002,0.423486328125,8.617019653320312,2.254855346679688
6.616999999999997,0.6452484130859375,8.257833862304688,2.720361328125
6.625999999999998,-0.7285400390625001,8.14493408203125,6.913803100585938
6.6370000000000005,-0.8163177490234376,9.41300048828125,7.567874145507813
6.646000000000001,0.0761138916015625,9.379653930664062,6.588562011718751
6.657000000000004,0.275146484375,7.687802124023438,3.223101806640625
6.667000000000002,-0.0106170654296875,7.30753173828125,3.954931640625
6.677,0.0414215087890625,7.643389892578125,4.804446411132813
6.686999999999998,0.273052978515625,8.844314575195312,4.335501098632813
6.697000000000003,-0.016448974609375,9.78983154296875,5.169613647460938
6.707000000000001,0.474029541015625,9.133517456054689,4.69364013671875
6.716999999999999,0.3237457275390625,7.930499267578125,6.0448486328125
6.727000000000004,0.0856842041015625,6.706546020507813,5.035479736328125
6.737000000000002,0.0895721435546875,7.749560546875,5.26068115234375
6.747,0.242547607421875,8.415744018554689,3.8581817626953128
6.756999999999998,-0.13697509765625,9.052020263671876,5.419638061523438
6.767000000000003,-0.3808685302734375,9.075646972656251,5.694186401367188
6.777000000000001,-0.3409423828125,8.455520629882812,5.158099365234375
6.788000000000004,-0.20157470703125,7.997491455078125,4.79173583984375
6.798000000000002,0.1188812255859375,7.8512451171875,4.368399047851563
6.808,0.0234771728515625,8.114727783203126,4.59075927734375
6.817999999999998,-0.1239654541015625,8.485427856445312,5.277877807617188
6.828000000000003,-0.053533935546875,8.839828491210938,6.311920166015626
6.838000000000001,0.3141754150390625,8.25977783203125,4.479803466796875
6.847999999999999,0.03529052734375,6.865203857421876,4.3353515625000005
6.858000000000004,0.157611083984375,5.023367309570313,3.2743927001953126
6.868000000000002,0.2229583740234375,12.0262939453125,5.577398681640625
6.878,0.130096435546875,13.623489379882814,4.2351623535156255
6.887999999999998,-0.7771392822265626,7.196575927734376,8.601766967773438
6.898000000000003,-0.4338043212890625,3.922332763671875,7.934088134765625
6.908000000000001,0.4613189697265625,5.9283599853515625,1.3289276123046876
6.919000000000004,1.2463836669921875,10.390518188476562,0.7418487548828125
6.927999999999997,0.134283447265625,11.199658203125,3.9471557617187503
6.939,-1.4461639404296875,9.229220581054689,12.326263427734377
6.948999999999998,-0.5790039062500001,7.62694091796875,8.99429931640625
6.959000000000003,0.8342620849609376,7.097283935546876,1.69693603515625
6.969000000000001,1.2966278076171875,8.595486450195313,1.283319091796875
6.978999999999999,0.6694732666015626,8.316751098632814,1.301263427734375
6.988999999999997,-1.1446990966796875,8.383294677734376,8.800949096679688
6.999000000000002,0.095404052734375,9.123049926757814,7.8847412109375
7.009,0.9293670654296876,9.423468017578124,5.252157592773438
7.018999999999998,0.7928405761718751,8.515185546875001,3.1718109130859378
7.029000000000004,-0.403448486328125,6.58975830078125,3.625503540039063
7.0390000000000015,-0.3529052734375,7.156350708007813,6.071316528320313
7.049,0.051739501953125,9.074450683593753,4.687060546875
7.0589999999999975,0.0490478515625,10.369583129882812,4.3580810546875
7.069000000000003,-0.49705810546875,9.255239868164065,4.189703369140625
7.079999999999998,-0.545806884765625,7.578640747070313,6.489419555664063
7.090000000000003,-0.1520782470703125,6.407025146484376,5.290139770507813
7.100000000000001,0.2397064208984375,7.516732788085938,4.7690063476562505
7.109999999999999,0.1888641357421875,9.002822875976562,4.44122314453125
7.119999999999997,0.0022430419921875,9.374420166015623,4.987628173828125
7.130000000000003,-0.4964599609375,8.693731689453125,6.092999267578126
7.140000000000001,0.030206298828125,8.21192626953125,5.4682373046875
7.149999999999999,0.5836395263671875,8.013491821289064,4.568328857421875
7.160000000000004,0.48988037109375,7.919882202148438,3.366506958007813
7.170000000000002,-0.11962890625,8.381649780273438,4.941720581054688
7.18,0.012261962890625,8.506362915039062,5.7638702392578125
7.189999999999998,0.0797027587890625,8.537017822265625,6.190197753906251
7.200000000000003,0.173760986328125,8.327218627929689,4.8796630859375005
7.2109999999999985,0.1897613525390625,6.8104736328125,3.223699951171876
7.221000000000004,-0.09989013671875,5.546444702148438,3.248373413085938
7.231000000000002,-0.4227386474609375,12.292318725585938,6.478652954101563
7.241,-0.0121124267578125,11.802737426757814,4.766165161132813
7.250999999999998,-0.40733642578125,7.420880126953126,8.189944458007814
7.261000000000003,-0.1610504150390625,5.571417236328125,6.338238525390626
7.271000000000001,0.545806884765625,6.084027099609376,0.4056915283203125
7.280999999999999,0.959423828125,10.139297485351562,3.6874114990234377
7.291000000000004,-0.4029998779296875,9.48956298828125,5.6262969970703125
7.301000000000002,-0.4598236083984375,10.140344238281251,10.859014892578124
7.311,-0.1392181396484375,8.284451293945313,6.825277709960938
7.320999999999998,0.2068084716796875,6.830810546875001,1.1940460205078125
7.331000000000003,0.460870361328125,8.871380615234376,2.53314208984375
7.341000000000001,0.2920440673828125,7.684213256835938,3.5499877929687504
7.350999999999999,-0.981854248046875,8.49185791015625,7.397103881835938
7.362000000000002,-0.576611328125,9.500479125976565,7.002328491210938
7.372,0.29847412109375,9.325222778320311,6.020474243164063
7.381999999999998,0.327783203125,7.585369873046876,3.1740539550781253
7.392000000000003,-0.182135009765625,7.069918823242188,4.4250732421875005
7.402000000000001,0.22191162109375,7.862609863281251,4.701116943359375
7.411999999999999,0.3575408935546875,9.1480224609375,4.311575317382813
7.421999999999997,0.13697509765625,9.596331787109376,4.706799316406251
7.432000000000002,0.33436279296875,9.138751220703126,5.491116333007813
7.442,0.2582489013671875,7.508956909179688,6.01195068359375
7.451999999999998,-0.0342437744140625,6.731668090820313,4.798464965820313
7.462000000000003,0.107366943359375,7.994351196289063,5.135220336914063
7.472000000000001,0.2124908447265625,8.514736938476563,3.8670043945312496
7.481999999999999,-0.3401947021484375,9.177780151367188,5.631979370117188
7.491999999999997,-0.5522369384765625,8.862857055664064,5.634222412109375
7.503,-0.26138916015625,8.414996337890626,5.0303955078125
7.512999999999998,-0.0557769775390625,7.9586120605468755,4.776483154296876
7.523000000000003,0.1039276123046875,7.831655883789063,4.184469604492188
7.533000000000001,0.0300567626953125,8.230169677734375,4.97476806640625
7.542999999999999,-0.1164886474609375,8.503372192382812,5.266064453125001
7.552999999999997,0.1018341064453125,8.708236694335938,6.226684570312501
7.563000000000002,0.193798828125,8.055062866210939,4.149179077148438
7.573,0.0234771728515625,5.816806030273438,3.9383331298828126
7.582999999999998,-0.1188812255859375,6.390426635742188,3.5523803710937503
7.5930000000000035,0.1112548828125,14.440554809570314,6.158197021484376
7.6030000000000015,-0.198583984375,11.234948730468751,3.7844604492187504
7.612999999999999,-0.8436828613281251,5.666073608398438,10.787985229492188
7.622999999999997,-0.1649383544921875,4.1574035644531255,4.679284667968751
7.634999999999998,0.988134765625,7.846160888671876,1.2658233642578125
7.643999999999998,1.39068603515625,11.192630004882814,1.1959899902343751
7.6540000000000035,-0.3401947021484375,9.737942504882811,7.128387451171876
7.6640000000000015,-1.4790618896484375,8.995944213867189,12.14637145996094
7.673999999999999,0.236865234375,7.024459838867188,4.977908325195313
7.683999999999997,1.2565521240234376,8.125494384765625,2.511907958984376
7.694000000000003,1.06409912109375,8.64737548828125,1.7697601318359375
7.704000000000001,0.02213134765625,7.984182739257813,3.5613525390625003
7.713999999999999,-1.0189392089843752,8.802593994140626,9.205294799804689
7.724000000000004,0.6163879394531251,9.0164306640625,5.776431274414063
7.734999999999999,0.90738525390625,9.278118896484376,4.991665649414063
7.744,0.13099365234375,7.605108642578125,2.8921783447265628
7.753999999999998,-0.7852142333984375,7.0569091796875005,5.259634399414063
7.764000000000003,-0.0480010986328125,7.58028564453125,5.1682678222656255
7.774000000000001,0.00478515625,9.548779296875,5.028750610351563
7.783999999999999,0.0094207763671875,9.75992431640625,3.750665283203125
7.794000000000004,-0.681585693359375,8.550625610351563,4.86351318359375
7.805,-0.4517486572265625,7.296914672851563,6.166720581054688
7.814999999999998,-0.0599639892578125,6.850100708007813,4.988525390625
7.825000000000003,0.3276336669921875,8.07435302734375,5.19608154296875
7.835000000000001,-0.03529052734375,8.907269287109376,4.819699096679688
7.844999999999999,0.00657958984375,9.48597412109375,5.426217651367188
7.855000000000004,-0.342138671875,8.490512084960939,4.7844085693359375
7.865000000000002,0.26976318359375,8.156149291992188,5.605511474609376
7.875,0.6593048095703126,7.755392456054688,4.0546722412109375
7.884999999999998,0.387298583984375,8.241235351562501,4.273593139648438
7.895000000000003,-0.23985595703125,8.49365234375,4.895364379882813
7.905000000000001,0.000299072265625,8.600122070312501,6.290386962890626
7.914999999999999,0.2380615234375,8.5546630859375,6.048287963867188
7.926000000000002,0.1239654541015625,8.244375610351563,4.136618041992188
7.936,0.151031494140625,6.9926086425781255,3.8904815673828126
7.945999999999998,0.145947265625,4.102374267578125,2.2467803955078125
7.956000000000003,-0.4236358642578125,12.249850463867189,6.391921997070313
7.966000000000001,-0.0346923828125,14.202044677734376,5.413058471679688
7.975999999999999,-0.34154052734375,7.779617309570313,7.508807373046875
7.985999999999997,-0.3061004638671875,4.69005126953125,9.793869018554688
7.996000000000002,0.3337646484375,3.664382934570313,-0.6225189208984375
8.006,1.2715057373046876,11.167208862304689,0.732427978515625
8.015999999999998,0.7031188964843751,10.104455566406251,4.628292846679688
8.026000000000003,-1.1432037353515625,10.502969360351564,11.310015869140626
8.036000000000001,-0.5991912841796876,8.315853881835938,10.339227294921876
8.046,-0.0820953369140625,6.087466430664063,1.516595458984375
8.055999999999997,0.2280426025390625,8.616122436523439,1.5789520263671877
8.066000000000003,0.47791748046875,8.2268798828125,1.6306915283203127
8.076999999999998,-1.0174438476562502,8.254544067382813,7.1047607421875005
8.087000000000003,-1.25430908203125,9.616519165039064,8.00736083984375
8.097000000000001,0.1700225830078125,9.6385009765625,7.132424926757813
8.107,0.5205352783203125,7.94156494140625,2.603424072265625
8.116999999999997,0.1075164794921875,6.69383544921875,3.8369476318359377
8.127000000000002,0.1009368896484375,7.198519897460938,5.049984741210938
8.137,0.698333740234375,8.872576904296876,4.707247924804688
8.146999999999998,0.3698028564453125,10.154400634765626,4.8277740478515625
8.157000000000004,0.7243530273437501,9.797457885742189,4.703958129882813
8.167000000000002,0.2729034423828125,7.804141235351563,5.7399444580078125
8.177,0.087628173828125,6.337789916992188,5.368646240234376
8.186999999999998,-0.0707305908203125,7.362261962890625,5.040414428710938
8.197000000000003,0.29129638671875,8.600869750976564,3.920089721679688
8.207999999999998,-0.360980224609375,9.2353515625,5.022470092773438
8.218000000000004,-0.7475311279296876,9.141143798828123,6.169711303710938
8.228000000000002,-0.6003875732421875,8.406472778320314,5.384347534179688
8.238,-0.0584686279296875,7.920480346679688,5.166473388671875
8.247999999999998,0.079254150390625,7.795468139648438,3.50692138671875
8.258000000000003,0.06041259765625,8.188748168945313,4.670611572265625
8.268,-0.1855743408203125,8.43084716796875,4.942019653320313
8.277999999999999,0.1774993896484375,8.884240722656251,6.776080322265625
8.288000000000004,0.5209838867187501,8.524307250976562,4.983740234375
8.298000000000002,0.3602325439453125,7.624398803710938,4.11583251953125
8.308,-0.1469940185546875,5.091107177734376,3.716421508789063
8.317999999999998,-0.1661346435546875,8.330059814453126,4.665078735351563
8.328000000000003,0.249725341796875,14.789871215820314,4.90478515625
8.338999999999999,-0.4834503173828125,10.25458984375,6.238497924804688
8.349000000000004,-0.72913818359375,4.3133697509765625,9.750802612304687
8.359000000000002,-0.4535430908203125,4.019232177734375,2.775689697265625
8.369,0.744390869140625,9.224136352539062,1.2586456298828126
8.378999999999998,1.2269439697265625,11.06806640625,0.3177642822265625
8.389000000000003,-0.6092102050781251,9.81854248046875,10.283749389648438
8.399000000000001,-1.404443359375,8.434735107421876,11.863748168945314
8.408999999999999,0.5040863037109375,7.524359130859375,5.1398559570312505
8.419000000000004,1.18731689453125,7.602716064453125,0.2349212646484375
8.429000000000002,1.6238128662109377,8.630328369140626,1.5372314453125002
8.441000000000003,0.0635528564453125,8.153308105468751,4.8273254394531255
8.450000000000003,-0.98155517578125,9.198715209960938,9.123049926757814
8.462000000000003,0.69923095703125,9.302792358398438,6.279470825195313
8.469000000000001,1.351806640625,9.157891845703126,4.54051513671875
8.479,0.2954833984375,7.027899169921875,3.349459838867188
8.488999999999997,-0.804205322265625,6.299508666992188,4.7963714599609375
8.499000000000002,-0.24224853515625,8.485128784179688,5.718411254882813
8.509,0.0797027587890625,10.122399902343751,4.004428100585938
8.520000000000003,-0.389990234375,10.089352416992188,3.998745727539063
8.530000000000001,-0.868206787109375,8.357424926757814,5.5126495361328125
8.54,-0.424981689453125,6.823184204101563,6.154159545898438
8.551000000000002,-0.16090087890625,6.518130493164063,4.257891845703125
8.560000000000002,0.18841552734375,8.139251708984375,5.1133880615234375
8.57,0.1422088623046875,9.127835083007811,4.726388549804688
8.579999999999998,-0.15491943359375,9.430047607421876,5.868246459960938
8.590000000000003,-0.400457763671875,8.658291625976563,6.137112426757813
8.600000000000001,0.45279541015625,8.090054321289063,4.865158081054688
8.610999999999997,0.8015136718750001,7.7911315917968755,3.4240783691406254
8.621000000000002,0.35948486328125,8.052969360351563,3.9793060302734378
8.630000000000003,-0.0031402587890625,8.429949951171876,5.019479370117188
8.642000000000003,0.0246734619140625,8.552120971679688,6.513644409179688
8.649999999999999,0.1173858642578125,8.938522338867188,6.0823822021484375
8.661000000000001,0.1208251953125,8.574850463867188,4.787847900390625
8.671,-0.07596435546875,7.910162353515625,4.4071289062500005
8.680999999999997,-0.023626708984375,6.768005371093751,3.6601959228515626
8.691000000000003,-0.0584686279296875,4.706948852539063,3.11693115234375
8.701999999999998,0.0115142822265625,10.430145263671877,5.150173950195313
8.710999999999999,0.0059814453125,15.576730346679687,7.282260131835938
8.721000000000004,-0.5598632812500001,8.437426757812501,5.1732025146484375
8.731000000000002,-0.7548583984375,4.765118408203126,11.574395751953126
8.741,0.394775390625,3.0533782958984377,0.8658142089843751
8.753,1.3417877197265626,9.752447509765624,-1.4060882568359376
8.761000000000003,1.6625427246093751,11.492898559570314,1.048248291015625
8.771,-1.18372802734375,9.941162109375,12.755731201171876
8.780999999999999,-1.5034362792968752,9.11976013183594,13.205984497070313
8.791000000000004,0.323895263671875,5.67100830078125,3.405535888671875
8.802,0.5939575195312501,8.042352294921876,-1.33804931640625
8.811999999999998,0.695343017578125,8.33035888671875,0.5351898193359376
8.822000000000003,-0.8913848876953125,8.759078979492188,6.344070434570313
8.832,-1.5512878417968752,9.432589721679689,9.445599365234376
8.841999999999999,-0.1088623046875,9.498385620117189,7.620809936523438
8.852000000000004,0.445916748046875,8.580682373046876,3.760684204101562
8.862000000000002,-0.021533203125,6.419735717773438,2.8812622070312504
8.872,-0.30325927734375,6.482839965820313,4.843325805664063
8.881999999999998,0.2929412841796875,8.527297973632812,5.23795166015625
8.892000000000003,0.7206146240234376,10.953820800781251,5.098135375976563
8.902000000000001,0.4296173095703125,10.104455566406251,3.726440429687501
8.911999999999999,0.172265625,8.428903198242189,5.791833496093751
8.923000000000002,0.494366455078125,6.224740600585938,5.700765991210938
8.933,0.4442718505859375,6.394912719726563,4.744482421875
8.942999999999998,0.2720062255859375,8.675787353515625,4.4255218505859375
8.953000000000003,-0.0306549072265625,9.672146606445311,4.248171997070313
8.963000000000001,-0.6304443359375,9.366494750976564,5.649774169921876
8.972999999999999,-0.7494750976562501,8.082427978515625,6.5200744628906255
8.983000000000004,0.15133056640625,7.6236511230468755,5.496499633789063
8.993000000000002,0.0934600830078125,7.80638427734375,3.3762268066406254
9.003,-0.4107757568359375,8.344265747070313,4.2415924072265625
9.012999999999998,-0.2739501953125,8.462997436523438,4.6538635253906255
9.023000000000003,-0.045758056640625,8.875418090820313,6.68187255859375
9.033,0.3709991455078125,8.702853393554689,5.780020141601563
9.044000000000004,0.4098785400390625,8.481988525390626,4.48309326171875
9.054000000000002,0.2250518798828125,7.772888183593751,3.9280151367187504
9.064,0.01973876953125,6.119168090820313,4.211087036132813
9.073999999999998,-0.28172607421875,4.739846801757813,4.144842529296875
9.084000000000003,0.32479248046875,13.12867431640625,6.1596923828125005
9.094,0.19678955078125,15.1844970703125,4.6478820800781255
9.104,-1.1458953857421876,6.882101440429688,7.929452514648438
9.113999999999995,-1.2436920166015626,2.1516754150390627,7.6119873046875
9.124000000000002,-0.21712646484375,5.568127441406251,0.863720703125
9.134,1.553530883789063,11.00271911621094,0.2978759765625
9.143999999999998,1.7331237792968752,11.410354614257812,3.3062438964843754
9.154000000000003,-1.1328857421875,9.463244628906253,13.735491943359376
9.164,-1.1550170898437502,8.042501831054688,11.367437744140624
9.174,0.886151123046875,5.540911865234375,0.6162384033203125
9.183999999999996,1.6616455078125,9.453823852539063,-0.5863311767578125
9.194000000000004,1.4678466796875,7.996145629882813,0.9042449951171876
9.204,-0.26258544921875,8.788537597656251,8.838333129882812
9.215000000000003,-0.9980041503906252,9.558648681640626,9.20245361328125
9.225,0.702520751953125,9.209332275390626,5.564837646484375
9.235,1.3268341064453126,8.663525390625,3.6721588134765626
9.244999999999996,-0.224005126953125,5.64110107421875,2.4121673583984378
9.255000000000004,-1.63472900390625,7.305438232421875,6.401193237304688
9.265,-0.1640411376953125,9.334942626953126,4.377371215820313
9.275,0.488983154296875,10.749105834960938,4.678836059570313
9.285000000000004,-0.6151916503906251,9.511245727539062,3.78206787109375
9.295000000000002,-0.6081634521484376,7.608398437500001,6.579141235351563
9.305,-0.03409423828125,5.921630859375,5.156753540039063
9.314999999999998,0.2648284912109375,6.992010498046875,4.761380004882813
9.325000000000005,0.4846466064453125,8.912203979492189,4.965048217773438
9.337000000000003,-0.025421142578125,9.43214111328125,4.688107299804688
9.345,-0.7393066406250001,9.465786743164063,6.6800781250000005
9.356000000000002,-0.089422607421875,8.278170776367189,5.028451538085938
9.366,0.6926513671875001,7.892517089843751,4.448699951171875
9.375999999999998,0.5399749755859375,7.635314941406251,3.35439453125
9.386000000000005,-0.1320404052734375,8.212075805664064,4.481448364257813
9.396,-0.3369049072265625,8.466287231445314,5.6158294677734375
9.406,-0.06160888671875,8.86988525390625,6.863858032226563
9.416000000000004,0.33675537109375,8.828912353515626,5.855984497070313
9.426000000000002,0.0399261474609375,8.437875366210939,4.01055908203125
9.436999999999998,-0.1553680419921875,7.857077026367188,4.267462158203125
9.445999999999998,-0.3174652099609375,7.539312744140625,4.164132690429688
9.456000000000005,0.189013671875,6.910662841796875,4.580291748046875
9.466,0.3409423828125,5.0160400390625,2.662042236328125
9.476,0.0255706787109375,12.972259521484377,7.091900634765626
9.487000000000002,-0.1209747314453125,14.135650634765629,5.2445312500000005
9.497,-0.9072357177734376,7.005618286132813,6.750808715820313
9.508000000000004,-0.51260986328125,4.850054931640625,11.4042236328125
9.518,0.3575408935546875,2.7151275634765626,-0.6148925781250001
9.527,2.10247802734375,12.406863403320314,-1.0101165771484375
9.538000000000004,1.6528228759765626,10.476950073242188,2.1696197509765627
9.546999999999995,-1.4303131103515625,10.318890380859376,13.94813232421875
9.557000000000002,-1.152923583984375,7.86619873046875,11.5429931640625
9.567,0.4248321533203125,5.384945678710938,1.1281005859375002
9.576999999999998,0.5803497314453125,9.301446533203126,1.0983428955078125
9.587000000000003,0.356793212890625,7.959957885742188,0.8157196044921876
9.597,-1.688113403320313,8.617617797851564,7.16337890625
9.607,-1.2738983154296877,9.6839599609375,8.911007690429688
9.616999999999996,0.4161590576171875,9.406271362304688,6.913803100585938
9.628,0.1625457763671875,8.011099243164063,2.04326171875
9.637999999999998,-0.2349212646484375,6.744827270507813,4.268807983398438
9.648000000000003,0.227593994140625,6.585272216796875,5.686709594726563
9.658,0.681585693359375,8.833547973632813,5.044601440429688
9.668,0.8964691162109376,10.941857910156251,4.511355590820313
9.677999999999995,0.5090209960937501,9.935928344726562,3.532342529296875
9.688000000000002,0.16568603515625,7.67838134765625,6.108251953125
9.698,0.2528656005859375,5.897854614257813,5.730374145507813
9.707999999999998,0.4433746337890625,7.331158447265626,4.878765869140626
9.718000000000004,0.1160400390625,8.958261108398439,3.5390716552734376
9.728000000000002,-0.6343322753906251,9.57330322265625,5.172604370117188
9.738,-0.9214416503906252,8.905474853515626,6.139804077148438
9.747999999999998,-0.5169464111328126,7.914498901367188,5.9911651611328125
9.759,0.01614990234375,7.872628784179688,5.055218505859376
9.768999999999998,-0.0641510009765625,8.051623535156251,3.3053466796875
9.779000000000003,-0.3898406982421875,8.2484130859375,4.34910888671875
9.789,-0.2663238525390625,8.592794799804688,5.2759338378906255
9.799,0.4074859619140625,8.76580810546875,6.958813476562501
9.808999999999996,0.73212890625,8.458062744140626,4.768109130859376
9.819000000000004,0.39417724609375,8.716760253906251,4.58836669921875
9.829,0.4352996826171875,7.943209838867188,4.46514892578125
9.839,0.2432952880859375,7.1137329101562505,4.7570434570312505
9.849000000000004,0.08792724609375,6.360968017578125,4.811624145507813
9.859000000000002,-0.4693939208984375,6.266311645507813,4.005923461914063
9.869,0.02572021484375,14.260363769531253,5.181576538085938
9.878999999999998,-0.7579986572265626,14.072994995117188,4.079196166992188
9.89,-1.2445892333984376,5.014993286132813,10.369134521484376
9.899,-0.7795318603515625,1.3109832763671876,6.587664794921875
9.909,-0.0312530517578125,7.386636352539063,1.7726013183593752
9.920000000000002,1.669720458984375,11.816943359375,-0.7259979248046875
9.93,1.9349975585937504,11.465383911132813,-0.4804595947265625
9.939999999999998,-2.252462768554688,8.785098266601564,18.446478271484377
9.950000000000005,-0.5896209716796875,6.9659912109375,9.825421142578126
9.96,1.394873046875,6.0774475097656255,0.345428466796875
9.97,1.7015716552734377,9.609640502929688,0.5674896240234375
9.980000000000004,1.5686340332031252,8.355780029296875,-0.9845458984375
9.990000000000002,-1.0107147216796877,8.654254150390626,10.736245727539064
10.0,-0.9081329345703124,9.399093627929688,10.585662841796877
10.009999999999998,1.256402587890625,9.3920654296875,3.366207885742188
10.020000000000003,0.737213134765625,8.615075683593751,3.3956665039062504
10.03,-0.59036865234375,5.283111572265625,2.971731567382813
10.04,-1.2163269042968752,7.312167358398438,7.157846069335938
10.049999999999995,0.069085693359375,9.617715454101564,4.614086914062501
10.061,0.247332763671875,11.087057495117188,4.156506347656251
10.070999999999998,-0.757550048828125,9.4650390625,3.633428955078125
10.081000000000005,-0.484197998046875,7.2752319335937505,6.504223632812501
10.091,0.1117034912109375,5.8905273437500005,5.697476196289063
10.101,0.4825531005859375,6.8954101562500005,3.875677490234376
10.110999999999995,0.22550048828125,9.494348144531251,4.937982177734376
10.121000000000002,0.008074951171875,9.669903564453126,4.113739013671875
10.131,-0.5749664306640625,8.853286743164062,7.753598022460938
10.142000000000005,0.014654541015625,7.782308959960938,5.940472412109376
10.152,0.7086517333984376,7.960705566406251,4.458120727539063
10.161,0.329876708984375,8.027996826171876,2.330072021484375
10.171999999999995,-0.39417724609375,8.47391357421875,3.985137939453125
10.180999999999996,-0.1789947509765625,8.457015991210938,5.964846801757813
10.191000000000004,0.0811981201171875,8.59952392578125,7.180126953125001
10.201,0.157012939453125,8.779565429687501,5.613436889648438
10.212000000000003,-0.01854248046875,8.507858276367188,4.045401000976563
10.222,-0.1951446533203125,7.893414306640626,4.571319580078125
10.232,-0.1170867919921875,7.231866455078125,4.165777587890625
10.241999999999996,0.1553680419921875,6.841278076171876,4.851400756835938
10.252000000000002,0.1867706298828125,5.35638427734375,2.063299560546876
10.262,-0.139666748046875,13.82596130371094,7.028945922851563
10.271999999999998,-0.127105712890625,14.06163024902344,5.762973022460938
10.282000000000004,-0.542816162109375,5.634222412109375,7.298709106445313
10.292000000000002,-0.2313323974609375,4.749267578125,10.49564208984375
10.302,0.380718994140625,3.2388031005859377,-0.92652587890625
10.311999999999998,2.204611206054688,12.81943359375,-1.2641784667968752
10.322000000000005,1.5005950927734375,10.56622314453125,1.29019775390625
10.332,-2.007073974609375,9.61502380371094,16.246801757812502
10.342,-0.8867492675781251,8.21072998046875,12.041696166992187
10.352000000000004,0.468048095703125,4.567880249023438,-0.8088409423828126
10.363,0.36785888671875,10.510446166992187,0.5254699707031251
10.372999999999998,0.5223297119140625,7.45706787109375,0.774298095703125
10.383000000000004,-1.33505859375,8.508755493164063,8.609542846679688
10.393,-1.0409210205078123,9.801345825195312,8.461203002929688
10.403,0.372344970703125,9.567620849609376,6.734509277343751
10.413000000000004,0.40614013671875,7.877264404296875,2.4147094726562504
10.423000000000002,-0.5013946533203125,6.314761352539063,3.8356018066406254
10.433,0.1951446533203125,6.862063598632813,6.485382080078126
10.442999999999998,0.5504425048828125,9.087460327148438,3.953735351562501
10.454999999999998,0.6311920166015625,11.1601806640625,4.7675109863281255
10.464,0.3457275390625,9.799102783203123,3.5003417968750004
10.474000000000004,0.2842681884765625,7.598678588867188,6.6815734863281255
10.484000000000002,0.2112945556640625,5.570370483398438,5.350253295898438
10.494,0.46116943359375,7.475759887695313,5.325878906250001
10.503,0.1849761962890625,9.117965698242188,2.882308959960937
10.514000000000005,-0.332269287109375,9.615921020507812,5.060302734375
10.524,-0.989630126953125,9.047833251953126,6.600076293945313
10.534,-0.337054443359375,7.685260009765625,5.705401611328125
10.544000000000004,-0.0133087158203125,7.796963500976563,5.464498901367188
10.555,-0.0713287353515625,7.98582763671875,2.5267120361328126
10.564,-0.374139404296875,8.48468017578125,4.75584716796875
10.573999999999998,-0.2316314697265625,8.36505126953125,5.356533813476563
10.584000000000003,0.2313323974609375,8.833099365234375,7.411160278320313
10.594,0.6042755126953125,8.58277587890625,4.61827392578125
10.604,0.3061004638671875,8.718405151367188,4.02850341796875
10.613999999999995,0.2621368408203125,7.839730834960938,4.332061767578125
10.625,0.32000732421875,7.271343994140626,5.355786132812501
10.634,0.18004150390625,6.9958984375,4.581637573242188
10.645000000000003,-0.63702392578125,6.119915771484376,3.8608734130859377
10.656,-0.18482666015625,11.609237670898438,5.692391967773438
10.665,-0.484796142578125,14.605343627929688,4.044204711914063
10.674999999999995,-0.9479095458984376,7.975210571289063,8.778070068359376
10.685000000000002,-0.6540710449218751,1.997653198242188,7.708139038085938
10.695,-0.347821044921875,5.431900024414063,2.2138824462890625
10.704999999999998,1.1548675537109376,10.05884704589844,0.2941375732421875
10.715000000000003,2.118478393554688,12.643878173828126,-1.1233154296875
10.725,-0.9782653808593752,9.29755859375,14.707327270507813
10.735,-1.12152099609375,7.100424194335938,12.629522705078124
10.744999999999996,1.14066162109375,6.604562377929688,2.9261230468750004
10.756,1.2984222412109376,8.550326538085939,-0.5058807373046875
10.765999999999998,1.5159973144531251,8.613430786132813,-0.614593505859375
10.776000000000003,-0.4137664794921875,8.355331420898438,7.903134155273438
10.786,-1.3139739990234376,9.834841918945314,10.5165771484375
10.796,0.6403137207031251,9.260025024414062,4.951290893554688
10.805999999999996,1.1518768310546876,8.636459350585938,3.816461181640625
10.816000000000004,-0.118731689453125,6.277377319335938,3.3176086425781253
10.826,-0.8991607666015625,6.49644775390625,5.646633911132813
10.836,-0.1233673095703125,8.913400268554689,5.809927368164063
10.846000000000004,0.4581787109375,11.02066345214844,4.159197998046875
10.856000000000002,-0.0749176025390625,10.255337524414063,3.339590454101563
10.866,-0.749176025390625,7.473516845703125,5.788543701171875
10.875999999999998,-0.13876953125,6.187805175781251,6.384594726562501
10.886000000000005,0.317315673828125,6.692340087890625,3.719113159179688
10.896,0.16329345703125,8.997439575195314,4.987927246093751
10.907000000000004,-0.0629547119140625,9.5045166015625,3.813470458984375
10.917000000000002,-0.554180908203125,9.033328247070314,7.137210083007813
10.927,-0.4852447509765625,7.85423583984375,6.669760131835938
10.936999999999998,0.357989501953125,7.887432861328126,4.705752563476563
10.947000000000005,0.4390380859375,8.134466552734375,3.1069122314453126
10.957,-0.1619476318359375,8.39735107421875,3.1967834472656254
10.967,-0.2480804443359375,8.49903564453125,5.704354858398438
10.977000000000004,0.137274169921875,8.451034545898438,6.601571655273438
10.987000000000002,0.42528076171875,8.875418090820313,6.12200927734375
10.997,0.287408447265625,8.513540649414063,4.010409545898438
11.008000000000004,0.03349609375,7.998837280273438,4.946206665039063
11.017000000000005,-0.2103973388671875,7.512844848632813,4.196432495117188
11.027,0.1493865966796875,8.267404174804689,5.888284301757813
11.037,0.2205657958984375,8.931045532226562,4.259536743164063
11.046999999999995,0.0055328369140625,9.128433227539062,4.6777893066406255
11.058,-0.0985443115234375,7.102218627929688,4.783511352539063
11.067999999999998,-0.0031402587890625,6.8909240722656255,3.5912597656250003
11.078000000000005,-0.0,10.171746826171876,6.838137817382813
11.088,0.1018341064453125,8.027249145507813,5.010357666015626
11.098,-0.8590850830078126,7.477703857421876,6.592001342773438
11.108000000000004,-0.8735900878906251,10.720843505859376,4.41131591796875
11.118000000000002,0.2531646728515625,8.749209594726564,2.583087158203125
11.128,-0.1244140625,6.3271728515625005,6.773986816406251
11.137999999999998,0.24464111328125,7.408169555664063,6.713723754882813
11.148000000000003,0.7624847412109376,10.173690795898438,4.590460205078125
11.158,0.5206848144531251,9.356924438476565,4.5615997314453125
11.168,0.77100830078125,8.000033569335939,5.032339477539063
11.179000000000002,0.6956420898437501,8.310470581054688,5.268756103515625
11.188000000000002,0.286810302734375,7.628585815429688,5.159295654296876
11.198999999999998,-0.1064697265625,8.111886596679689,4.368847656250001
11.209000000000003,-0.3970184326171875,9.97645263671875,4.718014526367188
11.219,-0.73870849609375,8.758331298828125,5.656951904296875
11.229,-0.7239044189453125,7.40562744140625,5.696429443359375
11.238999999999995,-0.5625549316406251,7.93199462890625,5.420535278320313
11.249000000000002,-0.156414794921875,8.659936523437501,3.794479370117188
11.259,-0.3817657470703125,8.798855590820313,3.5063232421875004
11.268999999999998,-0.054132080078125,8.298806762695314,4.975964355468751
11.279000000000003,0.5725738525390626,8.720648193359375,6.375173950195313
11.289,1.12391357421875,8.271591186523438,4.960263061523438
11.299,0.6437530517578125,7.825076293945313,4.384548950195313
11.308999999999996,0.7230072021484375,8.399444580078125,4.914804077148438
11.319000000000004,0.629248046875,7.968032836914063,4.744631958007813
11.329999999999998,0.121124267578125,7.670904541015625,6.293826293945313
11.340000000000003,-0.327783203125,8.553018188476564,5.469882202148438
11.35,-0.2304351806640625,9.335989379882813,4.425372314453125
11.36,-0.5226287841796875,8.733059692382813,4.342230224609375
11.369999999999996,-1.0473510742187502,7.730120849609375,4.86650390625
11.380000000000004,-0.4167572021484375,7.851095581054688,5.594595336914063
11.39,-0.469244384765625,8.425164794921876,4.926168823242188
11.401000000000003,-0.5894714355468751,8.57081298828125,4.530047607421875
11.410000000000004,-0.1655364990234375,8.70120849609375,5.586520385742188
11.420000000000002,0.5803497314453125,8.480044555664064,5.509957885742188
11.43,0.55447998046875,7.478302001953126,4.565188598632813
11.439999999999998,0.4175048828125,6.291134643554688,4.63262939453125
11.450000000000005,0.514105224609375,5.36236572265625,2.752511596679688
11.46,0.887945556640625,13.772576904296876,4.33475341796875
11.47,0.6462951660156251,15.040643310546876,5.975314331054688
11.481000000000002,-0.5196380615234375,5.490518188476563,9.10914306640625
11.491,-1.1769989013671875,1.7032165527343752,8.390771484375001
11.500999999999998,0.158807373046875,6.808380126953126,1.4656036376953123
11.511000000000005,1.4644073486328126,10.936175537109376,-0.7986724853515625
11.521,1.090118408203125,12.0478271484375,-1.0920623779296876
11.531,-3.7138793945312494,8.98712158203125,18.0843017578125
11.541000000000004,-2.148236083984376,6.922177124023438,10.95621337890625
11.551000000000002,0.4065887451171875,6.282611083984375,0.5108154296875
11.561,1.029705810546875,9.383242797851564,0.89063720703125
11.570999999999998,1.5061279296875,8.476455688476562,-1.0826416015625
11.581000000000005,0.081048583984375,8.145382690429688,10.544390869140626
11.591,0.2483795166015625,9.611434936523438,9.437673950195313
11.601,1.7609375,9.729269409179688,4.95263671875
11.610999999999995,1.5002960205078126,8.215664672851563,2.32857666015625
11.622,0.1048248291015625,5.739794921875,2.989675903320313
11.631999999999998,-0.7569519042968751,7.225137329101563,8.130279541015625
11.642000000000005,0.3605316162109375,9.039907836914065,3.873883056640625
11.652,-0.4103271484375,11.2845947265625,4.694537353515625
11.662,-0.8732910156250001,9.789981079101564,3.654214477539063
11.671999999999995,-1.3038055419921877,7.132275390625001,5.865704345703126
11.682000000000002,-0.89063720703125,5.605960083007813,5.962454223632813
11.692,-0.1721160888671875,7.233062744140626,4.527804565429688
11.701999999999998,0.219818115234375,9.485824584960938,3.5800445556640628
11.712000000000003,-0.2409027099609375,9.581228637695313,5.093051147460938
11.723,-0.2974273681640625,8.864352416992189,7.714868164062499
11.732,0.45997314453125,7.685559082031251,5.36356201171875
11.741999999999996,1.149334716796875,8.109494018554688,4.911663818359376
11.753,0.8997589111328126,8.039810180664062,2.134628295898437
11.762999999999998,0.5869293212890625,8.3201904296875,4.250863647460938
11.774,0.060113525390625,8.434136962890626,5.672354125976563
11.783,0.3078948974609375,8.871829223632814,7.410562133789063
11.793,0.259295654296875,8.653506469726564,5.3055419921875
11.802999999999995,-0.3934295654296875,8.479595947265626,4.091009521484375
11.813000000000002,-0.7609893798828126,8.072259521484376,4.4733734130859375
11.823,-0.6709686279296876,7.262969970703126,4.800408935546876
11.832999999999998,-0.473431396484375,8.259628295898438,5.250811767578125
11.843000000000004,-0.0635528564453125,8.308676147460938,3.800460815429688
11.853000000000002,-0.1353302001953125,8.181570434570313,3.906930541992188
11.863,-0.2645294189453125,9.500927734375,5.3750762939453125
11.872999999999998,0.1846771240234375,8.252749633789064,6.435736083984375
11.883000000000004,0.34034423828125,6.8822509765625,6.538467407226563
11.893,0.101983642578125,9.654800415039062,5.430703735351563
11.903,0.408831787109375,9.620257568359376,2.196087646484376
11.914,-0.0500946044921875,7.599575805664063,5.151071166992188
11.924,0.364569091796875,7.194183349609376,6.961056518554688
11.933999999999996,1.085931396484375,8.75384521484375,5.544351196289063
11.944000000000004,0.45997314453125,9.438421630859375,4.5805908203125005
11.954,0.021832275390625,8.539260864257812,4.881607055664063
11.964,-0.347821044921875,8.31241455078125,4.787100219726563
11.974000000000004,-0.2863616943359375,7.7746826171875005,5.9433135986328125
11.984000000000002,-0.1457977294921875,7.853039550781251,4.759286499023438
11.994,-0.493768310546875,9.446945190429688,4.23187255859375
12.003999999999998,-1.0687347412109376,9.329708862304688,4.798464965820313
12.015,-0.4581787109375,7.700811767578125,5.471676635742188
12.024,0.0324493408203125,7.725335693359375,6.226385498046875
12.034,0.4903289794921875,8.342022705078126,4.574310302734375
12.045000000000002,-0.01854248046875,8.784350585937501,4.144992065429688
12.055,-0.01375732421875,8.615225219726563,4.077850341796875
12.064999999999998,0.4849456787109375,8.51458740234375,5.62076416015625
12.075000000000005,1.3664611816406251,8.456567382812501,5.4468536376953125
12.085,1.0069763183593752,8.035174560546876,4.405484008789063
12.095,0.398663330078125,8.393911743164063,4.511056518554688
12.105000000000004,0.07596435546875,8.47391357421875,4.343426513671876
12.115000000000002,-0.0776092529296875,7.54619140625,5.701214599609376
12.125,-0.485992431640625,7.717410278320313,6.594692993164063
12.134999999999998,-0.5555267333984375,8.840576171875,5.6049133300781255
12.145000000000003,-0.7569519042968751,9.021664428710938,4.031344604492188
12.157000000000004,-1.1496337890625,8.533279418945312,4.15770263671875
12.165,-0.2839691162109375,8.002725219726564,5.079742431640625
12.174999999999995,0.1123016357421875,8.029043579101563,5.033087158203125
12.185000000000002,-0.1182830810546875,8.345162963867189,4.867401123046875
12.195999999999998,-0.1667327880859375,8.634664916992188,5.195034790039063
12.206000000000005,0.6184814453125,8.571710205078126,5.6801300048828125
12.216,0.8441314697265626,8.199514770507813,5.360421752929688
12.226,0.8501129150390626,7.75614013671875,5.076901245117188
12.235999999999995,0.37144775390625,7.103414916992188,4.0412139892578125
12.246000000000002,0.027813720703125,7.497143554687501,3.208148193359375
12.256999999999998,-0.6253601074218751,9.977947998046876,4.132730102539063
12.265999999999998,0.026318359375,10.843911743164064,5.959912109375001
12.276000000000003,-0.536834716796875,8.389126586914063,6.384445190429688
12.286,-0.4517486572265625,6.859222412109376,8.58157958984375
12.296,0.5156005859375,6.2643676757812505,4.115982055664063
12.305999999999996,0.5689849853515625,8.501577758789063,2.5388244628906254
12.317,-0.5565734863281251,10.4926513671875,3.6543640136718754
12.326999999999998,-0.7104461669921875,9.486123657226564,5.155407714843751
12.337000000000003,-0.7615875244140625,8.103512573242188,8.783901977539063
12.347,0.427374267578125,7.359869384765625,4.6356201171875
12.357,0.9766204833984377,8.518475341796876,4.575656127929688
12.366999999999996,0.60950927734375,8.039810180664062,3.578399658203125
12.377000000000002,0.2989227294921875,8.510699462890626,5.1213134765625
12.387,0.5698822021484375,9.414495849609375,6.588562011718751
12.396999999999998,0.890936279296875,8.815454101562501,4.514944458007813
12.407000000000004,0.496160888671875,8.337387084960938,4.32518310546875
12.417000000000002,0.12022705078125,7.743429565429688,4.442868041992188
12.427,0.0740203857421875,7.726083374023438,5.579193115234375
12.436999999999998,-0.1664337158203125,8.243777465820314,4.70799560546875
12.447000000000005,-0.4487579345703125,9.447991943359376,5.379263305664063
12.457999999999998,-0.4861419677734375,9.100320434570314,3.758740234375
12.468000000000004,-1.1780456542968751,7.820291137695313,5.060003662109375
12.478000000000002,-0.90499267578125,7.214968872070313,5.423675537109375
12.488,-0.213836669921875,7.916741943359375,5.082284545898438
12.497999999999998,-0.076263427734375,8.33035888671875,5.155856323242188
12.508000000000004,-0.066693115234375,8.668161010742189,5.726785278320313
12.518,0.3533538818359375,8.8704833984375,5.678036499023438
12.528,0.4957122802734375,8.488418579101562,4.496401977539063
12.538000000000004,0.6622955322265626,8.272787475585938,4.5402160644531255
12.548000000000002,0.7654754638671876,7.970425415039063,3.8788177490234377
12.558,0.5453582763671876,8.373574829101564,5.054470825195313
12.567999999999998,0.23387451171875,8.435781860351563,5.378964233398438
12.578000000000005,0.1885650634765625,8.516232299804688,6.236703491210938
12.588,0.01375732421875,8.474063110351564,5.188604736328125
12.599000000000004,-0.2576507568359375,8.419631958007812,4.793679809570313
12.609000000000002,-0.5785552978515626,8.06298828125,4.626947021484376
12.618000000000002,-0.6802398681640626,7.703204345703125,4.464401245117188
12.628999999999998,-0.3348114013671875,7.128536987304688,3.494659423828125
12.639000000000005,-0.335260009765625,8.566775512695314,4.3343048095703125
12.649,-0.051739501953125,10.705740356445313,5.842825317382813
12.659,-0.289801025390625,7.985678100585938,6.089559936523438
12.669000000000004,-0.5770599365234376,7.688250732421875,7.944705200195313
12.679000000000002,0.1780975341796875,8.416790771484376,4.039868164062501
12.689,0.7476806640625,7.75853271484375,2.6618927001953128
12.698999999999998,0.414215087890625,8.145382690429688,5.4483489990234375
12.709000000000003,0.5912658691406251,9.342718505859375,5.6452880859375005
12.719,0.999798583984375,9.699362182617188,5.952883911132813
12.729,0.399859619140625,8.119961547851563,5.43773193359375
12.738999999999995,0.7974761962890625,7.683615112304688,4.362716674804688
12.749000000000002,0.167779541015625,8.08212890625,4.566983032226563
12.759999999999998,-0.4681976318359375,7.916143798828125,4.865606689453125
12.770000000000003,-0.8668609619140626,8.982485961914064,5.938229370117188
12.78,-0.7225585937500001,9.772784423828126,5.260083007812501
12.79,-0.886151123046875,8.478997802734376,4.2281341552734375
12.799999999999995,-0.5036376953125,7.561892700195313,5.295074462890625
12.810000000000002,-0.232977294921875,7.484732055664063,4.98912353515625
12.82,-0.1490875244140625,8.487969970703126,4.23905029296875
12.829999999999998,-0.11663818359375,9.265707397460938,4.900299072265625
12.840000000000003,0.7529144287109375,8.870782470703126,4.777828979492188
12.85,1.176849365234375,8.6934326171875,5.38389892578125
12.86,1.1593536376953126,7.791580200195313,4.734613037109376
12.869999999999996,1.0223785400390626,7.304241943359376,4.505224609375
12.881,0.6826324462890625,7.709783935546875,5.12430419921875
12.89,0.225799560546875,8.432641601562501,5.543304443359375
12.901000000000003,-0.292193603515625,8.925811767578125,5.467788696289063
12.911,-0.9214416503906252,8.914895629882814,5.863162231445313
12.921,-0.9257781982421877,8.519223022460938,5.08482666015625
12.930999999999996,-0.6929504394531251,8.065380859375,3.684420776367188
12.941000000000004,-0.9411804199218752,7.879507446289063,4.081289672851563
12.951,-0.564947509765625,8.183963012695314,4.911215209960938
12.961,-0.3599334716796875,8.614178466796876,6.145486450195313
12.971000000000004,-0.137872314453125,8.6671142578125,5.423825073242188
12.981000000000002,0.394476318359375,8.791079711914064,5.768505859375001
12.991,1.0125091552734375,8.058352661132814,4.673004150390625
13.000999999999998,0.9580780029296876,7.732513427734376,4.342977905273438
13.011000000000005,0.477618408203125,7.213323974609375,4.234564208984375
13.021,0.4427764892578125,6.81944580078125,3.3825073242187504
13.031,0.1529754638671875,9.884786987304688,4.007568359375
13.042000000000002,-0.0767120361328125,11.591592407226564,6.466091918945313
13.052,-0.2465850830078125,8.24183349609375,7.409963989257813
13.061999999999998,-0.7277923583984376,6.707742309570313,7.8718811035156255
13.072000000000005,0.172564697265625,6.573608398437501,4.164581298828125
13.082,0.3970184326171875,7.411160278320313,0.7479797363281251
13.092,-0.4771697998046875,11.215658569335938,4.208544921875
13.102000000000004,-0.9604705810546876,10.303488159179688,5.586520385742188
13.112000000000002,-1.209149169921875,8.554214477539062,10.09967041015625
13.122,0.0131591796875,6.379211425781251,5.275784301757813
13.131999999999998,1.0966979980468752,7.548135375976563,2.699575805664063
13.142000000000005,1.3123291015625,8.838183593750001,3.165231323242188
13.152,0.5625549316406251,8.197122192382814,4.596292114257813
13.162,0.290399169921875,9.900338745117187,7.655950927734375
13.171999999999995,0.9978546142578124,9.260772705078123,5.275784301757813
13.183,1.1831298828125,8.199365234375001,4.714874267578125
13.192999999999998,0.3455780029296875,7.014141845703126,3.184371948242188
13.203000000000005,-0.1780975341796875,7.816253662109376,5.300308227539063
13.213,-0.2226593017578125,8.34232177734375,4.70799560546875
13.223,-0.7748962402343751,9.400289916992188,5.5690246582031255
13.233000000000004,-0.72196044921875,9.346905517578126,4.530346679687501
13.243000000000002,-1.1016326904296876,8.224935913085938,4.77139892578125
13.253,-0.9930694580078124,6.90318603515625,5.193838500976563
13.262999999999998,-0.8139251708984375,7.008160400390626,5.452236938476563
13.275,-0.160003662109375,8.564083862304688,5.845068359375
13.283,0.24464111328125,9.01224365234375,4.631134033203125
13.293,0.3194091796875,9.56253662109375,5.495901489257813
13.302999999999995,0.6413604736328126,8.516082763671875,4.5470947265625
13.313000000000002,0.9206939697265626,7.725784301757813,4.823437500000001
13.323,1.047650146484375,7.627389526367188,4.214376831054688
13.334000000000003,0.8870483398437501,8.391070556640626,4.9562255859375
13.344,0.5085723876953125,8.629281616210939,5.137762451171875
13.354,-0.0916656494140625,8.834295654296875,5.987127685546875
13.363999999999995,-0.050244140625,8.522213745117188,6.058905029296875
13.375,-0.2524169921875,8.160784912109376,4.3787170410156255
13.384,-0.5713775634765625,8.118466186523438,4.123309326171875
13.393999999999998,-1.05692138671875,7.2498107910156255,4.223049926757813
13.404000000000003,-0.618780517578125,6.788940429687501,3.16597900390625
13.414,-0.4945159912109375,9.569265747070313,5.134173583984375
13.424,-0.03529052734375,11.193078613281251,7.100872802734376
13.433999999999996,-0.1777984619140625,6.180776977539063,6.017034912109375
13.444000000000004,-0.7478302001953125,8.353387451171876,7.066778564453125
13.454,0.1303955078125,9.730166625976564,2.170367431640625
13.464,0.8993103027343751,7.458413696289063,2.6454437255859378
13.475,0.433355712890625,7.264465332031251,7.95352783203125
13.485,1.033145141601563,9.194079589843753,5.867947387695313
13.494999999999996,1.293487548828125,9.965686035156253,5.907723999023438
13.505000000000004,0.7117919921875,8.011248779296876,4.014447021484376
13.515,0.5671905517578125,8.325125122070313,4.460662841796875
13.525,0.1374237060546875,7.917041015625,5.085125732421876
13.535000000000004,-0.8417388916015626,7.364505004882813,5.32767333984375
13.545000000000002,-0.91875,9.565377807617187,4.77080078125
13.555,-1.2731506347656252,10.267599487304688,5.289541625976563
13.564999999999998,-0.8864501953125,7.664923095703125,4.773193359375
13.576,-0.7554565429687501,7.069171142578125,6.0121002197265625
13.585,0.1063201904296875,8.030838012695312,5.158847045898438
13.595,0.152825927734375,8.898446655273439,3.2361114501953128
13.606000000000002,-0.017645263671875,9.060693359375,4.107757568359375
13.616,0.7621856689453126,8.867044067382814,5.41021728515625
13.625999999999998,1.7597412109375,8.523858642578126,5.759234619140625
13.636000000000005,1.1197265625,7.19029541015625,4.399951171875
13.646,0.8181121826171875,7.534976196289063,5.428311157226563
13.656,0.6270050048828125,8.030688476562501,4.6573028564453125
13.666000000000004,-0.080450439453125,8.593692016601564,5.7380004882812505
13.676000000000002,-0.7856628417968751,8.943606567382814,6.051876831054688
13.686,-0.9375915527343752,8.828762817382813,4.971627807617188
13.695999999999998,-0.8385986328125,8.596533203125,4.131832885742188
13.706000000000005,-1.014154052734375,8.019174194335939,3.63253173828125
13.716,-0.670819091796875,7.641744995117188,4.973123168945313
13.726,-0.4687957763671875,8.142092895507814,5.6876068115234375
13.735999999999995,-0.3289794921875,8.846109008789064,6.151168823242188
13.746000000000002,0.04844970703125,8.779714965820313,5.054171752929688
13.756999999999998,0.602032470703125,8.520269775390625,5.38150634765625
13.765999999999998,1.19449462890625,8.077792358398439,4.207498168945313
13.777,1.053631591796875,7.880105590820313,4.8333068847656255
13.787,0.655865478515625,7.376168823242188,4.015045166015625
13.796999999999995,0.085833740234375,6.868045043945313,4.052877807617188
13.807000000000002,-0.22550048828125,8.986822509765625,4.536029052734375
13.817,-0.67410888671875,11.20130310058594,5.1014251708984375
13.826999999999998,-0.5641998291015625,9.155947875976564,7.6072021484375005
13.837000000000003,-1.3216003417968751,7.264166259765625,7.199118041992188
13.847,-0.0662445068359375,7.4651428222656255,5.938977050781251
13.857,0.356494140625,6.499588012695313,0.7131378173828126
13.866999999999996,0.9893310546875,9.923367309570311,4.6834716796875
13.877000000000002,-0.3955230712890625,9.846954345703123,4.644442749023438
13.887,-0.6346313476562501,9.42361755371094,7.6813720703125
13.898000000000003,-0.102581787109375,7.5279479980468755,7.353439331054688
13.908,1.4703887939453126,7.257885742187501,3.5034820556640627
13.918,1.424929809570313,8.420230102539064,4.1369171142578125
13.927999999999995,0.4792633056640625,7.971023559570313,3.300711059570313
13.938000000000002,0.1326385498046875,9.544143676757812,6.619815063476563
13.948,0.7044647216796875,9.458309936523438,5.415899658203125
13.957999999999998,0.5220306396484375,8.526400756835939,4.890728759765626
13.968000000000004,0.1419097900390625,7.518527221679688,4.441073608398438
13.978000000000002,-0.6018829345703125,7.554116821289063,4.694537353515625
13.988,-0.497955322265625,8.278170776367189,4.2281341552734375
13.997999999999998,-0.5323486328125,9.079086303710938,5.123556518554688
14.008000000000004,-0.38221435546875,8.719451904296875,5.07645263671875
14.018,-0.8578887939453126,8.334695434570314,4.98912353515625
14.028,-0.90738525390625,7.86380615234375,5.729327392578125
14.038000000000004,-0.4251312255859375,7.2961669921875005,4.519131469726563
14.049,0.0408233642578125,8.232113647460938,6.082531738281251
14.058999999999996,0.2989227294921875,8.560943603515625,4.926766967773438
14.069000000000004,0.4230377197265625,9.141741943359376,4.8516998291015625
14.079,0.376531982421875,8.846258544921875,4.631732177734375
14.089,0.8067474365234376,8.308825683593751,4.529598999023438
14.099000000000004,0.8372528076171876,7.745822143554688,4.858428955078125
14.109000000000002,0.45997314453125,7.927059936523438,5.066134643554688
14.119,0.160302734375,8.552719116210938,5.746075439453126
14.128999999999998,-0.0904693603515625,8.707937622070313,5.0909576416015625
14.139000000000005,-0.1616485595703125,8.574850463867188,5.399899291992188
14.149,-0.2524169921875,8.439669799804689,4.644741821289063
14.159,0.015850830078125,7.357327270507813,4.533038330078125
14.169000000000004,-0.3967193603515625,6.353192138671876,1.965802001953125
14.179000000000002,-0.9197967529296877,10.990158081054688,5.729776000976563
14.189,-0.006280517578125,9.629977416992189,6.54788818359375
14.200000000000005,0.1233673095703125,4.180432128906251,7.146780395507813
14.21,-0.5316009521484375,9.77607421875,7.396206665039063
14.22,0.29010009765625,11.438616943359376,-0.219818115234375
14.230000000000004,0.180938720703125,8.072857666015626,1.2214111328125
14.240000000000002,-0.4140655517578125,5.516387939453125,11.060888671875
14.25,0.892431640625,8.898745727539064,6.757687377929688
14.259999999999998,0.7672698974609375,9.24970703125,3.4388824462890626
14.270000000000003,0.5993408203125,9.29202575683594,3.901846313476563
14.28,0.3757843017578125,9.140396118164062,4.952038574218751
14.29,-0.0165985107421875,7.120910644531251,6.170010375976563
14.299999999999995,-0.624761962890625,6.924868774414063,5.864508056640625
14.310000000000002,0.0650482177734375,10.01697692871094,3.172109985351563
14.32,-0.669921875,10.156344604492189,4.47830810546875
14.331000000000005,-1.2019714355468751,7.037170410156251,5.136117553710938
14.341,-0.7349700927734375,7.7283264160156255,8.0450439453125
14.351,0.5366851806640626,8.242880249023438,4.425820922851563
14.360999999999995,0.1375732421875,8.806781005859376,2.9051879882812504
14.371000000000002,-0.2729034423828125,8.949588012695314,3.456527709960938
14.381,0.5145538330078125,8.53492431640625,5.686859130859375
14.390999999999998,0.9784149169921876,7.960256958007813,5.896807861328125
14.401000000000003,0.7859619140625,7.79561767578125,5.049685668945313
14.411,0.97138671875,8.571112060546875,4.638760375976563
14.421,0.5655456542968751,8.189495849609376,4.299761962890625
14.430999999999996,-0.2014251708984375,7.706494140625001,6.56224365234375
14.441000000000004,-0.1963409423828125,8.015286254882813,5.756542968750001
14.451,-0.3361572265625,9.159387207031251,5.042507934570313
14.462000000000003,-0.439337158203125,9.07803955078125,3.5393707275390627
14.472,-1.1301940917968751,8.409762573242189,4.269107055664063
14.482,-0.5680877685546876,7.697671508789063,5.258587646484376
14.491999999999996,-0.35350341796875,7.936480712890625,5.790487670898438
14.502000000000002,-0.1637420654296875,8.409912109375,5.719158935546876
14.512,-0.1519287109375,8.623150634765626,4.262677001953126
14.521999999999998,0.331072998046875,8.942559814453126,5.5859222412109375
14.532000000000004,0.5301055908203125,8.045791625976562,4.83719482421875
14.542000000000002,0.8782257080078125,7.917489624023438,4.885345458984375
14.552,0.515301513671875,7.858422851562499,4.265667724609376
14.561999999999998,0.282025146484375,7.271493530273438,3.448751831054688
14.572000000000005,-0.2403045654296875,8.618066406250001,4.363613891601563
14.582,-0.530255126953125,10.054510498046875,6.144888305664063
14.592,-0.1556671142578125,8.197869873046876,7.591799926757813
14.602000000000004,-0.8127288818359376,8.192187500000001,6.4276611328125
14.612000000000002,-0.121722412109375,8.213571166992189,5.028302001953126
14.622999999999998,0.342437744140625,7.362261962890625,1.250421142578125
14.633000000000004,0.2549591064453125,9.735699462890626,5.9448089599609375
14.643,-0.2480804443359375,8.851791381835938,4.175796508789063
14.653,-0.4978057861328125,9.08880615234375,7.207791137695313
14.663000000000004,-0.0794036865234375,7.566827392578125,6.0209228515625
14.673000000000002,1.16279296875,7.916442871093751,3.885397338867188
14.683,0.8777770996093751,8.445950317382813,5.6500732421875
14.692999999999998,0.87568359375,8.144485473632812,4.200021362304688
14.703000000000005,0.4493560791015625,9.309072875976565,5.447152709960938
14.713,0.6566131591796875,9.113330078125,3.9193420410156254
14.723,0.6732116699218751,8.452529907226562,5.410366821289063
14.733000000000004,0.1727142333984375,7.366149902343751,4.9083740234375
14.744,-0.4780670166015625,8.031585693359375,5.631680297851563
14.753999999999998,-0.6219207763671876,8.687152099609376,4.084429931640625
14.764000000000005,-0.5833404541015625,8.90936279296875,4.792483520507813
14.774,-0.59156494140625,8.322134399414063,4.657452392578126
14.784,-0.80570068359375,8.094241333007814,5.280270385742188
14.794000000000004,-0.7731018066406251,7.79202880859375,5.1742492675781255
14.804000000000002,-0.4744781494140625,7.9529296875,4.680780029296876
14.814,-0.1864715576171875,8.595187377929689,6.317303466796876
14.823999999999998,0.34393310546875,8.233758544921876,5.104266357421875
14.834000000000003,0.323895263671875,8.539859008789064,5.480648803710938
14.844,0.6119018554687501,8.702853393554689,4.273443603515625
14.854,0.8211029052734375,8.483035278320314,4.074859619140625
14.863999999999995,0.6690246582031251,8.0522216796875,4.394866943359375
14.874000000000002,0.5573211669921876,8.284899902343751,5.891873168945313
14.884999999999998,0.337054443359375,8.331704711914064,5.640353393554688
14.895000000000003,-0.088226318359375,8.440267944335938,5.073013305664063
14.905,-0.278436279296875,8.524905395507814,5.41619873046875
14.915,-0.1033294677734375,8.091699218750001,4.443615722656251
14.924999999999995,-0.1236663818359375,6.731518554687501,3.481649780273438
14.935000000000002,-0.8931793212890625,8.368939208984376,3.229083251953125
14.945,-0.4379913330078125,11.59488220214844,6.757537841796876
14.954999999999998,-0.0213836669921875,5.003329467773438,5.51309814453125
14.965000000000003,-0.6480895996093751,6.642245483398438,7.989566040039063
14.977000000000004,-0.0399261474609375,12.220840454101562,3.43394775390625
14.985,0.44202880859375,10.56143798828125,-0.2612396240234375
14.994999999999996,-0.7923919677734376,5.898452758789063,9.553115844726562
15.005000000000004,0.057122802734375,6.610543823242188,8.275927734375001
15.015,1.5005950927734375,8.942111206054689,5.128640747070313
15.026000000000003,0.841290283203125,9.695623779296875,1.209597778320313
15.036,0.9078338623046877,9.946994018554689,4.857681274414063
15.046,-0.0043365478515625,8.085269165039064,6.457119750976563
15.055999999999996,-0.2513702392578125,6.399996948242188,6.42825927734375
15.066000000000004,-0.0240753173828125,8.227926635742188,3.868649291992188
15.076999999999998,0.0488983154296875,10.552914428710938,3.9295104980468754
15.086,-1.1967376708984376,8.139251708984375,4.348211669921875
15.096000000000004,-1.5837371826171875,7.37930908203125,7.205697631835938
15.106000000000002,-0.2017242431640625,8.399743652343751,6.357977294921875
15.116,0.7629333496093751,8.566027832031251,2.995956420898437
15.125999999999998,-0.50184326171875,8.809622192382813,3.1187255859375003
15.136000000000005,-0.079254150390625,8.480194091796875,4.5375244140625
15.146,0.6959411621093751,8.120410156250001,6.193188476562501
15.156,0.9332550048828124,7.6236511230468755,5.3990020751953125
15.166000000000004,1.0012939453125,8.325723266601564,5.350851440429688
15.177,0.901104736328125,8.483932495117188,4.350753784179688
15.186999999999998,-0.026019287109375,8.283255004882813,5.5495849609375005
15.197000000000005,-0.1543212890625,7.845114135742188,5.923724365234375
15.207,-0.0803009033203125,8.565579223632813,4.892373657226563
15.217,-0.1831817626953125,9.119610595703126,4.15531005859375
15.227000000000004,-0.816168212890625,8.58875732421875,3.833209228515625
15.237000000000002,-1.0165466308593751,8.015286254882813,5.036376953125
15.247,-0.572125244140625,7.806533813476563,5.969183349609375
15.256999999999998,-0.06639404296875,8.253048706054688,6.385192871093751
15.267000000000005,-0.2014251708984375,8.492755126953126,4.26776123046875
15.277,-0.09271240234375,8.876165771484375,4.798764038085938
15.287,0.2476318359375,8.404528808593751,4.748818969726563
15.296999999999995,0.7273437500000001,7.922125244140625,5.0920043945312505
15.307000000000002,0.8507110595703126,8.221047973632814,4.839437866210938
15.317,0.6332855224609375,8.334396362304688,4.622012329101563
15.328000000000005,0.011663818359375,6.769351196289063,4.0494384765625
15.338,-0.323297119140625,8.149868774414063,4.076803588867188
15.348,-0.3949249267578125,10.524502563476563,6.219656372070313
15.358000000000004,0.2220611572265625,8.484381103515625,6.39835205078125
15.368000000000002,-0.9775177001953126,8.248263549804689,6.447250366210938
15.378,-0.3923828125,8.340975952148439,4.596142578125001
15.387999999999998,0.3102874755859375,6.771743774414063,3.183624267578125
15.398000000000003,0.1818359375,8.575747680664064,4.934094238281251
15.408,0.0100189208984375,10.330255126953126,5.3701416015625005
15.418,-0.6228179931640625,9.548629760742188,6.516784667968751
15.429000000000002,-0.4366455078125,7.271792602539063,6.2482177734375
15.438000000000002,1.051089477539063,7.359570312500001,3.7485717773437504
15.448999999999998,1.3773773193359375,8.638253784179689,4.387539672851563
15.457999999999998,0.7633819580078125,8.002276611328126,3.806890869140626
15.469,-0.1284515380859375,9.408364868164064,6.382949829101563
15.479,0.374737548828125,9.4877685546875,5.64947509765625
15.488999999999995,0.8782257080078125,8.024856567382812,5.05252685546875
15.499000000000002,0.493768310546875,7.438226318359375,4.5137481689453125
15.509,-0.1631439208984375,8.012893676757812,4.335650634765625
15.518999999999998,-0.613995361328125,8.487521362304689,4.646536254882813
15.529000000000003,-0.9206939697265626,8.818444824218751,4.841531372070313
15.539,-0.318212890625,9.312811279296875,5.439376831054688
15.549,-0.362176513671875,8.563784790039064,4.76123046875
15.558999999999996,-0.8426361083984376,7.234707641601563,4.775885009765625
15.569000000000004,-0.8254394531250001,7.236203002929688,5.043255615234376
15.579,0.0758148193359375,8.275927734375001,5.4120117187500005
15.589,0.500347900390625,8.546289062500001,5.0670318603515625
15.6,0.26856689453125,8.884988403320314,6.23326416015625
15.609000000000002,0.246435546875,8.909811401367188,5.205801391601563
15.619999999999996,0.52158203125,8.438623046875001,3.8834533691406254
15.630000000000004,0.6304443359375,7.95352783203125,4.228283691406251
15.64,0.8119812011718751,7.846310424804688,4.509112548828125
15.65,0.2950347900390625,8.339929199218751,5.4662933349609375
15.660000000000004,-0.374737548828125,8.701058959960939,5.816506958007813
15.670000000000002,-0.3093902587890625,8.814108276367188,5.923425292968751
15.68,-0.0324493408203125,8.376116943359376,4.785903930664063
15.689999999999998,-0.1389190673828125,8.144784545898439,4.686611938476563
15.700000000000005,-0.533245849609375,7.462899780273438,4.318154907226563
15.71,-0.6732116699218751,6.891970825195313,3.5631469726562504
15.721000000000004,-0.3880462646484375,9.364700317382812,4.02371826171875
15.730000000000004,0.3587371826171875,9.879254150390626,5.083181762695313
15.740000000000002,0.1951446533203125,6.696228027343751,7.1959777832031255
15.750999999999998,-0.5873779296875,8.236898803710938,7.277923583984376
15.761000000000005,-0.1662841796875,10.643234252929688,4.184918212890626
15.771,0.003289794921875,8.500680541992189,3.2458312988281253
15.781,0.1140960693359375,6.618618774414063,5.516238403320313
15.791000000000004,0.8918334960937501,8.221047973632814,6.436483764648438
15.801000000000002,1.5547271728515626,9.411953735351563,3.957623291015625
15.811,0.4263275146484375,9.208883666992188,4.545300292968751
15.820999999999998,0.246435546875,8.725732421875001,5.619866943359376
15.831000000000005,0.3117828369140625,7.724887084960938,6.158795166015626
15.841,-0.074468994140625,7.012646484375001,5.670858764648438
15.851,-0.624761962890625,8.71915283203125,3.723748779296875
15.860999999999995,-1.08682861328125,10.254290771484376,4.2086944580078125
15.871000000000002,-1.031201171875,8.354882812500001,4.4220825195312505
15.881999999999998,-0.5476013183593751,7.711428833007813,6.581533813476563
15.890999999999998,0.2201171875,7.992706298828126,5.7848052978515625
15.902,0.12022705078125,8.425463867187501,3.839788818359376
15.912,-0.3856536865234375,8.605355834960939,3.4764160156250004
15.921999999999995,0.337054443359375,8.547784423828126,5.206997680664063
15.932000000000002,1.45050048828125,8.363406372070314,5.810824584960938
15.942,1.1750549316406251,7.969976806640625,4.832110595703125
15.951999999999998,0.5852844238281251,8.409463500976564,5.064340209960938
15.962000000000003,0.6388183593750001,8.264413452148439,4.289593505859376
15.972,-0.030804443359375,7.865002441406251,5.973370361328126
15.982,-0.2561553955078125,7.915994262695313,5.88394775390625
15.994,-0.6231170654296876,8.811865234375,5.181576538085938
16.002000000000002,-0.7615875244140625,9.1097412109375,3.981100463867188
16.012,-1.1701202392578125,8.502923583984376,4.386642456054688
16.022,-0.5220306396484375,7.9230224609375,4.861569213867188
16.032000000000004,-0.22789306640625,7.915545654296875,5.5739593505859375
16.043,-0.2657257080078125,8.3465087890625,5.64708251953125
16.052999999999997,-0.1628448486328125,8.519970703125,4.639956665039063
16.063000000000002,0.2510711669921875,8.797659301757813,5.426666259765625
16.073,0.9127685546875,8.309423828125,4.953683471679688
16.083,0.9184509277343752,7.673596191406251,4.9050842285156255
16.094,0.3126800537109375,6.725686645507813,3.5752593994140627
16.103,-0.0321502685546875,8.04803466796875,3.5481933593750004
16.113,-0.179742431640625,10.524951171875,5.414254760742188
16.122999999999998,0.0791046142578125,9.45367431640625,6.884793090820313
16.133000000000003,-0.7750457763671875,8.317947387695312,6.557159423828126
16.143,-0.4227386474609375,7.567276000976563,6.708340454101563
16.153,0.37802734375,6.0687744140625,1.91824951171875
16.163000000000004,0.48868408203125,9.158340454101562,3.6576538085937504
16.173000000000002,-0.026318359375,10.365994262695311,5.005871582031251
16.183999999999997,-0.7137359619140625,9.120806884765626,7.088012695312501
16.195,-0.9808074951171876,7.862310791015625,7.596136474609375
16.204,0.91396484375,7.758831787109376,3.8230407714843753
16.214,1.3585357666015625,8.259927368164064,3.773544311523438
16.224000000000004,0.8314208984375001,7.701409912109375,3.588717651367188
16.234,-0.0892730712890625,9.379653930664062,6.14713134765625
16.244,0.5508911132812501,9.452777099609376,5.530892944335938
16.253999999999998,0.9021514892578124,8.371780395507812,5.567828369140625
16.264000000000003,0.8335144042968751,7.878460693359376,4.242938232421875
16.274,-0.032000732421875,7.653857421875,4.843026733398438
16.284,-0.446514892578125,7.83150634765625,4.8126708984375
16.295,-0.8713470458984376,8.932391357421876,4.514346313476563
16.304000000000002,-0.1517791748046875,9.658987426757813,5.146585083007813
16.314,-0.4484588623046875,8.596383666992189,4.275836181640625
16.323999999999998,-1.0190887451171875,7.5402099609375,5.470181274414063
16.335,-0.899908447265625,7.108947753906251,5.34561767578125
16.345,-0.14654541015625,7.901638793945313,4.829718017578125
16.355000000000004,0.0322998046875,8.596383666992189,5.151669311523438
16.365000000000002,0.3150726318359375,9.015982055664065,6.289340209960938
16.375,0.0880767822265625,8.709133911132813,5.185015869140625
16.384999999999998,0.2678192138671875,8.439669799804689,4.5985351562500005
16.395000000000003,0.8065979003906251,8.197869873046876,4.134674072265625
16.405,1.023724365234375,7.888928222656251,3.487631225585938
16.415,0.3982147216796875,8.300900268554688,5.90966796875
16.424999999999997,-0.0124114990234375,8.543746948242188,5.6859619140625
16.435000000000002,-0.0647491455078125,8.611038208007812,6.05980224609375
16.445,-0.0061309814453125,8.542401123046876,5.036526489257813
16.455,-0.053533935546875,8.424267578125,4.5675811767578125
16.466,-0.5688354492187501,7.767355346679688,4.498794555664063
16.476,-0.7633819580078125,7.448843383789063,4.3622680664062505
16.485999999999997,-0.157611083984375,7.510302734375,3.2923370361328126
16.496000000000002,-0.1009368896484375,9.497787475585938,4.403988647460938
16.506,0.5565734863281251,9.86759033203125,6.807034301757813
16.516,-0.0841888427734375,6.390127563476563,6.335995483398438
16.526000000000003,-0.2032196044921875,8.70120849609375,8.009753417968751
16.536,0.5310028076171875,9.73599853515625,1.749871826171875
16.546999999999997,0.2860626220703125,8.093194580078126,2.9768157958984376
16.555999999999997,-0.222210693359375,7.643389892578125,7.264166259765625
16.566000000000003,0.4366455078125,8.312115478515626,5.619418334960938
16.576,0.0477020263671875,9.36993408203125,5.7338134765625
16.586,0.2319305419921875,8.93568115234375,5.09678955078125
16.597,0.180340576171875,8.290133666992189,4.010260009765625
16.607,-0.2495758056640625,7.775729370117188,5.628240966796875
16.616999999999997,-0.4424774169921875,7.450936889648438,4.933047485351563
16.627000000000002,-0.340643310546875,9.291128540039065,4.626348876953125
16.637,-0.7044647216796875,9.694876098632813,4.593450927734375
16.647,-0.5969482421875001,8.305087280273439,4.865457153320313
16.657000000000004,-0.13876953125,7.554116821289063,6.648226928710938
16.667,0.32239990234375,7.550677490234375,4.8700927734375
16.677,0.3856536865234375,8.790631103515626,3.989624023437501
16.686999999999998,0.22071533203125,8.992056274414063,3.720159912109376
16.697000000000003,0.6255096435546875,8.676983642578126,4.9638519287109375
16.707,0.7559051513671875,8.376864624023439,5.6931396484375005
16.717,0.8125793457031251,7.866348266601563,5.291635131835938
16.727000000000004,0.5022918701171876,8.025155639648439,4.5436553955078125
16.737000000000002,0.12142333984375,7.978350830078125,5.208193969726563
16.747999999999998,-0.195892333984375,7.96190185546875,5.8262268066406255
16.758000000000003,-0.29727783203125,8.353536987304688,5.205950927734375
16.768,-0.7427459716796876,9.077740478515626,5.448648071289063
16.778,-0.49586181640625,8.882595825195313,4.070523071289063
16.788000000000004,-0.7135864257812501,8.246469116210939,3.9957550048828128
16.798000000000002,-0.37742919921875,7.9107604980468755,5.042208862304688
16.808,-0.0557769775390625,8.031137084960939,5.78525390625
16.817999999999998,0.0841888427734375,8.228375244140626,5.3294677734375
16.828000000000003,-0.03170166015625,8.784201049804688,5.275335693359375
16.838,0.541021728515625,8.817996215820314,5.160342407226563
16.848,0.68726806640625,8.023660278320314,4.682125854492188
16.858000000000004,0.4726837158203125,7.656100463867188,4.760632324218751
16.868000000000002,0.2923431396484375,6.947149658203125,3.934893798828125
16.878,0.0596649169921875,8.247366333007813,3.480902099609376
16.887999999999998,-0.5393768310546876,10.355227661132814,5.084078979492188
16.899,-0.0369354248046875,9.4710205078125,6.964944458007813
16.909,-0.5550781250000001,7.801150512695313,6.642694091796876
16.919000000000004,-0.0800018310546875,7.258932495117188,6.904083251953126
16.929000000000002,0.3500640869140625,6.636413574218751,1.9375396728515624
16.939,0.2026214599609375,9.870730590820314,4.452288818359375
16.948999999999998,-0.3739898681640625,9.863702392578126,4.043905639648438
16.959000000000003,-0.5639007568359375,9.199313354492189,7.263867187500001
16.969,-0.377728271484375,7.658343505859375,7.243530273437501
16.979,0.8542999267578125,7.239193725585938,2.8615234375000003
16.988999999999997,0.8003173828125001,8.774630737304689,4.677490234375
16.999000000000002,0.7405029296875001,8.075100708007813,4.21512451171875
17.009,0.122918701171875,8.959158325195313,6.5484863281250005
17.019,0.465655517578125,9.211575317382811,5.355935668945313
17.029000000000003,0.8040557861328126,8.753546142578125,4.638311767578125
17.04,0.5401245117187501,7.80638427734375,3.8185546875
17.049999999999997,-0.15731201171875,7.52286376953125,5.0700225830078125
17.060000000000002,-0.2739501953125,8.235403442382813,5.208941650390625
17.07,-0.3524566650390625,8.988168334960939,4.890130615234376
17.08,-0.4510009765625,9.145779418945311,4.79771728515625
17.090000000000003,-0.6144439697265626,8.609243774414063,4.635769653320313
17.1,-0.64539794921875,7.383496093750001,5.365057373046875
17.11,-0.7662231445312501,7.080984497070313,4.825979614257813
17.119999999999997,-0.3072967529296875,8.540307617187501,5.451937866210938
17.130000000000003,0.1658355712890625,8.745471191406251,5.007965087890625
17.14,0.19678955078125,8.76221923828125,5.704205322265626
17.15,0.1616485595703125,8.500231933593751,5.663082885742188
17.160000000000004,0.6228179931640625,8.269647216796876,4.1906005859375
17.171,0.6676788330078125,8.135812377929689,4.147235107421875
17.180999999999997,0.5600128173828125,8.1120361328125,4.352099609375
17.191000000000003,0.433355712890625,8.500231933593751,5.7100372314453125
17.201,-0.0354400634765625,8.557205200195312,5.293280029296875
17.211,-0.0267669677734375,8.536569213867189,6.27872314453125
17.221000000000004,-0.01016845703125,8.379107666015626,4.616030883789063
17.231,-0.1063201904296875,8.238543701171876,4.428662109375001
17.241,-0.6477905273437501,7.364804077148438,4.4434661865234375
17.250999999999998,-0.5647979736328126,7.034927368164063,3.78206787109375
17.261000000000003,-0.432159423828125,9.423468017578124,4.334005737304688
17.271,-0.14176025390625,9.667660522460938,5.548239135742188
17.281,-0.4900299072265625,6.75723876953125,6.93369140625
17.291000000000004,-0.7532135009765626,9.03616943359375,6.413754272460938
17.301000000000002,-0.12620849609375,10.422967529296876,3.897210693359375
17.311999999999998,0.0841888427734375,7.136611938476563,3.415255737304688
17.322000000000003,0.5836395263671875,6.776528930664063,6.932046508789063
17.332,1.520632934570313,8.795416259765625,5.1039672851562505
17.342,1.6505798339843751,9.939816284179688,4.619918823242188
17.352000000000004,0.7894012451171876,9.065628051757812,5.061349487304688
17.362000000000002,0.57960205078125,8.309124755859376,5.260083007812501
17.372,0.28411865234375,7.41519775390625,5.554818725585938
17.381999999999998,-0.0524871826171875,7.323980712890625,5.0486389160156255
17.392000000000003,-0.6969879150390625,9.282455444335938,3.605914306640625
17.402,-1.4319580078125,10.040155029296876,5.293130493164063
17.412,-1.3690032958984375,7.917041015625,5.286550903320313
17.421999999999997,-0.73392333984375,7.678680419921876,6.127841186523438
17.432000000000002,-0.1804901123046875,8.100521850585938,4.9234771728515625
17.442,-0.393280029296875,8.409463500976564,3.51768798828125
17.453000000000003,-0.3204559326171875,8.609542846679688,4.183422851562501
17.463,0.47911376953125,8.633917236328125,5.307635498046875
17.473,1.7287872314453123,8.71436767578125,5.9174438476562505
17.483000000000004,1.561456298828125,7.9092651367187505,4.505224609375
