time,ax,ay,az
0.0,6.707293701171875,-0.0901702880859375,7.384991455078126
0.0100000000000619,6.559402465820313,-0.021234130859375,7.443609619140625
0.0200000000000386,6.811221313476563,-0.090020751953125,7.061395263671876
0.0310000000000201,6.8505493164062505,-0.007476806640625,6.804342651367188
0.0400000000000346,6.902737426757813,0.03529052734375,6.728378295898438
0.0500000000000255,7.085021972656251,0.1208251953125,6.760528564453126
0.0600000000000164,7.168612670898438,0.0154022216796875,6.403585815429688
0.0700000000000642,6.9958984375,-0.0665435791015625,6.62265625
0.0800000000000409,6.374725341796876,-0.5764617919921875,7.0377685546875
0.090000000000046,6.72972412109375,-0.48330078125,8.139849853515626
0.1000000000000369,5.7290283203125005,0.2600433349609375,8.405276489257814
0.110000000000042,6.155953979492188,0.3943267822265625,7.165322875976563
0.1200000000000187,7.657595825195313,0.213836669921875,6.2302734375
0.1299999999999954,8.116073608398438,-0.2462860107421875,5.249017333984376
0.1400000000000574,8.282058715820312,-0.155517578125,5.872134399414063
0.1500000000000341,6.33853759765625,0.109161376953125,7.031039428710938
0.1600000000000392,5.878115844726563,0.26617431640625,7.486077880859375
0.1700000000000443,5.951388549804688,0.195294189453125,8.315255737304689
0.1790000000000446,6.606805419921876,0.251220703125,7.162182617187501
0.1899999999999977,6.949542236328125,0.4714874267578125,6.921878051757813
0.1990000000000407,6.770996093750001,0.7213623046875001,6.900942993164063
0.2090000000000174,6.701611328125001,1.2924407958984376,7.169659423828126
0.2200000000000415,6.896307373046875,1.226495361328125,6.916195678710938
0.2300000000000466,7.532284545898438,0.4499542236328125,5.8307128906250005
0.2400000000000233,8.13297119140625,-0.919049072265625,5.3705902099609375
0.2490000000000378,7.866049194335938,-1.9907745361328129,5.463751220703125
0.259000000000043,7.452581787109375,-2.287005615234375,6.118569946289063
0.2690000000000196,6.898251342773438,-2.2198638916015625,6.634918212890626
0.2789999999999963,7.308578491210938,-1.8449768066406247,6.362612915039063
0.2890000000000583,7.3709350585937505,-1.3136749267578125,6.215618896484376
0.299000000000035,7.450936889648438,-0.1063201904296875,6.377267456054688
0.3090000000000401,6.586917114257813,1.1548675537109376,7.243679809570313
0.3190000000000452,6.243881225585938,1.7530120849609376,7.691091918945313
0.3310000000000457,6.217114257812501,1.7823211669921877,8.167962646484376
0.3389999999999986,5.559304809570313,1.3588348388671876,8.3082275390625
0.3490000000000606,6.034979248046875,1.0983428955078125,7.921078491210938
0.3590000000000373,6.507513427734375,0.7062591552734375,7.444357299804688
0.3690000000000424,6.880456542968751,0.3276336669921875,6.625347900390626
0.3790000000000475,7.548434448242188,-0.068487548828125,6.0953918457031255
0.3890000000000242,7.372579956054688,-0.5399749755859375,5.746075439453126
0.3990000000000009,7.726531982421876,-0.7654754638671876,6.468783569335938
0.4090000000000628,6.7398925781250005,-1.2078033447265626,6.7841552734375
0.4190000000000395,6.525158691406251,-0.9464141845703126,7.562939453125001
0.43100000000004,6.11124267578125,-0.385504150390625,7.790832519531251
0.4390000000000356,6.702957153320313,0.1496856689453125,7.218408203125
0.4490000000000407,7.063638305664063,0.6540710449218751,7.114480590820313
0.4590000000000174,7.431646728515625,0.9869384765625,5.910415649414063
0.4690000000000651,7.000384521484375,0.983349609375,6.81705322265625
0.479000000000056,6.571963500976563,0.8300750732421875,6.445156860351563
0.4890000000000469,7.235604858398438,0.3016143798828125,7.161734008789063
0.4990000000000378,6.933990478515626,-0.420794677734375,6.816754150390626
0.509000000000043,7.1227050781250005,-0.5972473144531251,6.230722045898438
0.5190000000000197,6.684265136718751,-0.6567626953125001,7.316055297851563
0.5310000000000201,6.848455810546875,-0.39537353515625,6.8714843750000005
0.5390000000000583,6.931597900390625,-0.127105712890625,7.176687622070313
0.549000000000035,7.058255004882813,-0.18363037109375,6.110943603515626
0.5590000000000401,7.835244750976563,-0.34154052734375,5.4867797851562505
0.5690000000000452,7.780514526367188,-0.3766815185546875,5.9687347412109375
0.5790000000000219,7.794570922851563,-0.0686370849609375,5.1930908203125
0.5889999999999986,7.733859252929688,0.161199951171875,6.126794433593751
0.5990000000000606,7.071862792968751,0.137872314453125,6.386090087890626
0.6090000000000373,6.264965820312501,0.12501220703125,7.779617309570313
0.6190000000000424,5.469134521484375,-0.2160797119140625,8.392565917968751
0.6310000000000429,5.535977172851563,-0.2811279296875,8.718106079101563
0.6390000000000242,6.184066772460938,0.2403045654296875,8.419482421875001
0.6490000000000009,6.570916748046876,0.878973388671875,7.094741821289063
0.6590000000000629,7.417440795898438,1.091912841796875,6.248367309570313
0.6690000000000396,7.727130126953125,0.8698516845703126,5.609249877929688
0.6779999999999973,7.500283813476563,0.372344970703125,5.696130371093751
0.6890000000000356,7.4205810546875,-0.23028564453125,6.370986938476563
0.6980000000000359,6.6471801757812505,-0.7645782470703125,7.347308349609375
0.708000000000041,5.998941040039063,-1.0160980224609375,7.817599487304688
0.7180000000000462,6.017034912109375,-0.7654754638671876,8.375070190429689
0.7280000000000229,5.8381896972656255,-0.284716796875,7.7411865234375
0.739000000000047,6.816455078125,0.1818359375,7.006216430664063
0.7490000000000379,7.790383911132813,0.24942626953125,6.130233764648438
0.7580000000000382,7.65146484375,0.0530853271484375,5.4972473144531255
0.7680000000000433,7.627090454101563,0.0835906982421875,5.706448364257813
0.7780000000000342,7.315158081054688,0.160003662109375,6.862811279296875
0.7880000000000251,5.64110107421875,0.297576904296875,8.031884765625001
0.798000000000016,5.9492950439453125,0.2074066162109375,8.592645263671876
0.8080000000000638,6.009408569335938,0.246734619140625,8.627935791015625
0.8180000000000405,6.2876953125,0.2337249755859375,7.111938476562501
0.8280000000000456,6.856082153320313,0.1532745361328125,7.085769653320313
0.8380000000000365,7.346261596679688,-0.1451995849609375,6.454727172851563
0.8480000000000416,7.641445922851563,-0.1912567138671875,6.8954101562500005
0.8580000000000183,6.787295532226563,-0.3019134521484375,6.0729614257812505
0.8680000000000803,7.227679443359375,-0.34871826171875,5.843572998046875
0.878000000000057,6.676638793945313,-0.3360076904296875,7.001281738281251
0.8880000000000337,6.844268798828126,0.0865814208984375,6.612637329101563
0.8980000000000388,7.047488403320313,0.5314514160156251,7.597781372070313
0.908000000000044,6.703555297851563,0.7110443115234375,6.496298217773438
0.9180000000000206,7.219006347656251,0.610107421875,6.0479888916015625
0.9279999999999972,7.4660400390625,0.0689361572265625,6.549682617187501
0.9380000000000592,7.524807739257813,-0.6293975830078126,5.854190063476563
0.948000000000036,7.2737365722656255,-1.3552459716796876,6.555215454101563
0.958000000000041,6.893765258789063,-1.9012023925781247,6.359024047851563
0.9680000000000462,7.313662719726563,-1.8727905273437504,6.629385375976563
0.9780000000000229,7.332653808593751,-1.3863494873046875,6.44560546875
0.9879999999999995,7.38887939453125,-0.7547088623046876,5.91983642578125
0.9980000000000616,7.443609619140625,0.2968292236328125,6.260629272460938
1.0080000000000382,6.99051513671875,1.4211914062500002,6.198721313476563
1.018000000000043,6.9746643066406255,2.17904052734375,7.313662719726563
1.0280000000000342,6.153860473632813,2.3843536376953125,7.785000610351563
1.0380000000000251,5.8117218017578125,2.3770263671875003,8.190692138671876
1.048000000000016,5.610147094726563,2.045355224609376,8.592645263671876
1.0580000000000638,5.971276855468751,1.0412200927734376,7.974612426757813
1.0680000000000405,6.858773803710938,-0.294586181640625,7.4157958984375005
1.0780000000000456,6.816305541992188,-1.4270233154296876,6.455474853515626
1.0880000000000365,7.257437133789063,-1.903744506835937,6.164178466796876
1.0980000000000416,7.2052490234375,-1.831369018554688,6.892120361328126
1.1080000000000183,7.007861328125,-1.5991394042968752,6.558804321289063
1.1180000000000805,7.429403686523438,-1.0935577392578126,6.652413940429688
1.128000000000057,7.299307250976563,-0.8215515136718751,5.648876953125001
1.1380000000000337,7.479199218750001,-0.4318603515625,5.767758178710938
1.1480000000000388,7.454525756835938,-0.1766021728515625,6.638058471679688
1.158000000000044,5.910565185546876,0.165386962890625,7.78544921875
1.1680000000000206,5.438629150390625,1.1112030029296875,8.851791381835938
1.1779999999999973,5.33604736328125,2.250518798828125,9.310568237304688
1.1880000000000592,6.615179443359375,2.722454833984376,7.717709350585938
1.198000000000036,7.55875244140625,2.1157867431640627,5.47122802734375
1.208000000000041,8.100671386718751,0.8707489013671875,5.033685302734376
1.2180000000000462,8.282208251953126,-0.746185302734375,5.3312622070312505
1.2280000000000229,7.118069458007813,-2.3837554931640628,6.89481201171875
1.2379999999999995,6.367996215820313,-3.016592407226563,7.385739135742188
1.2470000000000423,5.705252075195313,-2.883953857421876,8.214318847656251
1.2570000000000192,6.370388793945313,-1.4451171875000002,7.461404418945313
1.266999999999996,7.273886108398438,0.3744384765625,6.700265502929688
1.277000000000058,7.75614013671875,1.947409057617188,5.673101806640625
1.2870000000000346,7.773635864257813,2.96739501953125,5.481546020507813
1.2970000000000397,7.109994506835938,2.625555419921876,5.9911651611328125
1.3070000000000448,6.671704101562501,1.461865234375,7.392916870117188
1.3170000000000217,5.931051635742188,0.168377685546875,8.612982177734375
1.3269999999999982,5.263522338867188,-1.1639892578125002,8.384042358398439
1.33700000000006,6.285153198242188,-2.1533203125,7.241885375976563
1.3470000000000368,7.303793334960938,-2.25799560546875,6.698919677734375
1.357000000000042,8.17783203125,-1.4690429687500002,5.601473999023438
1.367000000000047,8.018875122070312,-0.2232574462890625,5.334851074218751
1.3770000000000238,7.970126342773438,1.12152099609375,5.355487060546875
1.3870000000000005,7.046591186523438,1.3851531982421876,5.971276855468751
1.3970000000000624,7.333999633789063,1.1089599609375,6.997991943359375
1.407000000000039,5.763571166992188,1.0491455078125,8.27353515625
1.4170000000000442,5.301205444335938,0.870001220703125,8.56842041015625
1.4270000000000351,5.803497314453125,0.421392822265625,8.551373291015626
1.4370000000000402,6.8849426269531255,-0.3626251220703125,7.257885742187501
1.447000000000017,7.157098388671876,-0.91396484375,6.00836181640625
1.457000000000065,7.340878295898438,-0.9757232666015626,5.700765991210938
1.4670000000000556,7.745822143554688,-0.4622161865234375,6.316107177734375
1.4770000000000465,7.236801147460938,-0.5229278564453126,6.923971557617188
1.4870000000000374,7.303045654296875,-0.337054443359375,6.587664794921875
1.4970000000000423,6.564187622070313,-0.201275634765625,6.455325317382813
1.5070000000000192,6.771743774414063,0.0299072265625,6.344967651367188
1.516999999999996,6.73331298828125,0.30684814453125,7.480694580078126
1.527000000000058,6.682919311523438,0.2130889892578125,7.258633422851563
1.5370000000000346,6.520672607421876,0.24105224609375,7.495050048828125
1.5470000000000397,6.196926879882813,0.0037384033203125,6.940270996093751
1.5570000000000448,6.805538940429688,0.13218994140625,6.894961547851563
1.5670000000000217,7.461404418945313,-0.0426177978515625,6.846212768554688
1.5769999999999982,7.488021850585938,-0.123516845703125,6.375173950195313
1.58700000000006,6.980496215820313,-0.7005767822265625,6.249563598632813
1.5970000000000368,6.746472167968751,-1.0591644287109376,7.187603759765626
1.607000000000042,6.496746826171876,-0.4837493896484375,7.9212280273437505
1.617000000000047,6.305340576171876,-0.1987335205078125,7.330261230468751
1.6270000000000238,7.065133666992188,0.2770904541015625,6.8012023925781255
1.6370000000000005,7.727728271484375,0.93250732421875,5.855386352539063
1.6470000000000624,7.096237182617188,1.5559234619140627,6.583477783203126
1.657000000000039,6.303396606445313,1.5747650146484375,7.213174438476563
1.6670000000000442,6.338986206054688,0.74169921875,7.8479553222656255
1.6770000000000351,6.701611328125001,-0.174658203125,7.560247802734375
1.6870000000000402,6.694882202148438,-0.5688354492187501,6.971224975585938
1.697000000000017,6.774136352539063,-0.563153076171875,6.691891479492188
1.707000000000065,6.948944091796876,-0.5824432373046875,6.50242919921875
1.7160000000000224,7.450936889648438,-0.42767333984375,6.536074829101563
1.7270000000000465,7.54320068359375,-0.2528656005859375,6.1919921875
1.736000000000061,6.809277343750001,-0.129498291015625,6.1227569580078125
1.7470000000000423,7.315606689453125,-0.003887939453125,6.5858703613281255
1.7560000000000429,6.498092651367188,-0.1146942138671875,7.456768798828126
1.7660000000000338,6.466839599609376,-0.0001495361328125,7.48338623046875
1.776000000000025,6.233114624023438,0.2690155029296875,7.925115966796875
1.7870000000000346,6.309527587890625,0.4481597900390625,6.906475830078126
1.796000000000063,6.881204223632813,0.7707092285156251,7.418038940429688
1.80600000000004,7.014141845703126,0.5468536376953126,6.417642211914063
1.8160000000000447,7.521069335937501,0.3877471923828125,6.46953125
1.826000000000036,7.08023681640625,-0.22191162109375,6.175692749023438
1.8360000000000407,7.314859008789063,-0.6615478515625001,6.2841064453125
1.8460000000000176,6.957467651367188,-0.8242431640625001,7.39725341796875
1.85600000000008,6.37442626953125,-1.04854736328125,6.643441772460938
1.8660000000000565,6.984085083007813,-0.8333648681640625,7.273437500000001
1.876000000000048,6.471176147460938,-0.7539611816406251,6.092999267578126
1.8860000000000383,7.493255615234376,-0.1263580322265625,6.833203125000001
1.896000000000044,6.299957275390626,0.429766845703125,7.293475341796875
1.90600000000002,7.249212646484375,0.9966583251953126,7.171902465820313
1.9159999999999968,6.941467285156251,1.389041137695313,7.583575439453125
1.9260000000000588,6.534130859375001,1.0860809326171876,6.051129150390626
1.936000000000036,6.487176513671876,0.9008056640625,7.420132446289063
1.9460000000000408,6.482839965820313,0.2296875,7.482788085937501
1.9560000000000457,6.968832397460938,-0.4568328857421875,7.124948120117188
1.9660000000000224,7.241586303710938,-1.358984375,6.674395751953125
1.975999999999999,7.452731323242188,-1.6130462646484376,5.581735229492188
1.986000000000061,6.525906372070313,-0.608013916015625,7.462451171875
1.9960000000000373,6.368893432617188,0.2092010498046875,7.2267822265625
2.006000000000043,7.211080932617188,0.4318603515625,7.123602294921875
2.0160000000000338,7.812515258789063,0.20277099609375,5.992510986328125
2.0260000000000247,6.838436889648438,0.5807983398437501,5.8860412597656255
2.0360000000000014,6.171356201171876,1.2565521240234376,8.049081420898439
2.046000000000064,6.094793701171875,0.7965789794921876,7.9316955566406255
2.05600000000004,7.294073486328125,-0.1320404052734375,7.527200317382813
2.066000000000045,6.941616821289063,-0.8496643066406251,5.834152221679688
2.076000000000036,6.692938232421875,-0.7137359619140625,6.031838989257813
2.086000000000041,7.002627563476563,-0.3052032470703125,7.697073364257813
2.096000000000018,7.204949951171876,-0.5037872314453126,7.127191162109376
2.10600000000008,7.1959777832031255,-0.3449798583984375,6.3585754394531255
2.1160000000000565,6.454129028320313,-0.01734619140625,5.971127319335938
2.1260000000000474,6.265115356445313,0.668426513671875,7.197174072265626
2.1360000000000383,7.140350341796876,0.9141143798828124,8.462548828125001
2.1460000000000434,7.069918823242188,0.356793212890625,6.728826904296875
2.15600000000002,7.400692749023438,-0.1457977294921875,5.591754150390625
2.165999999999997,6.753799438476563,-0.0346923828125,6.205749511718751
2.1760000000000588,5.706298828125,0.0336456298828125,7.931396484375001
2.1860000000000355,7.180276489257813,-0.189910888671875,8.515933227539064
2.1960000000000406,7.052124023437501,-0.6660339355468751,6.428707885742188
2.2060000000000457,7.362561035156251,-0.7690643310546875,5.015740966796876
2.215000000000046,7.024011230468751,-0.208154296875,6.313565063476563
2.225999999999999,6.996047973632813,0.4924224853515625,7.839581298828126
2.235000000000042,6.169711303710938,0.43126220703125,7.69931640625
2.2460000000000377,7.458413696289063,-0.173162841796875,5.542706298828126
2.2549999999999955,7.111938476562501,-0.8707489013671875,5.487677001953125
2.2650000000000574,6.488223266601563,-0.6735107421875001,7.543051147460938
2.275000000000034,7.101022338867188,0.274249267578125,8.684909057617189
2.2860000000000014,6.133822631835938,0.572723388671875,8.272937011718751
2.296000000000064,6.607403564453126,0.494964599609375,5.400646972656251
2.305000000000021,7.065731811523438,0.7645782470703125,6.289340209960938
2.3149999999999977,7.277175903320313,1.2442901611328123,7.490115356445313
2.32500000000006,7.034030151367188,0.902001953125,7.247119140625
2.3350000000000364,6.517681884765626,-0.34034423828125,6.676339721679688
2.345000000000041,7.0856201171875,-1.1650360107421875,6.0005859375
2.3550000000000466,6.554766845703125,-0.963909912109375,7.664474487304688
2.365000000000024,6.621609497070313,-0.5181427001953125,7.782009887695313
2.375,6.9540283203125,-0.6087615966796875,6.8430725097656255
2.385000000000062,7.141696166992188,-0.453094482421875,5.8151611328125
2.3950000000000387,7.221548461914063,0.6443511962890626,6.354687500000001
2.405000000000044,6.691592407226563,1.6864685058593751,7.896853637695313
2.4150000000000347,6.489270019531251,1.5968963623046877,7.325924682617188
2.4250000000000256,6.873727416992188,0.7243530273437501,6.8224365234375
2.4350000000000165,6.509756469726563,0.1137969970703125,6.7087890625
2.445000000000064,6.110943603515626,-0.164190673828125,7.680624389648438
2.455000000000041,6.452334594726563,-0.4797119140625,8.583224487304689
2.465000000000046,6.37442626953125,-0.941778564453125,7.192388916015625
2.475000000000037,6.907821655273438,-1.017144775390625,5.805889892578126
2.485000000000042,8.325872802734375,-0.8359069824218751,4.860223388671876
2.4950000000000188,8.751452636718751,-0.7035675048828125,5.398703002929688
2.5049999999999955,8.383444213867188,-0.6344818115234375,5.275634765625
2.5150000000000574,7.222595214843751,-0.0683380126953125,6.417343139648438
2.525000000000034,4.411016845703125,0.22310791015625,7.97506103515625
2.535000000000039,6.012399291992188,0.6264068603515626,9.188247680664062
2.5450000000000443,5.8670501708984375,0.7548583984375,9.426608276367189
2.555000000000021,6.6860595703125005,0.8118316650390626,6.379959106445313
2.5649999999999977,7.029095458984376,0.9974060058593752,6.15311279296875
2.57500000000006,7.365402221679688,0.920843505859375,6.207244873046876
2.5850000000000364,7.246670532226563,0.6570617675781251,6.900942993164063
2.595000000000041,6.963897705078126,-0.4438232421875,6.670806884765626
2.6050000000000466,7.845562744140626,-1.293338012695313,5.7290283203125005
2.615000000000024,6.618170166015625,-1.9206420898437504,6.335696411132813
2.625,6.202758789062501,-1.496258544921875,7.175192260742188
2.635000000000062,7.285101318359375,-0.5268157958984375,8.252899169921875
2.6450000000000387,6.64957275390625,-0.3931304931640625,6.323733520507813
2.655000000000044,7.180126953125001,0.372943115234375,5.899798583984375
2.6650000000000347,7.003375244140625,1.2535614013671876,6.682171630859376
2.6750000000000256,6.360369873046875,2.0185882568359377,7.902835083007813
2.6850000000000165,6.590805053710938,1.5980926513671876,7.7642150878906255
2.695000000000064,6.86490478515625,0.3404937744140625,7.036273193359375
2.705000000000041,6.713125610351563,-0.16807861328125,6.417642211914063
2.713999999999998,6.420932006835938,-0.5117126464843751,7.290335083007813
2.725000000000037,6.98094482421875,-0.8082427978515626,7.298858642578126
2.735000000000042,7.763317871093751,-1.4259765625,6.4755126953125
2.7450000000000188,7.075451660156251,-1.1695220947265623,5.739346313476563
2.7540000000000475,6.760977172851563,-0.070281982421875,6.402239990234375
2.764000000000024,6.505270385742188,0.6480895996093751,7.8001037597656255
2.774000000000001,7.216314697265625,0.8399444580078126,7.574603271484375
2.784000000000063,7.003375244140625,0.644500732421875,6.584524536132813
2.79400000000004,6.222647094726563,0.6627441406250001,6.067129516601563
2.8040000000000447,6.8224365234375,0.563153076171875,7.269848632812501
2.814000000000036,6.857427978515625,-0.0213836669921875,7.966986083984375
2.8240000000000407,7.102966308593751,-0.5802001953125,6.825277709960938
2.8340000000000174,6.632824707031251,-0.7621856689453126,6.174945068359375
2.844000000000065,6.721200561523438,-0.52158203125,6.196777343750001
2.854000000000056,6.896008300781251,-0.064599609375,7.891171264648438
2.864000000000047,6.612039184570313,0.1547698974609375,7.642044067382813
2.874000000000038,7.035525512695313,0.4487579345703125,6.543103027343751
2.884000000000043,6.629684448242188,0.2594451904296875,5.9036865234375
2.89400000000002,7.961154174804688,-0.003887939453125,6.033184814453126
2.9039999999999964,7.657147216796876,-0.0136077880859375,7.467385864257813
2.9140000000000583,5.784207153320313,-0.323895263671875,6.730172729492188
2.924000000000035,6.359622192382813,-0.2836700439453125,7.356130981445313
2.93400000000004,6.615328979492188,-0.527264404296875,7.190145874023438
2.944000000000045,7.342224121093751,-0.328082275390625,7.153210449218751
2.954000000000022,6.990365600585938,0.296380615234375,7.065582275390626
2.963999999999998,6.5209716796875,0.7277923583984376,6.229675292968751
2.9740000000000606,6.653161621093751,1.012060546875,7.21781005859375
2.9840000000000373,6.758584594726563,0.2406036376953125,6.202310180664063
2.9940000000000424,8.347406005859376,-0.3177642822265625,6.4782043457031255
3.0040000000000475,7.052871704101563,-1.468743896484375,5.518032836914063
3.014000000000024,6.076998901367188,-1.69693603515625,6.889279174804688
3.024000000000001,7.146182250976563,-0.7717559814453125,8.716162109375
3.034000000000063,6.168814086914063,0.0849365234375,8.369537353515625
3.04400000000004,6.460409545898438,1.21842041015625,6.695181274414063
3.0540000000000447,6.699667358398438,1.5511383056640626,5.762973022460938
3.064000000000036,7.431796264648438,2.0224761962890625,6.677386474609375
3.0740000000000407,7.3828979492187505,1.62216796875,7.065582275390626
3.0840000000000174,6.869540405273438,0.2008270263671875,7.004122924804688
3.094000000000065,6.767257690429688,-1.1444000244140626,6.456671142578125
3.104000000000056,6.058306884765625,-1.876080322265625,7.330410766601563
3.114000000000047,6.628488159179688,-1.4557342529296875,7.871432495117188
3.124000000000038,6.948196411132813,-1.4048919677734375,7.106106567382813
3.134000000000043,7.558004760742188,-0.89542236328125,5.893069458007813
3.14400000000002,7.522564697265626,0.5564239501953125,5.742935180664063
3.1539999999999964,6.488821411132813,2.0990386962890626,7.290335083007813
3.1640000000000583,6.5873657226562505,2.5273101806640628,7.487274169921876
3.174000000000035,6.577645874023438,1.5032867431640626,7.654306030273438
3.18400000000004,6.668264770507813,0.385205078125,6.603216552734375
3.194000000000045,6.266162109375,-0.284716796875,7.351644897460938
3.204000000000022,6.020623779296876,-0.97318115234375,8.098129272460938
3.2130000000000365,6.8918212890625,-1.5311004638671877,7.448992919921875
3.2240000000000606,6.957318115234376,-1.612298583984375,6.815258789062501
3.2330000000000183,7.274185180664063,-0.8451782226562501,5.081536865234376
3.2440000000000424,7.928854370117188,-0.050244140625,5.619866943359376
3.253000000000057,8.541802978515626,0.11304931640625,5.356234741210938
3.2630000000000337,8.458511352539062,0.1984344482421875,5.671905517578125
3.2730000000000388,6.060250854492188,0.298773193359375,6.865353393554688
3.283000000000044,4.9765625,0.6640899658203125,8.385687255859375
3.293000000000021,5.03936767578125,0.7134368896484375,10.404275512695314
3.3029999999999973,6.051876831054688,0.2307342529296875,8.45477294921875
3.3130000000000592,7.382748413085938,0.115142822265625,6.276629638671875
3.3240000000000407,7.485928344726563,0.172265625,4.92392578125
3.333000000000041,7.776028442382813,0.495562744140625,5.6636810302734375
3.343000000000046,7.363159179687501,0.180938720703125,7.135415649414063
3.353000000000023,7.306185913085938,-0.47672119140625,6.532785034179688
3.3629999999999995,6.634469604492188,-1.1101562500000002,5.879461669921875
3.373000000000061,7.121060180664063,-1.58448486328125,6.267507934570313
3.383000000000038,6.600524902343751,-1.160400390625,7.711129760742188
3.393000000000044,6.027651977539063,-0.3509613037109375,8.7819580078125
3.403000000000034,6.487774658203126,0.7524658203125001,7.6819702148437505
3.413000000000025,6.232666015625001,1.4047424316406252,6.558355712890625
3.423000000000016,7.892068481445313,1.4259765625,5.742337036132813
3.433000000000064,8.156448364257812,1.37154541015625,6.530093383789063
3.4430000000000405,6.652114868164063,0.8006164550781251,6.553121948242188
3.4530000000000456,6.191244506835938,0.0512908935546875,7.153359985351563
3.4630000000000365,6.0415588378906255,-1.0981933593750002,7.599575805664063
3.4730000000000416,7.169808959960938,-1.529754638671875,8.194131469726564
3.4830000000000183,6.617721557617188,-0.97318115234375,7.330261230468751
3.4930000000000803,6.212179565429688,-0.2382110595703125,6.2123291015625
3.503000000000057,7.731915283203126,0.2902496337890625,5.914154052734375
3.5130000000000337,8.099923706054689,0.2498748779296875,5.91265869140625
3.5230000000000388,7.831655883789063,0.4338043212890625,6.2195068359375005
3.533000000000044,6.293377685546876,0.43485107421875,6.728826904296875
3.543000000000021,5.717962646484375,0.1215728759765625,7.700811767578125
3.5529999999999973,6.307583618164063,-0.12740478515625,8.601916503906251
3.5630000000000592,6.460858154296876,-0.1437042236328125,7.922872924804688
3.573000000000036,6.285751342773438,0.2905487060546875,6.880755615234375
3.583000000000041,6.895559692382813,0.6012847900390625,6.205749511718751
3.593000000000046,7.242483520507813,0.712689208984375,6.842922973632813
3.603000000000023,7.289736938476563,0.552685546875,6.690246582031251
3.613,7.1490234375,0.08134765625,6.47611083984375
3.6230000000000615,7.345663452148438,-0.8836090087890626,5.734710693359375
3.633000000000038,7.93558349609375,-1.49715576171875,6.197225952148438
3.6430000000000433,6.349603271484376,-1.5476989746093752,7.129733276367188
3.653000000000034,6.410763549804688,-0.9960601806640624,7.338186645507813
3.663000000000025,6.327920532226563,-0.2474822998046875,7.8479553222656255
3.673000000000016,7.0736572265625,0.20635986328125,6.311471557617188
3.683000000000064,7.301101684570313,1.1925506591796875,6.957168579101563
3.693000000000041,6.576898193359376,1.8916320800781248,6.677087402343751
3.7030000000000456,6.422726440429688,2.1258056640625003,7.6574462890625
3.713000000000037,6.221749877929688,1.0442108154296876,7.201062011718751
3.7230000000000416,7.581481933593751,-0.560760498046875,6.00357666015625
3.7330000000000174,7.759280395507813,-1.7832183837890627,6.1252990722656255
3.74300000000008,6.685012817382813,-2.7058563232421875,5.917593383789063
3.753000000000057,6.674246215820313,-2.184722900390625,7.706045532226563
3.762000000000001,7.091452026367188,-1.3402923583984376,8.13775634765625
3.7720000000000624,6.473419189453126,0.24464111328125,6.862362670898438
3.783000000000044,6.661386108398438,1.8452758789062504,6.629833984375001
3.792000000000044,6.928756713867188,2.862420654296875,6.868194580078126
3.802000000000035,6.846212768554688,3.348861694335938,7.301998901367188
3.81200000000004,6.587814331054688,2.057318115234376,7.17235107421875
3.823000000000036,6.941168212890625,0.2684173583984375,6.549533081054688
3.8320000000000647,6.976309204101563,-1.6090087890625002,6.967636108398438
3.842000000000056,6.801052856445313,-2.4577758789062503,7.348355102539063
3.852000000000048,6.462652587890625,-2.553329467773437,6.9576171875
3.862000000000037,6.824829101562501,-2.3789703369140627,6.736901855468751
3.8720000000000425,7.766009521484375,-1.024172973632813,6.221749877929688
3.882000000000019,7.192987060546876,0.8420379638671875,6.821838378906251
3.891999999999996,6.523663330078126,2.654266357421875,6.7817626953125005
3.902000000000058,6.663778686523438,3.046499633789063,7.045843505859375
3.9120000000000346,6.482839965820313,2.322894287109375,7.443011474609375
3.923000000000016,6.416595458984376,1.3314697265625002,7.597332763671876
3.932000000000045,5.90787353515625,0.0835906982421875,8.338882446289062
3.9420000000000215,6.085073852539063,-1.0815948486328126,7.5832763671875005
3.951999999999998,6.349154663085938,-1.9939147949218752,7.19627685546875
3.96200000000006,7.513742065429688,-2.326034545898437,5.918191528320313
3.972000000000037,9.103759765625,-1.906436157226563,5.087069702148438
3.982000000000042,8.337985229492189,-1.487734985351563,4.22589111328125
3.992000000000047,8.660086059570313,-0.490478515625,4.727435302734375
4.002000000000024,6.287994384765626,0.3069976806640625,7.001431274414063
4.0120000000000005,6.223992919921876,0.9096282958984376,7.844815063476563
4.023000000000039,5.354739379882813,1.392181396484375,9.7509521484375
4.032000000000039,5.2221008300781255,1.1092590332031251,8.029193115234376
4.042000000000044,6.16806640625,1.5539794921875,8.580532836914063
4.052000000000035,6.593945312500001,1.490725708007813,7.254895019531251
4.06200000000004,7.218408203125,0.9930694580078124,6.197525024414063
4.072000000000017,7.581930541992188,-0.0312530517578125,5.704803466796875
4.082000000000065,7.696923828125,-1.2468322753906251,4.959066772460938
4.092000000000056,8.316751098632814,-1.8662109375,6.0783447265625
4.102000000000047,6.711181640625001,-2.7955780029296875,5.878713989257813
4.112000000000037,7.427310180664063,-2.5138519287109378,6.978851318359376
4.1230000000000615,6.7593322753906255,-1.5100158691406251,7.661334228515625
4.132000000000019,5.3661041259765625,0.473431396484375,8.208786010742188
4.141999999999996,6.0304931640625,2.608807373046876,8.64139404296875
4.152000000000058,6.387136840820313,3.3584320068359377,7.364056396484376
4.162000000000035,7.220950317382813,3.3615722656250004,6.032437133789063
4.17200000000004,7.8015991210937505,1.98583984375,5.536874389648438
4.182000000000045,7.656698608398438,0.2465850830078125,6.030343627929688
4.1920000000000215,6.722546386718751,-1.424481201171875,7.8030944824218755
4.201999999999998,5.577548217773438,-2.49605712890625,8.028744506835938
4.21200000000006,5.80858154296875,-2.659201049804688,7.983135986328126
4.222000000000037,7.134368896484376,-2.4670471191406254,6.729873657226563
4.232000000000042,8.059848022460939,-1.277935791015625,5.799310302734376
4.242000000000047,8.146279907226564,0.335858154296875,5.167819213867188
4.251000000000047,7.057208251953125,1.5556243896484376,5.657849121093751
4.261000000000038,7.449740600585938,2.0906646728515628,6.779370117187501
4.271000000000043,6.182272338867188,1.7103942871093751,8.015286254882813
4.282000000000039,5.459414672851563,1.44691162109375,8.445501708984375
4.290999999999997,5.026956176757813,1.0131072998046875,8.876165771484375
4.301000000000059,6.0091094970703125,0.1945465087890625,8.041305541992188
4.311000000000036,7.271044921875,-0.542816162109375,6.776379394531251
4.323000000000036,7.616622924804688,-1.1698211669921876,5.590109252929688
4.331000000000046,8.147027587890626,-1.1663818359375,5.223297119140625
4.341000000000022,8.0163330078125,-1.2939361572265626,5.6943359375
4.350999999999999,7.475311279296876,-1.1584564208984376,6.275582885742188
4.361000000000061,6.650469970703125,-1.0866790771484376,6.131430053710938
4.371000000000038,7.03238525390625,-0.6926513671875001,6.893466186523438
4.381000000000043,7.092349243164063,-0.1105072021484375,7.10416259765625
4.391000000000034,5.983389282226563,0.641510009765625,7.816403198242188
4.401000000000025,5.970529174804688,1.8548461914062504,8.446249389648438
4.411000000000001,5.336346435546876,2.340838623046875,8.148822021484376
4.423000000000016,6.571514892578126,1.8008636474609376,6.799407958984376
4.43100000000004,8.467782592773439,0.374139404296875,5.671456909179688
4.441000000000045,7.993453979492188,-1.3425354003906251,4.6254516601562505
4.451000000000036,7.069320678710938,-2.0918609619140627,6.247320556640625
4.461000000000041,7.01982421875,-2.18621826171875,7.990313720703125
4.471000000000018,6.203805541992188,-1.6896087646484377,8.140298461914064
4.48100000000008,5.806039428710938,-0.5431152343750001,7.735055541992188
4.4910000000000565,6.495550537109375,0.926824951171875,6.898251342773438
4.501000000000047,7.121807861328126,2.62764892578125,7.053021240234376
4.511000000000038,7.52286376953125,2.7707550048828127,6.273040771484376
4.522000000000062,7.702157592773438,1.9589233398437504,5.6931396484375005
4.53100000000002,6.937878417968751,0.582891845703125,6.5739074707031255
4.540999999999997,6.090457153320313,-0.5896209716796875,7.61318359375
4.551000000000059,5.970977783203125,-1.591961669921875,8.587112426757812
4.561000000000036,6.423623657226563,-2.608807373046876,7.665371704101563
4.571000000000041,7.138107299804688,-2.1669281005859378,6.2912841796875005
4.581000000000046,7.423870849609376,-0.7445404052734376,6.056362915039063
4.591000000000022,7.176239013671876,1.01923828125,6.1620849609375
4.600999999999999,7.476058959960938,1.935296630859375,6.661834716796876
4.611000000000061,6.889578247070313,1.9246795654296875,6.905877685546876
4.6230000000000615,6.44261474609375,1.6091583251953123,7.005319213867188
4.631000000000043,5.564089965820313,1.0011444091796875,8.39615478515625
4.641000000000034,5.49754638671875,0.0130096435546875,8.258432006835939
4.651000000000025,6.992459106445313,-1.1973358154296876,7.470227050781251
4.661000000000001,7.820889282226563,-2.135076904296876,5.744131469726563
4.671000000000063,8.601019287109375,-2.0428131103515628,4.5399169921875
4.68100000000004,7.266409301757813,-1.1831298828125,5.708691406250001
4.691000000000045,6.9462524414062505,-0.1224700927734375,6.973468017578125
4.701000000000036,6.827520751953125,0.2857635498046875,7.167266845703126
4.711000000000041,7.180575561523438,0.5160491943359375,6.666470336914063
4.723000000000042,6.709088134765626,0.72196044921875,6.411361694335938
4.73100000000008,5.935388183593751,0.9398345947265626,7.805187988281251
4.7410000000000565,6.254498291015626,1.3507598876953126,8.99130859375
4.75,5.640951538085938,1.086978149414063,8.427557373046875
4.760000000000062,6.009707641601563,0.3330169677734375,6.140103149414063
4.770000000000039,8.486026000976564,-0.471636962890625,5.445507812500001
4.78100000000002,7.872628784179688,-1.33505859375,5.425320434570313
4.790000000000035,7.822085571289063,-1.495660400390625,6.182272338867188
4.800000000000026,7.271194458007813,-1.256103515625,6.878363037109375
4.8100000000000165,6.369940185546875,-1.0095184326171875,6.952832031250001
4.820000000000064,6.144140625,-0.2117431640625,7.771243286132813
4.830000000000041,5.854937744140625,1.0458557128906252,8.415444946289064
4.840000000000046,6.248367309570313,2.1516754150390627,8.052520751953125
4.850000000000037,7.11014404296875,1.973876953125,6.371136474609376
4.860000000000042,8.082278442382814,1.134381103515625,5.249166870117188
4.870000000000019,7.4187866210937505,0.4664031982421875,6.190646362304688
4.879999999999996,6.291433715820313,-0.145050048828125,7.319345092773438
4.890000000000057,6.260629272460938,-1.0208831787109376,8.22388916015625
4.900000000000034,6.74766845703125,-2.1516754150390627,7.345962524414063
4.910000000000039,6.988272094726563,-2.040570068359376,6.183468627929688
4.920000000000044,6.971673583984376,-0.8605804443359376,6.606805419921876
4.930000000000021,6.903634643554688,0.21234130859375,6.542953491210938
4.939999999999998,7.7432800292968755,0.85654296875,6.709835815429688
4.95000000000006,7.539462280273438,0.8994598388671876,5.841928100585938
4.960000000000036,6.797613525390625,1.155914306640625,6.175244140625001
4.9700000000000415,5.785552978515625,1.161895751953125,7.902835083007813
4.980000000000047,5.934939575195313,0.7644287109375001,8.825473022460939
4.990000000000023,6.176889038085938,0.0650482177734375,8.460305786132814
5.0,6.272293090820313,-0.4696929931640625,6.584225463867188
5.010000000000062,7.379458618164063,-0.487786865234375,6.039764404296875
5.020000000000039,7.565930175781251,-0.7206146240234376,6.356182861328126
5.030000000000044,8.365798950195312,-0.4951141357421875,6.192440795898438
5.040000000000035,6.567327880859375,-0.584088134765625,6.053073120117188
5.050000000000026,7.005917358398438,-0.7213623046875001,5.6596435546875
5.0600000000000165,7.418637084960938,-0.4867401123046875,7.150219726562501
5.070000000000064,6.760827636718751,-0.4813568115234375,7.400543212890626
5.080000000000041,6.355734252929688,0.34871826171875,7.775430297851563
5.090000000000046,5.497994995117188,0.8643188476562501,7.214520263671876
5.100000000000037,6.622207641601563,1.0323974609375002,7.1361633300781255
5.110000000000042,7.235455322265626,0.6657348632812501,7.139602661132813
5.120000000000019,7.266708374023438,0.0336456298828125,6.296218872070313
5.129999999999996,7.492208862304688,0.1374237060546875,6.660189819335938
5.140000000000057,6.414053344726563,-0.232379150390625,6.385192871093751
5.150000000000034,7.149472045898438,-0.59515380859375,7.208389282226563
5.160000000000039,7.120761108398438,-0.71717529296875,7.51090087890625
5.170000000000044,6.145635986328125,-0.12740478515625,7.059750366210938
5.180000000000021,6.291583251953125,0.4882354736328125,7.029244995117188
5.189999999999998,7.159042358398438,0.20875244140625,6.648226928710938
5.20000000000006,8.001678466796875,0.35828857421875,6.902288818359375
5.210000000000036,6.709835815429688,0.5945556640625,6.50302734375
5.2200000000000415,6.035427856445313,0.6960906982421875,6.794772338867188
5.230000000000047,6.9061767578125,0.0904693603515625,7.3709350585937505
5.240000000000023,7.117770385742188,-0.6048736572265625,7.406973266601563
5.249000000000038,6.884494018554688,-0.2711090087890625,7.071563720703126
5.260000000000062,5.848806762695313,0.06220703125,6.7593322753906255
5.26900000000002,6.786996459960938,0.1903594970703125,6.987374877929688
5.280000000000044,7.624996948242188,0.0007476806640625,7.21182861328125
5.289000000000058,6.923971557617188,-0.1016845703125,6.499588012695313
5.299000000000035,6.849801635742188,0.183929443359375,6.294573974609375
5.30900000000004,6.113485717773438,-0.0925628662109375,6.746621704101563
5.319000000000045,7.906423950195313,-0.4583282470703125,6.843521118164063
5.329000000000022,7.777374267578126,-0.9485076904296876,6.652114868164063
5.340000000000046,7.037020874023438,-0.8723937988281251,5.4707794189453125
5.349000000000061,6.601272583007813,0.0695343017578125,7.26805419921875
5.359000000000037,5.189801025390626,0.3345123291015625,8.066278076171876
5.369000000000042,7.344915771484375,0.8169158935546875,8.480493164062501
5.379000000000048,6.4587646484375005,0.7183715820312501,6.962402343750001
5.389000000000024,7.019375610351563,0.5456573486328126,5.06448974609375
5.399000000000001,7.479348754882813,0.5962005615234376,6.895111083984376
5.409000000000063,6.974215698242188,0.1236663818359375,7.230221557617188
5.41900000000004,6.389678955078126,-0.0121124267578125,7.676885986328125
5.429000000000045,5.832357788085938,-0.9299652099609376,6.316256713867188
5.439000000000036,7.990164184570313,-1.413116455078125,5.926715087890625
5.449000000000041,7.087713623046875,-1.50074462890625,6.743630981445313
5.459000000000017,7.767355346679688,-0.8013641357421876,6.721798706054688
5.469000000000065,7.341177368164063,0.50543212890625,7.389627075195313
5.479000000000056,5.761627197265625,0.739605712890625,6.164328002929688
5.489000000000047,6.309078979492188,1.46246337890625,7.840628051757813
5.499000000000038,6.474017333984375,1.6934967041015627,8.2866943359375
5.509000000000043,6.427062988281251,1.2910949707031252,7.28121337890625
5.51900000000002,7.572509765625001,0.2199676513671875,6.385641479492188
5.528999999999996,7.312765502929688,-0.8462249755859376,5.457919311523438
5.539000000000058,6.565682983398438,-0.5339935302734375,7.386187744140625
5.549000000000035,6.179730224609376,-0.66094970703125,7.867544555664063
5.55900000000004,7.460507202148438,-1.2012237548828126,6.800006103515625
5.569000000000045,7.814459228515625,-1.501641845703125,5.684765625000001
5.579000000000022,7.045245361328125,-0.751568603515625,5.4084228515625
5.588999999999999,6.55028076171875,0.7457366943359376,7.669110107421876
5.599000000000061,6.236105346679688,0.907086181640625,8.062689208984375
5.609000000000037,7.24771728515625,0.74708251953125,7.120162963867188
5.619000000000042,6.734359741210938,0.6765014648437501,6.462054443359375
5.629000000000048,5.8924713134765625,0.9401336669921876,6.541159057617188
5.639000000000024,6.556710815429688,1.1789428710937502,8.65933837890625
5.649000000000001,6.6337219238281255,0.23387451171875,7.8392822265625
5.659000000000063,7.187454223632813,-0.4302154541015625,6.061148071289063
5.66900000000004,7.043151855468751,-0.9529937744140624,5.578594970703126
5.679000000000045,7.458264160156251,-1.1032775878906251,6.182870483398438
5.689000000000036,7.95592041015625,-0.8214019775390625,7.662979125976563
5.699000000000041,6.066531372070313,-1.0015930175781251,6.502279663085938
5.709000000000017,7.30155029296875,-0.5441619873046876,5.869442749023438
5.719000000000065,6.782809448242188,-0.292791748046875,6.45517578125
5.729000000000056,7.406524658203126,0.34632568359375,7.2647644042968755
5.739000000000047,6.530093383789063,1.2176727294921876,8.317349243164063
5.749000000000038,5.653512573242188,1.3938262939453123,7.150518798828125
5.759000000000043,5.951089477539063,1.4333038330078125,7.234109497070313
5.768000000000043,7.210931396484375,0.4390380859375,6.583328247070313
5.778999999999996,8.353836059570312,-0.5658447265625001,6.224142456054688
5.788000000000025,6.797763061523438,-1.5213806152343752,5.88992919921875
5.798000000000016,6.889578247070313,-1.8502105712890624,6.291882324218751
5.808000000000064,7.028048706054688,-1.200177001953125,8.372976684570313
5.819000000000045,6.648526000976563,-0.482403564453125,7.390225219726563
5.828000000000046,6.384295654296875,0.7696624755859376,7.310971069335938
5.838999999999999,6.428558349609376,1.666131591796875,6.4542785644531255
5.848000000000042,7.105358886718751,2.1648345947265626,6.707144165039063
5.858000000000018,7.377514648437501,1.7672180175781251,7.264614868164063
5.86800000000008,7.306784057617188,0.49346923828125,6.249563598632813
5.878000000000057,6.458016967773438,-0.49825439453125,6.840530395507813
5.888000000000034,6.206497192382813,-1.3334136962890626,7.26566162109375
5.898000000000039,6.715518188476563,-1.77529296875,7.734158325195313
5.908000000000044,7.079489135742188,-1.79263916015625,7.303344726562501
5.918000000000021,7.107901000976563,-0.93968505859375,5.914602661132813
5.927999999999997,7.0509277343750005,0.6060699462890625,6.363659667968751
5.938000000000059,6.832455444335938,1.6309906005859376,6.720452880859376
5.948000000000036,7.0712646484375,1.939633178710937,7.381103515625001
5.958000000000041,6.684265136718751,1.5131561279296877,7.282858276367188
5.968000000000046,5.976959228515625,0.74169921875,7.02939453125
5.978000000000023,6.388632202148438,-0.006878662109375,7.761224365234375
5.988,6.153860473632813,-0.9464141845703126,7.7193542480468755
5.9980000000000615,7.308129882812499,-1.5639984130859377,6.607403564453126
6.008000000000038,8.064035034179689,-1.7972747802734377,5.554220581054688
6.018000000000043,7.914199829101563,-1.534539794921875,4.737155151367188
6.028000000000034,7.821188354492188,-0.42528076171875,6.219656372070313
6.038000000000025,6.1381591796875,0.3949249267578125,7.425814819335938
6.048000000000016,6.7114807128906255,0.992620849609375,7.455722045898438
6.058000000000064,6.1925903320312505,1.0371826171875,7.710531616210938
6.0680000000000405,6.333004760742188,0.7775878906250001,6.688302612304688
6.078000000000046,6.767855834960938,0.9869384765625,8.279815673828125
6.0880000000000365,6.220852661132813,0.72196044921875,7.514788818359375
6.098000000000042,6.703106689453126,0.285015869140625,7.089208984375
6.108000000000018,6.904830932617188,-0.5227783203125,5.994155883789063
6.11800000000008,7.6116882324218755,-1.1339324951171876,5.380758666992188
6.128000000000057,7.602716064453125,-1.2715057373046876,6.590954589843751
6.138000000000034,7.153509521484375,-1.5566711425781252,6.008212280273438
6.148000000000039,8.187850952148438,-0.9295166015625,7.260577392578125
6.158000000000044,6.284405517578126,-0.2109954833984375,6.970327758789063
6.168000000000021,5.589361572265625,1.032696533203125,7.620361328125001
6.177999999999997,5.660391235351563,2.015447998046876,8.76102294921875
6.188000000000059,6.588113403320313,1.82613525390625,7.5832763671875005
6.198000000000036,7.903732299804688,1.2089996337890625,6.1208129882812505
6.208000000000041,7.690194702148438,0.167779541015625,5.201165771484376
6.218000000000046,6.989617919921876,-0.194097900390625,6.253750610351563
6.228000000000023,6.073858642578125,-0.5375823974609375,8.211328125000001
6.238,6.475064086914063,-1.435845947265625,7.789935302734375
6.2480000000000615,7.41759033203125,-1.857687377929688,6.814361572265626
6.258000000000038,6.828567504882813,-1.5607086181640626,5.47122802734375
6.266999999999996,7.156350708007813,-0.032598876953125,6.727182006835938
6.278000000000034,6.813912963867188,0.843084716796875,7.531536865234376
6.288000000000025,7.2483154296875005,0.8984130859375,6.690097045898438
6.298000000000016,7.2411376953125,0.9764709472656252,6.345416259765625
6.307000000000045,6.0131469726562505,0.9132171630859376,6.337939453125
6.3180000000000405,6.3002563476562505,1.1370727539062502,8.368939208984376
6.326999999999998,6.237002563476563,0.5698822021484375,8.797808837890626
6.3380000000000365,6.440371704101563,-0.14774169921875,7.03238525390625
6.347000000000037,6.7961181640625,-0.42587890625,6.195730590820313
6.357000000000042,6.909616088867188,-0.712689208984375,6.109896850585938
6.367000000000047,8.148672485351563,-0.6853240966796875,6.8702880859375
6.377000000000024,7.826571655273438,-0.9682464599609376,6.3570800781250005
6.3870000000000005,6.93309326171875,-0.9944152832031252,4.9832916259765625
6.397000000000062,7.028646850585938,-0.7687652587890625,5.998941040039063
6.407000000000039,6.981692504882813,-0.509918212890625,7.375122070312501
6.417000000000044,7.206744384765625,0.2053131103515625,8.352191162109376
6.427000000000035,5.431900024414063,0.7451385498046875,7.5279479980468755
6.43700000000004,5.895162963867188,1.532147216796875,7.303643798828125
6.447000000000017,6.139953613281251,1.815966796875,7.809225463867188
6.457000000000065,7.277474975585938,1.1955413818359375,6.850997924804688
6.467000000000056,8.283853149414064,0.225201416015625,5.723944091796875
6.477000000000047,7.2411376953125,-1.508670043945313,4.543804931640626
6.487000000000037,7.056759643554688,-2.1953399658203128,6.329266357421876
6.4970000000000425,7.305587768554688,-1.873538208007813,8.884240722656251
6.507000000000019,5.990118408203125,-1.0268646240234376,8.22388916015625
6.516999999999996,5.716915893554688,0.129498291015625,7.2052490234375
6.527000000000058,6.651068115234375,1.0968475341796875,6.3319580078125
6.537000000000035,7.61318359375,2.500094604492188,7.004122924804688
6.54700000000004,7.542153930664063,2.5458526611328125,6.767407226562501
6.557000000000045,7.142294311523438,1.446014404296875,5.8476104736328125
6.5670000000000215,6.814361572265626,-0.09869384765625,6.465045166015625
6.576999999999998,6.2404418945312505,-1.1865692138671875,7.71187744140625
6.58700000000006,6.231021118164063,-1.63712158203125,8.561093139648438
6.597000000000037,6.389828491210938,-2.2472290039062504,7.431048583984375
6.607000000000042,7.306784057617188,-1.761834716796875,5.795571899414063
6.617000000000047,7.656250000000001,-0.2238555908203125,5.978753662109376
6.627000000000024,6.97855224609375,1.4825012207031252,6.5472900390625
6.6370000000000005,7.150967407226563,2.2832672119140627,7.000833129882813
6.647000000000062,6.761724853515625,1.8004150390625002,7.131826782226563
6.657000000000039,6.367098999023438,1.0877258300781252,6.709835815429688
6.667000000000044,5.921032714843751,0.2639312744140625,8.145681762695313
6.677000000000035,6.227432250976563,-0.600836181640625,8.101568603515625
6.68700000000004,6.690994262695313,-1.424481201171875,7.35299072265625
6.697000000000017,7.15201416015625,-1.95772705078125,5.708541870117188
6.707000000000065,8.682815551757812,-1.508221435546875,5.050732421875001
6.717000000000056,7.546640014648438,-0.823345947265625,5.850003051757813
6.727000000000047,7.624847412109376,0.23028564453125,6.272592163085938
6.737000000000037,6.202908325195313,0.8646179199218751,7.425216674804688
6.7470000000000425,6.378314208984375,0.87149658203125,7.009655761718751
6.757000000000019,6.258685302734375,1.062005615234375,8.199365234375001
6.766999999999996,6.141299438476563,0.7050628662109375,7.725036621093751
6.777000000000058,6.579440307617188,0.679791259765625,7.868890380859375
6.786000000000001,6.560748291015625,0.2989227294921875,6.952532958984375
6.796000000000063,6.810324096679688,-0.2127899169921875,6.103167724609375
6.80600000000004,7.906274414062499,-0.5600128173828125,6.196029663085938
6.816000000000045,7.196725463867188,-1.113894653320313,5.7220001220703125
6.826000000000036,7.780963134765625,-1.056622314453125,6.173599243164063
6.83700000000006,6.272442626953126,-1.2269439697265625,6.525906372070313
6.846000000000018,7.365103149414063,-0.8202056884765626,7.313961791992188
6.85600000000008,6.899597167968751,0.0719268798828125,8.167214965820314
6.8660000000000565,6.017333984375,0.9401336669921876,7.034927368164063
6.876000000000047,5.83489990234375,1.8454254150390623,7.7029052734375005
6.886000000000038,6.820941162109375,1.7257965087890623,7.024908447265625
6.896000000000043,7.484432983398438,1.3645172119140625,6.815109252929688
6.90600000000002,7.556958007812501,0.245538330078125,6.139056396484375
6.915999999999997,7.084423828125001,-0.7034179687500001,5.999838256835938
6.926000000000059,6.404632568359376,-0.8897399902343751,7.655502319335938
6.936000000000036,5.9563232421875005,-1.1369232177734376,8.001828002929688
6.946000000000041,6.992160034179688,-1.1511291503906251,7.403085327148438
6.956000000000046,7.256390380859376,-1.1126983642578123,6.012249755859376
6.966000000000022,7.662231445312501,-0.332269287109375,5.450442504882813
6.975999999999999,7.242633056640625,0.6655853271484375,6.630133056640625
6.986000000000061,6.806735229492188,0.9006561279296875,7.112387084960938
6.996000000000038,6.848605346679688,0.9048431396484377,7.2770263671875
7.006000000000043,6.137411499023438,0.5363861083984376,7.091452026367188
7.016000000000034,6.145336914062501,0.6625946044921875,7.540658569335938
7.026000000000025,6.275283813476563,0.602032470703125,8.255291748046876
7.036000000000001,6.558505249023438,0.2450897216796875,7.406375122070313
7.046000000000063,7.242333984375,-0.040673828125,6.459362792968751
7.05600000000004,6.702059936523438,-0.4317108154296875,5.957369995117188
7.0670000000000215,7.688250732421875,-0.54371337890625,6.437680053710938
7.076000000000036,7.64488525390625,-0.8948242187500001,6.851895141601563
7.086000000000041,7.469329833984376,-1.2075042724609375,5.610147094726563
7.096000000000018,7.148574829101563,-1.1635406494140623,5.851348876953125
7.10600000000008,6.755294799804688,-0.98275146484375,6.395062255859376
7.1160000000000565,7.082778930664063,0.0354400634765625,8.176934814453126
7.126000000000047,5.679531860351563,0.8245422363281251,8.267852783203125
7.136000000000038,6.070568847656251,1.544558715820313,7.379010009765626
7.146000000000043,6.479550170898438,1.8869964599609377,7.3248779296875
7.15600000000002,6.836492919921875,1.4510986328125002,6.575253295898438
7.165999999999997,7.6819702148437505,0.8822631835937501,6.477307128906251
7.176000000000059,7.372131347656251,-0.754559326171875,5.504873657226563
7.186000000000036,7.219454956054688,-2.149282836914063,5.831011962890625
7.196000000000041,7.061843872070313,-2.7406982421875004,7.339083862304688
7.206000000000046,6.779220581054688,-1.9675964355468751,8.251553344726563
7.216000000000022,5.985781860351563,-0.3727935791015625,7.81954345703125
7.225999999999999,6.149673461914063,0.75904541015625,6.736154174804688
7.236000000000061,7.518826293945313,2.135076904296876,6.582730102539063
7.246000000000038,7.248016357421876,2.9273193359375003,6.6576477050781255
7.256000000000043,7.016085815429688,2.6110504150390628,6.64658203125
7.266000000000034,7.050479125976563,1.0388275146484376,6.594393920898438
7.276000000000025,6.535626220703126,-0.799420166015625,7.115975952148438
7.286000000000001,6.335546875,-1.6632904052734376,7.8001037597656255
7.296000000000063,6.056362915039063,-2.3628204345703128,7.638305664062501
7.305000000000021,7.105657958984375,-2.3354553222656254,6.989468383789063
7.316000000000045,7.656997680664063,-1.3851531982421876,5.914154052734375
7.326000000000036,7.278671264648438,0.3620269775390625,6.109298706054688
7.336000000000041,7.07425537109375,1.9424743652343752,6.317901611328126
7.3450000000000415,6.801651000976563,2.2393035888671875,7.110891723632813
7.355000000000047,6.941915893554688,1.7966766357421875,7.157098388671876
7.365000000000023,5.946005249023438,1.0101165771484375,7.638455200195313
7.375,5.832955932617188,0.140264892578125,7.898049926757813
7.385000000000062,6.4303527832031255,-0.7732513427734375,7.930499267578125
7.395000000000039,6.669311523437501,-1.7645263671875002,6.768902587890626
7.405000000000044,8.326321411132813,-1.9185485839843752,5.495901489257813
7.415000000000035,7.84346923828125,-1.445416259765625,5.540762329101563
7.425000000000026,7.4660400390625,-0.499151611328125,5.4628540039062505
7.435000000000016,7.049282836914063,0.45518798828125,7.294970703125
7.445000000000064,6.513494873046875,0.63343505859375,6.708938598632813
7.455000000000041,6.833801269531251,0.9857421875,7.6813720703125
7.465000000000046,5.671157836914063,0.8810668945312501,7.376467895507813
7.475000000000037,6.452633666992188,0.8626739501953126,8.060147094726563
7.485000000000042,6.445755004882813,0.7585968017578125,8.080484008789064
7.495000000000019,6.549383544921875,0.09989013671875,6.504522705078125
7.5049999999999955,7.343270874023438,-0.2074066162109375,6.200814819335938
7.515000000000057,7.175640869140626,-0.8109344482421875,5.7003173828125
7.525000000000034,7.841674804687501,-0.9555358886718752,6.0831298828125
7.535000000000039,7.023263549804688,-1.3041046142578123,6.581982421875001
7.545000000000044,7.285848999023438,-1.4449676513671876,6.217114257812501
7.555000000000021,7.4322448730468755,-0.5298065185546875,7.82791748046875
7.564999999999998,5.679232788085938,0.4607208251953125,7.340728759765626
7.57500000000006,5.737103271484376,1.643701171875,8.332003784179689
7.585000000000036,6.471624755859375,1.8533508300781247,7.411907958984376
7.5950000000000415,7.069320678710938,1.5762603759765623,6.749612426757813
7.605000000000047,8.058801269531251,0.8583374023437501,5.894415283203125
7.615000000000023,7.040908813476563,-0.069085693359375,5.948995971679688
7.625,6.644937133789063,-0.48270263671875,7.264315795898438
7.635000000000062,6.1190185546875,-1.2206634521484376,7.868890380859375
7.645000000000039,6.902587890625001,-1.5841857910156252,7.372131347656251
7.655000000000044,6.979748535156251,-1.4367431640625,6.655404663085938
7.665000000000035,7.075003051757813,-0.719268798828125,6.0490356445312505
7.675000000000026,7.351644897460938,0.4595245361328125,6.4611572265625
7.685000000000016,7.088162231445313,0.692352294921875,6.705050659179688
7.695000000000064,7.341775512695313,0.8716461181640626,6.447100830078125
7.705000000000041,6.5978332519531255,0.8540008544921875,7.05272216796875
7.715000000000046,5.715719604492188,0.8927307128906251,7.502825927734375
7.725000000000037,6.258087158203126,0.8077941894531251,8.630926513671875
7.735000000000042,6.1716552734375005,0.1933502197265625,7.783804321289063
7.745000000000019,7.027151489257813,-0.0315521240234375,6.629833984375001
7.7549999999999955,6.788192749023438,-0.363372802734375,6.1070556640625
7.765000000000057,7.626791381835938,-0.63822021484375,6.145785522460938
7.775000000000034,8.289984130859375,-0.8478698730468751,6.4916625976562505
7.785000000000039,7.155752563476563,-1.1985321044921875,5.787646484375
7.795000000000044,7.025057983398438,-1.0143035888671876,5.644540405273438
7.805000000000021,6.624749755859376,-0.8411407470703126,7.117321777343751
7.814000000000036,7.271792602539063,-0.2998199462890625,7.5737060546875
7.82500000000006,6.166421508789063,0.5576202392578126,8.203701782226563
7.835000000000036,5.809927368164063,1.2795806884765626,7.008160400390626
7.844000000000065,6.254049682617188,2.093356323242188,7.920779418945313
7.854000000000056,6.576748657226563,1.68497314453125,7.184463500976563
7.864000000000047,7.739392089843751,0.8821136474609376,6.286349487304688
7.874000000000038,7.683615112304688,-0.5782562255859376,5.17813720703125
7.884000000000043,7.21422119140625,-2.033990478515625,5.2520080566406255
7.89400000000002,6.936831665039063,-2.5971435546875004,7.537667846679688
7.903999999999996,6.995748901367188,-2.1271514892578125,8.652011108398439
7.914000000000058,5.823834228515626,-0.606817626953125,7.923770141601563
7.924000000000035,5.77568359375,0.7433441162109375,6.583627319335938
7.93400000000004,7.446450805664063,2.0001953125000003,6.664227294921876
7.944000000000045,7.740139770507813,2.89501953125,6.79552001953125
7.954000000000022,7.344915771484375,2.50203857421875,6.2912841796875005
7.963999999999999,6.5499816894531255,1.20406494140625,6.250759887695313
7.974000000000061,6.690246582031251,-0.7002777099609375,7.088012695312501
7.984000000000037,6.410165405273438,-1.7186187744140626,8.415444946289064
7.994000000000042,6.190347290039063,-2.339044189453125,7.789935302734375
8.004000000000048,6.639553833007813,-2.334259033203125,6.761575317382813
8.014000000000024,7.587911987304688,-1.3809661865234375,5.613287353515625
8.024000000000001,7.669558715820313,0.26617431640625,6.271096801757813
8.034000000000063,7.264016723632813,1.892529296875,6.559552001953126
8.04400000000004,6.737948608398438,2.369699096679688,6.820791625976563
8.054000000000045,6.5329345703125,1.8796691894531248,7.0832275390625
8.064000000000036,6.193038940429688,0.9953125,7.604510498046875
8.07400000000004,5.938229370117188,0.017047119140625,8.405276489257814
8.084000000000017,6.400894165039063,-0.8517578125,7.763168334960938
8.094000000000065,6.428109741210938,-1.6644866943359375,6.719256591796875
8.104000000000056,7.910012817382813,-1.873239135742188,5.470928955078126
8.115000000000023,8.581130981445312,-1.326385498046875,5.707345581054688
8.124000000000038,7.454824829101563,-0.54132080078125,5.448797607421875
8.134000000000043,7.225286865234375,0.523077392578125,6.701013183593751
8.14400000000002,5.993856811523438,0.8112335205078126,6.952084350585938
8.153999999999996,6.842175292968751,0.9766204833984377,7.861563110351563
8.164000000000058,5.936883544921876,0.88046875,7.976257324218751
8.174000000000035,6.218460083007813,0.5782562255859376,7.523162841796876
8.18400000000004,6.591104125976563,0.631939697265625,7.77049560546875
8.194000000000045,6.430203247070313,0.06639404296875,6.733612060546876
8.204000000000022,7.373776245117188,-0.1783966064453125,6.408071899414063
8.215000000000046,7.684063720703126,-0.6942962646484375,5.804244995117188
8.22400000000006,7.233959960937501,-0.98873291015625,5.510406494140625
8.234000000000037,7.0712646484375,-0.9395355224609376,6.73570556640625
8.244000000000042,6.728677368164063,-1.1426055908203123,6.814810180664063
8.254000000000048,7.898049926757813,-0.514105224609375,7.931845092773438
8.264000000000024,6.139355468750001,0.23746337890625,7.101022338867188
8.274000000000001,5.80858154296875,1.221560668945313,7.107302856445313
8.283000000000044,6.29068603515625,1.798770141601563,7.846609497070313
8.29400000000004,6.960159301757813,1.43734130859375,7.198071289062501
8.302999999999997,7.819094848632813,0.7122406005859375,6.22489013671875
8.314000000000036,7.368542480468751,-0.3587371826171875,5.664877319335938
8.32400000000004,6.626992797851563,-0.608013916015625,6.723593139648438
8.333000000000041,6.020773315429688,-0.6065185546875,8.547784423828126
8.343000000000046,6.420034790039063,-0.9942657470703126,7.694381713867188
8.353000000000023,7.557705688476563,-1.1460449218750002,6.403585815429688
8.363,7.198370361328125,-0.99351806640625,5.0136474609375
8.373000000000062,7.5025268554687505,0.246136474609375,6.483737182617188
8.383000000000038,6.779370117187501,0.8097381591796876,7.593145751953125
8.393000000000043,6.789688110351563,0.654669189453125,7.176986694335938
8.403000000000034,6.796865844726563,0.4729827880859375,6.6995178222656255
8.414000000000058,5.97247314453125,0.3159698486328125,6.721200561523438
8.423000000000016,6.459661865234375,0.7405029296875001,8.214468383789063
8.433000000000064,6.366500854492188,0.5643493652343751,8.369387817382814
8.44300000000004,6.745724487304688,0.1710693359375,6.603665161132813
8.453000000000046,7.142593383789063,-0.0562255859375,5.8072357177734375
8.463000000000036,7.258782958984375,-0.452496337890625,5.870938110351563
8.473000000000042,7.967733764648438,-0.5269653320312501,6.987225341796876
8.483000000000018,7.289886474609376,-0.9666015625,6.709835815429688
8.49300000000008,6.558056640625001,-1.0108642578125,5.937481689453126
8.503000000000057,6.667666625976563,-0.8928802490234375,6.453530883789063
8.515000000000057,6.967037963867188,-0.475225830078125,7.427758789062499
8.523000000000039,7.147229003906251,0.3608306884765625,8.034725952148438
8.533000000000044,5.907723999023438,0.9244323730468752,6.980047607421875
8.54300000000002,6.531588745117188,1.5977935791015627,6.861166381835938
8.552999999999997,6.461755371093751,1.52347412109375,7.188800048828125
8.56300000000006,7.261026000976563,0.83680419921875,6.801052856445313
8.573000000000036,7.7328125,-0.156414794921875,6.236703491210938
8.583000000000041,6.728228759765625,-1.5678863525390627,5.454031372070313
8.593000000000046,6.711331176757813,-2.1893585205078128,6.927261352539063
8.603000000000023,7.633370971679688,-1.816265869140625,8.516531372070313
8.614000000000047,6.5245605468750005,-0.6159393310546876,7.533032226562501
8.623000000000062,5.757290649414063,0.6029296875000001,6.554318237304688
8.633000000000038,6.864157104492188,1.3882934570312502,6.180178833007813
8.643000000000043,7.592846679687501,2.338446044921876,7.366598510742188
8.653000000000034,7.151266479492188,2.148236083984376,7.164724731445313
8.663000000000025,6.661834716796876,1.1855224609375,6.381903076171875
8.673000000000016,6.498840332031251,-0.2548095703125,6.6549560546875
8.683000000000064,6.757986450195313,-1.2432434082031252,7.4905639648437505
8.69300000000004,6.653759765625001,-1.7332733154296875,7.782608032226563
8.703000000000046,6.784005737304688,-2.0970947265625,6.9037841796875
8.715000000000046,7.178482055664063,-1.4860900878906251,5.845367431640625
8.723000000000042,7.313214111328126,-0.0817962646484375,6.594244384765625
8.733000000000018,6.908270263671875,1.42298583984375,6.8191467285156255
8.74300000000008,6.917691040039063,2.0541778564453126,7.129882812500001
8.753000000000057,6.6112915039062505,1.7123382568359375,6.746621704101563
8.763000000000034,6.5807861328125,1.167877197265625,7.040310668945313
8.773000000000039,5.983538818359375,0.4269256591796875,8.099475097656251
8.783000000000044,6.235357666015625,-0.4717864990234375,7.920779418945313
8.79300000000002,6.941018676757813,-1.32489013671875,7.030441284179688
8.802000000000035,6.966140747070313,-1.897164916992188,5.681774902343751
8.81300000000006,8.529541015625,-1.5382781982421876,5.369692993164063
8.823000000000036,7.583575439453125,-0.9236846923828126,6.26077880859375
8.833000000000041,7.475311279296876,-0.0542816162109375,5.940771484375
8.842000000000056,6.457568359375,0.672314453125,7.300503540039063
8.853000000000023,6.349603271484376,0.7614379882812501,6.742584228515626
8.862000000000037,6.421380615234376,1.1620452880859375,8.593841552734375
8.872000000000043,5.875723266601563,1.0036865234375,7.869039916992188
8.88200000000002,6.484634399414063,0.8737396240234375,7.6580444335937505
8.891999999999996,6.820941162109375,0.3721954345703125,6.814361572265626
8.902000000000058,7.042254638671875,-0.2767913818359375,5.878863525390625
8.912000000000035,7.569818115234375,-0.4810577392578125,6.557159423828126
8.92200000000004,6.859371948242188,-1.1122497558593751,5.70390625
8.932000000000045,7.842721557617188,-1.3882934570312502,6.291732788085938
8.942000000000021,6.969131469726563,-1.7066558837890626,6.449642944335938
8.951999999999998,7.781411743164063,-0.9797607421875,7.206744384765625
8.96200000000006,6.229824829101563,0.6950439453125,8.134616088867189
8.972000000000037,4.9444122314453125,1.5782043457031252,7.445254516601563
8.982000000000042,6.398651123046876,2.073019409179688,7.663577270507813
8.992000000000047,7.073806762695313,1.5466522216796876,7.299307250976563
9.002000000000024,7.9924072265625,0.9927703857421876,6.040960693359375
9.012,7.261624145507813,0.2346221923828125,6.270349121093751
9.022000000000062,6.373828125,-0.7303344726562501,6.160440063476563
9.03200000000004,6.854586791992188,-1.1330352783203126,7.852590942382813
9.042000000000044,6.467886352539063,-1.7666198730468752,7.423422241210938
9.052000000000035,7.282260131835938,-1.4829498291015626,6.9970947265625005
9.06200000000004,6.7602294921875,-0.791943359375,6.209786987304688
9.072000000000015,6.850698852539063,0.4173553466796875,6.574057006835938
9.082000000000065,7.463348388671876,1.2592437744140623,6.89481201171875
9.092000000000056,6.971224975585938,1.0854827880859377,6.770397949218751
9.102000000000046,7.096984863281251,1.0525848388671877,6.324630737304688
9.112000000000036,6.051727294921875,0.7482788085937501,7.346560668945313
9.122000000000044,6.242535400390626,0.48868408203125,7.952481079101563
9.13200000000002,6.441119384765625,-0.07357177734375,8.165420532226562
9.141999999999996,6.375921630859375,-0.6232666015625,7.106704711914063
9.152000000000058,6.875671386718751,-0.352606201171875,6.56224365234375
9.162000000000036,6.37442626953125,-0.2059112548828125,6.8864379882812505
9.17200000000004,7.743728637695313,-0.140264892578125,6.4841857910156255
9.182000000000045,8.58875732421875,-0.5947052001953126,5.937033081054688
9.19200000000002,8.070315551757814,-1.0364349365234375,4.080093383789063
9.201999999999998,6.910064697265626,-0.8454772949218751,5.9881744384765625
9.21200000000006,6.084475708007813,-0.6702209472656251,7.819692993164063
9.222000000000037,6.635366821289063,-0.085235595703125,9.146228027343753
9.232000000000042,5.491714477539063,0.169873046875,8.027847290039062
9.242000000000049,6.3415283203125,0.8377014160156251,6.513644409179688
9.252000000000024,6.815707397460938,1.789797973632813,7.298110961914063
9.262,6.804342651367188,2.0003448486328126,7.457516479492188
9.272000000000062,7.192089843750001,1.4443695068359377,6.513195800781251
9.28200000000004,7.533032226562501,-0.2962310791015625,5.106060791015626
9.292000000000044,8.251254272460939,-2.0009429931640628,4.6419006347656255
9.30100000000006,7.119863891601563,-2.9394317626953126,6.9432617187500005
9.31200000000004,5.91385498046875,-2.709445190429688,8.294619750976564
9.322000000000015,6.144589233398438,-1.239056396484375,9.329409790039064
9.332000000000065,5.751010131835938,0.2678192138671875,7.328167724609376
9.341000000000022,7.217660522460938,2.072869873046875,6.2284790039062505
9.351,7.627239990234376,3.327178955078125,6.345565795898438
9.36100000000006,7.540957641601563,3.514547729492188,5.785104370117188
9.372000000000044,7.01683349609375,2.130291748046876,6.711331176757813
9.381000000000045,6.663778686523438,-0.3997100830078125,6.862213134765626
9.391000000000034,6.402389526367188,-2.0362335205078126,8.111288452148438
9.401000000000025,5.572763061523438,-2.7656707763671875,8.599075317382812
9.411,6.28470458984375,-2.762530517578125,6.96060791015625
9.421000000000063,7.80638427734375,-2.218368530273437,6.244628906250001
9.43100000000004,8.230020141601564,-0.6945953369140625,4.846914672851563
9.441000000000043,7.890423583984376,1.6625427246093751,6.084625244140625
9.451000000000036,6.299658203125,3.02960205078125,6.9791503906250005
9.46100000000004,6.451736450195313,2.9573760986328126,7.521667480468751
9.471000000000018,6.047091674804688,1.830322265625,8.425912475585939
9.48100000000008,5.624502563476563,0.5650970458984376,7.667614746093751
9.491000000000057,6.26077880859375,-0.5001983642578125,8.20953369140625
9.501000000000047,6.423922729492188,-1.7163757324218751,7.194332885742188
9.511000000000038,7.389328002929688,-2.230032348632813,6.094494628906251
9.521000000000043,8.2244873046875,-2.0229248046875004,5.5465942382812505
9.53100000000002,8.105606079101562,-1.2912445068359375,4.730276489257813
9.540999999999997,8.306134033203126,-0.33555908203125,5.536874389648438
9.55100000000006,6.828118896484376,0.271258544921875,6.348556518554688
9.561000000000035,6.87626953125,0.9214416503906252,7.21781005859375
9.57100000000004,5.314813232421876,1.307843017578125,8.861212158203125
9.581000000000046,5.343374633789063,1.24593505859375,8.271142578125001
9.591000000000022,6.142196655273438,1.1968872070312502,9.033926391601565
9.601,6.6382080078125005,0.6679779052734376,6.77518310546875
9.61100000000006,7.3843933105468755,0.35589599609375,6.115728759765625
9.621000000000038,7.403533935546876,-0.38699951171875,5.42816162109375
9.631000000000045,8.1120361328125,-1.00428466796875,5.712728881835938
9.641000000000034,7.146780395507813,-1.3147216796875,6.605609130859375
9.651000000000025,6.666171264648438,-1.7307312011718752,5.762673950195313
9.661,7.0951904296875,-1.6049713134765626,7.35777587890625
9.671000000000063,7.114031982421875,-1.19150390625,7.3335510253906255
9.68100000000004,6.905728149414063,0.5703308105468751,8.226431274414063
9.691000000000043,5.396011352539063,2.1504791259765628,7.4803955078125
9.701000000000036,5.896060180664063,2.5377777099609378,6.818099975585938
9.71100000000004,7.534378051757813,2.1983306884765628,7.133172607421876
9.721000000000018,7.717410278320313,0.8707489013671875,6.040960693359375
9.73100000000008,7.485031127929688,-0.0309539794921875,6.584225463867188
9.741000000000057,6.05322265625,-1.052734375,6.910513305664063
9.751000000000047,6.196328735351563,-1.550540161132813,7.713372802734375
9.761000000000038,6.6157775878906255,-1.76392822265625,8.062539672851564
9.771000000000043,7.330261230468751,-1.63233642578125,6.267657470703125
9.780000000000044,7.363308715820313,-0.6332855224609375,5.76312255859375
9.790999999999997,7.329214477539063,0.424981689453125,5.9652954101562505
9.800000000000026,7.337738037109376,1.15142822265625,6.629833984375001
9.811000000000035,7.195678710937501,1.2505706787109376,7.444357299804688
9.820000000000064,5.832357788085938,0.9797607421875,6.824230957031251
9.831000000000046,6.164627075195313,0.7689147949218751,7.831057739257813
9.840000000000046,6.115429687500001,0.474627685546875,8.161831665039063
9.850000000000035,6.535028076171876,0.0782073974609375,7.733709716796875
9.860000000000042,6.992160034179688,-0.2301361083984375,6.824978637695313
9.871000000000038,6.554916381835938,-0.2763427734375,6.109149169921875
9.879999999999995,7.095339965820313,-0.1072174072265625,6.576449584960938
9.890000000000056,7.476507568359375,-0.3964202880859375,7.120462036132813
9.900000000000034,8.147625732421876,-0.9691436767578124,5.374777221679688
9.91000000000004,8.154953002929688,-1.206158447265625,5.238699340820313
9.920000000000044,6.349154663085938,-1.2541595458984376,5.496798706054688
9.93000000000002,6.90677490234375,-0.59754638671875,7.92900390625
9.939999999999998,6.169262695312501,0.0357391357421875,9.149966430664064
9.95000000000006,5.930303955078125,0.596649169921875,7.181472778320313
9.960000000000036,6.301153564453125,1.3897888183593752,7.223342895507813
9.97000000000004,6.666619873046876,1.8114807128906247,6.826324462890626
9.980000000000048,7.237997436523438,2.0822906494140625,7.730569458007813
9.990000000000023,6.478652954101563,1.1512786865234377,6.716714477539063
10.0,7.486825561523438,-0.32957763671875,5.2853546142578125
10.010000000000062,7.837338256835938,-1.9640075683593752,5.619866943359376
10.02000000000004,7.349252319335938,-3.064593505859375,6.201412963867188
10.030000000000044,6.655255126953126,-2.648733520507813,7.950686645507813
10.040000000000036,6.261526489257813,-1.6988800048828123,7.981491088867188
10.050000000000026,6.087765502929688,0.2124908447265625,7.491461181640625
10.060000000000016,6.773089599609375,1.971334838867188,7.105957031250001
10.070000000000064,7.093545532226563,3.299514770507813,6.744976806640626
10.08000000000004,7.218856811523438,3.671261596679688,6.55087890625
10.090000000000046,7.026852416992188,2.1572082519531253,6.184664916992188
10.100000000000035,7.248165893554688,0.185125732421875,6.676937866210938
10.110000000000042,6.4755126953125,-1.783367919921875,7.557855224609375
10.12000000000002,6.0524749755859375,-2.7083984375,8.052371215820314
10.129999999999995,6.170458984375,-2.98055419921875,7.351046752929688
10.140000000000056,7.1496215820312505,-2.535833740234376,6.653909301757813
10.150000000000034,8.071511840820314,-0.7929901123046875,5.612390136718751
10.16000000000004,7.3918701171875005,1.2173736572265623,6.058605957031251
10.170000000000044,7.063339233398438,2.866607666015625,6.2434326171875005
10.18000000000002,6.730172729492188,3.0067230224609376,7.308129882812499
10.189999999999998,6.4252685546875,2.0852813720703125,7.510601806640626
10.20000000000006,5.934042358398438,0.9215911865234376,8.028594970703125
10.210000000000036,5.666970825195313,-0.6821838378906251,7.925415039062501
10.22000000000004,6.883297729492188,-1.855593872070313,7.503573608398438
10.230000000000048,7.096087646484375,-2.5280578613281253,6.678134155273438
10.240000000000023,7.468731689453126,-2.2393035888671875,5.378515625
10.25,8.249011230468751,-1.086529541015625,5.763421630859376
10.260000000000062,7.554415893554688,-0.1757049560546875,5.363412475585938
10.27000000000004,7.772738647460938,0.893927001953125,6.428707885742188
10.280000000000044,6.302947998046876,1.32967529296875,6.832904052734375
10.290000000000036,6.032437133789063,1.5957000732421875,8.014837646484375
10.300000000000026,5.328869628906251,1.468743896484375,9.006860351562501
10.310000000000016,6.0460449218750005,0.7116424560546876,8.379257202148438
10.320000000000064,6.7662109375,0.2702117919921875,7.5129943847656255
10.33000000000004,6.786697387695313,-0.4924224853515625,5.784954833984376
10.339,7.721148681640625,-0.749176025390625,5.717364501953125
10.34900000000006,8.098577880859375,-1.1174835205078126,6.0106048583984375
10.359000000000036,7.337289428710938,-1.2499725341796877,5.7948242187500005
10.37000000000002,7.044647216796876,-0.9876861572265626,6.201861572265625
10.379000000000048,6.333303833007813,-1.0229766845703123,6.604562377929688
10.389000000000024,7.251605224609375,-0.3156707763671875,8.152410888671875
10.399,6.680676269531251,0.5944061279296875,8.299554443359376
10.409000000000065,5.6696624755859375,1.7033660888671875,7.396057128906251
10.41900000000004,5.932247924804688,2.075411987304688,6.861764526367188
10.429000000000045,7.414749145507813,1.58927001953125,6.848754882812501
10.439000000000036,7.881900024414063,0.678594970703125,6.500485229492188
10.44900000000004,7.6119873046875,-0.50662841796875,6.018829345703125
10.459000000000016,6.184963989257813,-1.0095184326171875,6.588562011718751
10.469000000000063,5.973370361328126,-1.224551391601563,8.00257568359375
10.479000000000056,6.738845825195313,-1.206607055664063,8.259478759765626
10.489000000000049,7.018927001953125,-0.8062988281250001,6.939224243164063
10.499000000000038,7.11612548828125,-0.3446807861328125,5.238848876953125
10.509000000000045,7.774832153320313,0.5164978027343751,5.745477294921876
10.51900000000002,7.465292358398438,0.7191192626953126,6.672003173828125
10.528999999999996,7.089956665039063,0.6608001708984376,7.241287231445313
10.539000000000058,6.191543579101563,0.4245330810546875,7.009207153320313
10.549000000000037,5.7134765625,0.03828125,7.322634887695313
10.55900000000004,6.543402099609375,0.160302734375,8.237347412109376
10.569000000000043,6.399249267578125,0.2373138427734375,8.055062866210939
10.579000000000022,6.882400512695313,0.354998779296875,6.69742431640625
10.589,6.910812377929688,0.34991455078125,5.913555908203126
10.59900000000006,7.178631591796876,0.169873046875,6.201412963867188
10.609000000000036,7.724438476562501,-0.06400146484375,7.027450561523438
10.619000000000042,7.184762573242188,-0.715679931640625,6.482540893554688
10.629000000000048,7.286447143554688,-1.1207733154296875,5.837591552734375
10.639000000000024,6.638656616210938,-1.492669677734375,6.154309082031251
10.649,7.004421997070313,-1.0705291748046877,7.2991577148437505
10.659000000000065,6.765911865234376,-0.0650482177734375,8.381500244140625
10.66900000000004,5.8356475830078125,0.6404632568359375,7.055413818359376
10.679000000000045,6.838287353515626,1.5388763427734375,6.967037963867188
10.689000000000036,6.652264404296876,1.669720458984375,6.75963134765625
10.69900000000004,7.2172119140625,1.59884033203125,7.093246459960938
10.709000000000016,6.910961914062501,0.8243927001953125,6.615478515625001
10.719000000000063,7.216763305664063,-0.8750854492187501,5.662484741210938
10.729000000000056,7.022964477539063,-2.1794891357421875,6.429605102539063
10.739000000000049,7.001132202148438,-2.678640747070313,7.514041137695313
10.749000000000038,6.912606811523438,-1.43973388671875,8.297909545898438
10.759000000000045,5.785552978515625,-0.18721923828125,7.195678710937501
10.76900000000002,6.764865112304688,0.8584869384765625,6.151916503906251
10.778999999999996,7.661334228515625,2.099786376953125,6.740490722656251
10.789000000000058,7.131976318359375,2.6941925048828126,6.735855102539063
10.799000000000037,6.728976440429688,2.3762786865234378,7.064984130859376
10.80900000000004,6.560748291015625,0.569134521484375,6.640750122070313
10.819000000000043,6.885092163085938,-0.9260772705078124,7.33145751953125
10.829000000000022,6.321340942382813,-1.7941345214843751,7.667166137695313
10.839,6.444708251953125,-2.20775146484375,7.2830078125
10.84900000000006,7.149322509765626,-2.010662841796876,6.610693359375
10.859000000000036,7.488619995117188,-1.1784942626953123,5.877667236328126
10.869000000000042,7.5503784179687505,0.6287994384765625,6.386837768554688
10.879000000000048,6.72135009765625,1.99600830078125,6.732116699218751
10.888000000000034,6.542205810546876,2.325735473632813,7.139303588867188
10.89800000000004,6.835894775390625,1.7944335937500002,7.443310546875001
10.908000000000044,5.917593383789063,0.82962646484375,7.471572875976563
10.91800000000002,6.424520874023438,-0.094207763671875,7.67479248046875
10.927999999999995,6.516186523437501,-1.1520263671875002,7.433291625976563
10.93800000000006,6.882101440429688,-2.0013916015625,6.344818115234376
10.948000000000036,8.242282104492189,-2.0857299804687504,5.856881713867188
10.95800000000004,7.600473022460938,-1.4845947265625,5.594296264648438
10.968000000000046,7.623800659179688,-0.362176513671875,5.8012542724609375
10.978000000000025,6.72374267578125,0.5692840576171876,7.143341064453126
10.988,6.73331298828125,1.0669403076171875,6.739593505859376
10.998000000000062,6.198571777343751,1.5580169677734377,8.384042358398439
11.008000000000038,5.6108947753906255,1.428070068359375,7.467086791992188
11.018000000000043,6.624749755859376,1.1372222900390625,8.289385986328126
11.028000000000034,6.658096313476563,0.3186614990234375,7.180575561523438
11.038000000000023,6.991412353515625,-0.33974609375,6.232666015625001
11.048000000000016,7.024758911132813,-0.7612884521484375,6.405679321289063
11.058000000000064,7.46304931640625,-1.3079925537109376,5.788693237304688
11.06800000000004,7.79801025390625,-1.2969268798828126,6.58616943359375
11.078000000000046,6.920083618164063,-1.4032470703125002,5.688204956054688
11.088000000000036,6.90916748046875,-0.8145233154296876,6.712677001953126
11.098000000000042,7.061843872070313,-0.0195892333984375,7.734756469726563
11.108000000000018,6.647778320312501,0.8040557861328126,7.988220214843751
11.11800000000008,6.061596679687501,1.7002258300781252,7.567425537109376
11.128000000000055,5.8055908203125,1.84766845703125,6.911709594726563
11.138000000000034,7.10655517578125,1.6520751953125,7.246670532226563
11.14800000000004,7.667315673828125,0.5299560546875001,6.532785034179688
11.158000000000044,7.583724975585938,-0.4797119140625,6.196179199218751
11.16800000000002,6.366500854492188,-0.99591064453125,6.426614379882813
11.177999999999995,6.172851562500001,-1.1755035400390623,7.538116455078126
11.18800000000006,6.866699218750001,-0.9932189941406252,8.247067260742188
11.198000000000036,6.865802001953125,-0.9031982421875,6.894064331054688
11.20800000000004,7.258633422851563,-0.2986236572265625,5.596240234375
11.218000000000046,7.397402954101563,0.304156494140625,5.690896606445313
11.228000000000025,7.526602172851563,0.4080841064453125,6.561196899414063
11.238,7.363607788085938,0.5206848144531251,7.272988891601563
11.248000000000062,6.070120239257813,0.357989501953125,6.929653930664063
11.258000000000038,5.986380004882813,0.2854644775390625,7.273886108398438
11.268000000000043,6.380258178710938,0.3252410888671875,8.058352661132814
11.278000000000034,6.555514526367188,0.40673828125,7.900741577148438
11.288000000000023,6.805987548828125,0.5236755371093751,7.079788208007813
11.298000000000016,6.563290405273438,0.3732421875,6.047091674804688
11.308000000000064,7.449591064453125,0.1466949462890625,6.403884887695313
11.31800000000004,7.387084960937501,-0.307745361328125,6.956570434570313
11.328000000000046,7.269400024414063,-0.8255889892578125,6.384594726562501
11.33700000000006,7.038665771484376,-1.1065673828125,6.245675659179688
11.348000000000042,6.714172363281251,-1.4685943603515623,5.953182983398438
11.357000000000042,7.713073730468751,-0.9685455322265626,7.219454956054688
11.36800000000008,6.623104858398438,-0.2525665283203125,7.489666748046876
11.377000000000024,6.207394409179688,0.7527648925781251,7.077694702148438
11.388000000000034,6.0599517822265625,1.624859619140625,7.688699340820313
11.397000000000062,6.643740844726563,1.654168701171875,7.034030151367188
11.40700000000004,7.274932861328126,1.5085205078125,7.387533569335938
11.417000000000044,7.062142944335938,0.418402099609375,5.610446166992188
11.427000000000035,7.190145874023438,-0.7194183349609375,5.9862304687500005
11.43700000000004,6.523065185546876,-1.907931518554688,6.960458374023438
11.447000000000015,7.621258544921876,-2.1963867187500004,7.7806640625
11.459000000000016,6.76322021484375,-1.1614471435546876,8.029043579101563
11.467000000000056,5.783908081054688,-0.3327178955078125,5.855685424804688
11.477000000000046,6.928607177734375,0.796429443359375,6.653311157226563
11.487000000000036,7.71068115234375,1.6151397705078123,7.110293579101563
11.497000000000044,7.094442749023438,2.1558624267578126,7.107452392578126
11.50700000000002,6.273190307617188,1.7766387939453123,6.794622802734375
11.516999999999996,6.433193969726563,0.5522369384765625,6.559552001953126
11.527000000000058,7.022964477539063,-0.45458984375,7.8599182128906255
11.537000000000036,6.7787719726562505,-1.3728912353515623,7.36495361328125
11.54700000000004,6.605010986328126,-1.6594024658203126,6.766510009765626
11.557000000000045,6.829763793945313,-1.6296447753906251,6.181225585937501
11.56700000000002,7.30513916015625,-0.7080535888671875,6.700564575195313
11.576999999999998,7.360617065429688,0.612799072265625,7.198818969726563
11.58700000000006,6.621609497070313,1.272402954101563,6.494204711914063
11.597000000000037,7.111041259765625,1.4741271972656251,6.262573242187501
11.607000000000042,6.878662109375001,0.9990509033203124,6.764865112304688
11.617000000000049,6.522915649414063,0.444122314453125,7.460806274414063
11.627000000000024,6.44859619140625,-0.221014404296875,7.901489257812501
11.637,6.351248168945313,-1.1331848144531251,7.005319213867188
11.647000000000062,7.077993774414063,-1.43375244140625,6.5559631347656255
11.65700000000004,7.081732177734375,-1.1629425048828126,6.522317504882813
11.667000000000044,7.409814453125,-0.288604736328125,6.677236938476563
11.677000000000035,7.074105834960938,0.4137664794921875,6.591104125976563
11.68700000000004,7.04075927734375,0.7787841796875,6.164926147460938
11.697000000000015,7.048236083984375,0.9852935791015626,6.846810913085938
11.707000000000065,6.3750244140625005,0.7674194335937501,7.245025634765626
11.717000000000056,6.399398803710938,0.6087615966796875,8.109494018554688
11.727000000000046,6.157598876953125,-0.0725250244140625,7.501480102539063
11.737000000000036,6.968832397460938,-0.653472900390625,6.685910034179688
11.747000000000044,7.261923217773438,-0.7388580322265625,6.495849609375001
11.75700000000002,6.971075439453125,-0.7902984619140626,6.138906860351563
11.766999999999996,7.558004760742188,-0.2612396240234375,6.791781616210938
11.777000000000058,6.530841064453125,-0.1208251953125,6.421829223632813
11.787000000000036,6.730172729492188,0.055029296875,6.379510498046876
11.79700000000004,6.734509277343751,0.029010009765625,7.276129150390625
11.807000000000045,7.575350952148438,0.0447113037109375,7.317401123046875
11.81700000000002,7.431048583984375,0.6552673339843751,7.696176147460938
11.826999999999998,5.484536743164063,0.5860321044921876,6.144140625
11.83700000000006,6.460409545898438,0.5834899902343751,6.977655029296876
11.847000000000037,7.019525146484376,0.24224853515625,7.793673706054688
11.85600000000008,7.4744140625,-0.388494873046875,6.725985717773438
11.867000000000049,7.502676391601563,-0.5295074462890625,6.55626220703125
11.876000000000047,5.698672485351563,-0.4079345703125,6.021371459960938
11.887,6.737799072265625,0.449505615234375,7.947247314453126
11.896000000000043,6.919784545898438,0.201873779296875,7.989865112304688
11.90600000000002,7.646231079101563,-0.1356292724609375,5.997744750976563
11.915999999999997,6.8026977539062505,-0.0904693603515625,5.635568237304688
11.927000000000035,6.7817626953125005,-0.0010467529296875,6.43663330078125
11.936000000000035,7.098480224609376,0.064599609375,7.827468872070313
11.94600000000004,6.81705322265625,-0.6276031494140626,7.807730102539063
11.956000000000046,6.736004638671876,-0.5954528808593751,5.922528076171876
11.966000000000022,6.392819213867188,-0.257501220703125,6.612936401367188
11.976,6.613983154296876,0.43006591796875,7.428057861328125
11.98600000000006,7.220053100585938,0.90618896484375,8.048184204101563
11.996000000000038,6.557458496093751,0.8098876953125,6.928308105468751
12.006000000000045,6.5514770507812505,0.9048431396484377,5.77628173828125
12.016000000000034,6.609497070312501,0.6122009277343751,7.111639404296875
12.026000000000025,7.182669067382813,-0.0414215087890625,7.519573974609376
12.036,7.748962402343751,-0.7931396484375001,7.053469848632813
12.046000000000063,6.800604248046875,-1.4539398193359376,5.666522216796875
12.05600000000004,6.678732299804688,-1.3722930908203126,5.5869689941406255
12.066000000000043,6.983786010742188,-0.9425262451171876,7.807879638671875
12.076000000000036,7.450637817382813,-0.3306243896484375,7.4307495117187505
12.08600000000004,6.846212768554688,0.29967041015625,6.7174621582031255
12.096000000000018,6.35947265625,0.8649169921875001,5.778225708007813
12.10600000000008,6.798959350585938,1.5125579833984375,7.239941406250001
12.116000000000057,6.407623291015626,1.67061767578125,8.799154663085938
12.126000000000047,6.573159790039063,1.045257568359375,7.160238647460938
12.136000000000038,6.661984252929688,-0.1837799072265625,6.048736572265625
12.146000000000043,7.398748779296875,-1.4964080810546876,4.975216674804688
12.15600000000002,7.459011840820313,-1.9710357666015623,7.0299926757812505
12.165999999999997,7.327120971679688,-1.9903259277343752,7.67838134765625
12.17600000000006,7.245025634765626,-1.200625610351563,7.162033081054688
12.186000000000035,5.995651245117188,0.2172760009765625,6.593945312500001
12.19600000000004,5.800357055664063,1.5189880371093751,6.959860229492188
12.207000000000065,7.148724365234376,2.5925079345703126,8.219403076171876
12.216000000000022,7.032235717773438,2.4339996337890626,7.45108642578125
12.226,7.080087280273438,1.3564422607421875,5.685214233398438
12.23600000000006,7.01085205078125,0.0873291015625,6.051278686523438
12.246000000000038,6.847259521484376,-1.027313232421875,7.197921752929688
12.256000000000045,6.902288818359375,-1.87578125,7.974163818359376
12.266000000000034,6.407473754882813,-2.5329925537109377,7.017431640625
12.276000000000025,6.880456542968751,-1.9937652587890624,6.173898315429688
12.286,6.946551513671875,-0.4222900390625,6.777127075195313
12.296000000000063,7.10057373046875,1.39068603515625,7.260876464843751
12.30600000000004,7.271942138671876,2.379568481445313,6.84696044921875
12.316000000000043,6.523663330078126,2.2406494140625,6.306387329101563
12.326000000000036,6.6525634765625,1.7649749755859376,6.525906372070313
12.33600000000004,6.363360595703125,0.6802398681640626,8.372677612304688
12.346000000000018,6.3570800781250005,-0.6910064697265625,7.932144165039063
12.35600000000008,6.646282958984376,-1.7930877685546875,7.168164062500001
12.366000000000057,6.624002075195313,-2.3777740478515628,5.992062377929688
12.376000000000047,7.638455200195313,-1.9266235351562504,5.8565826416015625
12.386000000000038,8.159738159179689,-0.8857025146484375,6.809277343750001
12.39500000000004,7.669110107421876,-0.063104248046875,5.285055541992188
12.40700000000004,7.455572509765625,0.83560791015625,5.938977050781251
12.415000000000036,6.2853027343750005,1.26806640625,6.514990234375
12.425000000000026,6.29906005859375,1.5855316162109376,8.643637084960938
12.435000000000016,5.4467041015625,1.3402923583984376,9.19288330078125
12.445000000000064,5.88634033203125,0.5878265380859375,7.782308959960938
12.45500000000004,6.731518554687501,-0.0270660400390625,6.881204223632813
12.466000000000022,7.161734008789063,-0.5112640380859376,6.0968872070312505
12.475000000000035,7.726681518554688,-0.6122009277343751,6.376220703125001
12.485000000000042,7.553967285156251,-0.94566650390625,6.164028930664063
12.49500000000002,7.48099365234375,-0.9619659423828124,5.5400146484375
12.50700000000002,6.747967529296876,-0.7895507812500001,6.504373168945313
12.515000000000056,7.022067260742188,-0.6123504638671875,6.326425170898438
12.525000000000034,6.641796875000001,-0.15791015625,8.058950805664063
12.53500000000004,6.158197021484376,-0.0669921875,7.2019592285156255
12.545000000000044,7.282858276367188,0.6730621337890625,7.950686645507813
12.55500000000002,6.477606201171875,1.2626831054687502,7.0883117675781255
12.564999999999998,6.325228881835938,1.3993591308593751,6.565234375
12.57500000000006,7.171005249023438,1.120025634765625,6.802398681640626
12.585000000000036,7.145584106445313,0.1712188720703125,6.594842529296876
12.59500000000004,7.639352416992188,-0.43604736328125,6.911859130859376
12.607000000000042,6.0831298828125,-0.7828216552734376,6.970327758789063
12.615000000000023,6.311322021484376,-0.5760131835937501,7.451385498046876
12.625,6.431100463867188,-0.492572021484375,7.656698608398438
12.635000000000062,7.360168457031251,-0.4221405029296875,6.738845825195313
12.64500000000004,7.402188110351563,0.0417205810546875,6.145785522460938
12.655000000000044,7.002627563476563,0.1819854736328125,5.7900390625
12.665000000000036,7.484732055664063,0.1997802734375,6.395211791992188
12.675000000000026,7.204052734375001,-0.134881591796875,7.326971435546875
12.685000000000016,6.30205078125,-0.2986236572265625,6.850250244140626
12.695000000000064,6.259432983398438,0.0524871826171875,7.814758300781251
12.706000000000046,5.9044342041015625,0.3349609375,7.50850830078125
12.715000000000046,6.816156005859376,0.6808380126953125,7.836740112304688
12.725000000000035,6.993804931640626,0.7850646972656251,6.789688110351563
12.735000000000042,7.03238525390625,0.789251708984375,6.095989990234376
12.74500000000002,7.003674316406251,0.58558349609375,6.507363891601563
12.754999999999995,6.828866577148438,-0.1900604248046875,6.97197265625
12.765000000000056,7.742831420898438,-0.9142639160156252,6.9396728515625
12.775000000000034,6.884643554687501,-1.5735687255859376,6.277227783203125
12.78500000000004,6.799258422851563,-1.7017211914062502,5.7021118164062505
12.795000000000044,7.227679443359375,-1.19808349609375,7.214520263671876
12.807000000000045,6.979598999023438,-0.4771697998046875,7.123452758789063
12.814999999999998,6.906027221679688,0.7373626708984375,7.291830444335938
12.82500000000006,6.162683105468751,1.4421264648437502,6.66751708984375
12.835000000000036,6.599179077148438,1.935595703125,7.212277221679688
12.84500000000004,6.566879272460938,1.9415771484375,8.127587890625001
12.854000000000056,6.532785034179688,1.020733642578125,6.889877319335938
12.865000000000023,7.111639404296875,-0.1327880859375,6.318499755859375
12.874000000000038,7.201211547851563,-1.8060974121093751,5.481097412109375
12.885000000000062,7.392169189453125,-2.532095336914063,6.752902221679688
12.89400000000002,7.344467163085938,-2.336203002929688,7.408767700195313
12.905000000000044,6.594094848632813,-1.200625610351563,7.362561035156251
12.915000000000036,6.220254516601563,0.2226593017578125,6.68486328125
12.925000000000026,6.66751708984375,1.4255279541015626,7.012646484375001
12.93400000000004,7.170706176757813,2.7546051025390628,7.5760986328125
12.944000000000043,6.650918579101563,2.839990234375,6.975860595703126
12.954000000000022,6.738397216796876,1.8084899902343752,6.512298583984376
12.964,7.215567016601563,0.10467529296875,6.498541259765625
12.97400000000006,6.892120361328126,-1.305300903320313,7.348953247070313
12.984000000000036,6.498242187500001,-1.9693908691406248,7.565631103515625
12.994000000000042,6.287994384765626,-2.468991088867188,6.965393066406251
13.004000000000048,7.213174438476563,-1.982101440429688,6.607254028320313
13.014000000000024,7.404281616210938,-0.6328369140625001,6.315509033203125
13.024,7.096386718750001,1.104473876953125,6.733013916015626
13.034000000000065,7.037319946289063,2.2633789062500003,6.495700073242188
13.04400000000004,6.802398681640626,2.1648345947265626,6.752603149414063
13.054000000000045,6.899896240234376,1.573419189453125,7.052124023437501
13.064000000000036,6.016885375976563,0.4987030029296875,7.5737060546875
13.07400000000004,6.2972656250000005,-0.6422576904296875,7.882199096679688
13.084000000000016,6.798959350585938,-1.6015319824218752,7.318148803710938
13.094000000000063,6.659292602539063,-2.154217529296876,6.424819946289063
13.104000000000056,7.904330444335938,-1.5481475830078126,5.987277221679688
13.114000000000049,7.284353637695313,-0.6769500732421876,6.357678222656251
13.124000000000038,7.592996215820313,0.429766845703125,5.944958496093751
13.134000000000045,6.8678955078125,1.1928497314453126,6.944458007812501
13.14400000000002,6.805538940429688,1.2161773681640626,6.249563598632813
13.153999999999996,6.472372436523438,1.2951324462890623,8.1670654296875
13.164000000000058,5.77508544921875,0.701025390625,7.782608032226563
13.174000000000037,6.351696777343751,0.2648284912109375,8.240338134765626
13.18400000000004,6.551177978515626,-0.429766845703125,7.0473388671875
13.194000000000043,7.121807861328126,-0.8628234863281251,6.050680541992188
13.204000000000022,7.600772094726563,-0.8498138427734375,6.1142333984375
13.214,7.433889770507813,-0.8187103271484376,5.89830322265625
13.22400000000006,7.276876831054688,-0.33675537109375,6.441268920898438
13.234000000000036,6.593646240234375,-0.4595245361328125,6.231320190429688
13.244000000000042,6.976757812500001,-0.2684173583984375,7.2154174804687505
13.254000000000048,7.260726928710938,0.1843780517578125,7.882199096679688
13.264000000000024,6.259881591796876,0.7876068115234376,7.700213623046875
13.274,5.778225708007813,1.2522155761718752,7.100125122070313
13.284000000000065,6.606207275390625,0.8837585449218751,6.834548950195313
13.29400000000004,7.391720581054688,0.5646484375,7.233660888671875
13.304000000000045,7.78604736328125,-0.122021484375,6.096588134765625
13.314000000000036,6.824230957031251,-0.444122314453125,6.619366455078126
13.32400000000004,6.298013305664063,-0.5627044677734375,6.4755126953125
13.334000000000016,6.644638061523438,-0.49107666015625,8.142990112304688
13.344000000000063,6.951336669921876,-0.3793731689453125,7.491012573242188
13.354000000000056,6.621310424804688,-0.2202667236328125,6.596038818359376
13.364000000000049,7.101470947265626,0.117236328125,6.070120239257813
13.373000000000062,7.23575439453125,0.3590362548828125,6.4874755859375
13.384000000000045,7.5129943847656255,0.0342437744140625,6.869390869140625
13.393000000000043,7.087863159179688,-0.1137969970703125,6.576599121093751
13.403000000000034,6.301153564453125,-0.334661865234375,6.557458496093751
13.414000000000058,6.398651123046876,-0.1303955078125,7.503125000000001
13.424000000000037,6.474316406250001,0.2284912109375,8.282357788085939
13.433000000000064,6.402987670898438,0.5127593994140626,7.433441162109376
13.44300000000004,6.856082153320313,0.7568023681640625,6.639404296875001
13.453000000000046,6.754397583007813,0.7497741699218751,6.109298706054688
13.463000000000036,7.399047851562501,0.5701812744140625,6.948944091796876
13.473000000000042,7.078292846679688,-0.0539825439453125,7.040161132812501
13.483000000000018,7.453628540039063,-0.8456268310546876,6.249563598632813
13.49300000000008,6.964495849609375,-1.32489013671875,6.115579223632813
13.503000000000055,6.520523071289063,-1.645196533203125,6.314910888671876
13.513000000000034,7.376617431640626,-0.9395355224609376,7.746270751953125
13.525000000000034,6.527999877929688,-0.31282958984375,7.363308715820313
13.534000000000065,6.688302612304688,0.5493957519531251,6.436035156250001
13.54300000000002,6.812716674804688,1.35479736328125,6.850997924804688
13.552999999999995,6.579141235351563,1.7503204345703127,7.147976684570313
13.56300000000006,6.732864379882813,1.88236083984375,7.944107055664063
13.573000000000036,6.382052612304688,0.7224090576171875,6.52635498046875
13.58300000000004,7.6275390625,-0.636724853515625,5.80618896484375
13.593000000000046,7.3583740234375,-2.033990478515625,6.000286865234376
13.603000000000025,6.615478515625001,-2.5089172363281254,7.107601928710938
13.613,7.196127319335938,-1.72803955078125,8.091400146484375
13.623000000000062,6.324032592773438,-0.7750457763671875,7.39366455078125
13.633000000000038,6.84097900390625,0.6685760498046875,6.244030761718751
13.643000000000043,6.776828002929688,1.872042846679688,6.7234436035156255
13.653000000000034,7.144238281250001,2.863766479492188,7.185809326171875
13.663000000000023,6.708639526367188,2.6466400146484377,7.341925048828125
13.673000000000016,6.7147705078125,0.95703125,6.610693359375
13.683000000000064,7.111639404296875,-0.486590576171875,6.698171997070313
13.69300000000004,6.473568725585938,-1.6359252929687502,7.448843383789063
13.703000000000046,6.485980224609375,-2.057916259765625,7.419384765625001
13.713000000000036,6.90677490234375,-2.297174072265625,6.93070068359375
13.723000000000042,7.338485717773438,-1.6952911376953126,5.946902465820313
13.733000000000018,7.599874877929688,0.0315521240234375,6.280368041992188
13.74300000000008,6.646881103515626,1.5942047119140623,6.842175292968751
13.753000000000055,6.988571166992188,2.397512817382813,7.065432739257813
13.763000000000034,6.607852172851563,2.086776733398437,7.3009521484375
13.77300000000004,6.267657470703125,1.3423858642578126,7.070217895507813
13.783000000000044,6.220553588867188,0.3916351318359375,7.696475219726563
13.79300000000002,6.398052978515626,-0.8976654052734375,7.783206176757813
13.802999999999995,7.224240112304688,-1.7096466064453126,6.840530395507813
13.81300000000006,6.857727050781251,-2.1575073242187504,6.12320556640625
13.823000000000036,7.87218017578125,-1.6229156494140626,5.4419189453125005
13.83300000000004,7.771841430664063,-0.7334747314453125,6.423324584960938
13.843000000000046,7.373178100585938,0.0674407958984375,6.004025268554688
13.853000000000025,7.014889526367188,0.97677001953125,6.816903686523438
13.863,6.1046630859375,1.1994293212890623,7.058554077148438
13.873000000000062,6.154309082031251,1.4201446533203126,8.172149658203125
13.883000000000038,6.085372924804688,1.0917633056640623,8.529690551757813
13.891999999999996,6.393716430664063,0.4556365966796875,7.478900146484375
13.902000000000058,6.903933715820313,0.049346923828125,6.783407592773438
13.912000000000036,6.744378662109376,-0.5848358154296875,5.987576293945313
13.923000000000016,7.862759399414063,-0.7659240722656251,6.444409179687501
13.932000000000045,7.476358032226563,-1.0346405029296877,6.268554687500001
13.94200000000002,7.015487670898438,-1.0946044921875,5.572015380859376
13.951999999999998,7.245474243164063,-0.9503021240234376,6.31700439453125
13.96200000000006,6.523065185546876,-0.931011962890625,6.951336669921876
13.972000000000037,7.364804077148438,-0.017047119140625,8.441464233398438
13.982000000000042,6.359323120117188,0.9725830078125,8.0294921875
13.992000000000049,5.5555664062500005,1.7666198730468752,6.834249877929688
14.002000000000024,6.525009155273438,1.831668090820313,6.753500366210938
14.012,7.446899414062501,1.2318786621093751,7.015338134765625
14.022000000000062,7.950686645507813,0.4792633056640625,6.515887451171875
14.03200000000004,6.792080688476563,-0.5205352783203125,6.359173583984376
14.042000000000044,6.342874145507813,-0.9386383056640626,6.666171264648438
14.052000000000035,6.228778076171875,-1.093109130859375,8.157495117187501
14.06200000000004,6.715069580078126,-1.0673889160156251,7.811618041992188
14.072000000000015,7.197772216796875,-0.7382598876953126,6.599926757812501
14.082000000000065,7.308428955078125,-0.430963134765625,5.41141357421875
14.092000000000056,7.5010314941406255,0.3171661376953125,5.834451293945313
14.102000000000046,7.370785522460938,0.6566131591796875,7.111340332031251
14.112000000000036,6.671405029296875,0.6347808837890625,7.192687988281251
14.122000000000044,6.226235961914063,0.51380615234375,7.19986572265625
14.13200000000002,5.830413818359375,0.404345703125,7.535125732421876
14.141999999999996,6.561047363281251,0.569134521484375,8.04324951171875
14.152000000000058,6.415847778320313,0.5970977783203125,7.901638793945313
14.162000000000036,7.03836669921875,0.3696533203125,6.271246337890625
14.17200000000004,7.111190795898438,0.024822998046875,6.030792236328125
14.182000000000045,7.1735473632812505,-0.5274139404296876,6.233413696289063
14.19200000000002,7.936331176757813,-0.7759429931640626,6.902587890625001
14.201999999999998,7.074703979492188,-1.2251495361328126,6.447100830078125
14.21200000000006,6.928756713867188,-1.4801086425781251,5.401095581054688
14.222000000000037,7.372879028320313,-1.3214508056640626,6.567327880859375
14.232000000000042,6.984832763671876,-0.6380706787109376,7.135714721679688
14.242000000000049,6.365304565429688,0.711492919921875,8.228823852539064
14.252000000000024,5.7978149414062505,1.5035858154296875,7.389028930664063
14.262,6.447250366210938,2.014251708984375,7.444058227539063
14.272000000000062,6.656451416015625,1.9563812255859376,7.27822265625
14.28200000000004,6.981991577148438,1.4222381591796875,7.07425537109375
14.292000000000044,6.75125732421875,0.3632232666015625,6.527252197265626
14.302000000000035,7.514788818359375,-1.4330047607421876,5.2823638916015625
14.31200000000004,8.258432006835939,-2.90159912109375,5.681924438476563
14.322000000000015,6.863409423828125,-3.540716552734376,6.216815185546875
14.332000000000065,6.722097778320313,-2.4311584472656254,7.753298950195313
14.342000000000056,6.094046020507813,-0.4912261962890625,8.900540161132813
14.352000000000046,6.4722229003906255,1.5098663330078126,7.338784790039063
14.362000000000036,6.42467041015625,3.342282104492188,7.1944824218750005
14.371000000000038,6.821688842773438,4.083233642578126,6.054718017578125
14.38200000000002,7.342971801757813,3.587521362304688,6.699218750000001
14.391999999999996,7.2752319335937505,1.21064453125,6.693685913085938
14.402000000000058,7.372280883789063,-1.34881591796875,6.565982055664063
14.411,6.008511352539063,-3.001339721679688,7.561593627929688
14.42200000000004,5.843273925781251,-3.480902099609376,7.685409545898438
14.43100000000004,6.763967895507813,-3.1637359619140626,7.68974609375
14.441000000000043,7.648025512695313,-2.007073974609375,6.281564331054688
14.451000000000036,7.913302612304688,0.320904541015625,5.183819580078126
14.46100000000004,7.117919921875001,2.681631469726563,6.002679443359376
14.471000000000018,6.838287353515626,3.8067413330078126,6.87626953125
14.48100000000008,6.607852172851563,3.314169311523438,8.2555908203125
14.491000000000057,5.583380126953125,1.9324554443359376,8.059698486328125
14.501000000000047,5.643344116210938,0.3194091796875,8.023062133789063
14.511000000000038,5.981594848632813,-1.263430786132813,8.129531860351562
14.521000000000043,6.426763916015625,-2.499945068359376,7.139602661132813
14.53100000000002,8.287442016601563,-2.8488128662109378,6.065634155273438
14.540999999999997,8.533428955078126,-2.5329925537109377,4.329669189453125
14.55100000000006,8.480941772460938,-1.4829498291015626,4.061550903320313
14.561000000000035,8.135214233398438,-0.14056396484375,5.8510498046875
14.57100000000004,6.585421752929688,0.711492919921875,6.745574951171876
14.581000000000046,6.598580932617188,1.4982025146484377,8.198916625976564
14.591000000000022,4.872784423828126,1.5429138183593751,8.374172973632813
14.601,5.529248046875001,1.4889312744140626,8.652908325195312
14.61100000000006,5.922976684570313,1.6161865234375,9.245819091796877
14.621000000000038,6.459063720703125,1.0917633056640623,7.1191162109375
14.631000000000045,7.1526123046875005,0.366961669921875,6.0689239501953125
14.641000000000034,7.894461059570313,-0.8369537353515626,4.74388427734375
14.651000000000025,8.716909790039063,-1.376629638671875,5.63751220703125
14.661,6.847708129882813,-1.7787322998046875,6.435736083984375
14.671000000000063,6.837838745117188,-1.8240417480468751,6.1088500976562505
14.68100000000004,6.637759399414063,-1.7193664550781251,7.323831176757813
14.691000000000043,7.120162963867188,-1.4455657958984376,6.640301513671876
14.701000000000036,7.529293823242188,0.31761474609375,8.180673217773439
14.711000000000029,5.5017333984375005,1.9729797363281247,7.380206298828125
14.721000000000018,5.666372680664063,2.9334503173828126,7.648175048828126
14.731000000000094,6.956420898437501,2.8135223388671875,7.461404418945313
14.741000000000057,7.233062744140626,1.5690826416015626,6.357678222656251
14.751000000000047,7.747616577148438,0.2483795166015625,6.298910522460938
14.761000000000038,6.838137817382813,-1.2013732910156252,6.251806640625
14.77100000000003,6.088214111328125,-1.7432922363281251,7.857376098632813
14.78100000000002,6.330612182617188,-1.9584747314453128,8.108895874023439
14.791000000000013,6.871783447265625,-1.8083404541015624,6.951187133789063
14.80100000000006,7.768402099609376,-1.1659332275390626,5.549734497070313
14.81100000000005,7.687652587890626,-0.2187713623046875,5.16497802734375
14.82100000000004,7.8392822265625,0.9159088134765626,6.1776367187500005
14.831000000000031,6.945803833007813,1.2939361572265626,7.172650146484376
14.841000000000022,6.141598510742188,1.1862701416015626,7.332504272460938
14.851000000000012,5.825778198242188,1.026116943359375,8.044894409179689
14.86100000000006,5.572314453125,0.7304840087890625,8.232861328125
14.871000000000052,6.556411743164063,0.6162384033203125,8.236001586914064
14.881000000000045,6.707443237304688,0.09630126953125,6.8954101562500005
14.890000000000056,7.23575439453125,-0.2851654052734375,5.804843139648438
14.901000000000025,7.325625610351563,-0.3354095458984375,6.233712768554688
14.910999999999987,7.051675415039063,-0.5778076171875001,6.703854370117188
14.921000000000063,7.739392089843751,-0.8904876708984376,6.58018798828125
14.93000000000002,7.6460815429687505,-1.4353973388671877,5.691046142578125
14.940000000000012,7.354336547851563,-1.4436218261718752,5.253054809570313
14.95000000000006,6.730172729492188,-0.8659637451171875,7.006964111328125
14.96000000000005,6.478652954101563,0.04306640625,8.180523681640626
14.97000000000004,6.030044555664063,1.012359619140625,8.4888671875
14.980000000000032,5.918041992187501,1.4685943603515623,7.155603027343751
14.990000000000023,6.763519287109376,1.9548858642578129,6.978851318359376
15.000000000000014,6.939971923828126,1.808639526367188,7.161883544921875
15.010000000000062,6.935485839843751,1.209149169921875,6.932196044921875
15.020000000000053,6.908120727539063,-0.0094207763671875,6.434689331054688
15.030000000000044,7.366000366210938,-1.6743560791015626,5.417544555664063
15.040000000000036,7.859619140625001,-2.79632568359375,6.106906127929688
15.050000000000026,6.849502563476563,-3.0858276367187503,6.765911865234376
15.06100000000005,7.006216430664063,-1.9664001464843752,7.514788818359375
15.070000000000064,5.9563232421875005,-0.116937255859375,8.065231323242188
15.080000000000028,6.570468139648438,1.535586547851563,6.950888061523438
15.090000000000046,6.708489990234376,3.1103515625000004,7.611837768554688
15.100000000000035,6.860717773437501,3.5440063476562504,6.4252685546875
15.110000000000028,7.035076904296876,2.879168701171875,6.775033569335938
15.12000000000002,7.147976684570313,0.6582580566406251,6.349304199218751
15.13000000000001,7.348205566406251,-1.4231353759765626,6.7638183593750005
15.140000000000056,6.218609619140626,-2.6170318603515628,7.748214721679688
15.150000000000048,5.8206939697265625,-2.983544921875,7.403384399414063
15.16000000000004,7.044198608398438,-2.566339111328125,7.421627807617188
15.17000000000003,7.578341674804688,-1.5245208740234375,5.91864013671875
15.18000000000002,7.759130859375,0.6087615966796875,5.765515136718751
15.190000000000012,7.010104370117188,2.508169555664063,6.1970764160156255
15.20000000000006,6.665124511718751,3.1940917968750004,7.114929199218751
15.21000000000005,6.833651733398438,2.5673858642578127,7.666717529296876
15.22000000000004,6.034381103515625,1.173858642578125,7.6565490722656255
15.230000000000032,5.768356323242188,-0.247332763671875,7.493704223632813
15.240000000000023,6.435137939453125,-1.5948028564453127,7.9212280273437505
15.250000000000014,7.026104736328126,-2.4660003662109378,7.045693969726563
15.260000000000062,7.475161743164063,-2.39317626953125,6.1791320800781255
15.270000000000053,7.5982299804687505,-1.4999969482421875,5.236306762695313
15.280000000000044,7.949340820312501,-0.2746978759765625,5.524462890625
15.290000000000036,7.8608154296875,0.7609893798828126,6.319097900390625
15.300000000000026,6.928906250000001,1.316217041015625,6.510952758789063
15.310000000000016,6.223693847656251,1.6259063720703126,7.628884887695313
15.320000000000064,5.272793579101563,1.3927795410156252,8.2268798828125
15.330000000000028,5.8414794921875,0.905889892578125,9.091946411132811
15.340000000000046,6.31102294921875,0.179144287109375,8.086614990234375
15.350000000000035,7.038516235351563,-0.4837493896484375,6.120513916015625
15.360000000000028,7.241885375976563,-0.7747467041015625,5.7242431640625
15.369000000000042,7.950238037109376,-1.09041748046875,5.4251708984375
15.38000000000001,8.175140380859375,-0.887945556640625,6.485830688476563
15.390000000000056,6.6711059570312505,-0.7888031005859376,5.993258666992188
15.400000000000048,6.506765747070313,-0.5184417724609376,6.213824462890625
15.41000000000004,6.483288574218751,-0.3569427490234375,7.627239990234376
15.42000000000003,6.994702148437501,-0.090618896484375,7.981640625000001
15.429000000000045,7.094442749023438,0.954937744140625,8.345910644531251
15.439000000000036,5.629736328125,1.4282196044921875,6.52037353515625
15.449000000000026,6.291433715820313,1.556521606445313,6.411212158203125
15.46000000000005,7.625595092773438,0.9962097167968752,7.18431396484375
15.469000000000063,7.615725708007813,0.002691650390625,6.814810180664063
15.479000000000056,7.508807373046875,-0.6941467285156251,6.315658569335938
15.489000000000049,5.554818725585938,-1.05452880859375,6.630581665039063
15.499000000000038,6.410763549804688,-0.6766510009765625,7.840328979492188
15.509000000000029,6.906924438476563,-0.6628936767578125,8.301049804687501
15.51900000000002,7.456320190429688,-0.4245330810546875,6.174197387695313
15.52900000000001,7.040310668945313,0.0725250244140625,5.3391876220703125
15.539000000000058,7.20823974609375,0.459674072265625,5.914154052734375
15.54900000000005,7.520919799804688,0.726446533203125,7.251156616210938
15.55900000000004,6.919635009765625,0.180938720703125,7.771841430664063
15.569000000000033,6.176889038085938,-0.0435150146484375,6.381454467773438
15.579000000000022,5.914752197265625,-0.17286376953125,7.264315795898438
15.589000000000013,6.594692993164063,-0.03648681640625,7.9092651367187505
15.59900000000006,7.187155151367188,0.334063720703125,8.033380126953126
15.609000000000052,6.562542724609376,0.24942626953125,6.373529052734376
15.619000000000042,7.088162231445313,0.4541412353515625,5.604315185546875
15.629000000000032,6.783706665039063,0.3768310546875,6.81944580078125
15.639000000000024,7.261175537109375,0.1625457763671875,7.455123901367188
15.648999999999988,7.329513549804688,-0.37025146484375,7.021618652343751
15.659000000000065,7.054217529296875,-1.1808868408203126,5.457321166992188
15.669000000000054,7.181622314453126,-1.257000732421875,5.7723937988281255
15.679000000000045,6.499887084960938,-0.9500030517578124,7.697073364257813
15.689000000000036,6.878363037109375,0.00657958984375,8.108148193359376
15.699000000000026,6.09808349609375,0.5217315673828126,7.564584350585938
15.709000000000016,6.809725952148438,0.7840179443359375,5.747122192382813
15.719000000000063,7.317999267578125,1.3096374511718751,6.740490722656251
15.729000000000056,6.682620239257813,1.3630218505859375,7.5760986328125
15.739000000000049,6.536074829101563,1.1937469482421876,7.442263793945313
15.749000000000038,6.477905273437501,-0.152825927734375,6.626394653320313
15.759000000000029,7.597930908203126,-1.5049316406250002,5.283261108398438
15.76900000000002,7.474563598632813,-2.128048706054688,6.485382080078126
15.77900000000001,6.507064819335938,-2.098141479492188,7.209585571289063
15.789000000000058,7.313064575195313,-1.0472015380859376,7.820440673828125
15.79900000000005,6.39237060546875,0.1120025634765625,7.416992187500001
15.80900000000004,6.318798828125001,1.4801086425781251,6.301901245117188
15.819000000000033,6.641198730468751,2.459271240234376,7.23336181640625
15.829000000000022,7.259231567382813,2.558712768554688,7.329214477539063
15.839000000000013,7.093545532226563,1.6288970947265626,6.764715576171875
15.84900000000006,6.8774658203125005,-0.0432159423828125,6.328070068359375
15.859000000000052,6.674694824218751,-1.107464599609375,6.78355712890625
15.869000000000042,6.606506347656251,-1.9605682373046875,7.805935668945313
15.879000000000032,6.767706298828125,-2.238555908203125,7.3464111328125
15.889000000000024,7.093844604492188,-1.8369018554687504,6.450091552734375
15.898999999999988,6.909466552734376,-0.7044647216796875,5.962902832031251
15.90800000000003,7.289886474609376,1.0727722167968752,6.748864746093751
15.919000000000054,6.993356323242188,2.1681243896484377,7.33385009765625
15.928000000000011,6.794772338867188,2.328726196289063,6.918438720703126
15.939000000000036,6.509307861328126,1.7645263671875002,6.751107788085938
15.94800000000005,6.256442260742188,0.6572113037109375,7.215866088867188
15.959000000000016,6.542056274414063,-0.48748779296875,7.856478881835938
15.968000000000032,6.546542358398438,-1.6674774169921875,7.703204345703125
15.978000000000025,7.091452026367188,-2.114889526367188,6.347808837890626
15.988000000000014,6.866699218750001,-1.8693511962890623,6.1022705078125
15.998000000000062,7.6789794921875005,-0.999798583984375,5.841180419921876
16.008000000000052,8.166168212890625,0.0692352294921875,6.557308959960938
16.018000000000043,7.317401123046875,0.7189697265625,5.685662841796876
16.028000000000034,6.720751953125,1.4023498535156251,6.595440673828126
16.038000000000025,5.822488403320313,1.4524444580078126,7.710830688476563
16.048000000000016,5.879461669921875,1.239505004882813,8.955569458007814
16.058000000000064,6.164178466796876,0.6539215087890625,8.7149658203125
16.068000000000055,6.303097534179688,-0.246435546875,6.616973876953126
16.078000000000046,7.42955322265625,-0.5785552978515626,6.029745483398438
16.088000000000036,7.201211547851563,-0.8534027099609376,6.226235961914063
16.098000000000027,7.837188720703126,-0.8448791503906251,6.178833007812501
16.10800000000002,7.648324584960938,-0.7681671142578126,6.435885620117188
16.118000000000094,6.602169799804688,-0.7744476318359376,5.454479980468751
16.128000000000057,6.846063232421876,-0.32000732421875,6.687255859375001
16.138000000000048,6.298312377929688,-0.1009368896484375,7.99180908203125
16.14800000000004,7.091452026367188,0.21951904296875,7.998089599609376
16.15800000000003,6.984683227539063,0.7376617431640625,7.61617431640625
16.16800000000002,5.895611572265626,1.10836181640625,6.113037109375
16.17800000000001,6.5425048828125005,1.3784240722656251,6.896008300781251
16.18800000000006,7.20584716796875,0.8435333251953125,7.5129943847656255
16.199000000000026,7.634567260742188,-0.0791046142578125,6.668563842773438
16.20800000000004,7.341775512695313,-0.8704498291015625,6.247171020507813
16.218000000000032,5.851498413085938,-0.820654296875,6.537719726562501
16.228000000000023,6.35648193359375,-0.261090087890625,8.249908447265625
16.238000000000014,6.839184570312501,-0.40673828125,8.053866577148439
16.24800000000006,7.5279479980468755,-0.3315216064453125,5.9911651611328125
16.258000000000052,7.124050903320313,-0.113946533203125,5.2086425781250005
16.268000000000043,7.195529174804688,0.3554473876953125,6.135317993164063
16.278000000000034,7.315606689453125,0.4813568115234375,7.542303466796875
16.288000000000025,6.885391235351563,-0.039776611328125,7.652960205078125
16.298000000000016,6.294723510742188,-0.2062103271484375,6.260928344726563
16.308000000000064,5.860321044921875,-0.168377685546875,7.130331420898438
16.318000000000055,6.826174926757813,0.30206298828125,7.993603515625001
16.328000000000046,7.013693237304688,0.532049560546875,7.990164184570313
16.338000000000036,6.743331909179688,0.3838592529296875,6.143841552734376
16.348000000000027,7.132125854492188,0.387896728515625,5.5902587890625
16.35800000000002,6.828866577148438,0.1825836181640625,6.8550354003906255
16.368000000000094,7.284802246093751,0.0791046142578125,7.67479248046875
16.378000000000057,6.833950805664063,-0.5307037353515626,7.250408935546876
16.388000000000048,6.973019409179688,-1.1807373046875,5.494256591796876
16.398999999999987,7.36435546875,-1.1388671875,6.072662353515625
16.40800000000003,6.697723388671876,-0.7717559814453125,7.369589233398438
16.41800000000002,7.012347412109375,0.245538330078125,7.900741577148438
16.427000000000035,6.029745483398438,0.6751556396484375,7.332504272460938
16.437000000000054,6.7533508300781255,0.8949737548828126,6.042904663085938
16.447000000000017,7.120312500000001,1.1384185791015626,6.996347045898438
16.45800000000004,6.960906982421876,0.9999481201171876,7.345214843750001
16.467000000000056,6.634320068359376,0.7361663818359375,7.306634521484375
16.477000000000046,6.4796997070312505,-0.518292236328125,6.295172119140625
16.487000000000037,7.616473388671875,-1.4045928955078126,5.709738159179688
16.49800000000006,7.290036010742188,-1.9369415283203129,6.580935668945313
16.50700000000002,6.592599487304688,-1.8210510253906247,7.087564086914063
16.51700000000001,7.399945068359376,-0.8327667236328126,7.690643310546876
16.527000000000058,6.544149780273438,0.4233367919921875,7.23037109375
