time,ax,ay,az
0.0,5.617623901367188,-1.1426055908203123,8.214318847656251
0.009999999999998,6.777426147460938,-0.5728729248046875,9.138003540039064
0.0199999999999995,6.450241088867188,0.2334259033203125,6.617572021484375
0.0299999999999975,7.434338378906251,0.9111236572265624,5.187109375
0.0399999999999991,7.997491455078125,1.5412689208984376,5.416647338867188
0.0500000000000007,7.79801025390625,1.8219482421875,6.105410766601563
0.0599999999999987,7.054367065429688,1.74239501953125,7.762570190429688
0.0700000000000002,5.664877319335938,0.8858520507812501,7.720401000976563
0.0799999999999983,5.726336669921875,-0.3098388671875,7.978799438476563
0.0899999999999998,6.081036376953126,-1.3748352050781252,8.091250610351564
0.0999999999999978,7.014590454101563,-2.1139923095703126,6.709237670898438
0.1099999999999994,7.761074829101563,-2.1154876708984376,6.485531616210938
0.1199999999999974,7.607501220703125,-1.5506896972656252,4.839886474609376
0.1289999999999977,7.562191772460938,-0.1634429931640625,5.948696899414063
0.1389999999999993,7.421328735351563,0.9640594482421876,6.705050659179688
0.1490000000000009,6.5858703613281255,1.6694213867187502,7.114630126953125
0.1600000000000001,6.153262329101563,1.7024688720703127,7.873526000976563
0.1699999999999981,5.917294311523438,1.3434326171875002,7.716513061523438
0.1799999999999997,6.231021118164063,1.0217803955078126,8.309274291992189
0.189,6.716415405273438,0.3811676025390625,7.038217163085938
0.1999999999999993,7.0736572265625,-0.5118621826171875,6.118869018554688
0.2089999999999996,7.653707885742188,-0.9773681640625,5.790936279296876
0.2189999999999976,7.4181884765625,-0.9383392333984376,6.346313476562501
0.2289999999999992,7.443908691406251,-0.7587463378906251,6.670059204101563
0.2390000000000007,6.824829101562501,-0.5890228271484376,6.830511474609375
0.2489999999999987,6.822286987304688,-0.401055908203125,6.618469238281251
0.2590000000000003,6.339434814453125,0.0393280029296875,7.385440063476563
0.2689999999999983,6.593197631835938,0.6290985107421876,7.341476440429688
0.2789999999999999,6.872232055664063,1.000247192382813,7.44749755859375
0.2889999999999979,6.8251281738281255,1.0294067382812502,6.527999877929688
0.2989999999999995,6.8056884765625005,1.1701202392578125,6.849951171875
0.3089999999999975,6.508261108398438,0.7259979248046875,7.144985961914063
0.318999999999999,7.028198242187501,-0.07716064453125,7.2291748046875
0.3290000000000006,6.83140869140625,-1.2223083496093752,6.927410888671876
0.3389999999999986,6.986328125000001,-2.1382171630859377,5.826376342773438
0.3490000000000002,7.3200927734375005,-2.2198638916015625,6.133374023437501
0.3589999999999982,7.341625976562501,-1.747927856445313,6.603964233398438
0.3689999999999998,7.005169677734376,-0.3503631591796875,7.2976623535156255
0.3789999999999978,7.345364379882813,1.4173034667968751,7.646679687500001
0.3889999999999993,5.600128173828125,2.7674652099609376,7.366897583007813
0.3990000000000009,5.283560180664063,2.9229827880859376,7.127041625976563
0.4089999999999989,7.438824462890626,1.8212005615234377,7.775729370117188
0.4190000000000005,7.97386474609375,-0.0426177978515625,6.30863037109375
0.4289999999999985,7.557107543945313,-1.2317291259765626,5.92222900390625
0.439,5.879162597656251,-1.5970458984375002,6.449942016601563
0.448999999999998,6.444558715820313,-1.6638885498046876,7.916293334960938
0.4589999999999996,6.976608276367188,-1.6354766845703126,8.019622802734375
0.4689999999999976,8.234954833984375,-1.00906982421875,5.705999755859375
0.4789999999999992,6.8490539550781255,0.05802001953125,4.815512084960938
0.4890000000000007,7.254745483398438,1.4045928955078126,5.922976684570313
0.4989999999999988,6.378164672851563,2.1444976806640628,8.569915771484375
0.5090000000000003,6.539813232421875,1.8789215087890627,8.669955444335939
0.5189999999999984,5.614633178710938,0.7786346435546876,7.065582275390626
0.5289999999999999,6.514691162109376,-0.4412811279296875,6.313116455078125
0.5389999999999979,7.056161499023438,-1.0439117431640623,7.136911010742188
0.5489999999999995,7.674194335937501,-0.9824523925781252,7.591650390625
0.5589999999999975,6.692340087890625,-0.5067779541015626,6.718209838867188
0.5689999999999991,6.939971923828126,-0.1323394775390625,5.36356201171875
0.5790000000000006,7.178482055664063,0.0753662109375,6.252853393554688
0.5889999999999986,7.856777954101563,0.252716064453125,6.829913330078125
0.5990000000000002,6.860269165039063,0.3985137939453125,7.415646362304688
0.6089999999999982,6.207843017578125,0.113348388671875,6.41270751953125
0.6189999999999998,6.594842529296876,-0.21234130859375,7.329513549804688
0.6280000000000001,6.5499816894531255,-0.1996307373046875,7.874722290039063
0.6379999999999981,6.409567260742188,0.2606414794921875,7.919882202148438
0.6479999999999997,6.282162475585938,0.4933197021484375,6.964047241210938
0.6589999999999989,7.568920898437501,0.0838897705078125,5.74278564453125
0.6690000000000005,7.570864868164063,-0.13458251953125,5.986380004882813
0.6780000000000008,7.084274291992188,-0.1395172119140625,6.054867553710938
0.6879999999999988,6.652114868164063,-0.108563232421875,7.242932128906251
0.6980000000000004,6.524859619140625,-0.7280914306640626,7.419534301757813
0.7079999999999984,7.787841796875001,-0.905889892578125,7.272540283203125
0.718,7.464544677734375,0.08792724609375,7.21781005859375
0.727999999999998,4.918093872070313,0.9709381103515624,6.521270751953126
0.7379999999999995,6.495700073242188,1.4078826904296875,7.503125000000001
0.7479999999999976,7.085171508789063,0.8255889892578125,7.6335205078125
0.7590000000000003,7.835543823242188,0.1957427978515625,6.308181762695313
0.7680000000000007,7.012048339843751,0.0657958984375,6.453530883789063
0.7779999999999987,5.979501342773438,0.133087158203125,6.429904174804688
0.7880000000000003,6.660189819335938,-0.031402587890625,8.319891357421875
0.7979999999999983,6.733612060546876,-0.7837188720703125,7.528546142578126
0.8079999999999998,7.688400268554688,-0.9353485107421876,6.085671997070313
0.8179999999999978,6.764416503906251,-0.6675292968750001,5.7230468750000005
0.8279999999999994,6.725088500976563,-0.1529754638671875,6.30205078125
0.8379999999999974,7.362710571289063,0.334063720703125,7.932742309570313
0.847999999999999,6.980346679687501,0.3337646484375,7.262969970703126
0.8589999999999982,6.45218505859375,0.5480499267578125,5.915350341796875
0.8679999999999986,6.339733886718751,0.6793426513671875,6.9582153320312505
0.8780000000000001,6.956869506835938,0.7065582275390625,7.64189453125
0.8879999999999981,6.708340454101563,0.368756103515625,8.152859497070313
0.8979999999999997,7.016235351562501,-0.07476806640625,6.396109008789063
0.9079999999999976,6.82303466796875,-0.3183624267578125,5.900845336914063
0.9179999999999992,6.655404663085938,-0.5821441650390625,6.64000244140625
0.9280000000000008,7.330111694335938,-0.5568725585937501,7.497891235351563
0.9379999999999988,7.369888305664063,-0.567938232421875,7.102966308593751
0.9480000000000004,6.763967895507813,-0.6901092529296875,5.44969482421875
0.9589999999999996,7.505667114257813,-0.308941650390625,6.060400390625
0.968,6.630282592773438,0.3449798583984375,7.665670776367188
0.977999999999998,6.187954711914063,1.1210723876953126,8.205645751953126
0.9879999999999995,5.710186767578126,1.280926513671875,7.9349853515625
0.9979999999999976,7.182220458984376,0.7077545166015625,6.205151367187501
1.0079999999999991,7.219155883789063,0.24105224609375,6.526504516601563
1.018000000000001,7.5040222167968755,0.032000732421875,6.633123779296875
1.0279999999999987,6.539962768554688,-0.129498291015625,7.13646240234375
1.0380000000000005,6.441268920898438,-0.855047607421875,6.5448974609375
1.0479999999999985,7.336242675781251,-1.517791748046875,6.113784790039063
1.0589999999999975,7.689147949218751,-1.5726715087890626,6.236703491210938
1.0679999999999978,6.5021301269531255,-0.9879852294921876,6.801800537109376
1.0779999999999994,6.763668823242188,0.1096099853515625,7.688848876953125
1.0879999999999974,7.552621459960938,1.2212615966796876,8.017678833007814
1.097999999999999,6.115878295898438,2.130889892578125,7.066629028320313
1.106999999999999,5.513546752929688,2.42607421875,6.428707885742188
1.1179999999999986,7.103414916992188,1.9010528564453129,7.667315673828125
1.126999999999999,7.464843750000001,0.18961181640625,6.6157775878906255
1.1370000000000005,7.808776855468751,-1.4196960449218752,6.465344238281251
1.1469999999999985,6.4961486816406255,-1.9728302001953129,6.144888305664063
1.158999999999999,6.171804809570313,-1.6867675781250002,7.444058227539063
1.1679999999999993,6.308480834960938,-1.2915435791015626,8.2675537109375
1.1769999999999996,7.713970947265626,-0.745587158203125,7.008309936523438
1.1869999999999976,7.140798950195313,0.3339141845703125,5.5271545410156255
1.1969999999999992,7.051974487304688,1.7272918701171875,5.6261474609375
1.2070000000000007,6.342425537109375,2.35369873046875,7.229324340820313
1.2169999999999987,7.530639648437501,1.7521148681640626,8.323629760742188
1.2270000000000003,6.220852661132813,0.5902191162109376,7.192538452148438
1.2369999999999983,5.849554443359375,-0.3218017578125,6.57181396484375
1.247,6.31700439453125,-1.1506805419921875,7.248614501953125
1.256999999999998,7.687203979492188,-1.7760406494140626,7.668063354492188
1.2669999999999997,7.951583862304688,-1.7869567871093752,6.305490112304688
1.2769999999999977,7.250558471679688,-1.1209228515625,5.007366943359376
1.286999999999999,6.491812133789063,-0.0107666015625,5.611941528320313
1.2970000000000006,7.213473510742188,0.974676513671875,7.742083740234375
1.3069999999999986,7.263867187500001,1.34761962890625,8.137905883789063
1.3170000000000002,6.1955810546875005,1.102081298828125,6.64598388671875
1.3269999999999982,6.233563232421876,0.9697418212890626,6.669461059570313
1.3369999999999995,6.1552062988281255,0.7843170166015626,7.866796875
1.3469999999999978,6.6456848144531255,0.39058837890625,8.530587768554689
1.356999999999999,6.874176025390626,-0.3600830078125,7.086068725585938
1.3670000000000009,7.351046752929688,-1.1091094970703126,5.054171752929688
1.376999999999999,7.276129150390625,-1.23995361328125,5.532986450195313
1.3870000000000005,8.097381591796875,-0.8375518798828125,6.791781616210938
1.3969999999999985,6.495251464843751,-0.3838592529296875,7.487274169921876
1.407,6.336743164062501,-0.2325286865234375,6.056063842773438
1.416999999999998,6.4079223632812505,-0.1978363037109375,6.769949340820313
1.4269999999999996,7.110293579101563,0.0844879150390625,7.59224853515625
1.4369999999999976,7.9804443359375,0.916058349609375,8.003173828125
1.4469999999999992,7.383645629882813,1.5906158447265626,6.990066528320313
1.4570000000000007,4.610797119140625,1.1716156005859375,5.192044067382813
1.4669999999999987,6.8026977539062505,0.834112548828125,7.630828857421876
1.4770000000000003,7.21123046875,0.03768310546875,8.384341430664064
1.4869999999999983,7.234109497070313,-0.6622955322265626,7.156799316406251
1.497,6.926065063476563,-1.0711273193359376,6.259283447265625
1.506999999999998,6.128140258789063,-0.74110107421875,5.643194580078125
1.5169999999999997,6.970327758789063,0.2095001220703125,8.430398559570314
1.5269999999999977,6.771444702148438,0.3069976806640625,7.857077026367188
1.536999999999999,7.905377197265626,0.09031982421875,5.763421630859376
1.5470000000000006,7.141247558593751,-0.2235565185546875,4.9264678955078125
1.5569999999999986,6.590505981445313,-0.1042266845703125,5.8610687255859375
1.5670000000000002,6.9659912109375,0.458477783203125,9.0810302734375
1.5769999999999982,6.137411499023438,0.141461181640625,8.494549560546876
1.5869999999999995,6.334350585937501,-0.062506103515625,6.216964721679688
1.5969999999999978,6.705349731445313,-0.08314208984375,6.070269775390625
1.605999999999998,7.530191040039063,0.2761932373046875,6.828567504882813
1.6170000000000009,6.996945190429688,0.7068572998046876,7.840927124023438
1.6259999999999977,7.134967041015625,0.4251312255859375,6.816305541992188
1.6359999999999992,6.345864868164063,-0.17406005859375,5.442218017578125
1.6460000000000008,7.2650634765625,-0.6231170654296876,6.534579467773438
1.6559999999999988,6.8864379882812505,-0.5090209960937501,7.84825439453125
1.6660000000000004,6.952832031250001,-0.4158599853515625,7.598828125000001
1.6759999999999984,6.304592895507813,-0.5202362060546876,6.459362792968751
1.686,7.386636352539063,-0.2106964111328125,5.824432373046875
1.695999999999998,6.687704467773438,0.3874481201171875,7.309027099609375
1.7059999999999995,6.887185668945313,1.1327362060546875,7.60660400390625
1.7159999999999975,6.3839965820312505,1.1698211669921876,7.591799926757813
1.725999999999999,6.877764892578125,0.4137664794921875,6.0285491943359375
1.7360000000000009,7.100424194335938,-0.0106170654296875,6.517681884765626
1.7459999999999989,7.115676879882813,-0.2292388916015625,7.207641601562501
1.7560000000000002,6.177487182617188,-0.562255859375,7.006665039062501
1.7659999999999982,7.123004150390625,-1.1361755371093751,6.295770263671876
1.7759999999999998,7.329513549804688,-1.646243286132813,6.190496826171875
1.7859999999999978,7.04075927734375,-1.2024200439453123,6.651815795898438
1.7959999999999994,7.819692993164063,0.2086029052734375,7.866049194335938
1.806000000000001,7.014889526367188,1.6414581298828126,7.445703125
1.815999999999999,4.570571899414063,2.0553741455078125,6.433642578125
1.8260000000000003,6.71177978515625,2.039523315429688,7.514788818359375
1.8359999999999983,7.326522827148438,1.342236328125,7.805786132812501
1.846,7.259530639648438,0.1042266845703125,6.6429931640625
1.855999999999998,7.159341430664063,-1.1005859375,6.026007080078125
1.866,6.558953857421876,-1.6045227050781252,6.1671691894531255
1.8759999999999977,6.377566528320313,-1.4273223876953125,8.075997924804689
1.8859999999999992,6.741986083984376,-1.1144927978515626,7.872479248046876
1.8960000000000008,7.476507568359375,-0.5957519531250001,6.373379516601563
1.9059999999999988,7.351495361328125,0.3132781982421875,5.278326416015625
1.9160000000000004,6.256442260742188,1.268365478515625,5.8535919189453125
1.9259999999999984,7.641744995117188,2.004083251953125,8.24063720703125
1.936,6.288891601562501,1.3704986572265625,7.936779785156251
1.945999999999998,6.5927490234375,0.5073760986328125,6.63402099609375
1.9559999999999995,6.002081298828125,-0.5156005859375,6.511849975585938
1.9659999999999973,7.233062744140626,-1.0397247314453126,7.475759887695313
1.975999999999999,7.0105529785156255,-1.123016357421875,7.575051879882813
1.9860000000000009,7.546640014648438,-1.2541595458984376,6.404483032226563
1.9959999999999989,6.701611328125001,-0.9531433105468752,4.9215332031250005
2.006,7.539312744140625,-0.081048583984375,6.367098999023438
2.0159999999999982,6.816305541992188,0.78297119140625,7.763317871093751
2.026,7.101321411132813,1.0966979980468752,7.4445068359375
2.035999999999998,6.175991821289063,0.9526947021484377,7.000534057617188
2.046,6.342126464843751,0.756353759765625,6.5472900390625
2.056000000000001,6.203207397460938,0.743194580078125,8.139999389648438
2.065999999999999,7.086666870117188,0.37623291015625,7.9212280273437505
2.0760000000000005,6.767556762695313,-0.4403839111328125,6.533981323242188
2.0859999999999985,7.254296875,-1.0065277099609375,5.3462158203125005
2.096,7.245773315429688,-0.942974853515625,5.783160400390625
2.105999999999998,6.863110351562501,-0.86072998046875,6.991561889648438
2.1149999999999984,7.112387084960938,-0.9547882080078126,7.07724609375
2.125,7.821636962890626,-0.7741485595703126,6.886737060546875
2.134999999999998,7.562191772460938,0.2295379638671875,6.37681884765625
2.145,5.573809814453125,1.6360748291015623,7.499386596679688
2.1549999999999976,5.511004638671875,2.1440490722656254,8.059548950195314
2.164999999999999,6.766510009765626,1.7711059570312502,8.344265747070313
2.1750000000000007,6.452334594726563,0.6210235595703125,6.367996215820313
2.1849999999999987,7.892367553710938,-0.4170562744140625,5.666671752929688
2.1950000000000003,7.907620239257813,-1.0615570068359377,6.626693725585938
2.2049999999999983,6.042605590820313,-0.9975555419921877,7.046591186523438
2.215,6.516635131835938,-0.7119415283203125,7.875469970703126
2.224999999999998,6.587814331054688,-0.9823028564453126,6.891970825195313
2.2349999999999994,7.583126831054688,-1.0014434814453126,5.774337768554688
2.244999999999997,7.888928222656251,-0.0611602783203125,6.419436645507813
2.254999999999999,6.100775146484375,0.99112548828125,6.538467407226563
2.265000000000001,6.598281860351563,1.4711364746093751,7.702606201171876
2.2749999999999986,6.5963378906250005,0.98275146484375,7.6700073242187505
2.285,7.220053100585938,0.5612091064453125,6.652862548828126
2.294999999999998,5.891424560546875,0.461468505859375,7.1466308593750005
2.305,6.682171630859376,0.0904693603515625,6.876718139648438
2.3149999999999977,7.110443115234376,-0.5010955810546875,7.748065185546875
2.325,7.72862548828125,-1.1331848144531251,6.061746215820313
2.335000000000001,6.808679199218751,-0.8623748779296876,6.176141357421876
2.344999999999999,6.3750244140625005,-0.419598388671875,6.351696777343751
2.3550000000000004,7.122406005859376,-0.039178466796875,7.618267822265626
2.3649999999999984,7.509405517578125,-0.0722259521484375,6.886138916015626
2.375,7.5129943847656255,-0.146844482421875,5.710186767578126
2.384999999999998,6.455325317382813,0.3844573974609375,6.226235961914063
2.395,6.187057495117188,0.950750732421875,8.037567138671875
2.4049999999999976,6.030642700195313,1.179541015625,9.037664794921875
2.414999999999999,6.617721557617188,0.6078643798828125,7.495947265625
2.4250000000000007,6.933242797851563,0.0131591796875,5.648428344726563
2.4349999999999987,7.409365844726563,-0.2202667236328125,5.846713256835938
2.4450000000000003,7.216613769531251,-0.1789947509765625,7.192089843750001
2.4549999999999983,6.92412109375,-0.5022918701171876,7.031039428710938
2.465,6.826773071289063,-1.2173736572265623,5.8621154785156255
2.474999999999998,7.770196533203125,-1.6434020996093752,5.273690795898438
2.4849999999999994,6.490914916992188,-1.3748352050781252,7.217959594726563
2.494999999999997,7.351495361328125,0.003289794921875,8.295516967773438
2.504999999999999,6.993804931640626,1.5882232666015623,8.626739501953125
2.515000000000001,5.181726074218751,2.104721069335937,6.333901977539063
2.5249999999999986,5.959164428710938,2.3655120849609377,6.385342407226563
2.535,7.66402587890625,1.7156280517578126,7.73580322265625
2.544999999999998,7.8632080078125,0.4080841064453125,6.794473266601563
2.555,7.225735473632813,-1.1017822265625,6.238049316406251
2.5649999999999977,6.194235229492188,-1.8881927490234376,5.945407104492188
2.575,6.505569458007813,-1.6597015380859377,7.919134521484375
2.585000000000001,6.142645263671875,-1.3150207519531252,8.53851318359375
2.594999999999999,7.326373291015625,-0.6406127929687501,7.082180786132813
2.603999999999999,7.438375854492188,0.1673309326171875,5.185314941406251
2.6140000000000008,6.956121826171875,1.463958740234375,5.359225463867188
2.6239999999999988,7.011001586914063,2.142254638671876,7.014889526367188
2.6340000000000003,7.395309448242188,1.6211212158203123,8.402285766601564
2.6439999999999984,6.277676391601563,0.530255126953125,6.689199829101563
2.654,5.762374877929688,-0.4837493896484375,6.836193847656251
2.663999999999998,6.550131225585938,-1.1734100341796876,7.350598144531251
2.6750000000000007,7.282110595703125,-1.44332275390625,8.211627197265626
2.683999999999997,7.296615600585938,-1.2688140869140625,6.570916748046876
2.6950000000000003,7.376019287109376,-0.7375122070312501,5.127145385742188
2.7040000000000006,6.6549560546875,0.0955535888671875,5.44969482421875
2.713999999999998,7.8389831542968755,0.931011962890625,7.367196655273438
2.724,6.764715576171875,1.1281005859375002,7.860964965820313
2.733999999999998,6.579290771484375,0.8184112548828125,6.7004150390625
2.744,6.160739135742188,0.5052825927734376,6.812866210937501
2.753999999999998,6.216067504882813,0.2065093994140625,7.681521606445313
2.764,6.517831420898438,0.250921630859375,8.616421508789063
2.774000000000001,6.632077026367188,-0.164788818359375,7.14842529296875
2.783999999999999,7.4744140625,-0.6316406250000001,5.39227294921875
2.7940000000000005,7.619613647460938,-0.8578887939453126,5.1986236572265625
2.8039999999999985,7.953976440429688,-0.4720855712890625,6.644638061523438
2.814,6.039315795898438,-0.0770111083984375,7.221099853515626
2.823999999999998,6.583627319335938,-0.2109954833984375,7.012347412109375
2.834,6.4004455566406255,-0.5281616210937501,6.990365600585938
2.8439999999999976,7.193136596679688,-0.39656982421875,7.284054565429688
2.853999999999999,8.282357788085939,0.8347106933593751,7.684213256835938
2.8640000000000008,6.078793334960938,1.3367034912109377,6.586468505859376
2.8739999999999988,5.771496582031251,1.1550170898437502,5.646334838867188
2.8840000000000003,7.134817504882813,0.7194183349609375,7.994201660156251
2.8939999999999984,7.026254272460938,0.1197784423828125,7.486526489257813
2.904,7.124798583984376,-0.283819580078125,7.42955322265625
2.913999999999998,5.978305053710938,-0.57242431640625,6.3645568847656255
2.9239999999999995,6.713275146484375,-0.452197265625,6.433193969726563
2.933999999999997,7.23336181640625,-0.1897613525390625,8.145083618164064
2.943999999999999,7.217361450195313,-0.313427734375,6.3176025390625
2.9540000000000006,7.337588500976563,-0.2552581787109375,6.001483154296875
2.963999999999998,6.950888061523438,-0.3243438720703125,5.56094970703125
2.974,6.929953002929688,-0.0043365478515625,6.888980102539063
2.983999999999998,6.835745239257813,0.2941375732421875,8.48109130859375
2.994,6.369790649414063,0.248828125,7.012796020507813
3.003999999999998,6.203506469726563,0.46416015625,6.950888061523438
3.014,6.806735229492188,0.4735809326171875,6.656750488281251
3.024000000000001,6.959561157226563,0.6391174316406251,7.737298583984375
3.033999999999999,7.224240112304688,0.480010986328125,7.0883117675781255
3.0440000000000005,7.068572998046876,0.0904693603515625,6.088812255859375
3.0539999999999985,6.569271850585938,-0.499151611328125,5.950042724609375
3.064,7.108947753906251,-0.7786346435546876,7.140499877929688
3.073999999999998,6.943411254882813,-0.7093994140625001,7.6356140136718755
3.084,7.059750366210938,-0.8028594970703126,6.719406127929688
3.0939999999999976,7.021319580078125,-0.6581085205078125,5.614633178710938
3.103999999999999,7.157098388671876,0.0157012939453125,6.851895141601563
3.1129999999999995,6.155056762695313,1.05093994140625,7.744625854492188
3.1239999999999988,6.318051147460938,1.6157379150390627,8.199215698242188
3.132999999999999,6.764117431640625,1.113894653320313,6.743630981445313
3.1430000000000007,7.233959960937501,0.295782470703125,6.070718383789063
3.1529999999999987,7.052572631835938,0.0671417236328125,6.622955322265626
3.1630000000000003,6.6310302734375,-0.0991424560546875,7.398001098632813
3.1729999999999983,6.283956909179688,-0.8806182861328126,6.968234252929688
3.183,7.792327880859376,-1.8108825683593752,5.85703125
3.192999999999998,7.045095825195313,-2.03369140625,6.153411865234376
3.2029999999999994,7.2408386230468755,-0.9520965576171876,6.788940429687501
3.2129999999999974,7.709484863281251,0.7955322265625001,8.160635375976563
3.222999999999999,6.0448486328125,1.7630310058593752,7.487274169921876
3.2330000000000005,4.936636352539063,2.246331787109375,6.262423706054688
3.2429999999999986,7.080386352539063,2.2645751953125,8.028894042968751
3.253,7.303045654296875,1.263430786132813,7.255792236328125
3.262999999999998,7.7402893066406255,-0.2406036376953125,6.454129028320313
3.273,6.617871093750001,-1.3713958740234375,5.885443115234375
3.2829999999999977,6.421978759765626,-1.65028076171875,6.39237060546875
3.293,6.608001708984376,-1.6858703613281252,8.534475708007813
3.303000000000001,7.193435668945313,-1.528558349609375,7.225735473632813
3.312999999999999,7.355682373046876,-0.6189300537109376,6.113485717773438
3.3230000000000004,6.674993896484375,0.7729522705078126,5.492462158203125
3.3329999999999984,6.679779052734376,1.9813537597656248,6.689797973632813
3.343,7.4786010742187505,2.1307403564453127,8.455520629882812
3.352999999999998,6.857278442382813,1.310833740234375,6.899597167968751
3.3629999999999995,5.627044677734375,0.5492462158203125,6.664376831054688
3.3729999999999976,6.263619995117188,-0.396270751953125,7.035226440429688
3.382999999999999,7.013543701171876,-1.2218597412109375,8.282806396484375
3.3930000000000007,7.735653686523438,-1.8001159667968751,6.8146606445312505
3.4029999999999987,7.60361328125,-1.588970947265625,5.396011352539063
3.4130000000000003,6.090008544921876,-0.870001220703125,4.971627807617188
3.4229999999999983,7.6957275390625,0.314923095703125,7.569070434570313
3.433,7.26925048828125,0.9506011962890626,7.831207275390626
3.442999999999998,6.76920166015625,0.987835693359375,6.809127807617188
3.4529999999999994,6.267208862304688,1.0323974609375002,5.811123657226563
3.4629999999999974,6.211132812500001,1.0045837402343751,7.790234375000001
3.472999999999999,6.360818481445313,0.8780761718750001,8.753546142578125
3.4830000000000005,6.671704101562501,0.2068084716796875,8.126541137695312
3.4929999999999986,6.754696655273438,-0.6760528564453125,5.489471435546875
3.503,7.556958007812501,-1.1900085449218751,5.145388793945313
3.512999999999998,7.607800292968751,-1.0107147216796877,6.555664062500001
3.523,7.0712646484375,-0.683380126953125,7.009655761718751
3.5329999999999977,6.593347167968751,-0.6682769775390626,6.789837646484376
3.543,6.678582763671876,-0.714483642578125,6.350201416015626
3.553000000000001,7.884890747070313,0.059814453125,7.220651245117188
3.562999999999999,7.166668701171876,1.3812652587890626,8.076446533203125
3.5730000000000004,4.889682006835938,1.8931274414062504,6.855633544921876
3.5829999999999984,6.608151245117188,1.616336059570313,7.198669433593751
3.593,6.672152709960938,0.641510009765625,7.236950683593751
3.602999999999998,8.098129272460938,-0.12620849609375,6.769351196289063
3.6119999999999983,6.950140380859375,-0.54251708984375,7.096237182617188
3.6229999999999976,5.761776733398438,-0.7406524658203125,5.725588989257813
3.631999999999998,7.225735473632813,-0.7940368652343751,7.9451538085937505
3.642,6.966888427734376,-0.9870880126953124,7.0823303222656255
3.6519999999999975,7.223492431640626,-0.5728729248046875,6.557608032226563
3.661999999999999,6.86131591796875,0.0261688232421875,6.20335693359375
3.6720000000000006,6.881652832031251,0.4373931884765625,5.957220458984375
3.681999999999999,7.191940307617188,0.6628936767578125,7.5967346191406255
3.692,7.040011596679688,0.5012451171875001,6.999786376953126
3.701999999999998,6.370239257812501,0.5764617919921875,6.950140380859375
3.712,6.139953613281251,0.37144775390625,6.941467285156251
3.7219999999999978,6.775631713867188,0.193798828125,7.771243286132813
3.7319999999999993,7.04075927734375,-0.068487548828125,7.551574707031251
3.742000000000001,6.983935546875,-0.0121124267578125,6.552972412109376
3.751999999999999,6.507812500000001,-0.1876678466796875,5.963201904296875
3.762000000000001,7.3230834960937505,-0.346923828125,6.623852539062501
3.772,7.453927612304688,-0.4510009765625,6.9223266601562505
3.782,7.352841186523438,-0.5912658691406251,6.634469604492188
3.791999999999998,6.6621337890625005,-0.538031005859375,5.934640502929688
3.802,7.003524780273438,-0.2498748779296875,6.998440551757813
3.8119999999999976,6.1142333984375,0.3458770751953125,7.955172729492188
3.821999999999999,6.465792846679688,0.935797119140625,8.066577148437501
3.8320000000000007,6.087615966796875,1.1370727539062502,7.240390014648438
3.841999999999999,7.438525390625,0.7228576660156251,6.0176330566406255
3.852,7.2650634765625,0.3997100830078125,6.471923828125001
3.8619999999999983,7.235903930664063,0.014654541015625,6.315658569335938
3.872,6.369342041015625,-0.6258087158203125,6.507363891601563
3.881999999999998,7.184613037109376,-1.5626525878906252,6.793426513671876
3.892,6.926663208007813,-2.080645751953125,7.0524230957031255
3.9019999999999975,8.280264282226563,-0.8638702392578126,7.615576171875
3.911999999999999,6.267059326171876,0.9008056640625,7.023263549804688
3.9220000000000006,4.699322509765626,1.8288269042968752,6.515737915039063
3.931999999999999,7.223193359375,2.0019897460937504,7.768701171875
3.942,7.510751342773438,1.5098663330078126,7.4053283691406255
3.951999999999998,7.457516479492188,0.738409423828125,6.244628906250001
3.962,6.486578369140625,-0.1655364990234375,6.332705688476563
3.9719999999999978,6.440521240234376,-0.92174072265625,6.671853637695313
3.9819999999999993,6.823483276367188,-1.373638916015625,8.490960693359376
3.992000000000001,6.8176513671875005,-1.696636962890625,6.946850585937501
4.001999999999999,7.093994140625001,-1.26148681640625,6.223095703125001
4.0120000000000005,7.206893920898438,-0.1727142333984375,5.9635009765625
4.021999999999999,6.556112670898438,1.1599517822265626,6.865652465820313
4.032,7.03836669921875,1.7883026123046877,7.840328979492188
4.041999999999998,6.805389404296876,1.5212310791015626,7.0353759765625
4.052,6.495101928710938,0.986639404296875,6.329415893554688
4.061999999999998,6.481045532226563,0.2100982666015625,6.869540405273438
4.071999999999999,7.0284973144531255,-0.6951934814453126,7.517330932617188
4.081,7.342074584960938,-1.382611083984375,7.343569946289063
4.091999999999999,6.942813110351563,-1.6507293701171877,5.9969970703125
4.102,6.676190185546876,-1.0922119140625002,6.167318725585938
4.111000000000001,6.866549682617188,-0.19140625,6.951486206054688
4.122,7.359869384765625,0.6153411865234375,7.518826293945313
4.131,6.854287719726563,0.9606201171875,6.751705932617188
4.140999999999998,7.005917358398438,0.992919921875,5.655905151367188
4.151,6.780117797851563,1.0400238037109375,7.328765869140626
4.160999999999998,6.319696044921876,0.7588958740234375,7.79442138671875
4.172000000000001,6.126644897460938,0.4173553466796875,8.53253173828125
4.181000000000001,6.323733520507813,-0.3829620361328125,6.622357177734376
4.190999999999999,7.357925415039063,-1.0492950439453126,6.0783447265625
4.2010000000000005,7.831057739257813,-1.1414093017578126,6.120962524414063
4.210999999999999,7.471572875976563,-0.5734710693359375,6.741986083984376
4.221,6.193786621093751,-0.01375732421875,6.784005737304688
4.230999999999998,6.874176025390626,0.184527587890625,6.650320434570313
4.241,6.822286987304688,0.051141357421875,6.5858703613281255
4.250999999999998,6.894662475585938,0.002392578125,6.807034301757813
4.260999999999999,6.202609252929688,0.293389892578125,7.583874511718751
4.271000000000001,7.976705932617188,0.243743896484375,7.453030395507813
4.280999999999999,8.148223876953125,0.394476318359375,6.847409057617188
4.291,5.42935791015625,0.3840087890625,5.666970825195313
4.300999999999998,6.211730957031251,0.7766906738281251,7.00845947265625
4.311,6.360968017578125,0.4701416015625,8.6862548828125
4.320999999999998,7.203454589843751,-0.3799713134765625,7.462750244140626
4.331,7.646231079101563,-0.7168762207031251,6.381304931640625
4.3409999999999975,6.029745483398438,-0.1105072021484375,5.889031982421876
4.350999999999999,6.335995483398438,0.7716064453125001,7.3574768066406255
4.361000000000001,7.464843750000001,0.4454681396484375,8.286544799804688
4.370999999999999,7.865451049804688,-0.4433746337890625,5.743084716796876
4.381,7.044647216796876,-0.890936279296875,4.871438598632813
4.390999999999998,6.518130493164063,-0.4344024658203125,6.43125
4.401,6.519476318359375,-0.06878662109375,8.301498413085938
4.410999999999998,6.832904052734375,-0.015850830078125,9.123348999023438
4.420999999999999,6.43065185546875,-0.042767333984375,5.8558349609375
4.431000000000001,6.312966918945313,0.6794921875000001,6.079989624023438
4.440999999999999,6.831857299804688,1.1859710693359375,6.982739257812501
4.4510000000000005,7.756588745117188,1.09759521484375,8.027099609375
4.460999999999999,7.210931396484375,0.1766021728515625,6.618319702148438
4.471,7.146182250976563,-0.4498046875,5.16258544921875
4.480999999999998,5.627194213867188,-0.7319793701171875,6.701013183593751
4.491,7.020721435546876,-0.8022613525390626,8.553616333007813
4.500999999999998,6.899746704101563,-0.8314208984375001,8.2675537109375
4.510999999999999,7.373626708984376,-1.0235748291015625,5.430255126953125
4.521000000000001,6.97257080078125,-0.3864013671875,4.706948852539063
4.530999999999999,7.572509765625001,0.6733612060546875,7.050479125976563
4.541,6.312368774414063,1.5876251220703126,8.425015258789063
4.552,6.221749877929688,1.5639984130859377,8.169158935546875
4.561,6.192739868164063,0.7923919677734376,6.161935424804688
4.570999999999998,7.057955932617188,0.0346923828125,6.2302734375
4.581,7.374224853515625,-0.296380615234375,7.729373168945313
4.5909999999999975,6.863708496093751,-0.4278228759765625,7.346710205078126
4.599999999999998,6.013595581054688,-1.024322509765625,6.372781372070313
4.609999999999999,7.521218872070313,-1.5358856201171875,4.8126708984375
4.619999999999997,7.957415771484375,-1.681982421875,6.602618408203125
4.629999999999999,7.254745483398438,-0.8380004882812501,7.041506958007813
4.640000000000001,7.384243774414063,0.8040557861328126,8.189346313476562
4.651,5.588763427734375,1.8569396972656247,7.512097167968751
4.66,4.9466552734375,2.266668701171876,6.7087890625
4.669999999999998,7.202557373046876,2.179190063476563,8.456417846679688
4.68,7.419384765625001,1.1372222900390625,6.703555297851563
4.689999999999998,7.643838500976563,-0.32239990234375,5.8262268066406255
4.699999999999999,6.920532226562501,-1.51270751953125,5.75833740234375
4.710000000000001,6.673797607421876,-1.690655517578125,6.901840209960938
4.719999999999999,6.396109008789063,-1.61080322265625,8.709732055664062
4.73,6.914700317382813,-1.3136749267578125,7.150817871093751
4.739999999999998,6.941018676757813,-0.5405731201171875,5.982492065429688
4.750999999999998,7.185061645507813,0.7811767578125001,5.9174438476562505
4.759999999999998,6.637310791015626,2.0120086669921875,6.895260620117188
4.77,7.348056030273438,2.2298828125,8.090054321289063
4.779999999999998,6.523065185546876,1.295281982421875,6.486578369140625
4.789999999999999,6.568972778320313,0.264678955078125,6.646731567382813
4.800000000000001,6.147579956054688,-0.6461456298828125,7.0616943359375
4.809999999999999,7.100125122070313,-1.3178619384765626,8.135812377929689
4.82,6.916943359375001,-1.7346191406250002,7.179379272460938
4.829999999999998,7.951733398437501,-1.5459045410156251,5.4259185791015625
4.84,6.165524291992188,-0.7502227783203126,5.600875854492188
4.850999999999999,7.65206298828125,0.52935791015625,6.893167114257813
4.859999999999999,6.858624267578126,1.313226318359375,8.007958984375001
4.869999999999997,7.123303222656251,1.1056701660156252,6.535476684570313
4.879999999999999,6.569271850585938,0.9034973144531252,6.110195922851563
4.890000000000001,6.294424438476563,0.7256988525390625,7.473666381835938
4.899999999999999,5.912509155273438,0.6769500732421876,8.664572143554688
4.91,6.587216186523438,0.0913665771484375,8.318096923828126
4.919999999999998,7.003524780273438,-0.8984130859375,5.860919189453125
4.93,7.716064453125001,-1.2410003662109377,4.97117919921875
4.939999999999998,7.49654541015625,-0.8184112548828125,6.386538696289063
4.9510000000000005,7.144387817382813,-0.17166748046875,6.968234252929688
4.960000000000001,6.371585083007813,-0.2570526123046875,6.894064331054688
4.969999999999999,7.000982666015625,-0.5513397216796876,5.993557739257813
4.98,6.453829956054688,-0.4176544189453125,7.222146606445313
4.989999999999998,7.778570556640625,0.51739501953125,8.0952880859375
5.0,7.704998779296876,1.423883056640625,7.774832153320313
5.009999999999998,4.8138671875000005,1.2740478515625,5.916098022460938
5.02,6.266311645507813,1.0952026367187502,6.470578002929688
5.029999999999998,7.071414184570313,0.5970977783203125,8.39794921875
5.038999999999998,7.669259643554688,-0.1987335205078125,7.438973999023438
5.050999999999998,7.191940307617188,-0.781475830078125,6.389978027343751
5.059999999999999,5.816207885742188,-0.78297119140625,5.64349365234375
5.07,6.713574218750001,-0.168377685546875,7.668661499023438
5.079000000000001,7.02281494140625,-0.0811981201171875,8.461203002929688
5.09,7.680325317382813,-0.2346221923828125,6.353790283203126
5.099,6.962252807617188,-0.38341064453125,4.748669433593751
5.108999999999998,6.830810546875001,-0.0967498779296875,5.68536376953125
5.119,7.212127685546876,0.3844573974609375,7.906872558593751
5.128999999999998,6.994253540039063,0.2974273681640625,8.815902709960938
5.138999999999999,5.928060913085938,0.1224700927734375,6.234310913085938
5.151,6.000286865234376,0.304156494140625,6.706845092773438
5.16,6.697872924804688,0.5941070556640625,7.38828125
5.1690000000000005,7.542153930664063,0.652874755859375,8.145681762695313
5.178999999999999,7.354037475585938,0.1902099609375,6.342276000976563
5.189,7.17294921875,-0.2023223876953125,4.983441162109376
5.198999999999998,6.078643798828125,-0.495562744140625,6.300555419921875
5.209,7.369140625000001,-0.492572021484375,8.164373779296875
5.218999999999998,7.056161499023438,-0.6465942382812501,8.197421264648439
5.228999999999999,6.817950439453125,-1.0053314208984376,5.492462158203125
5.239000000000001,6.823782348632813,-0.4988525390625,5.514294433593751
5.248999999999999,7.13048095703125,0.3799713134765625,7.424618530273438
5.259,6.498242187500001,1.3573394775390626,8.449688720703126
5.268999999999998,6.406875610351563,1.39068603515625,7.686306762695313
5.279,6.580337524414063,0.783270263671875,5.738748168945313
5.288999999999998,7.1406494140625005,0.25660400390625,6.171356201171876
5.299,7.41280517578125,-0.0306549072265625,7.701110839843751
5.3089999999999975,6.534878540039063,-0.374139404296875,7.207940673828125
5.318999999999999,6.241339111328125,-1.1744567871093752,6.363659667968751
5.329000000000001,7.009655761718751,-1.748974609375,5.665325927734376
5.338999999999999,7.715017700195313,-1.6351776123046875,7.105508422851563
5.349,8.347555541992188,-0.0148040771484375,7.5862670898437505
5.358999999999998,6.713873291015625,1.281524658203125,6.933541870117188
5.369,4.478756713867188,1.8523040771484376,6.1118408203125005
5.378999999999998,6.700115966796876,2.1624420166015628,8.130877685546876
5.388999999999999,6.785949707031251,1.62276611328125,8.679675292968751
5.399000000000001,7.817001342773438,0.319110107421875,6.528149414062501
5.408999999999999,6.883297729492188,-1.0214813232421875,5.481396484375001
5.4190000000000005,6.4886718750000005,-1.6118499755859377,5.330514526367188
5.428999999999999,7.379159545898438,-1.3118804931640626,8.599374389648439
5.439,6.650320434570313,-1.5273620605468752,7.650268554687501
5.448999999999998,7.370486450195313,-1.1775970458984375,6.024661254882813
5.459,6.861614990234376,-0.13338623046875,5.488424682617188
5.468999999999998,6.512747192382813,1.4075836181640626,6.710433959960938
5.478999999999999,6.656750488281251,2.399456787109376,8.9063720703125
5.489000000000001,6.942214965820313,1.809686279296875,7.700512695312501
5.498999999999999,6.491961669921875,1.036285400390625,5.860171508789063
5.509,6.197824096679688,0.03529052734375,6.204702758789063
5.518999999999998,7.14244384765625,-0.6207244873046875,7.759579467773438
5.529,7.415048217773438,-1.4733795166015626,8.042202758789063
5.538999999999998,7.191043090820313,-2.011260986328125,5.974417114257813
5.549,6.878811645507813,-1.5532318115234376,4.928561401367188
5.5589999999999975,6.909915161132813,-0.5313018798828125,6.729873657226563
5.568999999999999,7.086517333984376,0.7280914306640626,7.883395385742188
5.579000000000001,7.0898071289062505,1.2985717773437502,7.863955688476563
5.588999999999999,6.514242553710938,1.212588500976563,5.426815795898438
5.597999999999999,6.796267700195313,1.1609985351562502,6.482839965820313
5.6080000000000005,6.352145385742188,1.0503417968750002,8.253347778320313
5.617999999999999,6.396707153320313,0.7059600830078125,8.687002563476563
5.628,6.241488647460938,-0.3381011962890625,7.127938842773438
5.637999999999998,7.412655639648438,-1.4135650634765626,5.135369873046876
5.648,7.499386596679688,-1.4845947265625,6.052325439453125
5.657999999999998,7.595837402343751,-0.743194580078125,7.179678344726563
5.667999999999999,6.461306762695313,-0.0761138916015625,7.201211547851563
5.678000000000001,6.523065185546876,-0.059814453125,6.061148071289063
5.687999999999999,6.896606445312501,-0.08314208984375,5.90667724609375
5.698,7.1421447753906255,0.09869384765625,7.374374389648438
5.707999999999998,7.083377075195313,0.677398681640625,8.03726806640625
5.718,8.209982299804688,0.9500030517578124,7.47142333984375
5.727999999999998,5.285504150390626,0.6557159423828125,5.898153686523438
5.738,5.9283599853515625,0.6697723388671876,6.285751342773438
5.7479999999999976,6.868942260742188,0.5537322998046875,8.951083374023439
5.757999999999999,7.226931762695313,-0.277838134765625,7.517330932617188
5.768000000000001,7.593594360351563,-0.978564453125,6.121112060546875
5.777999999999999,6.29666748046875,-0.6735107421875001,5.667269897460938
5.788,6.350350952148438,0.3605316162109375,7.145285034179688
5.797999999999998,6.988272094726563,0.60113525390625,8.970672607421875
5.808,7.654306030273438,-0.0997406005859375,6.267807006835938
5.817999999999998,7.049880981445313,-0.6021820068359376,4.863363647460938
5.827999999999999,6.912606811523438,-0.3153717041015625,5.607156372070313
5.837999999999997,6.7069946289062505,0.2117431640625,7.958761596679688
5.847999999999999,7.027749633789063,0.0514404296875,8.954672241210938
5.8580000000000005,6.3406311035156255,-0.205462646484375,6.554916381835938
5.867999999999999,6.1731506347656255,0.1254608154296875,5.7903381347656255
5.878,6.537420654296875,0.7687652587890625,7.449441528320313
5.887999999999998,7.543051147460938,0.99351806640625,7.861862182617188
5.898,7.409515380859376,0.385504150390625,7.2291748046875
5.907999999999998,7.0778442382812505,-0.12261962890625,4.698873901367188
5.917999999999999,6.076699829101563,-0.36187744140625,6.264666748046875
5.928000000000001,6.806884765625001,-0.3820648193359375,8.330209350585939
5.937999999999999,7.443908691406251,-0.6705200195312501,8.340676879882814
5.948,6.603366088867188,-1.1037261962890623,6.068325805664063
5.957999999999998,7.1550048828125,-0.7819244384765626,4.552926635742188
5.968,7.049282836914063,0.228790283203125,7.347607421875001
5.977999999999998,6.874325561523438,1.20167236328125,8.160037231445314
5.988,6.208441162109375,1.3942749023437502,8.224636840820313
5.9979999999999976,6.534579467773438,0.8453277587890625,5.708990478515625
6.007999999999999,6.712976074218751,0.3497650146484375,6.1003265380859375
6.018000000000001,7.664773559570313,0.0731231689453125,7.622604370117188
6.027999999999999,6.874774169921875,-0.2053131103515625,7.823431396484375
6.038,5.9084716796875005,-0.87867431640625,6.230572509765626
6.047999999999998,7.089358520507813,-1.4889312744140626,5.226287841796875
6.058,7.924966430664063,-1.6544677734375002,6.608749389648438
6.067999999999998,7.288391113281251,-1.197634887695313,7.239044189453126
6.076999999999998,7.868890380859375,0.347821044921875,7.747616577148438
6.087,6.101223754882813,1.643252563476563,6.970925903320313
6.096999999999998,4.299163818359375,2.332614135742188,6.462802124023438
6.106999999999999,7.184463500976563,2.2856597900390625,8.779415893554688
6.117000000000001,7.404132080078125,1.3216003417968751,7.595687866210938
6.126999999999999,7.452880859375001,-0.0647491455078125,5.727682495117188
6.1370000000000005,6.760528564453126,-1.16458740234375,5.631231689453125
6.146999999999999,6.816006469726563,-1.5671386718750002,6.564636230468751
6.157,6.784454345703126,-1.5801483154296876,8.846707153320313
6.166999999999998,6.689797973632813,-1.460818481445313,7.180575561523438
6.177,6.988870239257813,-0.760540771484375,5.928958129882813
6.186999999999998,6.954177856445313,0.393878173828125,5.836843872070313
6.196999999999999,6.890026855468751,1.7679656982421876,7.0473388671875
6.207000000000001,7.235305786132813,2.2067047119140626,8.045941162109376
6.216999999999999,6.668862915039063,1.471734619140625,6.721499633789063
6.227,6.320294189453126,0.557171630859375,6.174496459960938
6.236999999999998,6.4491943359375,-0.3704010009765625,7.297064208984375
6.247,6.884194946289063,-1.0993896484375,8.081381225585938
6.256999999999998,7.167864990234375,-1.6196258544921875,7.362112426757813
6.267,7.397103881835938,-1.68497314453125,5.360272216796876
6.2769999999999975,6.897653198242188,-1.104922485351563,5.408572387695313
6.286999999999999,7.348953247070313,0.14774169921875,7.116873168945313
6.297000000000001,6.984683227539063,1.155764770507813,7.707092285156251
6.306999999999999,6.534729003906251,1.2498229980468751,7.090704345703125
6.317,6.935635375976563,1.0065277099609375,5.838937377929688
6.326999999999998,6.419586181640626,0.8577392578125,7.505218505859376
6.337,6.361865234375,0.8092895507812501,8.1718505859375
6.346999999999998,6.118869018554688,0.344232177734375,8.401538085937501
6.356999999999999,6.820343017578126,-0.6572113037109375,6.103616333007813
6.367000000000001,7.709933471679688,-1.359133911132813,5.568576049804688
6.376999999999999,7.789935302734375,-1.185671997070313,5.947351074218751
6.3870000000000005,7.194033813476563,-0.456683349609375,7.0377685546875
6.396999999999999,6.02451171875,-0.1538726806640625,6.833352661132813
6.407,7.012496948242188,-0.246435546875,6.414801025390625
6.416999999999998,6.753201293945313,-0.22669677734375,6.852493286132813
6.427,6.907223510742188,0.2875579833984375,7.569519042968751
6.436999999999998,8.252749633789064,1.1662322998046877,7.746719360351563
6.446999999999999,6.293826293945313,1.2731506347656252,6.651815795898438
6.457000000000001,5.209390258789063,0.92652587890625,5.641998291015625
6.466999999999999,6.955523681640625,0.654669189453125,8.312265014648439
6.477,7.111340332031251,-0.074468994140625,7.92421875
6.486999999999998,7.416543579101563,-0.796728515625,6.731518554687501
6.497,6.534280395507813,-0.9953125,6.0609985351562505
6.506999999999998,6.3080322265625,-0.31103515625,6.079690551757813
6.517,7.042852783203125,0.3422882080078125,8.691488647460938
6.5269999999999975,7.29317626953125,0.0139068603515625,6.840231323242188
6.536999999999999,7.507461547851563,-0.23387451171875,5.581585693359376
6.547000000000001,6.703256225585938,-0.19439697265625,5.373431396484375
6.556999999999999,6.720153808593751,0.2749969482421875,7.11253662109375
6.567,7.033581542968751,0.3617279052734375,9.015832519531251
6.5760000000000005,6.46055908203125,-0.0883758544921875,7.2746337890625
6.587,6.247021484375001,0.0578704833984375,5.9986419677734375
6.596,6.355734252929688,0.35350341796875,6.747967529296876
6.605999999999998,7.306335449218751,0.7029693603515625,7.818496704101563
6.616,7.499087524414063,0.328082275390625,7.497293090820313
6.625999999999998,7.206744384765625,-0.1230682373046875,5.382254028320313
6.635999999999999,6.431698608398438,-0.322998046875,5.66263427734375
6.646000000000001,6.675143432617188,-0.39178466796875,7.581930541992188
6.655999999999999,7.1062561035156255,-0.401055908203125,8.279666137695314
6.666,6.9492431640625005,-0.7657745361328125,7.109246826171876
6.675999999999998,6.730172729492188,-0.7265960693359376,4.858728027343751
6.686,7.380804443359375,0.0174957275390625,6.611740112304688
6.695999999999998,6.631777954101563,0.905889892578125,7.988070678710938
6.707000000000001,6.606954956054688,1.3737884521484376,8.181570434570313
6.7159999999999975,6.043951416015625,0.9482086181640624,6.637759399414063
6.725999999999999,7.315756225585938,0.2932403564453125,5.735308837890625
6.736000000000001,7.180276489257813,-0.06400146484375,7.0533203125
6.745999999999999,7.201660156250001,-0.2112945556640625,7.604510498046875
6.756,5.994754028320313,-0.6178833007812501,6.976458740234375
6.765999999999998,6.749014282226563,-1.353302001953125,5.5346313476562505
6.776,8.001828002929688,-1.6019805908203126,6.127990722656251
6.785999999999998,7.108947753906251,-1.271356201171875,6.997543334960938
6.795999999999999,7.735952758789063,0.1996307373046875,7.679876708984375
6.806000000000001,6.899746704101563,1.633233642578125,7.508956909179688
6.815999999999999,4.136318969726563,2.179190063476563,6.389828491210938
6.8260000000000005,6.725238037109375,2.197134399414063,7.889077758789063
6.835999999999999,7.41519775390625,1.386199951171875,8.224786376953126
6.846,7.573556518554688,0.0288604736328125,6.028848266601563
6.855999999999998,7.140798950195313,-1.131838989257813,5.866900634765625
6.866,6.373379516601563,-1.540521240234375,5.7952728271484375
6.875999999999998,7.074404907226563,-1.471734619140625,8.339630126953125
6.885999999999999,6.5927490234375,-1.4271728515625002,7.799804687500001
6.896000000000001,7.208987426757813,-0.8575897216796876,6.053073120117188
6.905999999999999,6.911709594726563,0.25421142578125,5.898452758789063
6.916,6.638058471679688,1.5942047119140623,6.445306396484376
6.927,7.170257568359376,2.358633422851563,8.27353515625
6.937999999999999,6.535028076171876,1.622317504882813,7.400244140625
6.945999999999998,6.6705078125,0.768017578125,6.082531738281251
6.956,6.125448608398438,-0.23267822265625,6.818249511718751
6.9659999999999975,6.990066528320313,-1.0344909667968751,7.64488525390625
6.975999999999999,7.07724609375,-1.6498321533203126,7.655801391601563
6.986000000000001,7.74417724609375,-1.908380126953125,5.834301757812501
6.994999999999997,7.196426391601563,-1.32608642578125,4.877270507812501
7.006,6.738098144531251,-0.3013153076171875,6.538467407226563
7.015000000000001,7.055712890625,1.0678375244140623,7.997491455078125
7.024999999999999,6.844119262695313,1.4682952880859377,7.808926391601563
7.035,6.236553955078126,1.1823822021484376,5.9383789062500005
7.045999999999999,7.165472412109375,0.9655548095703126,6.672302246093751
7.056000000000001,6.151467895507813,0.88046875,8.07435302734375
7.065999999999999,6.285751342773438,0.68607177734375,8.383743286132812
7.074999999999999,6.261975097656251,-0.3859527587890625,7.089059448242188
7.085999999999999,7.867843627929688,-1.4436218261718752,5.1607910156250005
7.094999999999999,7.685260009765625,-1.553082275390625,5.809030151367188
7.105,7.448544311523438,-0.8405426025390625,6.717163085937501
7.114999999999998,6.490316772460938,-0.03050537109375,7.463348388671876
7.125,6.263320922851563,-0.0418701171875,6.559552001953126
7.134999999999998,7.005020141601563,0.00059814453125,6.217562866210938
7.145,6.859970092773438,0.269464111328125,7.064535522460938
7.154999999999998,6.498690795898438,0.7382598876953126,7.778421020507813
7.164999999999999,8.300601196289064,0.7965789794921876,7.641445922851563
7.175000000000001,7.038815307617188,0.6675292968750001,6.274237060546875
7.184999999999999,4.889682006835938,0.6125,5.621661376953125
7.195,6.657348632812501,0.47911376953125,8.150317382812501
7.204999999999998,7.156051635742188,-0.213238525390625,8.457614135742189
7.215,7.493405151367188,-0.999798583984375,6.784603881835938
7.224999999999998,6.906326293945313,-0.8145233154296876,5.675344848632813
7.234999999999999,5.9388275146484375,0.2642303466796875,6.151318359375001
7.244999999999997,6.839334106445313,0.856243896484375,8.405126953125
7.254999999999999,7.74716796875,0.2103973388671875,7.45048828125
7.265000000000001,7.744326782226563,-0.3578399658203125,5.1971282958984375
7.274999999999999,6.216815185546875,-0.4003082275390625,4.965945434570313
7.285,6.495550537109375,0.0653472900390625,7.598529052734375
7.294999999999998,7.169659423828126,0.032000732421875,9.200061035156253
7.305,6.50601806640625,-0.3075958251953125,7.827767944335938
7.314999999999998,6.170458984375,-0.054132080078125,5.104565429687501
7.324999999999999,6.553570556640626,0.5848358154296875,6.575851440429688
7.335000000000001,7.276577758789063,1.0294067382812502,7.712625122070313
7.344999999999999,7.735055541992188,0.608013916015625,7.839132690429688
7.355,6.972271728515626,-0.1302459716796875,5.3765716552734375
7.364999999999998,7.121957397460938,-0.48031005859375,5.116976928710938
7.375,5.91265869140625,-0.5857330322265626,7.8135620117187505
7.384999999999998,7.14603271484375,-0.512310791015625,8.655599975585938
7.395,6.483288574218751,-0.6766510009765625,7.847506713867188
7.404999999999998,7.172500610351563,-0.8048034667968751,4.651470947265626
7.414999999999999,7.260726928710938,-0.0955535888671875,5.637063598632813
7.425000000000001,7.502676391601563,0.9124694824218752,7.611837768554688
7.434999999999999,6.345416259765625,1.5642974853515623,8.299853515625001
7.445,5.852993774414063,1.2333740234375,7.192538452148438
7.454999999999998,6.771893310546876,0.410626220703125,5.977407836914063
7.465,7.22977294921875,-0.2095001220703125,6.977505493164063
7.474999999999998,7.155453491210938,-0.3461761474609375,7.754046630859375
7.484999999999999,6.40074462890625,-0.4773193359375,7.053170776367188
7.494999999999997,6.497943115234375,-1.1448486328125,5.7649169921875005
7.504999999999999,7.652362060546875,-1.5049316406250002,5.179034423828125
7.515000000000001,7.841674804687501,-1.3346099853515625,7.0138427734375
7.524999999999999,7.097732543945313,-0.3102874755859375,7.2722412109375005
7.533999999999999,7.276129150390625,1.0714263916015625,7.860366821289063
7.544999999999998,5.512799072265626,1.92542724609375,7.266409301757813
7.555,4.830316162109376,2.3224456787109378,7.041058349609376
7.564999999999998,7.061245727539063,1.9859893798828123,8.678329467773438
7.573999999999998,7.6580444335937505,0.6446502685546875,6.618917846679688
7.585000000000001,8.112933349609376,-1.035986328125,5.3058410644531255
7.593999999999998,6.818698120117188,-1.7760406494140626,5.52685546875
7.603999999999999,6.436782836914063,-1.5363342285156252,7.131527709960938
7.614000000000001,6.456671142578125,-1.4143127441406251,8.985626220703125
7.623999999999999,7.069320678710938,-1.2417480468750002,6.925915527343751
7.634,7.012646484375001,-0.469842529296875,5.6153808593750005
7.643999999999998,6.92471923828125,1.254010009765625,6.199768066406251
7.654,6.325079345703125,2.6417053222656253,7.449142456054688
7.663999999999998,7.302297973632813,2.4612152099609377,8.573953247070314
7.673999999999999,6.534729003906251,1.1683258056640626,6.259582519531251
7.683999999999997,6.517532348632813,0.0829925537109375,6.2099365234375
7.695,6.041259765625,-0.7262969970703126,7.422225952148438
7.703999999999997,7.058105468750001,-1.55338134765625,8.002874755859375
7.714000000000002,7.682867431640625,-2.23406982421875,7.114929199218751
7.724,7.853787231445313,-2.2663696289062503,4.213031005859375
7.733999999999998,7.179080200195313,-0.855047607421875,5.460610961914063
7.743999999999996,6.315957641601563,0.5938079833984375,7.310372924804688
7.754000000000001,7.521966552734375,1.6794403076171875,8.594589233398438
7.763999999999999,6.265563964843751,1.5930084228515626,7.180276489257813
7.773999999999997,6.469979858398438,1.2344207763671875,5.538967895507813
7.784000000000002,6.220254516601563,1.2311309814453126,7.702456665039063
7.794,6.718060302734376,0.9966583251953126,8.930148315429689
7.8039999999999985,6.092550659179688,0.0605621337890625,7.988818359375
7.8139999999999965,7.102517700195313,-1.1937469482421876,5.608950805664063
7.824000000000002,7.50731201171875,-1.7186187744140626,4.72833251953125
7.834,8.098428344726564,-1.5152496337890626,6.537570190429688
7.843999999999998,7.3843933105468755,-0.7364654541015625,7.3455139160156255
7.853999999999996,6.426464843750001,-0.1667327880859375,6.901541137695313
7.864000000000001,5.650820922851563,0.1338348388671875,5.941967773437501
7.873999999999999,7.296765136718751,0.411224365234375,6.9061767578125
7.883999999999997,6.698471069335938,0.7053619384765626,8.308825683593751
7.894000000000002,7.728027343750001,1.0048828125,7.499237060546876
7.904,7.419534301757813,1.1476898193359375,6.649124145507813
7.913999999999998,5.30374755859375,0.75067138671875,5.497396850585938
7.923999999999996,6.653161621093751,0.4206451416015625,7.308279418945313
7.934000000000001,7.023114013671876,-0.2045654296875,8.779714965820313
7.943999999999999,7.173248291015626,-1.0159484863281252,6.852493286132813
7.953999999999997,7.089657592773438,-1.1710174560546875,6.08612060546875
7.964000000000002,6.027203369140626,-0.3303253173828125,6.173748779296876
7.974,6.886886596679688,0.712689208984375,8.01214599609375
7.983999999999998,7.220053100585938,0.6808380126953125,8.0390625
7.993999999999996,7.516433715820313,0.209649658203125,5.239596557617188
8.004000000000001,7.055563354492188,-0.1305450439453125,5.188156127929688
8.014,6.69383544921875,-0.0010467529296875,6.73331298828125
8.023,6.836044311523438,0.033795166015625,8.432940673828126
8.034000000000002,6.504971313476563,-0.331072998046875,8.580981445312501
8.044,6.249114990234376,-0.504833984375,5.5735107421875005
8.053,6.349453735351563,0.04605712890625,6.7398925781250005
8.063999999999997,7.398898315429688,0.6308929443359376,7.216613769531251
8.072999999999997,7.434637451171875,0.7645782470703125,7.690643310546876
8.083000000000002,7.160986328125,0.3587371826171875,5.80260009765625
8.093,7.146481323242188,0.057720947265625,5.441470336914063
8.102999999999998,6.061297607421875,-0.2947357177734375,6.982290649414063
8.112999999999996,7.1071533203125,-0.3491668701171875,8.630328369140626
8.123000000000001,6.385043334960938,-0.5973968505859375,7.915695190429688
8.133,6.911410522460938,-0.92054443359375,5.679681396484376
8.142999999999997,7.210931396484375,-0.478216552734375,5.547341918945313
8.153000000000002,7.574603271484375,0.3321197509765625,7.271942138671876
8.163,6.245974731445313,1.2392059326171876,7.808178710937501
8.172999999999998,6.4587646484375005,1.2236541748046876,7.398898315429688
8.182999999999996,6.737200927734375,0.5812469482421876,6.0490356445312505
8.193000000000001,7.287045288085938,-0.0351409912109375,6.590805053710938
8.203,6.879708862304688,-0.060711669921875,7.7268310546875005
8.212999999999997,6.583477783203126,-0.2633331298828125,7.139752197265626
8.223000000000003,5.917144775390625,-1.0467529296875,6.319247436523438
8.233,8.142691040039063,-1.484295654296875,5.5844268798828125
8.242999999999999,6.983935546875,-1.478762817382813,6.9013916015625005
8.252999999999997,8.12998046875,-0.24404296875,7.14005126953125
8.263000000000002,7.501480102539063,1.224551391601563,7.437478637695313
8.273,4.799511718750001,1.854248046875,6.598431396484376
8.282999999999998,5.376721191406251,2.20416259765625,7.485629272460938
8.292999999999996,7.089508056640626,1.615887451171875,8.953475952148438
8.303,7.607800292968751,0.4119720458984375,6.731219482421875
8.312999999999999,7.603463745117188,-0.9365447998046876,5.457620239257813
8.322999999999997,6.595889282226563,-1.490277099609375,5.408123779296876
8.333000000000002,6.851596069335938,-1.2350189208984377,7.529443359375
8.343999999999998,6.698770141601563,-1.3109832763671876,8.391818237304689
8.352999999999998,7.301251220703126,-1.1135955810546876,6.509906005859375
8.362999999999996,6.928308105468751,-0.4215423583984375,5.570071411132813
8.373000000000001,6.463400268554688,1.233673095703125,6.621310424804688
8.383,6.459063720703125,2.406634521484375,8.058801269531251
8.392999999999997,6.930401611328126,2.0869262695312503,8.611785888671875
8.403000000000002,6.826324462890626,1.00069580078125,5.690747070312501
8.413,6.373828125,0.08673095703125,6.172702026367188
8.422999999999998,6.692489624023438,-0.6742584228515626,7.032086181640626
8.432999999999996,7.40921630859375,-1.47322998046875,8.178430175781251
8.443000000000001,7.419235229492188,-2.1175811767578128,6.571365356445313
8.453,7.710531616210938,-1.969540405273437,4.598385620117188
8.462999999999997,6.079690551757813,-0.8179626464843751,6.162234497070313
8.473000000000003,7.379907226562499,0.727642822265625,7.794720458984376
8.483,6.744827270507813,1.562503051757813,8.666067504882813
8.492999999999999,6.665722656250001,1.399957275390625,6.007464599609375
8.502999999999997,6.504223632812501,1.35419921875,6.014492797851563
8.513000000000002,6.845166015625001,1.2173736572265623,7.585369873046876
8.523,6.210385131835938,0.8871978759765625,8.6802734375
8.532,6.3331542968750005,-0.1410125732421875,7.8464599609375005
8.542999999999996,6.840380859375,-1.353152465820313,5.536276245117188
8.551999999999996,7.820291137695313,-1.7956298828125,5.308831787109376
8.562999999999999,7.886236572265625,-1.4113220214843751,6.877017211914063
8.572,6.935336303710938,-0.49346923828125,6.97197265625
8.581999999999997,6.175244140625001,0.0722259521484375,6.958065795898438
8.592000000000002,6.441119384765625,0.2524169921875,5.56094970703125
8.602,7.411758422851563,0.212640380859375,7.192987060546876
8.611999999999998,6.876568603515626,0.6075653076171875,7.78365478515625
8.621999999999996,7.830459594726563,1.1330352783203126,7.745523071289063
8.632000000000001,6.419137573242188,1.214532470703125,6.824829101562501
8.642999999999997,5.067779541015625,0.56943359375,5.707794189453125
8.651999999999997,7.242034912109376,0.298773193359375,8.2005615234375
8.662000000000003,7.01982421875,-0.3158203125,7.885488891601563
8.672,7.375570678710938,-0.926824951171875,6.327471923828125
8.681999999999999,7.095339965820313,-1.0635009765625,6.131430053710938
8.691999999999997,6.058157348632813,-0.1858734130859375,6.10406494140625
8.702000000000002,6.866250610351563,0.7203155517578126,8.688796997070312
8.712,7.099078369140625,0.4502532958984375,7.404730224609375
8.721999999999998,7.391571044921876,-0.0731231689453125,5.359375
8.731999999999996,7.053619384765626,-0.1571624755859375,5.55736083984375
8.742999999999999,6.474316406250001,0.193499755859375,6.916046142578126
8.751999999999999,7.075750732421875,0.2803802490234375,8.822781372070313
8.761999999999997,6.262274169921875,-0.2663238525390625,7.6206604003906255
8.772000000000002,6.7662109375,-0.3491668701171875,5.661737060546876
8.782,6.256143188476563,0.1260589599609375,6.789987182617188
8.791999999999998,7.321737670898438,0.6063690185546875,7.334896850585938
8.801999999999996,7.184613037109376,0.530255126953125,7.883245849609375
8.812000000000001,7.566528320312501,-0.026019287109375,5.403488159179688
8.822,6.734060668945313,-0.183331298828125,5.6681671142578125
8.831999999999997,6.3558837890625,-0.2651275634765625,7.114181518554688
8.843,6.695480346679688,-0.154620361328125,8.695526123046875
8.852,6.898849487304688,-0.503936767578125,7.552621459960938
8.861999999999998,7.034628295898438,-0.8514587402343751,5.213876342773438
8.871999999999996,7.356729125976563,-0.2775390625,5.719308471679688
8.882000000000001,6.816305541992188,0.6799407958984376,7.744625854492188
8.892,6.225039672851563,1.3524047851562502,8.265460205078126
8.901999999999997,6.50003662109375,0.9141143798828124,7.324130249023438
8.912000000000003,7.180575561523438,0.1614990234375,5.430703735351563
8.922,7.229025268554688,-0.1801910400390625,6.445755004882813
8.931999999999999,6.807632446289063,-0.004486083984375,7.790533447265625
8.943000000000001,6.553720092773438,-0.227593994140625,7.667166137695313
8.952000000000002,6.162832641601563,-0.950750732421875,6.433343505859376
8.962,7.637408447265625,-1.3539001464843752,5.006021118164063
8.971999999999998,7.488470458984375,-1.009368896484375,6.911260986328125
8.981999999999996,6.891372680664063,-0.362176513671875,6.95103759765625
8.992,7.765261840820313,0.6352294921875,8.130279541015625
9.001999999999999,6.748565673828126,1.429864501953125,6.898849487304688
9.011999999999995,4.299612426757813,2.0259155273437504,6.388632202148438
9.020999999999995,6.780117797851563,1.9753723144531248,8.335891723632812
9.031000000000002,7.417141723632813,0.7732513427734375,7.760177612304688
9.042999999999996,7.909115600585938,-0.8837585449218751,5.870339965820313
9.051999999999996,6.92471923828125,-1.4739776611328126,5.726187133789063
9.062,6.129336547851563,-1.179241943359375,6.413903808593751
9.071000000000002,6.784454345703126,-1.0347900390625,8.706890869140626
9.081,7.209585571289063,-1.0347900390625,7.413552856445313
9.090999999999998,7.3574768066406255,-0.5163482666015625,5.484387207031251
9.101000000000004,6.602767944335938,0.8456268310546876,5.7653656005859375
9.111,6.318798828125001,1.932904052734375,7.237997436523438
9.121,7.300503540039063,1.995260620117188,8.95841064453125
9.130999999999997,6.531140136718751,0.9440216064453124,6.979449462890625
9.141000000000002,6.365603637695313,0.148040771484375,5.7529541015625005
9.151,6.369491577148438,-0.5665924072265626,6.711181640625001
9.160999999999998,7.478750610351563,-1.2179718017578125,7.890423583984376
9.170999999999996,7.393963623046876,-1.6469909667968752,7.313812255859376
9.181,7.652960205078125,-1.5789520263671877,5.344122314453125
9.191,6.218609619140626,-0.8031585693359375,5.0999298095703125
9.200999999999995,7.351644897460938,0.330474853515625,7.467535400390625
9.211000000000002,6.772491455078126,1.2547576904296875,8.458361816406251
9.221,6.645385742187501,1.3897888183593752,7.374374389648438
9.230999999999998,6.166720581054688,1.1243621826171877,5.74039306640625
9.240999999999996,7.015637207031251,0.8243927001953125,6.9088684082031255
9.251,6.618020629882813,0.6054718017578126,8.300003051757812
9.261,6.603067016601563,0.09151611328125,7.895657348632813
9.270999999999995,6.369192504882813,-0.8036071777343751,6.194833374023438
9.281000000000002,7.680175781250001,-1.51629638671875,5.2445312500000005
9.291,7.624398803710938,-1.3746856689453126,6.529046630859376
9.300999999999998,7.221249389648438,-0.5703308105468751,6.936383056640626
9.310999999999996,5.997894287109375,-0.1140960693359375,6.7040039062500005
9.321000000000002,7.043301391601563,-0.141461181640625,6.507513427734375
9.331,6.860867309570313,0.0046356201171875,7.182669067382813
9.340999999999998,8.567074584960938,1.0863800048828125,7.816253662109376
9.351000000000004,5.73740234375,1.9056884765625,7.227230834960938
9.361,5.048788452148438,1.419097900390625,6.039913940429688
9.371,7.1932861328125,0.5893218994140625,7.954873657226563
9.380999999999997,7.289437866210938,-0.2806793212890625,7.509106445312501
9.391000000000002,7.493255615234376,-0.6853240966796875,6.824081420898438
9.401,6.304293823242188,-0.910076904296875,6.151467895507813
9.410999999999998,6.468334960937501,-0.7419982910156251,6.154608154296875
9.420999999999996,7.393814086914063,-0.2956329345703125,8.314657592773438
9.431,7.151116943359376,-0.152227783203125,6.674545288085938
9.441,6.874923706054688,0.051141357421875,6.073858642578125
9.450999999999995,6.953878784179688,0.19140625,5.823236083984376
9.461000000000002,6.810922241210938,0.467449951171875,7.140499877929688
9.471,6.981842041015626,0.6183319091796875,8.201159667968751
9.480999999999998,6.329266357421876,0.3470733642578125,7.133172607421876
9.490999999999996,6.414202880859375,0.124713134765625,6.443960571289063
9.501,6.686657714843751,0.0348419189453125,6.954476928710938
9.511,7.063339233398438,0.0892730712890625,7.484133911132813
9.52,7.224688720703125,-0.0130096435546875,7.347457885742188
9.529999999999998,7.2172119140625,-0.2513702392578125,5.566183471679688
9.540000000000004,6.818099975585938,-0.33795166015625,6.270050048828126
9.550999999999998,6.677984619140625,-0.3623260498046875,6.874624633789063
9.56,7.0927978515625005,-0.159405517578125,7.97386474609375
9.569999999999997,6.819744873046876,-0.270361328125,6.899148559570313
9.580000000000002,7.088162231445313,-0.4173553466796875,5.552426147460938
9.59,6.948944091796876,0.08134765625,6.9582153320312505
9.599999999999998,6.5748046875,0.7741485595703126,7.525555419921876
9.609999999999996,5.956173706054688,1.2438415527343751,8.433837890625
9.62,6.855633544921876,0.7143341064453126,6.527700805664063
9.63,7.23037109375,0.0019439697265625,6.091503906250001
9.639999999999995,7.485180664062501,-0.256005859375,6.2697509765625
9.651,6.636413574218751,-0.1161895751953125,7.314410400390625
9.66,6.422726440429688,-0.5378814697265626,7.047637939453126
9.669999999999998,7.022665405273438,-1.3465728759765625,6.072662353515625
9.679999999999996,7.508657836914063,-1.5382781982421876,6.16507568359375
9.69,6.781463623046876,-0.9654052734375,7.012197875976563
9.7,7.879058837890626,0.6192291259765625,7.910012817382813
9.709999999999996,6.835296630859376,1.6954406738281251,7.542004394531251
9.720000000000002,4.498794555664063,2.05343017578125,5.9817443847656255
9.73,6.609197998046875,1.9604187011718752,7.727279663085938
9.739999999999998,7.446899414062501,1.1013336181640625,7.998089599609376
9.749999999999996,7.779766845703126,-0.368157958984375,6.522915649414063
9.760000000000002,6.888980102539063,-1.4264251708984377,5.861367797851563
9.77,6.263021850585938,-1.5168945312500002,5.83310546875
9.779999999999998,6.746322631835938,-1.146343994140625,8.526849365234376
9.790000000000004,7.108798217773438,-1.101483154296875,7.573257446289063
9.8,7.569219970703125,-0.609808349609375,6.104513549804688
9.81,6.715518188476563,0.499749755859375,5.39287109375
9.819999999999997,6.231918334960938,1.9112213134765623,6.890026855468751
9.830000000000002,6.818249511718751,2.3170623779296875,8.934634399414064
9.84,6.948794555664063,1.3268341064453126,7.724737548828125
9.849999999999998,6.513345336914063,0.2643798828125,5.652017211914063
9.859999999999996,6.334201049804688,-0.6480895996093751,6.0340820312500005
9.87,7.131527709960938,-1.1734100341796876,7.6550537109375005
9.88,7.693783569335938,-1.719964599609375,7.862759399414063
9.889999999999995,7.445254516601563,-1.8322662353515624,5.858377075195313
9.900000000000002,6.926214599609375,-1.03299560546875,4.64818115234375
9.91,6.176141357421876,0.1368255615234375,6.940570068359375
9.919999999999998,7.458413696289063,1.391583251953125,8.3273681640625
9.929999999999996,6.699218750000001,1.591363525390625,8.330657958984375
9.94,6.434539794921876,1.2098968505859375,5.308084106445313
9.95,6.467886352539063,0.9945648193359377,6.567776489257813
9.959999999999996,6.878811645507813,0.7400543212890626,8.243179321289062
9.970000000000002,6.419735717773438,0.185723876953125,8.498287963867188
9.98,6.488223266601563,-0.8486175537109376,6.643441772460938
9.989999999999998,7.458563232421875,-1.6078125,4.90777587890625
9.999999999999996,7.548434448242188,-1.5989898681640626,6.022866821289063
10.008999999999997,7.92900390625,-0.7256988525390625,7.317401123046875
10.019000000000002,6.296966552734376,0.131890869140625,7.316204833984376
10.029,6.000735473632813,0.371746826171875,6.147879028320313
10.038999999999998,6.662582397460938,0.457281494140625,6.278573608398438
10.048999999999996,7.26566162109375,0.344830322265625,7.69931640625
10.06,7.14842529296875,0.661846923828125,7.846759033203125
10.069,7.930947875976563,0.756353759765625,7.033581542968751
10.078999999999995,5.915499877929688,0.5254699707031251,5.9084716796875005
10.089000000000002,5.882153320312501,0.2452392578125,6.258834838867188
10.099,7.008609008789063,0.098394775390625,8.821884155273438
10.108999999999998,7.039562988281251,-0.4053924560546875,7.551275634765625
10.118999999999996,7.121807861328126,-0.8074951171875001,6.189450073242188
10.129,6.675292968750001,-0.423486328125,6.006866455078125
10.139,6.520672607421876,0.6287994384765625,7.003823852539063
10.148999999999996,6.767556762695313,0.9233856201171876,8.557952880859375
10.159000000000002,7.411758422851563,0.2935394287109375,6.417492675781251
10.169,7.232614135742188,-0.4035980224609375,5.33963623046875
10.178999999999998,6.916195678710938,-0.483001708984375,5.755197143554688
10.188999999999997,6.496896362304688,-0.2166778564453125,7.75255126953125
10.199000000000002,7.223941040039063,-0.3194091796875,8.613430786132813
10.209,6.277975463867188,-0.5307037353515626,6.682769775390626
10.218999999999998,6.642395019531251,-0.103179931640625,5.808432006835938
10.228999999999996,6.5066162109375005,0.7224090576171875,7.23216552734375
10.239,7.278073120117188,1.1115020751953126,7.568173217773438
10.249,7.303195190429688,0.720166015625,7.380056762695313
10.258999999999997,7.285101318359375,0.1443023681640625,5.090359497070313
10.269000000000002,6.1525146484375,-0.221014404296875,6.3690429687500005
10.279,6.683966064453125,-0.2896514892578125,8.024407958984376
10.288999999999998,6.7668090820312505,-0.58319091796875,8.465090942382814
10.298999999999996,6.924270629882813,-1.0684356689453125,6.3765197753906255
10.309,7.407870483398438,-1.0684356689453125,4.843923950195313
10.319,7.23515625,-0.139666748046875,6.551776123046875
10.328999999999995,6.752752685546875,0.9876861572265626,7.785748291015626
10.339000000000002,6.228179931640626,1.3842559814453126,8.347555541992188
10.349,6.704901123046875,0.8629730224609375,6.200814819335938
10.358999999999998,6.670806884765626,0.372344970703125,6.231768798828125
10.368999999999996,7.242483520507813,0.222808837890625,7.191790771484375
10.379,6.749911499023438,0.0521881103515625,7.850347900390625
10.389,6.280517578125001,-0.692352294921875,6.593945312500001
10.398999999999996,7.121807861328126,-1.4706878662109375,5.457470703125001
10.409000000000002,7.476058959960938,-1.6952911376953126,6.324929809570313
10.419,7.571014404296876,-1.0657440185546876,7.274783325195313
10.428999999999998,8.017529296875,0.4876373291015625,7.735205078125
10.438999999999997,5.676840209960938,1.425079345703125,6.9181396484375
10.449000000000002,4.766613769531251,2.0749633789062503,6.288143920898438
10.459,6.952682495117188,2.058663940429688,8.840127563476564
10.468,7.437329101562501,1.146942138671875,7.543798828125
10.478999999999996,7.769448852539063,-0.2089019775390625,6.019128417968751
10.487999999999996,6.542654418945313,-1.170269775390625,5.408721923828125
10.499,6.797613525390625,-1.281524658203125,6.4124084472656255
10.508999999999997,6.73331298828125,-1.3199554443359376,8.830706787109376
10.519000000000002,7.1167236328125005,-1.399957275390625,7.001730346679688
10.528000000000002,6.894512939453126,-0.8668609619140626,5.862713623046876
10.538999999999998,6.732116699218751,0.4242340087890625,5.926565551757813
10.547999999999998,6.609646606445313,1.93978271484375,7.430001831054688
10.559,7.074105834960938,2.190704345703125,8.590850830078125
10.568,6.850250244140626,1.37154541015625,6.50601806640625
10.578,6.347958374023438,0.5277130126953126,5.955126953125
10.587999999999996,6.361865234375,-0.2773895263671875,6.860568237304688
10.598000000000004,7.074105834960938,-1.0268646240234376,8.042501831054688
10.608,7.7316162109375,-1.82972412109375,7.411459350585938
10.618,7.084872436523438,-2.02352294921875,4.914205932617188
10.627999999999997,6.897354125976563,-1.0424163818359375,5.6442413330078125
10.638000000000002,6.634320068359376,0.2268463134765625,7.54619140625
10.648,7.421029663085938,1.251019287109375,8.153756713867189
10.657999999999998,6.380557250976563,1.32967529296875,7.075302124023438
10.667999999999996,6.850100708007813,1.1714660644531252,5.149725341796875
10.678,6.5425048828125005,1.0947540283203123,7.4427124023437505
10.688,6.856231689453126,0.8683563232421876,8.335742187500001
10.697999999999997,5.983987426757813,0.16209716796875,8.382098388671876
10.708000000000002,6.572113037109376,-0.9223388671875,6.048587036132813
10.718,7.396954345703126,-1.49237060546875,5.444161987304688
10.727999999999998,7.9146484375,-1.3912841796875002,6.4874755859375
10.737999999999996,7.495947265625,-0.590667724609375,7.1735473632812505
10.748,6.149374389648438,0.0503936767578125,6.804940795898438
10.758,6.334799194335938,0.3225494384765625,6.158346557617188
10.767999999999995,6.961505126953125,0.34154052734375,6.562393188476563
10.778000000000002,7.1490234375,0.2836700439453125,7.785897827148438
10.788,6.815258789062501,0.5633026123046876,7.441815185546876
10.797999999999998,7.956668090820313,0.63702392578125,7.108648681640625
10.807999999999996,6.131430053710938,0.515301513671875,6.1242523193359375
10.818,5.854190063476563,0.34034423828125,6.417343139648438
10.828,6.920532226562501,0.324493408203125,8.556607055664063
10.837999999999996,6.885092163085938,-0.3744384765625,7.283157348632813
10.848000000000004,7.401589965820313,-0.8193084716796876,6.483886718750001
10.858,6.681124877929688,-0.383709716796875,6.247769165039063
10.868,6.206048583984376,0.5754150390625,6.959112548828125
10.877999999999997,6.931747436523438,0.772503662109375,8.314807128906251
10.888000000000002,7.642193603515626,0.065496826171875,6.303695678710938
10.898,7.210034179687501,-0.5603118896484376,5.226885986328125
10.907999999999998,6.9516357421875,-0.4131683349609375,5.983538818359375
10.917999999999996,6.293377685546876,-0.096600341796875,7.690493774414063
10.928,7.20943603515625,-0.1368255615234375,8.776425170898438
10.938,6.200216674804688,-0.3210540771484375,6.699368286132813
10.947999999999997,6.567626953125001,0.157012939453125,6.063839721679688
10.958000000000002,6.429306030273438,0.8930297851562501,7.1182189941406255
10.968,7.435385131835938,1.011163330078125,7.569369506835938
10.977999999999998,7.3942626953125,0.481805419921875,7.076498413085938
10.987999999999996,7.547387695312499,-0.1852752685546875,5.074060058593751
10.998,5.884396362304688,-0.4822540283203125,6.338388061523438
11.008,6.727481079101563,-0.5164978027343751,8.042651367187501
11.017,6.767108154296875,-0.6966888427734376,8.583523559570313
11.026999999999996,7.12509765625,-1.0464538574218751,6.119915771484376
11.037000000000004,7.199716186523438,-0.7484283447265625,4.971029663085938
11.047,7.215118408203126,0.3050537109375,6.652713012695313
11.057,6.633422851562501,1.39906005859375,8.036221313476563
11.066999999999997,6.234609985351563,1.5557739257812502,8.243029785156251
11.077000000000002,6.75125732421875,0.8447296142578126,6.20933837890625
11.087,6.708190917968751,0.1885650634765625,6.088214111328125
11.096999999999998,7.270147705078125,-0.0608612060546875,7.318896484375
11.106999999999996,6.635815429687501,-0.2761932373046875,7.775579833984375
11.117,6.456521606445313,-1.0712768554687502,6.5329345703125
11.127,7.292129516601563,-1.65865478515625,5.118023681640626
11.136999999999995,7.511947631835938,-1.725048828125,6.284854125976563
11.147000000000002,7.584024047851563,-0.744091796875,7.360168457031251
11.157,8.031436157226564,0.9072357177734376,8.097680664062501
11.166999999999998,5.063143920898438,1.9077819824218751,7.021170043945313
11.176999999999996,4.774539184570313,2.379269409179688,6.351995849609375
11.187,7.276577758789063,2.099337768554688,8.942559814453126
11.197,7.521667480468751,0.9008056640625,7.105807495117188
11.206999999999995,7.830609130859376,-0.59156494140625,5.913555908203126
11.217000000000002,6.313565063476563,-1.4506500244140623,5.291635131835938
11.227,6.827969360351563,-1.579998779296875,6.765463256835938
11.236999999999998,6.89720458984375,-1.6145416259765626,8.905474853515626
11.246999999999996,7.153958129882813,-1.3654144287109375,6.850848388671875
11.257,6.593496704101563,-0.4451690673828125,5.755197143554688
11.267,6.749462890625001,0.92054443359375,6.0400634765625005
11.276999999999996,6.778173828125,2.272650146484376,7.587612915039063
11.287000000000004,7.243380737304688,2.2526123046875,8.440567016601562
11.297,6.624002075195313,1.382611083984375,6.197225952148438
11.307,6.054568481445313,0.315521240234375,6.186459350585938
11.316999999999997,6.652264404296876,-0.6376220703125001,7.31949462890625
11.327000000000002,7.166818237304688,-1.487286376953125,8.048184204101563
11.337,7.54678955078125,-2.0603088378906254,6.958813476562501
11.346999999999998,7.276876831054688,-1.92781982421875,4.563543701171875
11.356999999999996,6.806436157226563,-0.8936279296875,5.970379638671876
11.367,7.081582641601563,0.4653564453125,7.409066772460938
11.377,7.283157348632813,1.4772674560546877,8.255889892578125
11.386999999999995,6.112887573242188,1.4883331298828126,6.4782043457031255
11.397000000000002,6.881204223632813,1.269412231445313,5.816058349609375
11.407,6.467288208007813,1.0584167480468751,7.861862182617188
11.416999999999998,6.5440002441406255,0.8187103271484376,8.504867553710938
11.426999999999996,5.739495849609376,0.1108062744140625,8.108297729492188
11.437,7.137359619140626,-1.06409912109375,5.600726318359375
11.447,7.696026611328126,-1.6689727783203123,5.464349365234376
11.456999999999995,8.192037963867188,-1.4255279541015626,6.259133911132813
11.467000000000002,6.843670654296876,-0.429766845703125,7.178781127929688
11.477,6.186608886718751,0.06998291015625,6.7997070312500005
11.486999999999998,6.577346801757813,0.1375732421875,6.370089721679688
11.496999999999996,7.283755493164063,0.143255615234375,6.541159057617188
11.505999999999997,6.385342407226563,0.4768707275390625,7.848104858398438
11.516000000000002,7.168463134765625,0.8794219970703125,7.613781738281251
11.526,8.061941528320313,0.8783752441406251,7.279867553710938
11.535999999999998,5.61358642578125,0.5296569824218751,5.629885864257813
11.545999999999996,6.222198486328126,0.437841796875,6.505270385742188
11.556,6.83140869140625,0.240155029296875,8.675936889648439
11.566,7.369290161132813,-0.6557159423828125,7.366598510742188
11.575999999999995,7.201211547851563,-0.9615173339843752,6.446353149414063
11.586000000000002,5.906378173828125,-0.2525665283203125,5.945257568359375
11.596,6.524411010742188,0.6401641845703125,7.5378173828125
11.605999999999998,7.318298339843751,0.5549285888671875,8.320040893554689
11.615999999999996,7.867544555664063,-0.0186920166015625,5.805142211914063
11.626,6.882400512695313,-0.461767578125,4.843624877929688
11.636,6.688153076171876,-0.21353759765625,6.21292724609375
11.645999999999995,6.715219116210938,-0.0794036865234375,8.234057617187501
11.656000000000002,7.168762207031251,-0.2666229248046875,8.934335327148439
11.666,6.063690185546875,-0.305950927734375,5.829815673828126
11.675999999999998,6.169113159179688,0.2875579833984375,6.31461181640625
11.685999999999996,6.775930786132813,0.93729248046875,7.467385864257813
11.696000000000002,7.854086303710938,0.9703399658203126,7.963845825195313
11.706,7.137060546875,0.4103271484375,6.348855590820313
11.715999999999998,7.274185180664063,-0.1232177734375,4.827474975585938
11.726000000000004,5.743832397460938,-0.3985137939453125,6.770996093750001
11.736,7.140948486328125,-0.5166473388671875,8.538064575195314
11.746,6.810623168945313,-0.8391967773437501,8.371182250976563
11.755999999999997,7.14603271484375,-1.193597412109375,5.380160522460938
11.766000000000002,6.77159423828125,-0.615789794921875,5.1263977050781255
11.776,7.385888671875,0.48868408203125,7.317251586914063
11.785999999999998,6.581982421875001,1.4715850830078123,8.364154052734376
11.795999999999996,6.521121215820313,1.382611083984375,7.5743041992187505
11.806,6.516934204101563,0.7550079345703126,5.708990478515625
11.816,6.847409057617188,0.23746337890625,6.382052612304688
11.825999999999995,7.218707275390625,-0.0106170654296875,8.062539672851564
11.836000000000002,6.727481079101563,-0.4759735107421875,7.358822631835938
11.846,6.337341308593751,-1.389041137695313,5.900546264648438
11.855999999999998,7.350747680664063,-1.7921905517578127,5.416348266601563
11.865999999999996,7.440917968750001,-1.5346893310546876,7.075302124023438
11.876,8.689694213867188,0.043365478515625,7.739691162109375
11.886,6.685012817382813,1.341339111328125,7.139901733398438
11.895999999999995,3.8376953125,1.9583251953125,5.841030883789063
11.906000000000002,6.423175048828125,2.193695068359375,8.305834960937501
11.916,7.349102783203126,1.4910247802734375,9.072955322265626
11.925999999999998,7.8392822265625,0.26796875,6.373379516601563
11.935999999999996,6.756192016601563,-0.7774383544921876,5.2732421875
11.946000000000002,6.313415527343751,-1.2909454345703126,5.216567993164063
11.956,7.576547241210938,-1.274346923828125,8.643786621093751
11.965999999999998,7.113284301757813,-1.5936065673828126,7.886535644531251
11.976000000000004,6.977056884765625,-1.2453369140625,5.799609375
11.986,6.444259643554688,-0.1999298095703125,5.556463623046875
11.996,6.570019531250001,1.32967529296875,7.229623413085938
12.005999999999997,7.099975585937501,2.217620849609375,8.926559448242188
12.016000000000002,6.736752319335938,1.7083007812500002,7.382449340820313
12.025000000000002,6.605609130859375,0.9987518310546876,5.146585083007813
12.035,6.4408203125000005,0.0674407958984375,6.405828857421875
12.044999999999998,7.090255737304688,-0.6059204101562501,7.904479980468751
12.054999999999996,7.54678955078125,-1.4823516845703126,8.175888061523438
12.065,6.734957885742188,-2.039373779296876,5.931948852539063
12.075,7.130331420898438,-1.418499755859375,4.768109130859376
12.084999999999996,6.266610717773438,-0.4104766845703125,7.495648193359376
12.095000000000002,7.630978393554688,0.9076843261718752,7.833151245117188
12.105,6.763070678710938,1.418948364257813,7.827767944335938
12.114999999999998,6.735256958007813,1.1043243408203125,4.670013427734375
12.124999999999996,7.034927368164063,0.9446197509765626,6.378463745117188
12.135000000000002,6.78116455078125,0.81287841796875,8.456268310546875
12.145,6.007015991210938,0.5321990966796876,8.748611450195312
12.154999999999998,5.73919677734375,-0.4215423583984375,7.2052490234375
12.165000000000004,7.378262329101563,-1.3776763916015626,5.3765716552734375
12.175,7.877713012695313,-1.457977294921875,6.094793701171875
12.185,7.753448486328126,-0.626556396484375,7.023712158203126
12.194999999999997,6.348257446289063,0.2597442626953125,6.746472167968751
12.205000000000002,6.218011474609376,0.2352203369140625,6.342126464843751
12.215,7.090405273437501,-0.001495361328125,6.152664184570313
12.224999999999998,7.275531005859375,-0.133685302734375,7.579986572265626
12.234999999999996,7.098031616210938,0.4557861328125,7.766458129882813
12.245,7.670455932617188,0.8237945556640626,7.1974731445312505
12.255,5.310476684570313,0.5716766357421875,6.289788818359376
12.264999999999995,6.467587280273438,0.5434143066406251,6.5036254882812505
12.275000000000002,6.648974609375,0.4936187744140625,8.753994750976563
12.285,7.486376953125,-0.1380218505859375,6.953430175781251
12.294999999999998,7.413702392578125,-0.7298858642578125,6.201263427734376
12.304999999999996,6.222198486328126,-0.457879638671875,5.929107666015625
12.315,6.467886352539063,0.45758056640625,7.449890136718751
12.325,6.821688842773438,0.421392822265625,8.692984008789063
12.334999999999996,7.738046264648438,-0.3204559326171875,5.910415649414063
12.345000000000002,7.2052490234375,-0.705810546875,5.198773193359376
12.355,6.838436889648438,-0.3019134521484375,5.882153320312501
12.364999999999998,6.540710449218751,0.298175048828125,8.056558227539064
12.374999999999996,7.049432373046876,0.090618896484375,8.747116088867188
12.385000000000002,6.3481079101562505,-0.0641510009765625,6.212628173828126
12.395,6.354089355468751,0.2391082763671875,6.146981811523438
12.404999999999998,6.557458496093751,0.9091796875,7.394412231445313
12.415000000000004,7.460806274414063,0.8991607666015625,7.900891113281251
12.425,7.251605224609375,0.16927490234375,7.060797119140625
12.435,7.238894653320313,-0.337054443359375,4.723995971679688
12.444999999999997,6.189450073242188,-0.488385009765625,6.6337219238281255
12.455000000000002,6.683517456054688,-0.5269653320312501,7.879208374023438
12.465,7.508209228515626,-0.6667816162109376,8.4350341796875
12.474999999999998,6.637460327148438,-1.0234252929687502,5.79422607421875
12.484999999999996,7.120761108398438,-0.5235260009765625,4.986431884765626
12.495,6.94864501953125,0.4831512451171875,7.289437866210938
12.505,6.949392700195313,1.3474700927734375,8.263067626953125
12.514,6.1013732910156255,1.385601806640625,8.017080688476563
12.523999999999996,6.545645141601563,0.8394958496093751,5.943911743164063
12.535,6.716564941406251,0.3324188232421875,6.275881958007813
12.544999999999998,7.5760986328125,-0.1112548828125,7.554266357421875
12.553999999999998,6.938027954101563,-0.4625152587890625,7.380355834960938
12.563999999999997,6.228179931640626,-1.1901580810546877,5.93359375
12.574000000000002,6.899447631835938,-1.5992889404296875,5.482144165039063
12.584,7.654754638671876,-1.646243286132813,6.999337768554688
12.593999999999998,8.09588623046875,-0.6398651123046876,7.751205444335938
12.603999999999996,7.753298950195313,1.0818939208984375,7.262969970703126
12.614,4.398007202148438,2.028756713867188,6.286050415039063
12.624,5.415600585937501,2.51400146484375,7.225585937500001
12.636,7.277923583984376,1.9131652832031247,9.401486206054688
12.644000000000002,7.591201782226563,0.5830413818359376,6.819595336914063
12.654,7.628286743164063,-0.8572906494140625,5.188305664062501
12.663999999999998,6.105410766601563,-1.5686340332031252,5.3451690673828125
12.673999999999996,7.313812255859376,-1.4944641113281252,7.593743896484375
12.684,6.905728149414063,-1.5529327392578127,8.917138671875001
12.694,7.008908081054688,-1.3370025634765623,5.950491333007813
12.703999999999995,6.747070312500001,-0.4044952392578125,5.470181274414063
12.714000000000002,6.740490722656251,1.1152404785156251,6.636264038085938
12.724,6.75364990234375,2.5087677001953126,8.198617553710939
12.734999999999996,6.739443969726563,2.2239013671875,8.533877563476564
12.743999999999996,6.728527832031251,1.2359161376953125,5.55736083984375
12.754,6.128738403320313,0.2358184814453125,6.271994018554688
12.764,6.945953369140626,-0.63642578125,7.587164306640625
12.773999999999996,7.150668334960938,-1.4673980712890626,8.029043579101563
12.784000000000002,7.621707153320313,-2.19100341796875,6.552224731445313
12.794,7.03836669921875,-2.076458740234376,4.208993530273438
12.803999999999998,7.145584106445313,-0.8662628173828125,6.516036987304688
12.813999999999997,6.710733032226563,0.5223297119140625,7.730868530273438
12.824000000000002,7.332803344726563,1.558465576171875,8.323031616210939
12.834999999999996,5.955426025390626,1.4359954833984376,6.125
12.843999999999998,7.088012695312501,1.2619354248046877,5.646633911132813
12.853999999999996,6.641647338867188,1.184625244140625,8.221347045898439
12.864,6.430801391601563,0.9136657714843752,8.450585937500001
12.874,5.712728881835938,0.0698333740234375,7.974612426757813
12.883999999999997,7.025357055664063,-1.2447387695312502,5.464349365234376
12.894000000000002,7.882498168945313,-1.7589935302734376,5.581735229492188
12.904,7.926760864257813,-1.418499755859375,6.622955322265626
12.913999999999998,6.88883056640625,-0.3816162109375,7.162332153320313
12.923999999999996,6.090905761718751,0.0856842041015625,6.619216918945313
12.935,6.6322265625000005,0.1652374267578125,6.170159912109376
12.944,7.329812622070313,0.2181732177734375,6.770397949218751
12.953999999999995,6.725985717773438,0.4789642333984375,7.79202880859375
12.964000000000002,7.287493896484375,0.9296661376953126,7.495797729492188
12.974,7.501181030273438,0.8433837890625001,7.136911010742188
12.983,5.366253662109376,0.5027404785156251,5.9268646240234375
12.993,6.629086303710938,0.4197479248046875,7.191790771484375
13.002999999999997,6.665274047851563,0.12740478515625,8.326470947265626
13.013000000000002,7.505068969726563,-0.7745971679687501,6.771145629882813
13.023,7.394113159179688,-1.0561737060546876,6.251657104492188
13.035,6.0819335937500005,-0.2328277587890625,6.1285888671875
13.044,6.354238891601563,0.77998046875,7.856478881835938
13.053,7.144985961914063,0.5610595703125001,8.051324462890626
13.063,7.939321899414063,-0.122320556640625,5.677438354492188
13.072999999999997,6.809875488281251,-0.43724365234375,5.199221801757813
13.083000000000002,6.716864013671875,0.0829925537109375,6.60411376953125
13.093,6.466690063476563,0.23447265625,8.424118041992188
13.102999999999998,7.04075927734375,-0.2250518798828125,8.438174438476564
13.112999999999996,6.295919799804688,-0.37862548828125,5.780468750000001
13.123,6.457717895507813,0.140863037109375,6.281414794921876
13.133,6.835745239257813,0.7397552490234376,7.336392211914063
13.142999999999995,7.754046630859375,0.6477905273437501,7.855731201171875
13.153000000000002,7.147827148437501,0.1105072021484375,6.236105346679688
13.163,7.2291748046875,-0.17705078125,5.085574340820313
13.172999999999998,5.804244995117188,-0.248529052734375,6.98094482421875
13.182999999999996,7.069171142578125,-0.29010009765625,8.374322509765626
13.193,6.989617919921876,-0.59754638671875,8.255291748046876
13.203,6.739593505859376,-0.8785247802734376,5.311224365234375
13.212999999999996,6.997393798828125,-0.2966796875,5.532388305664063
13.223000000000004,7.239791870117188,0.5202362060546876,7.421926879882813
13.233,6.778622436523438,1.206158447265625,8.194729614257813
13.243,6.177188110351563,1.090118408203125,7.369589233398438
13.252999999999997,6.704751586914063,0.5420684814453125,5.722299194335938
13.263000000000002,7.090704345703125,0.0070281982421875,6.62564697265625
13.273,7.43673095703125,-0.2504730224609375,7.695877075195313
13.282999999999998,6.530990600585938,-0.341839599609375,7.515087890625001
13.292999999999996,6.146682739257813,-0.7843170166015626,6.291134643554688
13.303,6.794622802734375,-1.1121002197265626,5.534332275390625
13.313,8.292526245117188,-1.161895751953125,6.451138305664063
13.322999999999997,6.7219482421875005,-0.6787445068359376,7.258932495117188
13.333000000000002,7.6939331054687505,0.1876678466796875,7.193585205078126
13.343,7.254595947265625,1.447509765625,7.428955078125001
13.352999999999998,4.9339447021484375,2.0272613525390626,6.651367187500001
13.362999999999996,5.5986328125,2.128497314453125,7.873226928710938
13.373,7.152911376953125,1.2356170654296876,8.374322509765626
13.383,7.576248168945313,-0.4628143310546875,6.141000366210938
13.392999999999995,8.084521484375001,-1.621270751953125,5.488424682617188
13.403000000000002,6.347808837890626,-1.6179809570312502,5.906976318359376
13.413,6.395211791992188,-1.0409210205078123,7.866049194335938
13.422999999999998,6.956121826171875,-0.8390472412109375,8.41529541015625
13.432999999999996,7.32188720703125,-0.6585571289062501,6.010903930664063
13.443,7.021469116210938,0.1984344482421875,5.448797607421875
13.453,6.477008056640625,1.7117401123046876,6.982290649414063
13.462999999999996,6.5499816894531255,2.4488037109375003,8.196075439453125
13.473000000000004,6.586618041992188,1.6523742675781252,8.565579223632813
13.483,6.9133544921875005,0.314324951171875,5.554220581054688
13.492,6.460858154296876,-0.414813232421875,6.379061889648438
13.502999999999997,6.651516723632813,-1.1032775878906251,7.084124755859375
13.511999999999995,7.341775512695313,-1.56893310546875,7.905078125
13.522000000000002,7.890423583984376,-1.9315582275390624,6.260031127929688
13.532,7.551275634765625,-1.64310302734375,4.315762329101563
13.541999999999998,6.498840332031251,-0.2403045654296875,6.264666748046875
13.551999999999996,6.746920776367188,1.1979339599609375,8.348153686523439
13.562,6.3406311035156255,1.85843505859375,8.835342407226562
13.572,6.5712158203125,1.5342407226562502,6.64000244140625
13.581999999999995,6.37681884765625,1.095501708984375,5.759683227539063
13.592000000000002,7.156649780273438,0.8291778564453126,7.4068237304687505
13.602,6.4961486816406255,0.4897308349609375,8.303890991210938
13.611999999999998,6.53233642578125,-0.476422119140625,7.354037475585938
13.621999999999996,7.068722534179688,-1.6021301269531252,5.541360473632813
13.632,7.787094116210938,-1.9047912597656247,5.3510009765625
13.642,7.455273437500001,-1.268365478515625,7.039562988281251
13.651999999999996,7.020272827148438,-0.192901611328125,7.11253662109375
13.662000000000004,5.984585571289063,0.2845672607421875,6.976757812500001
13.672,6.548934936523438,0.4643096923828125,5.94376220703125
13.682,6.778173828125,0.7041656494140626,7.638305664062501
13.691999999999997,7.668362426757813,1.08443603515625,7.733560180664063
13.702000000000002,7.855581665039063,1.2299346923828125,7.250857543945313
13.712,5.575155639648438,0.5480499267578125,5.72125244140625
13.721999999999998,6.2210021972656255,0.1272552490234375,6.228628540039063
13.731999999999996,6.702059936523438,-0.1718170166015625,9.069216918945314
13.742,7.317251586914063,-0.8420379638671875,7.580435180664063
13.752,7.30693359375,-1.1810363769531251,6.391323852539063
13.761999999999995,6.066680908203125,-0.5760131835937501,5.567379760742188
13.772000000000002,6.804193115234376,0.6548187255859376,7.024011230468751
13.782,7.411010742187501,0.9371429443359376,8.510549926757813
13.791999999999998,7.386636352539063,0.398065185546875,6.087017822265626
13.801999999999996,6.896157836914063,-0.120526123046875,5.207296752929688
13.812,6.674844360351563,0.00418701171875,6.479400634765626
13.822,6.435437011718751,0.084039306640625,8.009304809570313
13.831999999999995,6.971075439453125,-0.3237457275390625,9.036618041992188
13.842000000000002,6.590206909179688,-0.6243133544921875,5.7936279296875
13.852,6.297116088867188,-0.2794830322265625,6.01553955078125
13.861999999999998,6.997393798828125,0.4510009765625,6.862362670898438
13.871999999999996,7.724588012695313,0.7038665771484376,7.980145263671876
13.882,7.053469848632813,0.3608306884765625,6.631329345703126
13.892,7.098480224609376,0.205462646484375,5.344869995117188
13.901999999999996,5.812020874023438,0.0441131591796875,6.58018798828125
13.912000000000004,7.053768920898438,-0.0562255859375,8.380902099609376
13.922,6.888980102539063,-0.373541259765625,8.342471313476564
13.932,6.880755615234375,-0.8242431640625001,5.924771118164063
13.941999999999997,6.7428833007812505,-0.5793029785156251,5.189053344726563
13.952000000000002,7.511199951171876,0.045458984375,7.185958862304688
13.962,6.6429931640625,0.8019622802734375,7.986126708984376
13.971999999999998,6.576748657226563,0.8795715332031251,7.4890686035156255
13.980999999999998,6.537719726562501,0.4786651611328125,5.785104370117188
13.992,7.279418945312501,-0.002392578125,6.189300537109376
14.002,7.074105834960938,0.019439697265625,7.928405761718751
14.011,6.63402099609375,0.1155914306640625,7.574005126953126
14.020999999999995,5.870639038085938,-0.408233642578125,6.7602294921875
14.031000000000002,6.9387756347656255,-1.00906982421875,5.329916381835938
14.041,7.848403930664063,-1.2353179931640623,6.817202758789063
14.050999999999998,7.353887939453125,-0.648687744140625,7.147229003906251
14.060999999999996,8.157943725585938,0.448907470703125,7.341476440429688
14.071000000000002,6.074307250976563,1.1955413818359375,6.7123779296875
14.081,4.657601928710938,1.5604095458984375,6.330014038085938
14.090999999999998,6.9073730468750005,1.7129364013671875,9.007907104492189
14.101000000000004,7.078741455078125,0.7950836181640626,7.997192382812501
14.111,7.72862548828125,-0.5954528808593751,5.645886230468751
14.121,7.053170776367188,-1.2517669677734375,5.570071411132813
14.130999999999997,6.348406982421875,-0.9023010253906252,6.091055297851563
14.141000000000002,7.1585937500000005,-0.6286499023437501,8.802294921875001
14.151,7.052124023437501,-0.9286193847656252,7.231417846679688
14.160999999999998,6.984832763671876,-0.7804290771484376,5.2584381103515625
14.170999999999996,6.708190917968751,0.4029998779296875,6.362911987304688
14.181,6.213674926757813,1.696038818359375,7.584024047851563
14.191,7.1062561035156255,1.9487548828125,9.126040649414064
14.200999999999995,6.590805053710938,0.9063385009765624,6.507662963867188
14.211000000000002,6.867745971679688,0.2397064208984375,5.377468872070313
14.221,6.170159912109376,-0.2358184814453125,6.948944091796876
14.230999999999998,7.241287231445313,-0.7751953125000001,7.849749755859375
14.240999999999996,7.726980590820313,-1.523623657226563,7.676287841796875
14.251,7.555014038085938,-1.9922698974609376,4.550833129882813
14.261,6.789837646484376,-1.029705810546875,5.265765380859375
14.270999999999995,6.301751708984376,0.23387451171875,7.889675903320313
14.281000000000002,6.935485839843751,1.3489654541015623,8.913400268554689
14.291,6.625198364257813,1.3960693359375,7.543051147460938
14.300999999999998,6.395062255859376,1.00906982421875,4.906579589843751
14.310999999999996,7.169210815429688,1.020733642578125,6.5831787109375
14.321000000000002,6.797763061523438,0.9283203125,8.461801147460939
14.331,6.467138671875,0.2346221923828125,8.098428344726564
14.340999999999998,6.406875610351563,-1.05093994140625,6.32298583984375
14.351000000000004,7.275531005859375,-1.7033660888671875,4.972973632812501
14.361,7.7029052734375005,-1.4626129150390623,6.958663940429688
14.371,7.291830444335938,-0.5909667968750001,7.451535034179688
14.380999999999997,6.63760986328125,0.1069183349609375,7.115975952148438
14.391000000000002,5.942864990234376,0.401953125,5.80499267578125
14.401,7.036123657226563,0.63941650390625,6.231021118164063
14.410999999999998,7.249362182617188,0.6530242919921876,7.89072265625
14.419999999999998,6.7243408203125,0.54132080078125,7.602566528320313
14.431,7.954873657226563,0.238958740234375,6.929504394531251
14.441,6.697573852539063,0.1595550537109375,6.241040039062501
14.450999999999995,5.214474487304688,0.1997802734375,6.326425170898438
14.461000000000002,7.001730346679688,0.2308837890625,8.579336547851563
14.471,6.964944458007813,-0.27933349609375,7.810421752929688
14.480999999999998,7.341925048828125,-0.60711669921875,6.035427856445313
14.489999999999998,6.61607666015625,0.0662445068359375,6.229376220703125
14.501,6.242086791992188,0.8279815673828126,6.734509277343751
14.510000000000002,7.264016723632813,0.8898895263671875,8.481539916992189
14.52,7.126742553710938,0.0011962890625,6.611590576171875
14.531000000000002,7.403085327148438,-0.57122802734375,5.236605834960938
14.541,6.5499816894531255,-0.733624267578125,6.089111328125
14.55,6.763967895507813,-0.5864807128906251,7.419833374023438
14.56,7.185958862304688,-0.466253662109375,8.71915283203125
14.569999999999997,6.481942749023438,-0.399560546875,6.585720825195313
14.580000000000002,6.282312011718751,0.2978759765625,5.717214965820313
14.59,6.949990844726563,0.995611572265625,7.216763305664063
14.599999999999998,7.143490600585938,1.2727020263671875,7.624249267578126
14.609999999999996,7.192089843750001,0.929815673828125,7.440469360351563
14.62,6.72135009765625,0.329278564453125,5.5902587890625
14.63,6.4994384765625,-0.3090911865234375,6.276031494140626
14.639999999999995,6.771444702148438,-0.7253997802734375,8.054464721679688
14.650000000000002,6.9701782226562505,-0.913067626953125,7.818795776367188
14.66,6.871035766601563,-1.16578369140625,6.43424072265625
14.669999999999998,7.332952880859375,-1.0793518066406251,4.858578491210938
14.679999999999996,7.684811401367188,-0.1816864013671875,6.612338256835938
14.69,6.469232177734376,0.9918731689453124,7.778121948242188
14.7,6.21591796875,1.6360748291015623,8.007809448242188
14.709999999999996,6.186459350585938,1.286309814453125,6.929953002929688
14.720000000000002,7.135415649414063,0.5764617919921875,6.367547607421876
14.73,7.03238525390625,0.25899658203125,7.252352905273438
14.739999999999998,6.801351928710938,0.0127105712890625,7.303494262695313
14.749999999999996,6.021221923828126,-0.8275329589843751,6.328817749023438
14.760000000000002,7.835693359375001,-1.83271484375,5.9347900390625
14.77,7.161285400390626,-2.176348876953125,6.387286376953125
14.779999999999998,8.257833862304688,-1.0741180419921876,7.135565185546875
14.790000000000004,7.491162109375001,0.8033081054687501,7.509405517578125
14.8,4.522869873046876,1.663739013671875,6.650320434570313
14.81,5.871087646484376,2.2322753906250004,7.3942626953125
14.819999999999997,7.010104370117188,2.070477294921876,8.800201416015625
14.830000000000002,7.356729125976563,1.1062683105468751,6.760379028320313
14.84,7.554266357421875,-0.1529754638671875,5.983538818359375
14.849999999999998,6.268405151367188,-1.0950531005859376,5.469583129882813
14.859999999999996,7.120761108398438,-1.3151702880859375,7.4540771484375
14.87,6.797015380859375,-1.6585052490234375,8.279067993164062
14.88,7.15799560546875,-1.64071044921875,6.332406616210938
14.889999999999995,6.90677490234375,-0.8858520507812501,5.865255737304688
14.900000000000002,6.597235107421875,0.6074157714843751,6.384295654296875
14.91,6.926663208007813,1.986138916015625,7.836441040039063
14.919,6.719406127929688,2.045504760742188,8.1311767578125
14.929999999999996,7.056011962890626,1.4062377929687502,5.73680419921875
14.94,6.0524749755859375,0.6809875488281251,6.635665893554688
14.95,6.8849426269531255,-0.224005126953125,7.054516601562501
14.959,6.994851684570313,-1.0962493896484375,8.324227905273439
14.970000000000002,7.434039306640625,-1.9155578613281248,6.52994384765625
14.98,6.9746643066406255,-1.8388458251953128,5.225839233398438
14.989,6.415847778320313,-0.954937744140625,6.399847412109375
14.999,7.409963989257813,0.3351104736328125,7.696774291992188
15.008999999999997,7.090853881835938,1.0827911376953123,7.67838134765625
15.019000000000002,6.977206420898438,1.0397247314453126,5.752056884765626
15.029,6.744229125976563,1.07965087890625,5.765814208984375
15.038999999999998,6.786846923828126,1.08682861328125,7.862460327148438
15.048999999999996,5.959014892578125,0.8704498291015625,8.762518310546875
15.059,6.129336547851563,0.057122802734375,8.053717041015625
15.069,6.600674438476563,-0.8901885986328125,5.862265014648438
15.078999999999995,7.824627685546876,-1.310833740234375,5.692691040039063
15.089000000000002,7.761672973632813,-0.99710693359375,6.668414306640625
15.099,7.074554443359376,-0.32479248046875,6.599029541015626
15.108999999999998,5.87078857421875,-0.12261962890625,6.539364624023438
15.118999999999996,7.1421447753906255,-0.3069976806640625,6.191693115234376
15.129,7.245623779296875,-0.2226593017578125,7.631875610351563
15.139,8.312564086914064,0.6171356201171876,7.396206665039063
15.148999999999996,6.010305786132813,1.3663116455078126,7.181173706054688
15.159000000000002,5.055218505859376,1.1880645751953125,6.235208129882813
15.169,6.960757446289063,0.9655548095703126,8.016632080078125
15.178999999999998,6.807632446289063,0.2415008544921875,7.967135620117188
15.188999999999997,7.771392822265626,-0.471636962890625,6.350350952148438
15.199000000000002,6.850399780273438,-0.9033477783203124,6.115579223632813
15.209,6.085223388671875,-0.594854736328125,6.004473876953125
15.218999999999998,7.198818969726563,0.0435150146484375,8.505914306640626
15.228999999999996,7.021170043945313,-0.328082275390625,7.393066406250001
15.239,7.243081665039063,-0.502142333984375,5.419039916992188
15.249,7.23515625,-0.27694091796875,5.686859130859375
15.258999999999997,6.609945678710938,0.346624755859375,6.754995727539063
15.269000000000002,6.859072875976563,0.65137939453125,8.44998779296875
15.279,6.560897827148438,0.3258392333984375,7.685708618164063
15.288999999999998,6.57181396484375,0.1969390869140625,5.92222900390625
15.298999999999996,6.145037841796875,0.367559814453125,6.932345581054688
15.309,7.193585205078126,0.6283508300781251,7.487872314453125
15.319,7.064984130859376,0.2953338623046875,8.010650634765625
15.328999999999995,7.037918090820313,-0.2157806396484375,5.669812011718751
15.339000000000002,7.0975830078125,-0.3745880126953125,5.844021606445313
15.349,6.572860717773438,-0.566143798828125,6.677386474609375
15.358999999999998,7.333401489257813,-0.4358978271484375,7.902984619140626
15.368999999999996,6.713723754882813,-0.5703308105468751,7.372131347656251
15.379,7.006515502929688,-0.6163879394531251,5.429058837890626
15.389,7.040161132812501,-0.10467529296875,6.417941284179688
15.398999999999996,6.862213134765626,0.612799072265625,7.62454833984375
15.409000000000002,6.1620849609375,1.3854522705078125,8.226281738281251
15.417999999999996,6.231170654296876,1.185223388671875,7.249960327148438
15.428999999999998,7.0569091796875005,0.4987030029296875,5.94615478515625
15.438999999999997,7.615875244140626,-0.1048248291015625,6.523214721679688
15.449000000000002,6.840231323242188,-0.181536865234375,7.274783325195313
15.459,6.413604736328126,-0.401953125,6.830661010742188
15.468999999999998,6.313714599609376,-1.260440063476563,6.3825012207031255
15.48,7.963247680664063,-1.8449768066406247,5.840582275390625
15.487999999999996,7.125247192382813,-1.56893310546875,7.220651245117188
15.498,8.218206787109375,0.232080078125,7.284951782226563
15.508,6.4482971191406255,1.7338714599609375,7.410113525390625
15.517999999999995,4.43583984375,2.1528717041015626,6.306835937500001
15.528000000000002,6.770547485351563,2.087973022460938,7.931546020507813
15.538,7.051525878906251,1.3905364990234377,8.398995971679689
15.547999999999998,7.628735351562501,0.09091796875,6.330462646484375
15.557999999999996,7.160537719726563,-1.1799896240234375,5.897854614257813
15.568,6.474765014648438,-1.5427642822265626,5.731570434570313
15.578,6.895111083984376,-1.2261962890625,8.21671142578125
15.587999999999996,6.754696655273438,-1.262384033203125,7.777972412109375
15.598000000000004,7.307830810546876,-0.93370361328125,6.017034912109375
15.608,7.062591552734376,-0.088824462890625,5.699420166015625
15.618,6.519476318359375,1.4647064208984375,6.6217590332031255
15.627999999999997,6.76322021484375,2.273248291015625,8.359518432617188
15.638000000000002,6.845166015625001,1.5783538818359375,7.793972778320313
15.648,6.714172363281251,0.6359771728515625,5.8322082519531255
15.657999999999998,6.198870849609375,-0.18662109375,6.623703002929688
15.667999999999996,6.683666992187501,-0.73392333984375,7.503723144531251
15.678,7.567724609375,-1.402947998046875,8.03248291015625
15.688,7.255493164062501,-1.8273315429687504,5.909817504882813
15.697999999999997,7.533929443359375,-1.2837677001953125,4.916748046875
15.708000000000002,5.958865356445313,-0.1472930908203125,6.831857299804688
15.718,7.383944702148438,1.0952026367187502,7.958013916015625
15.727999999999998,6.781015014648438,1.3343109130859376,8.243478393554689
15.737999999999996,6.911709594726563,0.8656646728515626,5.2280822753906255
15.748,6.706097412109376,0.7841674804687501,6.315359497070313
15.758,6.530392456054688,0.7855133056640625,7.987771606445313
15.767999999999995,6.227880859375,0.5284606933593751,8.838931274414064
15.778000000000002,6.348706054687501,-0.4589263916015625,7.290484619140625
15.788,7.398748779296875,-1.3014129638671876,5.073760986328125
15.797999999999998,7.569219970703125,-1.3103851318359376,5.775982666015626
15.807999999999996,7.715914916992188,-0.6006866455078126,7.0703674316406255
15.818,6.579440307617188,0.1280029296875,7.386636352539063
15.828,6.2015625000000005,0.138470458984375,6.6157775878906255
15.837999999999996,6.486727905273438,0.161199951171875,5.934490966796876
15.848000000000004,7.284353637695313,0.0557769775390625,7.414898681640626
15.858,6.859671020507813,0.4032989501953125,7.798458862304688
15.868,8.230319213867189,0.5057312011718751,7.173696899414063
15.877999999999997,6.323135375976563,0.484197998046875,6.241638183593751
15.888000000000002,5.6502227783203125,0.4508514404296875,5.723645019531251
15.898,6.851446533203125,0.5698822021484375,8.71915283203125
15.907999999999998,6.897354125976563,0.0677398681640625,7.889974975585938
15.917999999999996,7.197921752929688,-0.5710784912109376,6.58018798828125
15.928,6.7772766113281255,-0.4454681396484375,6.010754394531251
15.938,6.228030395507813,0.3488677978515625,6.507363891601563
15.947999999999997,7.0114501953125,0.6168365478515625,8.533578491210939
15.956999999999995,7.58507080078125,-0.0620574951171875,6.784454345703126
15.968,7.185211181640626,-0.6661834716796875,5.273690795898438
15.977,6.863409423828125,-0.611004638671875,5.5220703125
15.986999999999998,6.593197631835938,-0.1763031005859375,7.523461914062499
15.996999999999996,7.278372192382813,-0.1009368896484375,8.646627807617188
16.007,6.302798461914063,-0.1478912353515625,7.0643859863281255
16.017,6.474765014648438,0.252716064453125,5.737701416015625
16.026999999999997,6.21890869140625,0.9680969238281252,7.173696899414063
16.037000000000003,7.386337280273438,1.1568115234375,7.820440673828125
16.047,7.255343627929688,0.657958984375,7.57310791015625
16.057,7.263717651367188,-0.0160003662109375,5.142398071289063
16.066999999999997,6.341827392578126,-0.4813568115234375,6.0520263671875005
16.077,6.737051391601563,-0.6779968261718751,7.565780639648438
16.087,7.0975830078125,-0.8076446533203125,8.503671264648439
16.096999999999998,6.757537841796876,-1.0893707275390625,6.557608032226563
16.106999999999996,7.365252685546875,-0.9332550048828124,4.93887939453125
16.117,7.129733276367188,0.013458251953125,6.489270019531251
16.127,6.807034301757813,1.1820831298828125,7.858422851562499
16.136999999999997,6.034979248046875,1.75196533203125,8.539859008789064
16.147000000000002,6.545346069335938,1.2088500976562502,6.46414794921875
16.157,6.928756713867188,0.4529449462890625,6.0849243164062505
16.166999999999998,7.305886840820313,-0.005084228515625,6.949990844726563
16.176999999999996,6.725686645507813,-0.1299468994140625,7.863507080078126
16.187,6.366650390625001,-0.7684661865234376,6.896456909179688
16.197,6.719256591796875,-1.619775390625,5.651568603515625
16.206999999999997,8.129083251953126,-1.89791259765625,5.51309814453125
16.217000000000002,7.030740356445313,-1.3530029296875,7.255044555664063
16.227,7.988818359375,0.2244537353515625,7.413552856445313
16.237,6.850848388671875,1.5826904296875002,7.791281127929688
16.246999999999996,4.494009399414063,2.2273406982421875,6.183319091796876
16.257,6.2613769531250005,2.4704864501953128,7.972967529296875
16.267,7.121060180664063,1.7809753417968752,8.548831176757814
16.276999999999997,7.639202880859376,0.005682373046875,6.146234130859376
16.287000000000003,7.654605102539063,-1.4901275634765625,5.629736328125
16.297,6.311172485351563,-1.831967163085937,5.558407592773438
16.307,6.684115600585938,-1.49476318359375,8.306283569335939
16.316999999999997,6.887484741210938,-1.484744262695313,8.290283203125
16.327,7.314859008789063,-1.01864013671875,5.935986328125001
16.337,6.919186401367188,0.11304931640625,5.360720825195313
16.346999999999998,6.572860717773438,1.834658813476563,6.695629882812501
16.356999999999996,7.002328491210938,2.6584533691406254,8.281011962890625
16.367,6.793426513671876,1.8512573242187504,8.145831298828126
16.377,6.511700439453126,0.7167266845703125,5.640353393554688
16.386999999999997,5.881704711914063,-0.171966552734375,6.881503295898438
16.397000000000002,6.610842895507813,-0.94447021484375,7.76451416015625
16.407,7.77408447265625,-1.7470306396484376,8.067922973632813
16.416,7.565631103515625,-2.241696166992188,5.413656616210938
16.426999999999996,7.6445861816406255,-1.5835876464843752,4.347164916992188
16.437,6.141598510742188,-0.303857421875,6.512149047851563
16.447,7.477255249023438,1.170718383789063,8.393014526367189
16.456,6.531439208984375,1.5107635498046876,8.406024169921876
16.467000000000002,6.561346435546875,1.229486083984375,5.630932617187501
16.476000000000003,6.223095703125001,1.22559814453125,6.439025878906251
16.486,6.774136352539063,1.1100067138671876,8.289535522460938
16.496,6.396258544921875,0.639715576171875,8.699114990234376
16.505999999999997,6.666470336914063,-0.5836395263671875,6.801651000976563
16.516000000000002,7.040908813476563,-1.5089691162109375,4.8377929687500005
16.526999999999997,7.896255493164063,-1.606915283203125,5.771197509765625
16.535999999999998,7.4780029296875,-1.080996704101563,7.2991577148437505
16.545999999999996,6.590206909179688,-0.4747772216796875,6.877017211914063
16.556,6.342276000976563,-0.3623260498046875,6.380706787109376
16.566,6.940570068359375,-0.0841888427734375,6.405679321289063
16.575999999999997,7.878610229492188,0.7149322509765625,7.923919677734376
16.586000000000002,7.853189086914063,1.8315185546875,7.930200195312499
16.596,4.344323730468751,1.855145263671875,6.341079711914063
16.605999999999998,6.0838775634765625,1.185671997070313,6.7069946289062505
16.615999999999996,7.118667602539063,0.20994873046875,8.313461303710938
16.627,7.845413208007813,-0.8154205322265625,7.224539184570313
16.636,7.556509399414063,-1.1261566162109375,6.457568359375
16.645999999999997,5.367749023437501,-0.9754241943359376,5.4782562255859375
16.656000000000002,7.004721069335938,-0.3581390380859375,7.404580688476563
16.666,7.566976928710938,-0.1123016357421875,8.431445312500001
16.676,7.359719848632813,-0.123516845703125,5.848358154296875
16.685999999999996,6.756939697265626,0.16448974609375,5.381655883789063
16.696,6.626843261718751,0.35828857421875,6.0415588378906255
16.706,7.188052368164063,0.6452484130859375,8.333050537109376
16.715999999999998,6.647479248046875,0.3552978515625,8.460903930664063
16.727,6.292181396484375,0.091217041015625,6.208291625976563
16.736,5.9403228759765625,0.096002197265625,6.3989501953125005
16.746,7.179229736328126,0.1335357666015625,7.416842651367188
16.755999999999997,7.481741333007813,0.2044158935546875,7.802795410156251
16.766000000000002,7.262969970703126,-0.1296478271484375,6.441567993164063
16.776,6.864605712890626,-0.162396240234375,5.074658203125001
16.785999999999998,6.53592529296875,-0.256304931640625,6.748864746093751
16.795999999999996,6.971524047851563,-0.2292388916015625,8.099475097656251
16.806,7.134817504882813,-0.2702117919921875,7.790234375000001
16.816,6.608001708984376,-0.5519378662109375,5.940472412109376
16.827,7.065432739257813,-0.3291290283203125,5.373281860351563
16.836000000000002,7.125247192382813,0.2729034423828125,7.792776489257813
16.846,6.53831787109375,1.01026611328125,7.954425048828125
16.855999999999998,5.960659790039063,1.0712768554687502,7.68436279296875
16.865999999999996,6.955075073242188,0.4580291748046875,5.81097412109375
16.876,7.375122070312501,-0.0562255859375,6.401791381835938
16.886,7.357177734375001,-0.1481903076171875,7.156649780273438
16.895999999999997,6.232666015625001,-0.232379150390625,7.122555541992188
16.906000000000002,6.564187622070313,-0.87568359375,6.253302001953125
16.916,7.366299438476563,-1.6214202880859376,6.475363159179688
16.926999999999996,7.526303100585938,-1.3574890136718751,6.8320068359375
16.935999999999996,8.167214965820314,0.2364166259765625,7.591949462890626
16.946,5.6995697021484375,1.5447082519531252,6.96060791015625
16.956,5.050881958007813,1.7642272949218751,6.422576904296876
16.965999999999998,7.198818969726563,1.5971954345703123,8.184262084960938
16.974999999999998,7.31949462890625,0.9941162109375,7.596136474609375
16.984999999999996,7.190744018554688,0.1640411376953125,6.489718627929688
16.996,6.584075927734376,-0.7505218505859376,5.939425659179688
17.005,6.635067749023438,-1.1844757080078123,6.342575073242188
17.014999999999997,7.190145874023438,-1.2552062988281252,8.16766357421875
17.026999999999997,7.069320678710938,-1.2347198486328126,7.025057983398438
17.035999999999998,6.8343994140625,-0.7696624755859376,5.991912841796875
17.044999999999998,6.914251708984375,0.2884552001953125,6.405081176757813
17.054999999999996,6.373529052734376,1.40264892578125,7.156051635742188
17.065,7.171603393554688,1.9219879150390624,8.426510620117188
17.075,6.368295288085938,1.3266845703125,6.605160522460938
17.084999999999997,7.144238281250001,0.5927612304687501,6.151916503906251
17.095000000000002,6.35050048828125,-0.206060791015625,6.67589111328125
17.105,7.124649047851563,-0.9479095458984376,7.419534301757813
17.115,7.203903198242188,-1.4748748779296876,7.619165039062499
17.124999999999996,7.36973876953125,-1.8173126220703129,5.593698120117188
17.135,6.849203491210938,-1.01624755859375,6.010903930664063
17.145,6.551776123046875,-0.0130096435546875,6.881652832031251
17.154999999999998,6.989019775390625,1.1903076171875,8.248861694335938
17.165000000000003,6.837539672851563,1.3932281494140626,7.031637573242188
17.175,6.840530395507813,1.1118011474609375,5.793328857421876
17.185,6.996795654296876,0.884954833984375,6.621011352539063
17.194999999999997,6.359323120117188,0.6928009033203125,8.0881103515625
17.205000000000002,6.187805175781251,0.2621368408203125,8.249609375
17.215,6.628787231445313,-0.8542999267578125,6.902737426757813
17.224999999999998,7.348056030273438,-1.53125,5.4139556884765625
17.234999999999996,7.700363159179688,-1.3094879150390626,6.259133911132813
17.245,6.963299560546876,-0.4589263916015625,6.8430725097656255
17.255,6.786996459960938,-0.0059814453125,6.710882568359375
17.264999999999997,6.615179443359375,-0.0970489501953125,6.368295288085938
17.275000000000002,7.141696166992188,-0.102880859375,6.758285522460938
17.285,7.466339111328126,0.61309814453125,7.730120849609375
17.294999999999998,7.613931274414063,1.4176025390625,7.76451416015625
17.304999999999996,4.799511718750001,1.2999176025390626,6.550131225585938
17.315,6.185861206054688,0.772503662109375,6.730471801757813
17.325,7.011001586914063,0.2148834228515625,8.208935546875
17.334999999999997,7.652362060546875,-0.4580291748046875,7.095938110351563
17.345000000000002,7.474713134765626,-0.8514587402343751,6.315957641601563
