time,ax,ay,az
0.0,6.789089965820313,0.10826416015625,6.822286987304688
0.0099999999999909,6.7997070312500005,0.152227783203125,6.912158203125
0.0199999999999818,6.658843994140626,0.4230377197265625,7.306634521484375
0.0299999999999727,6.638955688476563,0.50244140625,7.049432373046876
0.0399999999999636,6.62265625,0.26019287109375,6.895111083984376
0.0499999999999545,7.112835693359376,-0.021234130859375,6.828118896484376
0.0600000000000022,7.207940673828125,-0.262286376953125,6.658096313476563
0.0699999999999931,6.971075439453125,-0.31402587890625,6.726284790039063
0.079999999999984,6.75963134765625,-0.2062103271484375,6.674395751953125
0.0899999999999749,6.694583129882813,-0.3961212158203125,7.0868164062500005
0.0999999999999659,7.240090942382813,-0.5671905517578125,6.9327941894531255
0.1099999999999639,7.053170776367188,-0.5976959228515626,6.558953857421876
0.1200000000000045,6.646731567382813,-0.0148040771484375,6.931896972656251
0.1299999999999954,6.310424804687501,0.7871582031250001,7.201062011718751
0.1399999999999863,6.696527099609376,0.7986724853515625,7.462899780273438
0.1499999999999772,7.012197875976563,0.7731018066406251,6.978851318359376
0.1599999999999681,6.953430175781251,0.4822540283203125,6.176141357421876
0.169999999999959,6.5724121093750005,-0.175555419921875,7.121209716796876
0.1800000000000068,6.84337158203125,-0.8548980712890626,7.208987426757813
0.1899999999999977,7.329812622070313,-1.5783538818359375,7.566677856445313
0.1999999999999957,6.165972900390625,-1.8976135253906248,7.057507324218751
0.2099999999999866,6.9686828613281255,-1.1784942626953123,5.9398742675781255
0.2199999999999704,8.050277709960938,-0.1828826904296875,6.270797729492188
0.2299999999999613,7.519424438476563,0.6709686279296876,5.88873291015625
0.2400000000000091,6.74168701171875,2.0541778564453126,7.227679443359375
0.2509999999999763,5.622708129882813,2.824288940429688,7.701110839843751
0.2599999999999909,5.710635375976563,2.723501586914063,8.233758544921876
0.2699999999999818,6.362911987304688,1.4232849121093751,7.8015991210937505
0.2799999999999727,7.213473510742188,-0.2069580078125,6.655105590820313
0.2899999999999636,7.295718383789063,-1.328179931640625,6.557608032226563
0.2999999999999545,6.238796997070313,-1.70411376953125,6.650320434570313
0.3100000000000023,6.428558349609376,-1.37154541015625,7.639950561523438
0.3199999999999932,7.462002563476563,-1.188214111328125,7.334896850585938
0.3299999999999841,7.941864013671876,-1.0026397705078125,5.364459228515625
0.3389999999999986,8.264413452148439,-0.7218109130859376,4.535879516601563
0.3499999999999659,7.559201049804688,-0.337054443359375,5.020376586914063
0.3599999999999639,7.643090820312499,0.0025421142578125,6.474615478515625
0.3689999999999713,7.361514282226563,0.0162994384765625,7.080087280273438
0.3789999999999622,6.572561645507813,-0.4828521728515625,6.186459350585938
0.38900000000001,6.877166748046876,-1.1209228515625,6.41270751953125
0.3999999999999772,6.316256713867188,-1.6417572021484377,7.592996215820313
0.4099999999999681,7.38828125,-0.4269256591796875,9.038113403320311
0.4199999999999591,4.734014892578125,1.3058990478515626,8.662030029296876
0.4289999999999736,5.4528350830078125,2.5691802978515628,6.770846557617188
0.4389999999999645,6.375622558593751,2.956927490234375,7.769149780273438
0.4489999999999554,7.53243408203125,2.4802062988281253,6.578692626953125
0.4590000000000032,9.155499267578126,1.7912933349609377,5.508462524414063
0.4689999999999941,8.112933349609376,0.7765411376953125,5.283111572265625
0.478999999999985,6.004324340820313,-0.040673828125,5.364907836914063
0.4889999999999759,5.746673583984375,-0.7644287109375001,8.92969970703125
0.4989999999999597,6.181823730468751,-1.6354766845703126,9.002224731445313
0.5099999999999909,6.750808715820313,-2.1594512939453128,7.764813232421876
0.5190000000000055,6.93907470703125,-1.5349884033203127,5.910714721679688
0.5289999999999964,6.0295959472656255,-0.15013427734375,6.223693847656251
0.5389999999999944,6.591702270507813,1.5527832031250002,8.041455078125
0.5489999999999853,7.0628906250000005,1.8630706787109377,7.677932739257813
0.5589999999999691,8.264712524414064,0.6936981201171876,6.010006713867188
0.56899999999996,7.656250000000001,-0.899908447265625,4.281817626953125
0.5790000000000077,7.165921020507813,-1.9040435791015624,5.37432861328125
0.5889999999999986,6.955972290039063,-1.9501007080078123,8.11981201171875
0.5989999999999966,6.155355834960938,-1.7600402832031252,8.16885986328125
0.6099999999999639,7.633969116210938,-1.6314392089843752,6.57779541015625
0.6189999999999714,7.547537231445313,-1.6320373535156252,5.061199951171876
0.6289999999999623,7.688101196289063,-0.3288299560546875,5.646035766601563
0.63900000000001,6.247619628906251,1.287356567382813,7.258334350585938
0.6490000000000009,6.161636352539063,2.4743743896484376,8.748312377929688
0.6589999999999918,5.939126586914063,2.693594360351563,8.178131103515625
0.6689999999999827,6.0176330566406255,2.1083099365234377,7.178631591796876
0.6789999999999736,6.3570800781250005,1.7664703369140626,7.586715698242188
0.6889999999999645,6.457867431640626,0.95643310546875,7.768850708007813
0.6989999999999554,6.718359375,-0.5938079833984375,7.154705810546876
0.7099999999999866,7.339233398437501,-1.968792724609375,6.140103149414063
0.7189999999999941,7.615576171875,-2.630340576171875,5.866900634765625
0.728999999999985,7.090255737304688,-2.392279052734376,6.506915283203125
0.7389999999999759,7.221697998046875,-1.441827392578125,6.848605346679688
0.7489999999999597,7.142742919921876,-0.4137664794921875,5.8236846923828125
0.7589999999999577,7.694381713867188,0.8656646728515626,5.8785644531250005
0.7690000000000055,6.525607299804688,1.4833984375,6.411062622070313
0.7789999999999964,6.354537963867188,1.99959716796875,8.560046386718751
0.7889999999999944,5.33963623046875,2.140011596679688,9.452178955078123
0.7989999999999853,5.768356323242188,1.2931884765625,7.726980590820313
0.8100000000000023,7.280166625976563,0.0267669677734375,6.6262451171875005
0.81899999999996,7.9212280273437505,-0.9927703857421876,5.219110107421876
0.8290000000000077,8.364004516601563,-1.319805908203125,5.303897094726563
0.8389999999999986,6.9821411132812505,-1.3301239013671875,6.773538208007813
0.8489999999999966,6.7548461914062505,-1.1153900146484377,6.662881469726563
0.8589999999999804,6.393267822265625,-0.7150817871093751,8.046987915039063
0.8689999999999714,6.353640747070313,-0.0465057373046875,7.005319213867188
0.8779999999999859,6.706546020507813,0.5685363769531251,7.285250854492188
0.8879999999999768,6.931448364257813,0.9464141845703126,6.937429809570313
0.8979999999999677,6.958663940429688,1.0860809326171876,6.5499816894531255
0.9099999999999682,6.955523681640625,0.7870086669921875,6.964047241210938
0.9189999999999828,6.746920776367188,0.3407928466796875,6.494204711914063
0.9279999999999902,6.941915893554688,-0.1948455810546875,7.073358154296876
0.9379999999999952,6.788342285156251,-0.721661376953125,6.940121459960938
0.9479999999999862,6.973617553710938,-1.079949951171875,7.009207153320313
0.95799999999997,6.723593139648438,-0.999798583984375,6.938925170898438
0.9679999999999608,6.7219482421875005,-0.5576202392578126,6.801800537109376
0.9780000000000086,6.869689941406251,0.12501220703125,6.89720458984375
0.9879999999999995,7.402337646484375,0.7089508056640625,6.427960205078126
0.9979999999999905,7.392169189453125,0.7846160888671876,6.2509094238281255
1.009999999999991,7.073208618164063,0.7117919921875,6.401641845703126
1.0179999999999725,6.552822875976563,0.638519287109375,7.297811889648438
1.0279999999999632,6.063839721679688,0.2543609619140625,8.039361572265626
1.037999999999954,6.244030761718751,-0.237762451171875,7.718756103515625
1.0480000000000018,6.339733886718751,-0.8863006591796876,7.2531005859375
1.0579999999999927,6.886737060546875,-1.2045135498046875,6.312817382812501
1.0679999999999836,7.972518920898438,-0.7307830810546876,6.344818115234376
1.0779999999999743,7.821038818359375,-0.139666748046875,5.858526611328125
1.0879999999999654,7.740737915039063,0.40015869140625,5.949893188476563
1.0979999999999563,6.329415893554688,0.8794219970703125,6.779669189453125
1.109999999999964,6.032138061523438,1.1237640380859375,7.632473754882813
1.117999999999995,5.841778564453126,0.730633544921875,8.911456298828126
1.127999999999986,6.616226196289063,-0.0503936767578125,7.438674926757813
1.1379999999999768,7.257437133789063,-0.41929931640625,7.042553710937501
1.1479999999999675,6.716116333007813,-0.4421783447265625,5.650820922851563
1.1579999999999586,7.586117553710938,-0.116339111328125,6.173748779296876
1.1680000000000064,7.367794799804688,-0.2619873046875,6.785800170898438
1.1779999999999902,7.7163635253906255,-0.5613586425781251,5.837442016601563
1.1879999999999953,6.971224975585938,-0.5087219238281251,6.836492919921875
1.1979999999999862,6.042755126953125,-0.04964599609375,6.990066528320313
1.2099999999999866,6.170758056640626,0.5341430664062501,8.346359252929688
1.217999999999961,6.390426635742188,0.8109344482421875,8.219851684570314
1.2280000000000086,6.8834472656250005,0.8312713623046876,6.422726440429688
1.2379999999999995,6.943112182617188,0.6437530517578125,6.219357299804688
1.2479999999999905,7.143939208984375,0.3433349609375,6.020773315429688
1.2579999999999814,7.289437866210938,-0.24942626953125,7.330859375
1.2679999999999725,6.808679199218751,-0.8990112304687501,7.148574829101563
1.2779999999999632,6.6764892578125,-1.29737548828125,6.727630615234376
1.287999999999954,6.594244384765625,-1.1783447265625,7.069470214843751
1.2980000000000018,6.588262939453125,-0.7289886474609375,6.897354125976563
1.3079999999999927,7.229623413085938,-0.1233673095703125,7.35
1.3179999999999836,7.209585571289063,0.440234375,6.182421875
1.3279999999999743,6.946401977539063,0.9021514892578124,6.199618530273438
1.3369999999999962,7.078292846679688,1.1953918457031252,6.857577514648438
1.3479999999999563,6.643890380859376,1.3196563720703125,7.405178833007813
1.358000000000004,6.179580688476563,0.942974853515625,7.8464599609375005
1.367999999999995,6.276629638671875,0.1374237060546875,7.333401489257813
1.3770000000000095,6.838735961914063,-0.468646240234375,6.916644287109375
1.3870000000000005,7.031637573242188,-0.8348602294921875,6.584674072265625
1.3969999999999914,7.284204101562499,-0.625958251953125,6.2494140625000005
1.4069999999999825,7.285549926757813,-0.27095947265625,6.141598510742188
1.4180000000000064,7.331756591796876,-0.382513427734375,6.333752441406251
1.426999999999964,7.683016967773438,-0.56763916015625,6.630880737304688
1.436999999999955,6.605758666992188,-0.1314422607421875,7.688101196289063
1.4470000000000027,5.109948730468751,0.3440826416015625,7.489517211914063
1.4569999999999936,6.285601806640625,0.5779571533203125,7.715615844726563
1.4669999999999843,7.367645263671876,0.237164306640625,7.314859008789063
1.4769999999999754,7.991659545898438,-0.1864715576171875,5.4976959228515625
1.4869999999999663,7.529293823242188,-0.0243743896484375,6.094644165039063
1.4969999999999644,6.428408813476563,0.0853851318359375,6.3690429687500005
1.507000000000005,6.493157958984376,-0.0500946044921875,7.804141235351563
1.516999999999996,6.875372314453125,-0.503936767578125,7.812664794921876
1.526999999999994,6.7386962890625,-0.7734008789062501,6.561495971679688
1.5369999999999848,6.498840332031251,-0.3265869140625,6.727780151367188
1.5469999999999686,6.693984985351563,0.346624755859375,7.05272216796875
1.5569999999999595,7.215866088867188,0.7283905029296875,7.430001831054688
1.5670000000000073,7.108947753906251,0.6002380371093751,6.541607666015626
1.5769999999999982,7.211529541015626,0.3572418212890625,5.6572509765625005
1.5869999999999962,6.996646118164063,0.085833740234375,6.442166137695313
1.59699999999998,6.672451782226563,-0.198284912109375,7.316055297851563
1.606999999999971,6.743182373046875,-0.4038970947265625,7.878909301757813
1.6169999999999618,6.265713500976563,-0.593359375,7.247567749023438
1.6270000000000095,6.531887817382813,-0.49945068359375,6.549682617187501
1.6370000000000005,7.129882812500001,-0.0943572998046875,7.069320678710938
1.6469999999999914,7.184762573242188,0.3772796630859375,6.880157470703126
1.6569999999999825,6.981243896484376,0.7642791748046875,6.686657714843751
1.6669999999999732,6.69981689453125,0.7167266845703125,6.3439208984375
1.676999999999964,7.006814575195313,0.337353515625,6.755593872070313
1.686999999999955,6.824081420898438,0.018841552734375,7.555313110351563
1.6970000000000027,6.593646240234375,-0.2723052978515625,7.252053833007813
1.7069999999999936,6.460110473632813,-0.66812744140625,7.174444580078125
1.7169999999999843,6.249264526367188,-1.018191528320313,6.501681518554688
1.7269999999999754,7.5369201660156255,-0.9500030517578124,6.5036254882812505
1.7369999999999663,7.740737915039063,-0.7929901123046875,6.508709716796876
1.7469999999999644,7.56832275390625,-0.0777587890625,5.99639892578125
1.757000000000005,7.217959594726563,0.8222991943359376,6.833651733398438
1.766999999999996,6.0209228515625,1.3673583984375002,7.2498107910156255
1.776999999999994,5.655606079101563,1.6164855957031252,7.882797241210938
1.7869999999999848,6.098681640625,0.9944152832031252,8.238992309570314
1.7969999999999686,7.278820800781251,0.0291595458984375,6.914550781250001
1.8069999999999595,7.608248901367188,-0.5941070556640625,6.430950927734376
1.8170000000000075,6.971823120117188,-0.621771240234375,5.82413330078125
1.8269999999999984,7.055712890625,-0.4792633056640625,6.651367187500001
1.836999999999996,6.997244262695313,-0.6581085205078125,6.869689941406251
1.84699999999998,7.332653808593751,-0.7445404052734376,6.772341918945313
1.856999999999971,6.568524169921876,-0.45399169921875,6.812268066406251
1.8669999999999616,6.253900146484376,0.3668121337890625,7.378411865234375
1.877000000000009,6.506466674804688,0.9230865478515624,7.806832885742188
1.8870000000000005,6.946701049804688,0.9102264404296876,7.204650878906251
1.8959999999999584,7.339981079101563,0.6144439697265626,6.150271606445313
1.9069999999999825,6.758584594726563,0.2510711669921875,6.1118408203125005
1.9159999999999893,7.076947021484376,-0.110955810546875,6.711929321289063
1.9259999999999948,6.669161987304688,-0.5677886962890626,7.758383178710938
1.9359999999999853,6.475064086914063,-0.901104736328125,7.237548828125001
1.9459999999999693,6.742733764648438,-0.8930297851562501,6.912606811523438
1.9559999999999604,6.806585693359375,-0.6512298583984375,6.552673339843751
1.966000000000008,7.466189575195313,-0.0811981201171875,6.658096313476563
1.975999999999999,7.035974121093751,0.37982177734375,6.868045043945313
1.98599999999999,6.781613159179688,0.6791931152343751,6.319396972656251
1.995999999999981,6.775930786132813,0.752166748046875,7.01085205078125
2.005999999999972,6.56583251953125,0.6431549072265625,7.232763671875
2.0159999999999627,6.693386840820313,0.59635009765625,7.733261108398438
2.0259999999999536,6.42227783203125,0.2738006591796875,7.175192260742188
2.0360000000000014,6.764416503906251,-0.00418701171875,6.669161987304688
2.0459999999999923,6.896157836914063,-0.2968292236328125,6.554318237304688
2.055999999999983,7.085470581054688,-0.5525360107421875,6.615328979492188
2.065999999999974,7.283755493164063,-0.938787841796875,6.546243286132813
2.075999999999965,7.024160766601563,-1.1973358154296876,6.662881469726563
2.085999999999956,7.647128295898438,-0.95164794921875,6.641796875000001
2.096000000000004,7.0539184570312505,-0.1852752685546875,7.197174072265626
2.1059999999999945,5.5919036865234375,0.6830810546875,6.894512939453126
2.115999999999985,6.285153198242188,1.340142822265625,7.36435546875
2.1259999999999764,6.925167846679688,1.1698211669921876,7.700961303710938
2.13599999999996,7.554714965820313,0.741400146484375,6.634320068359376
2.145999999999958,7.22977294921875,0.4699920654296875,6.728976440429688
2.156000000000006,6.307284545898438,0.2633331298828125,6.319396972656251
2.1659999999999897,6.533831787109375,-0.3174652099609375,7.305438232421875
2.175999999999995,7.199566650390626,-1.08204345703125,7.334747314453126
2.1859999999999857,7.291232299804688,-1.3196563720703125,6.721051025390626
2.195999999999969,6.533084106445313,-0.9845458984375,6.546841430664063
2.2059999999999604,6.487326049804688,-0.169873046875,6.869390869140625
2.216000000000008,7.1573974609375,0.4373931884765625,7.652212524414063
2.225999999999999,7.176388549804688,0.7422973632812501,6.815856933593751
2.23599999999999,7.074703979492188,0.8842071533203125,5.943463134765626
2.245999999999981,6.860568237304688,0.7182220458984375,6.265115356445313
2.255999999999972,6.757537841796876,0.3506622314453125,7.196875
2.2659999999999627,6.657049560546875,-0.1051239013671875,8.107998657226563
2.2759999999999536,6.214123535156251,-0.5229278564453126,7.530490112304688
2.2860000000000014,6.291134643554688,-0.729437255859375,6.60411376953125
2.2959999999999923,7.095938110351563,-0.654669189453125,6.69742431640625
2.305999999999983,7.838385009765625,-0.3865509033203125,6.528897094726563
2.3149999999999977,7.414898681640626,-0.0737213134765625,6.157150268554688
2.325999999999965,6.892718505859375,0.39716796875,6.172103881835938
2.335999999999956,6.437530517578126,0.467449951171875,6.9312988281250005
2.3449999999999704,6.653012084960938,0.4915252685546875,8.052072143554689
2.3559999999999945,6.399099731445313,0.385504150390625,7.850796508789063
2.365000000000009,6.463101196289063,0.1290496826171875,6.881652832031251
2.375,6.461456298828126,-0.1278533935546875,6.431549072265626
2.384999999999991,7.133322143554688,-0.3632232666015625,6.641946411132813
2.394999999999982,7.916891479492188,-0.441729736328125,6.725836181640625
2.4049999999999727,7.292129516601563,-0.6497344970703125,5.990267944335938
2.414999999999964,7.655651855468751,-0.45040283203125,6.222647094726563
2.4249999999999545,6.601571655273438,-0.03289794921875,7.063937377929688
2.4350000000000023,5.570370483398438,0.719268798828125,8.042800903320312
2.444999999999993,5.743832397460938,0.925030517578125,8.376715087890625
2.454999999999984,6.864605712890626,0.4003082275390625,7.088461303710938
2.464999999999975,7.936032104492188,-0.051141357421875,6.0352783203125
2.474999999999966,7.4083190917968755,0.062506103515625,6.036175537109376
2.484999999999964,6.711630249023438,0.35709228515625,6.628338623046876
2.4950000000000045,6.577496337890626,-0.189013671875,7.242034912109376
2.5049999999999955,7.652810668945313,-0.9550872802734376,6.72374267578125
2.5149999999999864,6.6740966796875005,-1.1530731201171875,6.564785766601563
2.5249999999999773,6.156103515625,-0.3345123291015625,7.237548828125001
2.534999999999968,6.249563598632813,0.478515625,8.043399047851564
2.544999999999959,7.0688720703125005,0.6530242919921876,7.568621826171875
2.555000000000007,7.368093872070313,0.6721649169921875,5.868844604492188
2.5649999999999977,7.138406372070313,0.689361572265625,5.76312255859375
2.574999999999996,6.83140869140625,0.6371734619140625,6.595440673828126
2.584999999999986,6.867147827148438,0.157611083984375,8.02530517578125
2.5949999999999704,6.254049682617188,-0.50782470703125,7.627838134765626
2.6049999999999613,6.251806640625,-0.8228973388671875,6.803744506835938
2.615000000000009,6.767257690429688,-0.7005767822265625,6.792379760742188
2.625,7.4053283691406255,-0.4649078369140625,6.919784545898438
2.634999999999991,7.783953857421875,-0.17764892578125,6.42825927734375
2.644999999999982,7.041656494140626,0.1769012451171875,5.960211181640625
2.6549999999999727,6.621609497070313,0.40673828125,6.02032470703125
2.664999999999964,6.852642822265626,0.420196533203125,7.547537231445313
2.6749999999999545,6.808230590820313,0.183929443359375,7.826571655273438
2.6850000000000023,6.389828491210938,0.045159912109375,7.503573608398438
2.694999999999993,6.076251220703125,0.073870849609375,6.784304809570313
2.704999999999984,6.6621337890625005,0.0710296630859375,6.863708496093751
2.714999999999975,7.1944824218750005,-0.1978363037109375,6.883746337890625
2.724999999999966,7.794720458984376,-0.52337646484375,6.00955810546875
2.734999999999964,7.414001464843751,-0.675604248046875,5.99041748046875
2.7450000000000045,7.006814575195313,-0.5323486328125,6.393267822265625
2.7549999999999955,7.478152465820313,0.1167877197265625,7.875320434570313
2.7649999999999864,5.538519287109375,0.6241638183593751,7.9571166992187505
2.7749999999999773,5.276980590820313,0.8255889892578125,7.210183715820313
2.784999999999968,6.538168334960938,0.6613983154296875,7.373776245117188
2.794999999999959,7.806085205078125,0.1087127685546875,6.817352294921876
2.805000000000007,8.181420898437501,0.03409423828125,6.327471923828125
2.8149999999999977,6.871783447265625,0.027215576171875,5.795870971679688
2.824999999999996,6.380108642578126,-0.01973876953125,6.413754272460938
2.834999999999986,6.7219482421875005,-0.4475616455078125,7.808328247070313
2.8449999999999704,6.955972290039063,-0.7120910644531251,7.700811767578125
2.8549999999999613,6.549533081054688,-0.480010986328125,7.131976318359375
2.863999999999976,6.101223754882813,0.0480010986328125,6.584823608398438
2.87399999999996,7.116275024414063,0.536834716796875,6.927261352539063
2.8839999999999577,7.528695678710938,0.6133972167968751,7.139901733398438
2.894000000000005,7.231567382812501,0.529058837890625,6.0962890625
2.9039999999999964,6.804641723632813,0.3019134521484375,6.160290527343751
2.9139999999999944,6.669311523437501,-0.1344329833984375,6.8969055175781255
2.9239999999999853,6.749163818359375,-0.35709228515625,8.007809448242188
2.933999999999969,6.136514282226563,-0.3698028564453125,8.024258422851563
2.94399999999996,6.059652709960938,-0.2178741455078125,6.926065063476563
2.954000000000008,6.812118530273438,-0.0438140869140625,6.7174621582031255
2.963999999999998,7.719952392578126,0.08433837890625,6.279769897460938
2.9739999999999966,8.105755615234376,0.0729736328125,6.124102783203125
2.9839999999999804,7.361663818359376,-0.03648681640625,5.516687011718751
2.993999999999972,6.731369018554688,-0.073272705078125,6.567327880859375
3.0039999999999623,6.1552062988281255,-0.3757843017578125,7.574902343750001
3.01400000000001,6.462353515625001,-0.297576904296875,8.558251953125001
3.024000000000001,6.193188476562501,-0.16090087890625,7.662081909179688
3.033999999999992,6.301153564453125,0.06280517578125,6.501980590820313
3.0439999999999827,6.979000854492188,0.3961212158203125,6.359024047851563
3.0539999999999736,8.147177124023438,0.4059906005859375,6.409716796875
3.0639999999999645,7.778570556640625,0.264678955078125,6.2553955078125005
3.0739999999999554,7.181173706054688,0.0276641845703125,6.046194458007813
3.084000000000003,6.497494506835938,-0.108563232421875,7.186407470703125
3.093999999999994,5.458218383789063,-0.0803009033203125,8.174990844726564
3.103999999999985,5.867947387695313,-0.115740966796875,8.355780029296875
3.113999999999976,6.90916748046875,-0.3864013671875,7.394561767578126
3.12399999999996,7.642193603515626,-0.4595245361328125,5.537921142578125
3.1339999999999577,7.72384033203125,0.21832275390625,5.972921752929688
3.144000000000005,7.123751831054688,0.7811767578125001,6.486727905273438
3.1539999999999964,6.624002075195313,0.6570617675781251,7.03238525390625
3.1639999999999944,7.170706176757813,0.0179443359375,7.072460937500001
3.1739999999999853,6.357977294921875,-0.5357879638671875,6.811819458007813
3.183999999999969,6.271694946289063,-0.333465576171875,7.780514526367188
3.19399999999996,6.282461547851563,0.0240753173828125,7.97745361328125
3.204000000000008,6.8834472656250005,-0.0312530517578125,7.240988159179688
3.213999999999998,7.5019287109375,-0.0823944091796875,5.731719970703125
3.2239999999999966,7.563537597656251,-0.01435546875,5.534930419921875
3.2339999999999804,7.243978881835938,0.174359130859375,6.346313476562501
3.243999999999972,6.901242065429688,0.182135009765625,7.633221435546876
3.2539999999999623,6.238348388671875,0.0306549072265625,7.551275634765625
3.26400000000001,5.860171508789063,-0.0734222412109375,7.383346557617188
3.274000000000001,6.2987609863281255,0.0049346923828125,7.334597778320313
3.283999999999992,7.347607421875001,0.1176849365234375,7.251904296875001
3.2939999999999827,7.547985839843751,-0.0115142822265625,6.349453735351563
3.3039999999999736,7.488619995117188,-0.09390869140625,5.482293701171876
3.3139999999999645,7.007113647460938,-0.0500946044921875,6.234609985351563
3.3239999999999554,6.54190673828125,-0.0752166748046875,7.270147705078125
3.33299999999997,6.734808349609375,-0.1505828857421875,7.96309814453125
3.342999999999961,6.570019531250001,-0.4696929931640625,7.081732177734375
3.353999999999985,6.791632080078125,-0.3425872802734375,6.565383911132813
3.3629999999999995,6.608151245117188,0.210845947265625,6.871334838867188
3.3729999999999905,6.743481445312501,0.5477508544921875,7.248016357421876
3.3829999999999814,6.773239135742188,0.4427764892578125,6.850698852539063
3.3929999999999723,7.645034790039063,-0.177947998046875,5.9252197265625
3.402999999999963,7.402038574218751,-0.3997100830078125,6.314013671875
3.412999999999954,7.263568115234375,-0.21234130859375,6.87626953125
3.423000000000002,6.620712280273438,0.11484375,7.896853637695313
3.4329999999999927,5.584576416015626,0.1093109130859375,7.315307617187501
3.442999999999984,6.0046234130859375,0.1200775146484375,7.211978149414063
3.4529999999999745,6.984234619140626,0.1218719482421875,7.292129516601563
3.462999999999965,7.856777954101563,-0.0076263427734375,6.573010253906251
3.4729999999999563,7.672698974609376,0.2382110595703125,6.473568725585938
3.483000000000004,6.5275512695312505,0.4472625732421875,5.798263549804688
3.492999999999995,6.4796997070312505,0.4246826171875,7.119265747070313
3.502999999999986,6.917691040039063,-0.1362274169921875,7.588211059570313
3.512999999999977,6.979449462890625,-0.6443511962890626,7.303494262695313
3.522999999999968,6.40672607421875,-0.5435638427734375,6.993057250976563
3.5329999999999586,6.214721679687501,-0.10826416015625,6.822735595703126
3.5430000000000064,7.041357421875,0.228790283203125,7.602716064453125
3.55299999999999,7.474114990234375,0.2100982666015625,6.6023193359375005
3.562999999999996,7.385440063476563,0.283819580078125,5.8805084228515625
3.572999999999986,6.830212402343751,0.22430419921875,5.919686889648438
3.58299999999997,6.818548583984375,0.08433837890625,7.172799682617188
3.592999999999961,6.670358276367188,-0.011962890625,8.270095825195312
3.6030000000000086,5.923724365234375,-0.2062103271484375,7.618267822265626
3.613,6.225787353515625,-0.1451995849609375,6.949990844726563
3.6229999999999913,6.974365234375001,-0.131591796875,6.606805419921876
3.632999999999981,7.984481811523438,-0.161798095703125,6.453829956054688
3.642999999999972,7.865750122070313,-0.1042266845703125,5.94615478515625
3.652999999999963,6.926962280273438,0.022430419921875,5.930902099609376
3.662999999999954,6.168515014648438,0.0366363525390625,6.921578979492188
3.673000000000002,6.521270751953126,0.0154022216796875,8.228823852539064
3.6829999999999927,6.572561645507813,-0.076263427734375,7.94754638671875
3.692999999999984,6.296218872070313,-0.1437042236328125,6.791482543945313
3.702999999999975,6.354537963867188,-0.017645263671875,6.250012207031251
3.712999999999965,8.096932983398439,0.111553955078125,6.763519287109376
3.722999999999956,7.794271850585938,0.084039306640625,6.551327514648438
3.733000000000004,7.347607421875001,0.0719268798828125,6.0609985351562505
3.742999999999995,6.474765014648438,0.1009368896484375,6.639105224609375
3.752999999999986,5.678933715820313,0.2002288818359375,7.64249267578125
3.762999999999977,6.13157958984375,0.2106964111328125,8.638851928710938
3.772999999999968,6.858175659179688,-0.238958740234375,7.642193603515626
3.782999999999959,7.352691650390626,-0.43006591796875,5.8079833984375
3.791999999999973,7.347756958007813,0.0394775390625,5.9635009765625
3.80299999999999,7.138555908203125,0.440234375,6.497793579101563
3.8129999999999953,7.164425659179688,0.3241943359375,7.16995849609375
3.822999999999986,7.178482055664063,-0.2428466796875,6.580487060546876
3.83299999999997,6.545196533203126,-0.5824432373046875,6.383847045898438
3.842999999999961,6.106008911132813,-0.2115936279296875,7.722943115234376
3.851999999999976,6.253152465820313,0.2651275634765625,8.442510986328125
3.863,6.665274047851563,0.3557464599609375,7.784252929687501
3.871999999999965,7.334149169921876,0.21353759765625,5.629885864257813
3.882000000000005,7.490713500976563,0.20157470703125,5.456573486328125
3.891999999999996,7.222146606445313,0.2500244140625,6.460708618164063
3.901999999999994,7.049432373046876,0.1024322509765625,7.592996215820313
3.911999999999985,6.489419555664063,-0.2729034423828125,7.51688232421875
3.9219999999999686,5.897106933593751,-0.6404632568359375,6.638058471679688
3.93199999999996,6.543402099609375,-0.5004974365234376,7.214968872070313
3.9420000000000073,7.232763671875,-0.1398162841796875,7.579537963867188
3.951999999999998,7.337738037109376,0.142059326171875,6.75963134765625
3.961999999999996,7.243231201171875,0.2857635498046875,5.717813110351563
3.97199999999998,6.920083618164063,0.4366455078125,5.992361450195313
3.981999999999971,6.799856567382813,0.4379913330078125,7.22139892578125
3.991999999999962,6.725238037109375,0.2316314697265625,8.039361572265626
4.0020000000000095,6.5173828125,-0.259893798828125,7.194781494140625
4.0120000000000005,6.598431396484376,-0.6041259765625,6.481643676757813
4.021999999999991,6.891970825195313,-0.4074859619140625,6.696527099609376
4.031999999999982,6.686807250976563,-0.1088623046875,7.292279052734376
4.041999999999973,7.009805297851563,-0.039776611328125,6.698620605468751
4.051999999999964,7.549929809570313,-0.30325927734375,5.98443603515625
4.061999999999955,7.282110595703125,-0.3620269775390625,6.065933227539063
4.072000000000003,7.472918701171875,0.1419097900390625,7.107452392578126
4.081999999999994,6.4677368164062505,0.787457275390625,8.135064697265626
4.0919999999999845,5.2793731689453125,0.8051025390625001,7.412057495117188
4.101999999999975,5.9706787109375,0.512908935546875,7.318298339843751
4.111999999999966,7.116873168945313,0.03409423828125,7.063937377929688
4.121999999999964,8.05521240234375,-0.3165679931640625,6.648526000976563
4.132000000000005,7.612734985351563,-0.31043701171875,6.178234863281251
4.141999999999996,6.5365234375000005,-0.180938720703125,5.809030151367188
4.151999999999994,6.484036254882813,-0.1149932861328125,7.201062011718751
4.161999999999985,6.948196411132813,-0.274249267578125,7.7268310546875005
4.171999999999969,6.87088623046875,-0.2699127197265625,7.478302001953126
4.18199999999996,6.355734252929688,0.0082244873046875,6.731369018554688
4.192000000000007,6.446951293945313,0.4762725830078125,6.640451049804688
4.201999999999998,7.178182983398438,0.6373229980468751,7.467834472656251
4.211999999999996,7.266857910156251,0.4239349365234375,6.773388671875001
4.22199999999998,7.120312500000001,0.2008270263671875,6.245077514648438
4.231999999999971,6.824081420898438,-0.2093505859375,6.098532104492188
4.241999999999962,6.7841552734375,-0.4684967041015625,7.203753662109375
4.2520000000000095,6.796566772460938,-0.4702911376953125,8.006762695312501
4.2620000000000005,6.201712036132813,-0.36905517578125,7.457666015625
4.271999999999991,6.402239990234375,-0.1514801025390625,6.608599853515625
4.281999999999982,7.088909912109376,0.0692352294921875,6.554168701171876
4.291999999999973,7.7044006347656255,0.282623291015625,6.612936401367188
4.301999999999964,7.467984008789063,0.2785858154296875,6.222348022460938
4.311999999999955,7.120312500000001,0.22310791015625,6.1671691894531255
4.322000000000003,6.273638916015625,-0.1440032958984375,6.766360473632813
4.33099999999996,6.6130859375,-0.158807373046875,8.044146728515626
4.341000000000008,6.191693115234376,-0.0823944091796875,8.268002319335938
4.351999999999975,6.2643676757812505,-0.1377227783203125,6.926214599609375
4.36099999999999,6.664825439453126,-0.1096099853515625,6.229525756835938
4.370999999999981,7.922872924804688,-0.144451904296875,6.028848266601563
4.380999999999972,7.968182373046876,-0.01614990234375,6.337042236328125
4.390999999999963,7.341925048828125,0.000299072265625,6.217562866210938
4.401999999999994,6.862811279296875,-0.03050537109375,6.935485839843751
4.411000000000001,5.73740234375,0.1347320556640625,7.610491943359375
4.420999999999992,5.479452514648438,0.4127197265625,8.4876708984375
4.430999999999983,6.457867431640626,0.3102874755859375,8.082278442382814
4.440999999999974,7.566827392578125,-0.1580596923828125,6.145785522460938
4.450999999999965,7.847058105468751,-0.04366455078125,5.80260009765625
4.460999999999956,7.143490600585938,0.356195068359375,5.760580444335938
4.471000000000004,6.698620605468751,0.41212158203125,7.161883544921875
4.4809999999999945,7.109994506835938,-0.246136474609375,7.169210815429688
4.4909999999999854,6.893914794921876,-0.9066375732421876,6.975262451171876
4.5020000000000095,6.1178222656250005,-0.5982940673828125,7.009356689453125
4.51099999999996,6.009408569335938,0.1423583984375,8.015734863281251
4.520999999999958,6.8176513671875005,0.44681396484375,7.736550903320313
4.531000000000006,7.42117919921875,0.35888671875,6.389678955078126
4.54099999999999,7.606903076171876,0.2776885986328125,5.190399169921875
4.550999999999995,7.1242004394531255,0.328082275390625,5.901593017578126
4.560999999999986,6.961056518554688,0.2379119873046875,7.551574707031251
4.5709999999999695,6.522018432617188,-0.1664337158203125,8.041305541992188
4.58099999999996,5.922528076171876,-0.4661041259765625,7.440170288085938
4.591000000000008,5.995352172851563,-0.4131683349609375,6.926364135742188
4.601999999999975,7.108349609375001,-0.1293487548828125,7.274484252929688
4.61099999999999,7.760775756835938,0.0118133544921875,6.711630249023438
4.620999999999981,7.717410278320313,0.08194580078125,5.731271362304688
4.630999999999972,7.000384521484375,0.1434051513671875,5.600576782226563
4.640999999999963,6.607553100585938,0.1670318603515625,6.766958618164063
4.650999999999954,6.674993896484375,0.0478515625,8.214019775390625
4.661000000000001,6.5807861328125,-0.3587371826171875,7.72862548828125
4.670999999999992,6.498391723632813,-0.4246826171875,6.806286621093751
4.680999999999983,6.433343505859376,-0.04844970703125,6.642245483398438
4.690999999999974,6.819595336914063,0.402252197265625,7.213323974609375
4.701999999999998,7.151266479492188,0.461468505859375,6.977804565429688
4.710999999999956,7.331607055664063,-0.0384307861328125,5.868246459960938
4.721000000000004,7.688250732421875,-0.528759765625,5.620913696289063
4.7309999999999945,7.039413452148438,-0.5323486328125,6.729873657226563
4.7409999999999854,7.133770751953126,-0.101983642578125,8.178878784179688
4.750999999999976,5.644540405273438,0.1721160888671875,8.027099609375
4.76099999999996,5.519229125976563,0.3111846923828125,7.037918090820313
4.770999999999958,6.5807861328125,0.4701416015625,7.070965576171876
4.781000000000006,7.903134155273438,0.28651123046875,6.8430725097656255
4.79099999999999,8.166467285156251,0.288604736328125,6.333901977539063
4.801999999999964,6.803295898437501,0.247332763671875,5.850900268554688
4.810999999999986,6.200665283203126,0.2420989990234375,6.560299682617188
4.819999999999993,6.557757568359375,-0.2020233154296875,7.963546752929688
4.829999999999984,7.093545532226563,-0.716278076171875,7.891619873046875
4.839999999999975,6.582879638671876,-0.6862213134765626,6.873727416992188
4.849999999999966,6.234759521484375,-0.2089019775390625,6.384594726562501
4.86099999999999,7.082928466796876,0.3446807861328125,6.948046875
4.8700000000000045,7.394561767578126,0.483001708984375,7.210781860351563
4.879999999999996,7.5144897460937505,0.500347900390625,6.17344970703125
4.889999999999986,6.744378662109376,0.27454833984375,5.9054809570312505
4.901999999999994,6.589010620117188,-0.0339447021484375,6.627441406250001
4.909999999999968,6.830361938476563,-0.171966552734375,8.283853149414064
4.919999999999959,6.29666748046875,-0.329876708984375,8.054614257812501
4.930000000000007,6.0609985351562505,-0.279931640625,6.856082153320313
4.939999999999998,6.755892944335938,-0.2355194091796875,6.4109130859375005
4.949999999999996,7.862011718750001,-0.055029296875,6.414202880859375
4.959999999999987,7.768850708007813,0.151629638671875,6.6166748046875
4.96999999999997,7.013244628906251,0.2115936279296875,5.9443603515625005
4.979999999999961,6.414651489257813,0.1460968017578125,6.589010620117188
4.990000000000009,6.595889282226563,-0.1084136962890625,7.508956909179688
5.0020000000000095,6.596487426757813,-0.116339111328125,8.176934814453126
5.009999999999991,6.354238891601563,-0.1155914306640625,7.38828125
5.019999999999982,5.977407836914063,-0.0414215087890625,6.565234375
5.029999999999973,7.387384033203125,-0.0118133544921875,6.312966918945313
5.039999999999964,8.104559326171875,-0.12381591796875,6.586468505859376
5.0499999999999545,7.730718994140625,-0.0823944091796875,5.898602294921876
5.060000000000002,7.346859741210938,-0.02332763671875,6.290087890625
5.069999999999993,5.994754028320313,0.1395172119140625,7.249960327148438
5.079999999999984,5.534033203125,0.3763824462890625,8.328414916992188
5.089999999999975,5.976510620117188,0.2779876708984375,8.674890136718751
5.101999999999975,7.128237915039063,-0.07117919921875,6.746173095703125
5.109999999999964,7.728475952148438,-0.2238555908203125,5.779870605468751
5.1200000000000045,7.536471557617188,0.1718170166015625,5.63870849609375
5.129999999999996,6.986328125000001,0.4998992919921875,6.798361206054688
5.139999999999986,6.879559326171876,0.0399261474609375,7.1242004394531255
5.149999999999977,7.132424926757813,-0.6237152099609375,6.81107177734375
5.159999999999968,6.197674560546876,-0.7617370605468751,6.934140014648438
5.169999999999959,6.112588500976563,-0.07237548828125,7.913601684570313
5.180000000000007,6.407473754882813,0.420196533203125,8.096932983398439
5.189999999999998,7.010702514648438,0.4370941162109375,6.976010131835938
5.201999999999998,7.745373535156251,0.320904541015625,5.275036621093751
5.209999999999987,7.260427856445313,0.21473388671875,5.67998046875
5.21999999999997,7.25968017578125,0.23447265625,6.7593322753906255
5.229999999999961,6.656301879882813,-0.136077880859375,8.020220947265626
5.240000000000009,6.031539916992188,-0.4496551513671875,7.476956176757813
5.25,5.8905273437500005,-0.474627685546875,7.290335083007813
5.259999999999991,6.652713012695313,-0.1706207275390625,7.346112060546876
5.269999999999982,7.494451904296875,0.1655364990234375,6.928607177734375
5.279999999999973,7.859619140625001,0.1924530029296875,5.997445678710938
5.288999999999994,7.381253051757813,0.1567138671875,5.224493408203125
5.298999999999985,6.770098876953125,0.207855224609375,6.47850341796875
5.310000000000002,6.469381713867188,0.0844879150390625,7.910461425781251
5.319999999999993,6.524111938476563,-0.2406036376953125,8.17783203125
5.329000000000008,6.482989501953125,-0.6066680908203126,7.046591186523438
5.338999999999999,6.681274414062501,-0.385504150390625,6.458914184570313
5.348999999999997,6.638806152343751,0.1000396728515625,6.861166381835938
5.3589999999999804,7.0712646484375,0.4708892822265625,7.074554443359376
5.368999999999971,7.416842651367188,0.265277099609375,6.393118286132813
5.378999999999962,7.475610351562499,-0.317315673828125,5.666671752929688
5.38900000000001,7.224688720703125,-0.3289794921875,6.346014404296875
5.399000000000001,7.051077270507813,0.0312530517578125,8.050277709960938
5.408999999999992,5.706448364257813,0.3464752197265625,8.105905151367189
5.418999999999983,5.506967163085938,0.2684173583984375,7.444357299804688
5.428999999999974,6.634768676757813,0.1580596923828125,6.871783447265625
5.4389999999999645,7.804888916015625,0.0249725341796875,6.543701171875001
5.448999999999955,8.091549682617188,0.0629547119140625,6.421829223632813
5.459000000000003,6.976010131835938,0.2417999267578125,5.991464233398438
5.468999999999994,6.208740234375001,0.1592559814453125,6.605459594726563
5.478999999999985,6.573757934570313,-0.1191802978515625,7.735504150390626
5.488999999999976,6.894064331054688,-0.4294677734375,7.882797241210938
5.49899999999996,6.576748657226563,-0.3732421875,7.176388549804688
5.508999999999958,6.397305297851563,-0.043963623046875,6.398501586914063
5.5190000000000055,7.059451293945313,0.2546600341796875,6.731817626953125
5.528999999999996,7.438824462890626,0.3551483154296875,7.020571899414063
5.538999999999994,7.320840454101563,0.3201568603515625,6.42467041015625
5.548999999999985,6.793426513671876,0.170172119140625,6.283956909179688
5.558999999999969,6.63760986328125,-0.16748046875,6.586318969726563
5.56899999999996,6.730172729492188,-0.3289794921875,7.888031005859376
5.579000000000008,6.605908203125001,-0.288006591796875,7.763467407226563
5.588999999999999,6.125,-0.2118927001953125,7.0344787597656255
5.598999999999997,6.841726684570313,-0.02691650390625,6.545495605468751
5.609999999999964,7.47740478515625,0.05263671875,6.449343872070313
5.618999999999971,7.730270385742188,0.1828826904296875,6.552224731445313
5.628999999999962,7.127639770507813,0.2630340576171875,6.129635620117188
5.63900000000001,6.366500854492188,0.040972900390625,6.687405395507813
5.649000000000001,6.621908569335938,-0.0982452392578125,7.467684936523438
5.658999999999992,6.408969116210938,-0.1215728759765625,8.10186767578125
5.668999999999983,6.207244873046876,-0.1861724853515625,7.266708374023438
5.678999999999974,6.510055541992188,-0.2089019775390625,6.499737548828126
5.6889999999999645,7.910461425781251,-0.250921630859375,6.1167755126953125
5.698999999999955,7.906573486328125,-0.0874786376953125,6.272293090820313
5.709000000000003,7.683016967773438,0.19080810546875,6.287994384765626
5.718999999999994,6.254498291015626,0.328082275390625,6.962252807617188
5.728999999999985,5.811871337890626,0.3751861572265625,7.46903076171875
5.738999999999976,5.790786743164063,0.3294281005859375,8.559597778320313
5.74899999999996,6.874026489257813,0.0043365478515625,7.655352783203125
5.758999999999958,7.523910522460938,-0.2998199462890625,6.331210327148438
5.7690000000000055,7.290933227539063,-0.0865814208984375,5.828768920898438
5.778999999999996,7.079489135742188,0.27694091796875,6.050680541992188
5.787999999999954,7.041207885742188,0.108563232421875,7.224090576171876
5.798999999999985,7.421029663085938,-0.421990966796875,6.672601318359376
5.808999999999969,6.607553100585938,-0.7370635986328126,6.772042846679688
5.81899999999996,6.02451171875,-0.21832275390625,7.306185913085938
5.827999999999975,6.057559204101563,0.404345703125,8.351892089843751
5.838999999999999,6.8296142578125005,0.5414703369140625,7.818795776367188
5.847999999999956,7.346859741210938,0.3572418212890625,5.871237182617188
5.858000000000004,7.4744140625,0.1924530029296875,5.400646972656251
5.867999999999995,7.342672729492188,0.2021728515625,6.060848999023438
5.877999999999986,6.964794921875001,0.0088226318359375,7.753897094726563
5.887999999999977,6.443661499023438,-0.3509613037109375,7.673745727539063
5.897999999999968,5.853741455078126,-0.5879760742187501,7.18431396484375
5.907999999999959,6.271994018554688,-0.4003082275390625,7.099227905273438
5.918000000000006,7.2019592285156255,-0.0139068603515625,7.350897216796875
5.92799999999999,7.59703369140625,0.20037841796875,6.592001342773438
5.937999999999995,7.584472656250001,0.280828857421875,5.57470703125
5.947999999999986,6.805538940429688,0.3123809814453125,5.9431640625
5.95799999999997,6.730471801757813,0.2902496337890625,7.146929931640625
5.967999999999961,6.588412475585938,0.0300567626953125,8.233908081054688
5.978000000000009,6.629684448242188,-0.485394287109375,7.304541015625
5.988,6.577645874023438,-0.6443511962890626,6.581533813476563
5.997999999999991,6.524710083007813,-0.253314208984375,6.716714477539063
6.007999999999981,6.719555664062501,0.2450897216796875,7.261325073242188
6.017999999999972,7.443310546875001,0.2208648681640625,6.816455078125
6.027999999999963,7.627239990234376,-0.2053131103515625,5.702560424804688
6.037999999999954,7.249212646484375,-0.2764923095703125,5.810675048828125
6.048000000000002,7.22618408203125,0.1184326171875,7.392916870117188
6.057999999999993,6.060549926757813,0.5106658935546875,8.382098388671876
6.067999999999984,5.500537109375,0.3739898681640625,7.813412475585938
6.077999999999975,6.273040771484376,0.1813873291015625,7.03477783203125
6.087999999999965,7.249511718750001,0.011065673828125,6.567178344726563
6.097999999999956,8.120260620117188,-0.0387298583984375,6.544448852539063
6.108000000000004,7.509405517578125,0.069085693359375,6.1979736328125
6.117999999999995,6.419735717773438,0.0514404296875,6.066531372070313
6.127999999999986,6.479550170898438,-0.07357177734375,7.183117675781251
6.137999999999977,6.778921508789063,-0.3505126953125,7.871282958984375
6.147999999999968,6.714471435546876,-0.3288299560546875,7.69632568359375
6.157999999999959,6.293826293945313,-0.0227294921875,6.820193481445313
6.168000000000006,6.703106689453126,0.2761932373046875,6.487176513671876
6.17799999999999,7.390673828125,0.4466644287109375,6.941018676757813
6.187999999999995,7.476657104492188,0.3422882080078125,6.498989868164063
6.197999999999986,7.005917358398438,0.23626708984375,6.413604736328126
6.20799999999997,6.618768310546876,-0.14654541015625,6.383697509765626
6.217999999999961,6.698321533203125,-0.4218414306640625,7.491012573242188
6.228000000000009,6.711929321289063,-0.378326416015625,7.940219116210938
6.238,6.073110961914063,-0.303857421875,7.3215881347656255
6.247999999999991,6.701611328125001,-0.04725341796875,6.644638061523438
6.257000000000005,7.29556884765625,0.0536834716796875,6.349603271484376
6.267999999999972,7.863955688476563,0.18363037109375,6.389828491210938
6.277999999999963,7.347457885742188,0.2579498291015625,6.216067504882813
6.287999999999954,6.511550903320313,0.241650390625,6.728228759765625
6.298000000000002,6.323284912109376,0.0418701171875,7.261026000976563
6.307999999999993,6.513345336914063,-0.145947265625,8.11622314453125
6.317999999999984,6.616226196289063,-0.215032958984375,7.364056396484376
6.326999999999998,6.637908935546876,-0.1763031005859375,6.7054992675781255
6.336999999999996,6.506167602539063,-0.043963623046875,6.295321655273438
6.34699999999998,7.505966186523438,0.018243408203125,6.555364990234375
6.356999999999971,7.801449584960938,-0.1769012451171875,6.571365356445313
6.366999999999962,7.626342773437501,-0.3055023193359375,5.9268646240234375
6.3770000000000095,7.191192626953126,-0.11304931640625,6.744528198242188
6.3870000000000005,5.731271362304688,0.241351318359375,7.576397705078126
6.396999999999991,5.475265502929688,0.6779968261718751,8.457763671875
6.406999999999982,6.15550537109375,0.4038970947265625,8.194580078125
6.416999999999973,7.538565063476563,-0.0536834716796875,6.252703857421875
6.426999999999964,7.934835815429688,-0.169873046875,5.85404052734375
6.436999999999955,7.298110961914063,0.2296875,5.842974853515625
6.447000000000003,6.591702270507813,0.375335693359375,7.107302856445313
6.456999999999994,6.858474731445313,-0.27574462890625,7.1720520019531255
6.4669999999999845,7.1645751953125005,-0.878973388671875,6.842773437500001
6.476999999999975,6.366052246093751,-0.8212524414062501,6.833801269531251
6.486999999999966,6.081185913085938,0.0530853271484375,7.786645507812499
6.496999999999964,6.666021728515625,0.528759765625,7.879208374023438
6.507000000000005,7.077545166015626,0.5266662597656251,6.877914428710938
6.516999999999996,7.748812866210938,0.4577301025390625,5.311373901367188
6.526999999999994,6.962402343750001,0.288604736328125,5.9228271484375
6.536999999999985,7.262222290039063,0.211444091796875,6.957168579101563
6.546999999999969,6.578991699218751,-0.2154815673828125,8.119363403320314
6.55699999999996,6.122308349609376,-0.4771697998046875,7.410412597656251
6.567000000000007,5.896807861328125,-0.456982421875,7.129135131835938
6.576999999999998,6.701910400390625,-0.179443359375,7.32906494140625
6.586999999999996,7.669558715820313,0.1514801025390625,6.8655029296875005
6.59699999999998,7.6072021484375005,0.18841552734375,6.018679809570313
6.606999999999971,7.394561767578126,0.150732421875,5.1237060546875
6.616999999999962,6.851296997070313,0.1126007080078125,6.6755920410156255
6.6270000000000095,6.555065917968751,-0.0162994384765625,7.853637695312501
6.6370000000000005,6.360968017578125,-0.173760986328125,8.247216796875001
6.646999999999991,6.407473754882813,-0.51260986328125,6.960159301757813
6.656999999999982,6.6920410156250005,-0.3551483154296875,6.527850341796875
6.666999999999973,6.999038696289063,0.137274169921875,6.840231323242188
6.676999999999964,6.978701782226563,0.5540313720703125,6.987075805664063
6.686999999999955,7.007562255859376,0.37384033203125,6.408969116210938
6.697000000000003,7.628884887695313,-0.292791748046875,5.792880249023438
6.706999999999994,7.198818969726563,-0.5084228515625,6.481942749023438
6.7169999999999845,7.12808837890625,-0.2624359130859375,7.681521606445313
6.726999999999975,6.095541381835938,0.2008270263671875,8.075399780273438
6.736999999999966,5.432049560546876,0.2038177490234375,7.339532470703125
6.746999999999964,6.513195800781251,0.2812774658203125,6.961355590820313
6.757000000000005,7.534527587890626,0.261688232421875,6.830661010742188
6.766999999999996,7.970724487304688,0.2053131103515625,6.320742797851563
6.775999999999954,7.297512817382813,0.3002685546875,6.197225952148438
6.786999999999985,6.302200317382813,0.19619140625,6.313864135742188
6.796999999999969,6.412857055664063,0.018243408203125,7.710382080078125
6.80699999999996,6.762771606445313,-0.455487060546875,7.855282592773438
6.815999999999974,6.786398315429688,-0.6078643798828125,7.221847534179688
6.826999999999998,6.567776489257813,-0.3300262451171875,6.458016967773438
6.836999999999996,6.807333374023438,0.1137969970703125,6.557757568359375
6.84699999999998,7.384094238281251,0.4175048828125,7.164425659179688
6.856999999999971,7.3009521484375,0.3712982177734375,6.588562011718751
6.8659999999999854,6.893017578125001,0.3194091796875,6.3056396484375
6.875999999999976,6.6471801757812505,0.0207855224609375,6.418539428710938
6.88599999999996,6.719406127929688,-0.1532745361328125,7.681222534179688
6.895999999999958,6.629534912109375,-0.2009765625,7.90328369140625
6.906000000000006,6.16507568359375,-0.287408447265625,7.236950683593751
6.91599999999999,6.6406005859375,-0.128900146484375,6.531140136718751
6.925999999999995,7.343869018554688,-0.1111053466796875,6.418090820312501
6.935999999999986,7.89371337890625,0.03349609375,6.496746826171876
6.9459999999999695,7.26805419921875,0.079852294921875,6.108551025390625
6.95599999999996,6.513644409179688,0.0817962646484375,6.592001342773438
6.966000000000008,6.47850341796875,0.0279632568359375,7.315606689453125
6.975999999999999,6.383099365234376,-0.0370849609375,8.134765625
6.98599999999999,6.713275146484375,-0.0246734619140625,7.463348388671876
6.995999999999981,6.612487792968751,-0.0306549072265625,6.527850341796875
7.005999999999972,6.759033203125001,0.0952545166015625,6.286349487304688
7.015999999999963,7.059451293945313,0.0901702880859375,6.590805053710938
7.025999999999954,7.709484863281251,-0.136376953125,6.804940795898438
7.036000000000001,7.407870483398438,-0.483001708984375,6.168515014648438
7.045999999999992,7.3009521484375,-0.4595245361328125,6.425119018554688
7.055999999999983,6.481494140625,0.0318511962890625,7.495050048828125
7.065999999999974,5.492462158203125,0.5749664306640625,8.002426147460938
7.075999999999965,5.9881744384765625,0.6276031494140626,8.016632080078125
7.085999999999956,6.892120361328126,0.2576507568359375,6.865802001953125
7.096000000000004,7.971322631835938,-0.066693115234375,5.8535919189453125
7.1059999999999945,7.57310791015625,0.1398162841796875,6.3241821289062505
7.1159999999999854,6.807931518554688,0.2738006591796875,6.503475952148438
7.125999999999976,6.505419921875,-0.1146942138671875,7.268502807617188
7.13599999999996,7.132275390625001,-0.6901092529296875,6.90916748046875
7.145999999999958,6.584973144531251,-0.8459259033203126,7.020571899414063
7.156000000000006,6.456072998046875,-0.2337249755859375,7.442861938476563
7.16599999999999,6.371435546875,0.342138671875,7.372579956054688
7.175999999999995,7.083676147460938,0.5319000244140626,7.1585937500000005
7.185999999999986,7.367495727539063,0.5060302734375001,5.959463500976563
7.1959999999999695,7.215267944335938,0.4318603515625,6.117971801757813
7.20599999999996,6.918588256835938,0.2851654052734375,6.566281127929688
7.216000000000008,6.833502197265625,-0.1431060791015625,7.612734985351563
7.225999999999999,6.421530151367188,-0.4170562744140625,7.508358764648438
7.23599999999999,5.9522857666015625,-0.4263275146484375,7.3440185546875005
7.245999999999981,6.3534912109375,-0.2241546630859375,7.266110229492188
7.255999999999972,7.379608154296876,0.0524871826171875,7.030889892578125
7.265999999999963,7.585220336914063,0.0847869873046875,6.1013732910156255
7.274999999999977,7.802346801757813,0.0336456298828125,5.296270751953125
7.284999999999968,7.049432373046876,0.078057861328125,6.256741333007813
7.294999999999959,6.415399169921876,0.0195892333984375,7.42117919921875
7.305000000000007,6.321490478515625,-0.0820953369140625,8.342770385742188
7.314999999999998,6.159991455078125,-0.3267364501953125,7.524658203125001
7.325999999999965,6.853091430664063,-0.3596343994140625,6.65196533203125
7.334999999999987,7.032086181640626,-0.0195892333984375,6.527401733398438
7.34499999999997,7.257437133789063,0.5049835205078126,6.820941162109375
7.354999999999961,6.691741943359376,0.6150421142578125,6.748416137695313
7.365000000000009,6.984683227539063,0.1532745361328125,6.126046752929688
7.375,7.381103515625001,-0.48270263671875,6.300405883789063
7.384999999999991,7.0473388671875,-0.9494049072265626,6.973318481445313
7.394999999999982,6.843670654296876,-0.6087615966796875,7.564285278320313
7.404999999999973,6.933990478515626,-0.1099090576171875,7.754794311523438
7.414999999999964,5.63272705078125,0.3333160400390625,6.869689941406251
7.424999999999954,6.393118286132813,0.7322784423828126,6.792828369140626
7.435000000000002,7.184613037109376,0.8928802490234375,7.297512817382813
7.444999999999993,7.614080810546875,0.5549285888671875,6.628936767578126
7.454999999999984,7.497442626953125,0.18243408203125,6.355285644531251
7.464999999999975,6.485382080078126,0.1027313232421875,6.431100463867188
7.474999999999966,6.183917236328125,-0.0160003662109375,7.5162841796875
7.484999999999964,6.748117065429688,-0.5090209960937501,7.828366088867188
7.495000000000003,7.1669677734375,-0.97437744140625,6.928009033203126
7.5049999999999955,6.9958984375,-0.7926910400390625,6.149673461914063
7.514999999999986,6.593347167968751,-0.0171966552734375,6.5081115722656255
7.524999999999977,6.997991943359375,0.5543304443359376,7.446151733398438
7.534999999999968,7.061544799804688,0.65616455078125,7.318597412109375
7.544999999999959,6.925616455078125,0.597845458984375,6.319546508789063
7.555000000000007,6.578842163085938,0.46954345703125,6.453381347656251
7.564999999999998,6.76322021484375,0.2208648681640625,7.127340698242188
7.574999999999996,6.666021728515625,-0.1529754638671875,7.928405761718751
7.584999999999987,6.605010986328126,-0.449505615234375,7.297064208984375
7.59499999999997,6.32896728515625,-0.5737701416015626,6.509906005859375
7.604999999999961,7.030291748046875,-0.456085205078125,6.480596923828125
7.615000000000009,7.995697021484376,-0.424981689453125,6.536822509765625
7.625,7.740737915039063,-0.2986236572265625,6.136215209960938
7.634999999999991,6.758135986328125,0.0886749267578125,6.111990356445313
7.644999999999982,6.060549926757813,0.277838134765625,7.014141845703126
7.654999999999973,6.436184692382813,0.4409820556640625,8.315853881835938
7.664999999999964,6.652862548828126,0.3026611328125,8.02530517578125
7.674999999999954,6.747967529296876,0.1777984619140625,6.688302612304688
7.685000000000002,6.5963378906250005,0.2524169921875,6.10406494140625
7.694999999999993,6.631777954101563,0.154620361328125,6.7069946289062505
7.704999999999984,7.719952392578126,-0.07596435546875,7.080535888671876
7.714999999999975,7.377813720703125,-0.628948974609375,6.427212524414063
7.724999999999966,7.519873046875,-0.8534027099609376,5.654708862304688
7.734999999999964,7.112985229492188,-0.6222198486328125,6.731219482421875
7.745000000000003,5.993258666992188,0.1093109130859375,8.047286987304688
7.7549999999999955,5.6632324218750005,0.6981842041015626,8.268301391601563
7.764999999999986,6.118420410156251,0.6270050048828125,7.680175781250001
7.774000000000001,7.539761352539063,0.3946258544921875,5.9099670410156255
7.784999999999968,7.939321899414063,0.3303253173828125,6.363510131835938
7.793999999999983,7.106405639648438,0.630743408203125,6.335546875
7.803999999999974,6.514990234375,0.376531982421875,7.105957031250001
7.8139999999999645,6.794772338867188,-0.4993011474609375,6.90318603515625
7.823999999999955,7.069021606445313,-1.142755126953125,6.857876586914063
7.834000000000003,6.655404663085938,-0.9843963623046876,7.222744750976563
7.84499999999997,6.186758422851563,-0.2860626220703125,7.461853027343751
7.853999999999985,6.662283325195313,0.17884521484375,7.337588500976563
7.863999999999976,7.304989624023438,0.393280029296875,6.581832885742188
7.87399999999996,7.618417358398438,0.535040283203125,5.810226440429688
7.883999999999958,6.894512939453126,0.618780517578125,6.277377319335938
7.894000000000005,7.037170410156251,0.5058807373046875,7.058853149414063
7.903999999999996,6.4731201171875,0.088824462890625,7.854684448242188
7.913999999999994,6.048138427734376,-0.1505828857421875,7.553817749023438
7.923999999999985,5.780319213867188,-0.1999298095703125,7.498040771484375
7.933999999999969,6.937579345703125,-0.17406005859375,7.251156616210938
7.94399999999996,7.661633300781251,-0.12860107421875,6.596188354492188
7.954000000000008,7.797561645507813,-0.3467742919921875,5.487826538085938
7.963999999999999,7.692138671875001,-0.203070068359375,5.412609863281251
7.973999999999997,6.546691894531251,-0.0921142578125,6.833053588867188
7.9839999999999804,6.467138671875,-0.1646392822265625,7.613482666015625
7.993999999999971,6.631927490234376,-0.285614013671875,8.183514404296876
8.003999999999962,6.430203247070313,-0.410626220703125,6.608749389648438
8.01400000000001,6.752752685546875,0.0788055419921875,6.961355590820313
8.024000000000001,6.702957153320313,0.6853240966796875,7.132723999023438
8.033999999999992,6.923223876953125,1.0316497802734377,7.279269409179688
8.043999999999983,6.740490722656251,0.6847259521484376,6.507214355468751
8.053999999999974,7.20943603515625,-0.0551788330078125,5.742935180664063
8.063999999999965,7.3488037109375,-0.6883148193359375,6.351248168945313
8.073999999999955,7.133770751953126,-1.1719146728515626,7.201660156250001
8.084000000000003,7.120162963867188,-0.9733306884765626,7.440618896484375
8.093999999999994,6.849652099609376,-0.6302947998046875,7.251754760742188
8.103999999999985,5.690298461914063,0.199481201171875,6.767407226562501
8.113999999999976,6.326724243164063,1.0050323486328123,7.303195190429688
8.12399999999996,6.98154296875,1.269561767578125,7.574453735351563
8.133999999999958,7.595837402343751,0.8347106933593751,6.323583984375
8.144000000000005,7.51927490234375,0.4116729736328125,6.324630737304688
8.153999999999996,6.418539428710938,0.3674102783203125,6.402838134765625
8.163999999999994,6.235357666015625,-0.0028411865234375,7.8359924316406255
8.173999999999985,6.956271362304688,-0.8542999267578125,7.576846313476563
8.183999999999969,7.190145874023438,-1.5161468505859377,6.465045166015625
8.19399999999996,6.842623901367188,-1.1101562500000002,6.294723510742188
8.204000000000008,6.473269653320313,-0.106768798828125,6.921878051757813
8.213999999999999,6.94505615234375,0.5935089111328126,7.715017700195313
8.223999999999997,7.198968505859376,0.7867095947265625,6.971374511718751
8.23399999999998,7.1256958007812505,0.8347106933593751,5.771646118164063
8.243999999999971,6.578543090820313,0.7464843750000001,6.356631469726563
8.253999999999962,6.847708129882813,0.4655059814453125,7.517929077148438
8.262999999999977,6.5858703613281255,-0.107366943359375,8.198318481445312
8.272999999999968,6.234460449218751,-0.588873291015625,7.169509887695313
8.282999999999959,6.253750610351563,-0.7572509765625001,6.586318969726563
8.293000000000006,7.114630126953125,-0.6237152099609375,6.718359375
8.30299999999999,8.067773437500001,-0.42587890625,6.626544189453125
8.312999999999995,7.706793212890625,-0.2500244140625,5.90667724609375
8.322999999999986,7.058554077148438,0.1571624755859375,5.6692138671875005
8.33299999999997,6.066830444335938,0.3979156494140625,7.005169677734376
8.342999999999961,6.481494140625,0.5127593994140626,8.378509521484375
8.353000000000009,6.602169799804688,0.3249420166015625,8.2747314453125
8.363,6.483737182617188,-0.01854248046875,6.552224731445313
8.37299999999999,6.586468505859376,0.1212738037109375,6.287545776367188
8.382999999999981,6.460409545898438,0.1772003173828125,7.019375610351563
8.394000000000005,7.642791748046876,0.040374755859375,7.058105468750001
8.402999999999963,7.53482666015625,-0.51739501953125,6.345715332031251
8.412999999999954,7.878311157226563,-0.8753845214843751,5.001983642578125
8.423000000000002,7.32786865234375,-0.5849853515625001,6.626544189453125
8.432999999999993,6.00537109375,0.1155914306640625,8.107998657226563
8.442999999999984,5.232269287109375,0.7195678710937501,8.69522705078125
8.452999999999975,5.710336303710938,0.5586669921875,8.082876586914063
8.462999999999965,7.705148315429688,0.21832275390625,5.934939575195313
8.472999999999956,8.113980102539063,0.201873779296875,6.151617431640625
8.483000000000004,7.321438598632813,0.596051025390625,5.945257568359375
8.493999999999971,6.556710815429688,0.5202362060546876,6.9851318359375005
8.502999999999986,6.76561279296875,-0.3871490478515625,7.018927001953125
8.512999999999977,7.143490600585938,-1.1101562500000002,6.9447570800781255
8.522999999999968,6.390875244140625,-1.029705810546875,7.290783691406251
8.532999999999959,6.066830444335938,-0.2821746826171875,7.654306030273438
8.543000000000006,6.697125244140626,0.2723052978515625,7.596884155273438
8.55299999999999,7.227828979492188,0.421990966796875,6.641049194335938
8.562999999999995,7.814160156250001,0.5299560546875001,5.451190185546875
8.572999999999986,7.021618652343751,0.572723388671875,6.068475341796876
8.58299999999997,7.104611206054688,0.454290771484375,6.920382690429688
8.592999999999961,6.440521240234376,-0.0097198486328125,8.042950439453126
8.603000000000009,5.891424560546875,-0.332269287109375,7.664474487304688
8.613,5.983987426757813,-0.3141754150390625,7.46962890625
8.62299999999999,6.953280639648438,-0.204266357421875,7.167416381835938
8.632999999999981,7.613333129882813,-0.151031494140625,6.4183898925781255
8.642999999999972,8.034725952148438,-0.116339111328125,5.801104736328125
8.652999999999963,6.913055419921876,0.0168975830078125,5.5963897705078125
8.662999999999954,6.792080688476563,0.1179840087890625,6.844119262695313
8.673000000000002,6.671554565429688,-0.1574615478515625,7.70469970703125
8.682999999999993,6.885989379882813,-0.4661041259765625,7.57310791015625
8.69399999999996,6.357229614257813,-0.37025146484375,6.958065795898438
8.702999999999975,6.361117553710938,0.13577880859375,7.000234985351563
8.712999999999965,6.621160888671875,0.6942962646484375,7.520172119140626
8.722999999999956,7.180276489257813,0.7289886474609375,7.06468505859375
8.733000000000004,7.036721801757813,0.4185516357421875,5.954080200195313
8.741999999999962,7.187005615234376,-0.122021484375,5.711383056640625
8.752999999999986,7.362860107421875,-0.6525756835937501,6.426315307617188
8.762,7.075003051757813,-1.014752197265625,7.651614379882813
8.771999999999991,7.300802612304688,-0.9154602050781252,7.404879760742188
8.781999999999982,5.9467529296875,-0.2444915771484375,7.299307250976563
8.793000000000006,5.474368286132813,0.5001983642578125,6.881204223632813
8.801999999999964,6.881802368164063,1.0956512451171876,7.784851074218751
8.811999999999955,7.4780029296875,0.95762939453125,7.030889892578125
8.822000000000003,7.788888549804688,0.6311920166015625,5.754898071289063
8.831999999999994,6.965393066406251,0.4828521728515625,6.1851135253906255
8.841999999999985,6.334350585937501,0.2715576171875,6.899447631835938
8.851999999999975,6.608001708984376,-0.3566436767578125,8.281909179687501
8.861999999999966,6.809725952148438,-1.1415588378906252,7.324429321289063
8.871999999999964,6.723593139648438,-1.3041046142578123,6.294274902343751
8.882000000000005,6.647927856445313,-0.693548583984375,6.619815063476563
8.894000000000005,7.040609741210938,0.200677490234375,7.181622314453126
8.901999999999994,7.306784057617188,0.6896606445312501,7.36734619140625
8.911999999999985,7.064236450195313,0.841290283203125,5.999090576171875
8.921999999999969,6.976907348632813,0.787457275390625,5.949444580078126
8.93199999999996,6.803295898437501,0.5465545654296875,7.077545166015626
8.942000000000007,6.407772827148438,0.076263427734375,7.988818359375
8.951999999999998,6.373977661132813,-0.347222900390625,7.987921142578125
8.961999999999996,6.207693481445313,-0.7397552490234376,6.7279296875000005
8.97199999999998,7.004122924804688,-0.741400146484375,6.433193969726563
8.981999999999971,7.781262207031251,-0.4945159912109375,6.546243286132813
8.993999999999971,7.696923828125,-0.2124908447265625,6.21531982421875
9.00200000000001,6.916046142578126,0.173760986328125,6.121560668945313
9.012,6.633422851562501,0.318212890625,6.554617309570313
9.021999999999991,6.604861450195313,0.3668121337890625,7.7172607421875
9.031999999999982,6.512747192382813,0.3409423828125,8.012893676757812
9.041999999999971,6.263619995117188,0.33077392578125,7.511648559570313
9.051999999999964,6.402838134765625,0.20576171875,6.65794677734375
9.061999999999957,6.794921875000001,0.0569732666015625,6.671853637695313
9.072000000000005,7.469180297851563,-0.2259490966796875,6.519625854492188
9.081999999999994,7.703353881835938,-0.563153076171875,6.210684204101563
9.093999999999994,7.260427856445313,-0.8294769287109376,5.7720947265625
9.101999999999975,7.508059692382813,-0.7355682373046876,6.706396484375
9.111999999999966,6.720602416992188,-0.224005126953125,7.778869628906251
9.121999999999964,5.2793731689453125,0.6093597412109375,8.118017578125
9.132000000000003,5.6801300048828125,1.0322479248046876,7.876068115234376
9.141999999999996,6.873876953125,0.8013641357421876,6.904382324218751
9.151999999999994,8.2974609375,0.3433349609375,6.169412231445313
9.161999999999985,7.749411010742188,0.2929412841796875,6.0005859375
9.171999999999969,6.505270385742188,0.340045166015625,6.316555786132813
9.18199999999996,6.255245971679688,-0.2636322021484375,7.428955078125001
9.192000000000007,7.292727661132813,-1.0971466064453126,7.386785888671875
9.201999999999998,6.631777954101563,-1.278533935546875,7.171902465820313
9.211999999999996,6.3690429687500005,-0.56644287109375,6.910961914062501
9.22199999999998,6.385342407226563,0.189312744140625,7.1541076660156255
9.231999999999973,7.430899047851563,0.6282012939453125,7.177285766601563
9.241999999999962,7.3963562011718755,0.7427459716796876,6.110345458984376
9.250999999999976,7.23515625,0.7379608154296875,5.972921752929688
9.262,6.570019531250001,0.6198272705078125,6.520822143554688
9.270999999999958,6.513943481445313,0.2253509521484375,8.16168212890625
9.281000000000006,6.024810791015625,-0.2100982666015625,8.123251342773438
9.291999999999971,6.199319458007813,-0.41212158203125,7.46005859375
9.301999999999964,6.812417602539063,-0.4792633056640625,6.385043334960938
9.310999999999986,7.777822875976563,-0.5939575195312501,6.140701293945313
9.32099999999997,8.353536987304688,-0.3626251220703125,5.994754028320313
9.33099999999996,6.676788330078126,-0.0542816162109375,6.312966918945313
9.341000000000008,6.440072631835938,0.100787353515625,6.333303833007813
9.351,6.874923706054688,-0.0171966552734375,7.664175415039063
9.36099999999999,7.073059082031251,-0.4414306640625,7.17294921875
9.37099999999998,6.570916748046876,-0.0979461669921875,7.407421875000001
9.380999999999972,6.025259399414063,0.5734710693359375,7.177435302734375
9.390999999999964,6.160140991210938,0.8701507568359376,7.524807739257813
9.400999999999954,7.315307617187501,0.6733612060546875,7.151416015625
9.411,7.379907226562499,0.1112548828125,5.810525512695313
9.420999999999992,7.3822998046875,-0.3778778076171875,5.587716674804688
9.430999999999983,7.125994873046875,-0.8800201416015626,6.178833007812501
9.440999999999974,7.236502075195313,-1.194195556640625,7.589407348632813
9.450999999999963,7.399496459960938,-1.01026611328125,7.674942016601563
9.460999999999956,5.732617187500001,-0.135479736328125,7.357028198242188
9.471000000000004,5.288494873046876,0.8329162597656251,6.933392333984376
9.480999999999996,6.846810913085938,1.3090393066406252,7.869638061523438
9.490999999999984,7.787542724609375,1.16817626953125,6.946850585937501
9.500999999999976,7.764962768554688,0.7798309326171876,5.81097412109375
9.51099999999996,6.820492553710938,0.5275634765625,5.897106933593751
9.520999999999958,6.355734252929688,0.111553955078125,6.968533325195313
9.531000000000006,6.667218017578126,-0.720465087890625,8.334695434570314
9.54099999999999,6.933990478515626,-1.4324066162109377,7.424319458007813
9.550999999999997,6.441418457031251,-1.4259765625,6.2601806640625
9.560999999999986,6.736453247070313,-0.6491363525390625,6.508859252929688
9.57099999999997,7.105657958984375,0.283221435546875,7.259979248046876
9.58099999999996,7.454824829101563,0.8928802490234375,7.219754028320313
9.591000000000008,7.075900268554688,1.0881744384765626,5.9338928222656255
9.601,6.724041748046876,0.9214416503906252,5.971426391601563
9.61099999999999,6.7548461914062505,0.5967987060546875,7.233810424804688
9.62099999999998,6.507513427734375,0.007476806640625,8.331256103515626
9.630999999999972,6.251358032226563,-0.4499542236328125,7.866049194335938
9.640999999999964,6.150869750976563,-0.8200561523437501,6.666619873046876
9.650999999999954,6.9941040039062505,-0.8643188476562501,6.357379150390625
9.661,7.935134887695313,-0.4954132080078125,6.651217651367188
9.670999999999992,7.73580322265625,-0.1963409423828125,6.16148681640625
9.680999999999983,7.118966674804688,0.120526123046875,5.741140747070313
9.690999999999974,6.661236572265626,0.243743896484375,6.469830322265626
9.700999999999963,6.587216186523438,0.2965301513671875,7.757785034179688
9.710999999999956,6.320294189453126,0.4382904052734375,8.455819702148439
9.71999999999997,6.096737670898438,0.377728271484375,7.531088256835938
9.730999999999996,6.381454467773438,0.2026214599609375,6.649423217773438
9.740000000000007,6.748416137695313,0.006280517578125,6.394165039062501
9.75,7.9206298828125,-0.100787353515625,6.682620239257813
9.759999999999993,7.754794311523438,-0.4212432861328125,6.185562133789063
9.769999999999982,7.56712646484375,-0.662445068359375,5.652615356445313
9.779999999999973,7.3021484375,-0.5028900146484375,6.7428833007812505
9.789999999999964,5.6901489257812505,-0.0179443359375,7.730718994140625
9.799999999999956,5.376272583007813,0.6213226318359375,8.61029052734375
9.810000000000002,6.125747680664063,0.5013946533203125,8.025604248046875
9.819999999999991,7.69871826171875,0.0994415283203125,6.097933959960938
9.829999999999984,7.988220214843751,0.209649658203125,5.991464233398438
9.839999999999977,7.101321411132813,0.6159393310546876,5.861367797851563
9.849999999999966,6.689947509765625,0.5124603271484376,7.160836791992188
9.859999999999964,6.962402343750001,-0.439935302734375,7.0419555664062505
9.870000000000005,7.069021606445313,-1.1291473388671875,6.880007934570313
9.879999999999995,6.224142456054688,-0.8679077148437501,7.228128051757813
9.889999999999986,5.847909545898438,-0.0285614013671875,7.856628417968751
9.899999999999975,6.868792724609375,0.38939208984375,7.783505249023438
9.909999999999968,7.366448974609375,0.402252197265625,6.430203247070313
9.91999999999996,7.6849609375,0.5075256347656251,5.18052978515625
9.930000000000009,7.129882812500001,0.5468536376953126,6.030044555664063
9.939999999999998,7.045544433593751,0.3369049072265625,7.236950683593751
9.949999999999996,6.4183898925781255,-0.173760986328125,8.113531494140625
9.959999999999988,5.7294769287109375,-0.484796142578125,7.59703369140625
9.96999999999997,5.958566284179688,-0.436944580078125,7.236651611328125
9.97999999999996,7.107751464843751,-0.1626953125,7.296914672851563
9.990000000000007,7.843618774414063,-0.0820953369140625,6.327621459960938
10.0,7.945602416992188,0.013458251953125,5.581137084960938
10.009999999999993,7.005319213867188,0.3321197509765625,5.692840576171875
10.019999999999982,6.265863037109376,0.299969482421875,6.968832397460938
10.029999999999973,6.86729736328125,-0.0387298583984375,8.118167114257814
10.039999999999964,6.7712951660156255,-0.56943359375,7.553518676757813
10.049999999999956,6.499288940429688,-0.6622955322265626,6.595440673828126
10.060000000000002,6.287246704101563,-0.0596649169921875,6.904232788085938
10.069999999999991,6.828717041015626,0.471636962890625,7.50491943359375
10.079999999999984,6.9994873046875,0.4571319580078125,6.917242431640625
10.089999999999977,7.544247436523438,0.0749176025390625,5.648129272460938
10.099999999999966,7.53123779296875,-0.327484130859375,5.55078125
10.109999999999964,6.989617919921876,-0.4302154541015625,6.786099243164063
10.120000000000005,7.315307617187501,-0.155517578125,8.328414916992188
10.129999999999995,6.11363525390625,0.0820953369140625,7.9708740234375
10.139999999999986,5.133575439453125,0.1825836181640625,6.752453613281251
10.149999999999975,6.382650756835938,0.5284606933593751,7.255194091796875
10.159999999999968,7.656698608398438,0.4239349365234375,7.265960693359376
10.16999999999996,8.165869140625,0.1894622802734375,6.298461914062501
10.180000000000009,7.303344726562501,0.0456085205078125,5.59564208984375
10.189999999999998,6.351397705078125,0.1646392822265625,6.11602783203125
10.199999999999996,6.240142822265626,0.09031982421875,8.156597900390626
10.209999999999988,6.870138549804688,-0.3940277099609375,8.226281738281251
10.21999999999997,6.740939331054688,-0.7005767822265625,7.101321411132813
10.22999999999996,6.433193969726563,-0.35709228515625,5.981893920898438
10.238999999999976,6.8475585937500005,0.301763916015625,6.631777954101563
10.24899999999996,7.5144897460937505,0.548199462890625,7.508657836914063
10.259999999999993,7.219604492187501,0.417205810546875,6.642395019531251
10.269000000000004,6.868792724609375,0.236865234375,5.932098388671875
10.278999999999996,6.599926757812501,-0.0142059326171875,6.473269653320313
10.288999999999994,6.670956420898438,-0.1161895751953125,7.927059936523438
10.298999999999984,6.426016235351563,-0.1686767578125,8.269796752929688
10.310000000000002,6.174945068359375,-0.253912353515625,7.0808349609375005
10.31899999999996,6.706097412109376,-0.2038177490234375,6.097335815429688
10.329000000000008,7.797113037109375,-0.1399658203125,6.2135253906250005
10.339,8.153756713867189,-0.13458251953125,6.391473388671876
10.348999999999997,7.265362548828126,0.029608154296875,6.168365478515626
10.35899999999998,5.996099853515625,0.07237548828125,6.678582763671876
10.368999999999971,6.278573608398438,-0.078057861328125,7.457965087890625
10.378999999999962,6.741238403320313,-0.0829925537109375,8.396902465820313
10.38900000000001,6.629385375976563,-0.05682373046875,7.418338012695313
10.399,6.564935302734376,0.173162841796875,6.378463745117188
10.408999999999992,6.898999023437501,0.4933197021484375,6.296517944335938
10.418999999999984,6.773538208007813,0.3351104736328125,6.766958618164063
10.428999999999974,7.80638427734375,0.0107666015625,6.736752319335938
10.438999999999965,7.28599853515625,-0.57242431640625,6.17344970703125
10.448999999999955,7.0569091796875005,-0.8556457519531251,6.103616333007813
10.459000000000003,7.238446044921876,-0.5613586425781251,7.42117919921875
10.468999999999994,6.096737670898438,0.0557769775390625,8.207888793945314
10.478999999999983,5.4227783203125,0.57960205078125,7.515386962890625
10.488999999999976,6.386538696289063,0.6412109375,7.335943603515625
10.49899999999996,7.771990966796875,0.424383544921875,6.12559814453125
10.508999999999958,8.129083251953126,0.3533538818359375,6.513345336914063
10.519000000000004,6.847109985351563,0.5108154296875,6.303845214843751
10.528999999999996,6.293228149414063,0.31043701171875,6.779519653320313
10.538999999999994,6.617721557617188,-0.50184326171875,7.414001464843751
10.548999999999984,7.185061645507813,-1.0352386474609376,7.287643432617188
10.558999999999967,6.703256225585938,-0.9224884033203126,7.046142578125001
10.56899999999996,6.241488647460938,-0.2708099365234375,6.912457275390626
10.579000000000008,6.772940063476563,0.1870697021484375,6.951486206054688
10.589,7.546340942382813,0.4101776123046875,6.984683227539063
10.598999999999997,7.419683837890625,0.5374328613281251,5.947949218750001
10.60899999999998,6.760977172851563,0.5401245117187501,6.287545776367188
10.618999999999971,6.898251342773438,0.409130859375,6.934140014648438
10.628999999999962,6.411361694335938,0.09091796875,8.075848388671876
10.63900000000001,6.0091094970703125,-0.05323486328125,7.914199829101563
10.649,6.058905029296875,-0.155816650390625,7.263867187500001
10.658999999999992,7.090704345703125,-0.255706787109375,6.683966064453125
10.668999999999984,7.871133422851563,-0.315521240234375,6.187057495117188
10.678999999999974,7.878460693359376,-0.3874481201171875,5.846563720703125
10.688999999999965,7.057656860351563,-0.1435546875,5.94854736328125
10.698999999999955,6.462802124023438,-0.089422607421875,6.9396728515625
10.709000000000003,6.677087402343751,-0.33077392578125,7.479049682617188
10.718999999999994,6.900045776367188,-0.353802490234375,7.684661865234376
10.728999999999983,6.325527954101563,-0.08553466796875,7.055264282226563
10.738,6.320443725585938,0.541021728515625,7.219604492187501
10.74799999999999,6.701312255859375,0.9023010253906252,7.165771484375001
10.75799999999998,7.118966674804688,0.7210632324218751,6.856381225585938
10.767999999999972,7.326373291015625,0.168377685546875,5.764468383789063
10.777999999999963,7.317999267578125,-0.478216552734375,5.887835693359375
10.787999999999954,7.038665771484376,-0.969891357421875,6.723892211914063
10.798000000000002,7.105059814453125,-1.1729614257812502,7.642941284179688
10.807999999999993,7.053021240234376,-0.6566131591796875,7.834197998046876
10.817999999999984,5.456573486328125,0.056524658203125,6.961056518554688
10.827999999999976,6.107205200195313,0.8202056884765626,6.9994873046875
10.837999999999964,7.2064453125,1.2526641845703126,7.434188842773438
10.847999999999956,7.750457763671876,0.936993408203125,6.567776489257813
10.858000000000004,7.524359130859375,0.6688751220703125,6.043502807617188
10.867999999999997,6.477755737304688,0.3061004638671875,6.293826293945313
10.877999999999986,6.360220336914063,-0.084637451171875,7.529592895507813
10.887999999999977,6.707293701171875,-0.8519073486328126,8.049081420898439
10.897999999999968,6.884045410156251,-1.332366943359375,7.084423828125001
10.90799999999996,6.70938720703125,-1.02222900390625,6.244778442382813
10.918000000000006,6.651815795898438,-0.2100982666015625,6.61966552734375
10.92799999999999,7.354187011718751,0.5833404541015625,7.188201904296876
10.937999999999995,7.301101684570313,0.81168212890625,6.904531860351563
10.947999999999986,6.946401977539063,0.8317199707031251,5.952734375
10.95799999999997,6.745425415039063,0.6371734619140625,6.515887451171875
10.96799999999996,6.54429931640625,0.22430419921875,7.6356140136718755
10.978000000000009,6.435137939453125,-0.17047119140625,8.117269897460938
10.988,6.270648193359375,-0.5535827636718751,7.438076782226563
10.99799999999999,6.662731933593751,-0.7870086669921875,6.208590698242188
11.00799999999998,7.578790283203125,-0.6166870117187501,6.337341308593751
11.017999999999972,7.869638061523438,-0.3401947021484375,6.392221069335938
11.027999999999963,7.081134033203125,0.1200775146484375,6.45816650390625
11.037999999999954,6.600225830078125,0.39537353515625,6.450540161132813
11.048000000000002,6.608599853515625,0.2911468505859375,7.060049438476563
11.057999999999993,6.9208312988281255,0.1399658203125,7.613482666015625
11.067999999999984,6.486428833007813,0.2175750732421875,7.757186889648438
11.077999999999976,6.124700927734375,0.340045166015625,7.158145141601563
11.087999999999964,6.356631469726563,0.197686767578125,6.779071044921875
11.097999999999956,7.169509887695313,-0.15133056640625,6.590954589843751
11.108000000000004,8.067623901367188,-0.5728729248046875,6.131430053710938
11.117999999999997,7.490115356445313,-0.6446502685546875,6.039614868164063
11.127999999999986,7.166818237304688,-0.4629638671875,6.269900512695313
11.137999999999977,7.014889526367188,-0.168975830078125,7.616622924804688
11.147999999999968,5.614633178710938,0.3578399658203125,7.845413208007813
11.15799999999996,5.519827270507813,0.7245025634765625,7.812814331054688
11.168000000000006,6.681124877929688,0.6406127929687501,7.52286376953125
11.17799999999999,7.9684814453125,0.222808837890625,6.175094604492188
11.187999999999995,7.794869995117188,0.226397705078125,6.384893798828125
11.19799999999998,6.729873657226563,0.3868499755859375,5.810675048828125
11.20799999999997,6.375323486328125,0.0095703125,7.128836059570313
11.21799999999996,7.37930908203125,-0.7437927246093751,7.289138793945313
11.226999999999975,6.687106323242188,-1.1551666259765625,7.263867187500001
11.236999999999966,6.247320556640625,-0.533544921875,7.256390380859376
11.246999999999955,6.1242523193359375,0.1897613525390625,7.230819702148438
11.257000000000003,7.171752929687501,0.4996002197265625,7.357028198242188
11.266999999999996,7.623352050781251,0.5594146728515625,6.140252685546876
11.276999999999989,7.362710571289063,0.509619140625,5.707794189453125
11.286999999999978,6.887783813476563,0.4864410400390625,6.230123901367188
11.296999999999969,6.744079589843751,0.1327880859375,7.662979125976563
11.30699999999996,6.295321655273438,-0.290997314453125,8.0761474609375
11.317000000000007,5.958416748046876,-0.4308135986328125,7.633071899414063
11.326999999999998,6.187655639648438,-0.3381011962890625,6.978402709960938
11.336999999999987,7.3966552734375,-0.1670318603515625,6.716564941406251
11.34699999999998,7.984182739257813,-0.135479736328125,6.18900146484375
11.356999999999973,7.8120666503906255,-0.00657958984375,5.701962280273438
11.366999999999962,6.664376831054688,0.11304931640625,5.960958862304688
11.37700000000001,6.559552001953126,0.0731231689453125,7.188201904296876
11.387,6.639553833007813,-0.2346221923828125,8.010949707031251
11.396999999999991,6.664077758789063,-0.454290771484375,7.578042602539063
11.406999999999982,6.287844848632813,-0.10228271484375,7.0377685546875
11.416999999999971,6.318499755859375,0.3959716796875,6.906475830078126
11.426999999999964,6.830361938476563,0.65496826171875,7.132574462890625
11.436999999999957,7.584024047851563,0.3958221435546875,6.411959838867188
11.447000000000005,7.72025146484375,-0.28052978515625,5.46405029296875
11.456999999999994,7.227529907226563,-0.6418090820312501,6.0449981689453125
11.466999999999985,7.163079833984376,-0.600537109375,7.324279785156251
11.476999999999975,6.746322631835938,-0.237164306640625,8.499484252929689
11.486999999999966,5.189950561523438,0.0934600830078125,7.668661499023438
11.496999999999955,5.780468750000001,0.4272247314453125,7.001281738281251
11.507000000000003,7.197921752929688,0.6258087158203125,6.988571166992188
11.516999999999996,8.260525512695313,0.440234375,6.457717895507813
11.526999999999989,7.922424316406251,0.4586273193359375,6.09329833984375
11.536999999999978,6.37442626953125,0.3886444091796875,5.811273193359376
11.546999999999969,6.042755126953125,0.169873046875,7.446301269531251
11.55699999999996,6.747070312500001,-0.5299560546875001,8.205047607421875
11.567000000000007,6.949990844726563,-1.0080230712890623,7.73460693359375
11.576999999999998,6.458465576171876,-0.7098480224609376,6.414651489257813
11.586999999999987,6.514840698242188,-0.0668426513671875,6.30504150390625
11.59699999999998,7.382449340820313,0.470440673828125,7.137509155273438
11.606999999999973,7.578790283203125,0.5528350830078126,6.839782714843751
11.616999999999962,7.0883117675781255,0.549993896484375,6.142944335937501
11.62700000000001,6.579141235351563,0.303857421875,6.08612060546875
11.637,6.624002075195313,-0.014654541015625,7.436581420898438
11.646999999999991,6.6071044921875,-0.2456878662109375,8.364602661132814
11.656999999999982,6.118869018554688,-0.3901397705078125,7.685858154296875
11.665999999999997,6.370089721679688,-0.3207550048828125,6.512149047851563
11.676999999999964,7.171603393554688,-0.2764923095703125,6.181674194335938
11.686999999999957,8.240487670898439,-0.13218994140625,6.389529418945313
11.69599999999997,7.577294921875,0.0817962646484375,6.253900146484376
11.706999999999994,6.615927124023438,0.200677490234375,6.215768432617188
11.716000000000008,6.304144287109375,0.15491943359375,7.084423828125001
11.726999999999975,6.466390991210938,-0.0252716064453125,8.059249877929688
11.73599999999999,6.699966430664063,-0.0462066650390625,7.969378662109375
11.74599999999998,6.370388793945313,0.0130096435546875,6.89481201171875
11.755999999999972,6.194085693359376,0.0811981201171875,6.286947631835938
11.766999999999996,7.537966918945313,0.0554779052734375,6.471475219726563
11.775999999999954,8.05999755859375,-0.1734619140625,6.665872192382813
11.786,7.5503784179687505,-0.286810302734375,5.870339965820313
11.795999999999992,7.325027465820313,-0.222808837890625,6.412109375000001
11.805999999999983,5.8677978515625,0.02572021484375,7.376318359375
11.815999999999974,5.460012817382813,0.4018035888671875,8.520269775390625
11.825999999999963,6.113784790039063,0.3398956298828125,8.488418579101562
11.835999999999956,7.238595581054688,-0.009271240234375,6.440969848632813
11.846000000000004,8.00855712890625,-0.1577606201171875,5.666970825195313
11.855999999999996,7.4068237304687505,0.2875579833984375,5.788693237304688
11.865999999999984,6.794772338867188,0.599041748046875,7.003674316406251
11.875999999999976,6.718658447265626,0.0013458251953125,7.303643798828125
11.885999999999967,7.168463134765625,-0.7901489257812501,6.778622436523438
11.895999999999958,6.376220703125001,-0.8978149414062501,6.881353759765625
11.906000000000006,6.128887939453126,-0.0681884765625,7.861862182617188
11.915999999999997,6.4396240234375,0.4394866943359375,7.913302612304688
11.925999999999988,7.148574829101563,0.426177978515625,6.9866271972656255
11.93599999999998,7.713372802734375,0.2995208740234375,5.215521240234375
11.94599999999997,7.203305053710938,0.23985595703125,5.746224975585938
11.95599999999996,7.220501708984376,0.3093902587890625,6.871334838867188
11.966000000000008,6.586767578125,-0.104376220703125,8.0103515625
11.976,6.0808868408203125,-0.450103759765625,7.545294189453125
11.98599999999999,5.953033447265625,-0.45399169921875,7.254446411132813
11.99599999999998,6.5472900390625,-0.138470458984375,7.345214843750001
12.005999999999972,7.562939453125001,0.1813873291015625,6.928457641601563
12.015999999999964,7.784552001953125,0.120526123046875,5.962603759765625
12.025999999999954,7.5976318359375,0.10048828125,5.157800292968751
12.036,6.618469238281251,0.1945465087890625,6.528747558593751
12.045999999999992,6.430950927734376,0.0674407958984375,7.940219116210938
12.055999999999983,6.516635131835938,-0.2301361083984375,8.280264282226563
12.065999999999974,6.562692260742188,-0.6249114990234376,6.988571166992188
12.075999999999963,6.6788818359375,-0.386700439453125,6.393865966796875
12.085999999999956,6.688601684570313,0.1484893798828125,6.827819824218751
12.096000000000004,6.940270996093751,0.5758636474609375,7.153509521484375
12.105999999999996,7.415945434570313,0.2666229248046875,6.485830688476563
12.115999999999984,7.6215576171875,-0.3536529541015625,5.5978851318359375
12.125999999999976,7.174295043945313,-0.3491668701171875,6.215170288085938
12.135999999999967,7.168164062500001,-0.0249725341796875,7.933789062500001
12.145999999999958,5.703607177734376,0.3192596435546875,8.192486572265626
12.156000000000006,5.458218383789063,0.158807373046875,7.442263793945313
12.165999999999997,6.659292602539063,0.1045257568359375,6.9851318359375005
12.174999999999956,7.615875244140626,0.0315521240234375,6.576599121093751
12.18599999999998,8.158242797851564,0.150433349609375,6.433193969726563
12.194999999999991,7.083975219726563,0.3007171630859375,6.044549560546876
12.20599999999996,6.2882934570312505,0.2298370361328125,6.363659667968751
12.214999999999977,6.602767944335938,-0.0067291259765625,7.685858154296875
12.224999999999966,6.746920776367188,-0.437841796875,7.832254028320313
12.234999999999957,6.628936767578126,-0.4146636962890625,7.430599975585938
12.245000000000005,6.330462646484375,-0.1571624755859375,6.542803955078125
12.254999999999995,6.997393798828125,0.136077880859375,6.6382080078125005
12.264999999999986,7.487872314453125,0.322998046875,6.992010498046875
12.274999999999975,7.37572021484375,0.30086669921875,6.331060791015625
12.286,6.818399047851563,0.2265472412109375,6.295022583007813
12.29499999999996,6.703854370117188,-0.044561767578125,6.590505981445313
12.305000000000009,6.64359130859375,-0.200079345703125,7.860516357421876
12.314999999999998,6.498690795898438,-0.2169769287109375,7.825375366210938
12.324999999999989,6.121112060546875,-0.145648193359375,7.2139221191406255
12.33499999999998,6.784005737304688,-0.057421875,6.5484863281250005
12.34499999999997,7.5757995605468755,-0.0142059326171875,6.330313110351563
12.35499999999996,7.742831420898438,0.060711669921875,6.370986938476563
12.365000000000007,7.260577392578125,0.0665435791015625,6.042605590820313
12.375,6.472821044921876,-0.019439697265625,6.780715942382813
12.385999999999967,6.435137939453125,-0.090618896484375,7.5279479980468755
12.394999999999982,6.298461914062501,-0.0814971923828125,8.154055786132814
12.404999999999973,6.663330078125001,-0.0342437744140625,7.317700195312501
12.414999999999964,6.475064086914063,0.05084228515625,6.561047363281251
12.424999999999956,6.892419433593751,0.0671417236328125,6.14713134765625
12.435000000000002,7.7914306640625,0.151629638671875,6.694583129882813
12.444999999999991,7.398748779296875,-0.1457977294921875,6.352743530273438
12.454999999999984,7.680026245117188,-0.3055023193359375,6.171356201171876
12.464999999999977,6.845016479492188,-0.2815765380859375,6.985281372070313
12.474999999999966,5.609249877929688,0.1009368896484375,7.6095947265625
12.48599999999999,5.644839477539063,0.4821044921875,8.527297973632812
12.495000000000005,6.435586547851563,0.2444915771484375,7.784402465820313
12.504999999999995,7.96309814453125,-0.028411865234375,5.973519897460938
12.514999999999986,7.715017700195313,0.0252716064453125,5.829965209960938
12.524999999999975,7.010104370117188,0.5610595703125001,5.911312866210938
12.534999999999968,6.562692260742188,0.3952239990234375,7.484432983398438
12.54499999999996,7.095639038085938,-0.398065185546875,7.158294677734376
12.555000000000009,6.7841552734375,-0.9165069580078126,6.9746643066406255
12.564999999999998,6.236105346679688,-0.6114532470703126,7.054067993164063
12.574999999999989,6.124700927734375,0.1386199951171875,7.713970947265626
12.585999999999956,7.052871704101563,0.335260009765625,7.632772827148438
12.59499999999997,7.387982177734376,0.262884521484375,6.1731506347656255
12.60499999999996,7.59105224609375,0.2980255126953125,5.363711547851563
12.615000000000007,6.871783447265625,0.4119720458984375,6.2643676757812505
12.625,6.9148498535156255,0.343035888671875,7.627239990234376
12.634999999999993,6.149822998046876,-0.0692352294921875,8.181869506835938
12.644999999999982,5.99161376953125,-0.284417724609375,7.35538330078125
12.654999999999973,6.295172119140625,-0.258099365234375,6.972421264648438
12.663999999999987,7.3096252441406255,-0.134283447265625,6.901989746093751
12.673999999999978,7.925863647460938,-0.13458251953125,6.329116821289063
12.68599999999998,7.664923095703125,-0.1577606201171875,5.764019775390626
12.694999999999991,6.729873657226563,0.014654541015625,5.884097290039063
12.704000000000008,6.447848510742188,-0.0309539794921875,7.192687988281251
12.714,6.914251708984375,-0.235968017578125,7.974163818359376
12.72399999999999,6.713125610351563,-0.375634765625,7.536022949218751
12.73399999999998,6.24283447265625,-0.1754058837890625,6.712976074218751
12.743999999999971,6.541009521484376,0.4462158203125,6.914401245117188
12.753999999999962,6.548785400390625,0.6298461914062501,7.304541015625
12.76400000000001,7.522415161132813,0.42288818359375,6.567477416992188
12.774,7.656100463867188,-0.2283416748046875,5.64947509765625
12.786,7.163528442382813,-0.7001281738281251,5.837442016601563
12.79499999999996,7.3335510253906255,-0.6317901611328125,7.105358886718751
12.803999999999974,7.0105529785156255,-0.218621826171875,8.490213012695314
12.813999999999965,5.0680786132812505,0.2062103271484375,7.573406982421876
12.823999999999955,5.58128662109375,0.3766815185546875,7.114779663085938
12.834000000000003,7.182070922851563,0.5890228271484376,7.194631958007813
12.843999999999994,8.021417236328126,0.4720855712890625,6.663031005859375
12.853999999999983,8.048782348632812,0.4753753662109375,6.06937255859375
12.863999999999976,6.578991699218751,0.3877471923828125,5.5902587890625
12.873999999999969,6.211730957031251,0.1891632080078125,7.148574829101563
12.885999999999967,6.729873657226563,-0.3970184326171875,8.278021240234375
12.894000000000004,6.796566772460938,-0.914862060546875,7.838235473632813
12.903999999999996,6.551925659179688,-0.8001678466796875,6.569122314453126
12.913999999999987,6.382650756835938,-0.2406036376953125,6.295471191406251
12.923999999999978,7.351943969726563,0.356793212890625,7.037619018554688
12.933999999999967,7.606753540039063,0.5618072509765626,7.019973754882813
12.94399999999996,7.057507324218751,0.5656951904296875,6.093597412109375
12.954000000000008,6.750360107421876,0.4127197265625,6.117373657226563
12.964,6.56224365234375,0.1248626708984375,7.271493530273438
12.97399999999999,6.558953857421876,-0.068487548828125,8.369387817382814
12.984999999999957,6.230422973632813,-0.1949951171875,7.882946777343751
12.993999999999971,6.176739501953126,-0.3792236328125,6.545495605468751
13.003999999999962,7.179977416992188,-0.3159698486328125,6.308929443359376
13.01400000000001,7.849301147460938,-0.18961181640625,6.500335693359376
13.024,7.670156860351563,-0.11065673828125,6.216815185546875
13.033999999999992,7.3724304199218755,-0.057122802734375,5.8785644531250005
13.043999999999984,6.34990234375,-0.13458251953125,6.58018798828125
13.053999999999974,6.511102294921876,-0.0937591552734375,7.677185058593751
13.063999999999965,6.202908325195313,0.134283447265625,8.68804931640625
13.073999999999955,6.251507568359376,0.24583740234375,7.373626708984376
13.08499999999998,6.527700805664063,0.25421142578125,6.500186157226563
13.093999999999994,7.015936279296875,0.2340240478515625,6.014642333984376
13.103999999999983,7.865151977539063,0.19320068359375,6.476559448242188
13.113999999999976,7.565032958984376,-0.180340576171875,6.437380981445313
13.123999999999969,7.4923583984375,-0.5284606933593751,6.074456787109376
13.13299999999998,6.959860229492188,-0.5683868408203125,7.09219970703125
13.144000000000004,5.547042846679688,-0.10228271484375,7.817449951171875
13.152999999999963,5.456423950195313,0.48868408203125,8.458511352539062
13.162999999999954,6.448895263671876,0.327783203125,7.833599853515626
13.173999999999978,7.9086669921875,0.0299072265625,5.827423095703125
13.182999999999993,8.04444580078125,0.1586578369140625,5.797665405273438
13.19399999999996,6.994552612304688,0.6721649169921875,6.014193725585938
13.202999999999976,6.463848876953126,0.576910400390625,7.341326904296875
13.214,6.964794921875001,-0.3288299560546875,7.354037475585938
13.222999999999956,6.9268127441406255,-1.0343414306640626,6.858773803710938
13.233000000000004,6.299658203125,-0.8243927001953125,7.05272216796875
13.242999999999997,6.061148071289063,0.0330474853515625,7.806832885742188
13.252999999999986,6.797912597656251,0.3398956298828125,7.651763916015626
13.262999999999977,7.334896850585938,0.322998046875,6.456072998046875
13.272999999999968,7.717410278320313,0.296380615234375,5.146435546875001
13.28299999999996,7.155902099609375,0.26318359375,5.972622680664063
13.293000000000006,7.107901000976563,0.19678955078125,7.267755126953125
13.302999999999995,6.409417724609376,-0.18123779296875,8.041156005859376
13.312999999999988,5.914752197265625,-0.3258392333984375,7.622903442382813
13.32299999999998,5.840432739257813,-0.1906585693359375,7.202706909179688
13.33299999999997,6.93309326171875,0.0590667724609375,7.337887573242188
13.34299999999996,7.877862548828125,0.172564697265625,6.604562377929688
13.353999999999983,7.675689697265626,0.08433837890625,5.700765991210938
13.363,7.215866088867188,0.1882659912109375,5.525210571289063
13.37299999999999,6.465792846679688,0.0240753173828125,6.880755615234375
13.38299999999998,6.731369018554688,-0.2567535400390625,7.959808349609376
13.392999999999972,6.752304077148438,-0.6102569580078125,7.748065185546875
13.402999999999963,6.472970581054688,-0.7614379882812501,6.557308959960938
13.412999999999954,6.586767578125,-0.1535736083984375,6.716864013671875
13.423000000000002,6.676339721679688,0.4080841064453125,7.231118774414063
13.432999999999993,7.159341430664063,0.6603515625,7.015487670898438
13.442999999999984,7.318447875976563,0.3506622314453125,6.0764007568359375
13.452999999999976,7.31710205078125,-0.1327880859375,5.8426757812500005
13.462999999999964,7.1660705566406255,-0.136676025390625,6.866400146484375
13.472999999999956,7.189398193359375,0.029010009765625,8.112783813476563
13.483000000000004,5.5933990478515625,0.0838897705078125,7.683016967773438
13.492999999999997,5.551828002929688,-0.1586578369140625,6.835296630859376
13.502999999999986,7.008160400390626,-0.0725250244140625,7.270745849609375
13.512999999999977,7.754345703125001,-0.0773101806640625,6.886737060546875
13.522999999999968,7.79442138671875,0.15133056640625,6.414801025390625
13.53299999999996,6.82841796875,0.3916351318359375,5.728729248046875
13.543000000000006,6.45218505859375,0.41929931640625,6.571514892578126
13.552999999999995,6.748715209960938,0.2428466796875,7.974612426757813
13.562999999999988,6.832754516601563,-0.2017242431640625,7.782608032226563
13.57299999999998,6.453680419921875,-0.3491668701171875,7.050778198242188
13.58299999999997,6.358276367187501,-0.2459869384765625,6.411062622070313
13.59299999999996,7.113134765625,0.0148040771484375,7.03238525390625
13.603000000000009,7.418637084960938,0.079254150390625,7.115826416015626
13.613,7.150219726562501,0.0940582275390625,6.226684570312501
13.62299999999999,6.941467285156251,0.03887939453125,6.054718017578125
13.63299999999998,6.869390869140625,-0.0753662109375,6.706396484375
13.642999999999972,6.671255493164063,0.00059814453125,7.985079956054688
13.651999999999989,6.265713500976563,0.045758056640625,7.777972412109375
13.661999999999978,6.202459716796875,-0.0055328369140625,7.003524780273438
13.671999999999969,6.778921508789063,-0.020037841796875,6.540710449218751
13.68199999999996,7.744924926757813,-0.03529052734375,6.489718627929688
13.692000000000007,7.632324218750001,-0.0584686279296875,6.519924926757813
13.702999999999976,7.13406982421875,-0.034393310546875,6.041110229492188
13.711999999999987,6.318499755859375,-0.0764129638671875,6.8744750976562505
13.722999999999956,6.614132690429688,-0.20755615234375,7.317550659179688
13.731999999999973,6.664825439453126,-0.174957275390625,8.021716308593751
13.741999999999962,6.700265502929688,-0.1419097900390625,7.040011596679688
13.75200000000001,6.683816528320313,0.087030029296875,6.54190673828125
13.762,6.824380493164063,0.4053924560546875,6.6262451171875005
13.771999999999991,6.684713745117188,0.4092803955078125,6.916943359375001
13.781999999999982,7.4172912597656255,0.137872314453125,6.67349853515625
13.791999999999971,7.357327270507813,-0.4284210205078125,6.196478271484375
13.801999999999964,7.534527587890626,-0.593060302734375,6.2509094238281255
13.811999999999957,7.166668701171876,-0.3533538818359375,7.260577392578125
13.822000000000005,5.693438720703125,0.146246337890625,7.739242553710938
13.831999999999994,5.7130279541015625,0.428271484375,7.7172607421875
13.841999999999985,6.3259765625,0.295782470703125,7.53243408203125
13.851999999999975,8.013940429687501,0.028411865234375,6.2099365234375
13.861999999999966,7.897900390625001,0.111553955078125,6.450390625000001
13.871999999999955,6.658096313476563,0.5042358398437501,5.971725463867188
13.882000000000003,6.445904541015626,0.468646240234375,7.213623046875001
13.891999999999996,6.952682495117188,-0.260491943359375,7.229922485351563
13.901999999999989,7.086965942382813,-0.815869140625,7.052273559570313
13.911999999999978,6.488821411132813,-0.669622802734375,6.993954467773438
13.921999999999969,6.156552124023438,-0.0418701171875,7.258782958984375
13.93199999999996,6.745724487304688,0.2992218017578125,7.658193969726563
13.942000000000007,7.207940673828125,0.3058013916015625,6.740640258789063
13.951999999999998,7.476358032226563,0.2776885986328125,5.738897705078125
13.961999999999987,7.051376342773438,0.2380615234375,6.033633422851563
13.97199999999998,7.081283569335938,0.179443359375,6.872381591796875
13.981999999999973,6.396408081054688,-0.0497955322265625,7.978051757812499
13.991999999999962,6.068624877929688,-0.18243408203125,7.594491577148438
14.00200000000001,6.312667846679688,-0.2298370361328125,7.167117309570313
14.012,7.198669433593751,-0.171966552734375,6.789837646484376
14.021999999999991,7.640399169921875,-0.1227691650390625,6.262573242187501
14.031999999999982,7.364505004882813,0.0782073974609375,6.474615478515625
14.041999999999971,6.55626220703125,0.214434814453125,6.128289794921876
14.051999999999964,6.681124877929688,0.11005859375,7.314559936523438
14.061999999999957,7.128985595703125,-0.2947357177734375,7.105209350585938
14.072000000000005,6.958963012695313,-0.51859130859375,7.108947753906251
14.081999999999994,6.581384277343751,-0.2124908447265625,6.8415771484375005
14.091999999999985,6.1764404296875,0.227593994140625,7.212277221679688
14.101999999999975,6.581384277343751,0.439337158203125,7.43912353515625
14.111999999999966,7.290783691406251,0.1927520751953125,6.53233642578125
14.121999999999955,7.545892333984375,-0.1760040283203125,5.782562255859375
14.130999999999972,7.208538818359376,-0.390289306640625,6.063241577148438
14.141999999999996,7.1899963378906255,-0.3321197509765625,7.109695434570313
14.150999999999954,7.40084228515625,-0.0698333740234375,8.05521240234375
14.161,5.334851074218751,0.2100982666015625,7.325775146484376
14.170999999999992,5.573211669921875,0.384307861328125,6.951187133789063
14.180999999999983,6.9659912109375,0.5118621826171875,7.610043334960938
14.190999999999974,7.7328125,0.207257080078125,6.920083618164063
14.200999999999963,7.9571166992187505,0.1912567138671875,6.171206665039063
14.210999999999956,6.586618041992188,0.2184722900390625,5.6277923583984375
14.221000000000004,6.449942016601563,0.2021728515625,6.880157470703126
14.230999999999996,6.913504028320313,-0.2555572509765625,8.061492919921875
14.240999999999984,6.917691040039063,-0.720465087890625,7.560696411132813
14.250999999999976,6.4826904296875005,-0.6077148437500001,6.601870727539063
14.260999999999967,6.198422241210938,-0.1257598876953125,6.636114501953125
14.270999999999958,7.212725830078125,0.423486328125,7.358822631835938
14.281000000000006,7.398449707031251,0.4942169189453125,7.187005615234376
14.290999999999997,7.144985961914063,0.50064697265625,5.8685455322265625
14.300999999999988,6.842175292968751,0.34034423828125,5.964697265625
14.31099999999998,6.766360473632813,0.0148040771484375,7.0329833984375005
14.32099999999997,6.756192016601563,-0.1885650634765625,8.209982299804688
14.33099999999996,6.127243041992188,-0.340643310546875,7.82791748046875
14.341000000000008,6.07415771484375,-0.429168701171875,6.546093750000001
14.351,7.137210083007813,-0.36845703125,6.495849609375001
14.36099999999999,7.938125610351563,-0.2109954833984375,6.518429565429688
14.37099999999998,7.649371337890625,0.050244140625,6.318350219726563
14.380999999999972,6.851147460937501,0.200677490234375,5.981594848632813
14.390999999999964,6.35050048828125,0.2202667236328125,6.8430725097656255
14.400999999999954,6.665573120117188,0.08673095703125,7.884890747070313
14.411,6.562542724609376,0.057122802734375,8.099774169921876
14.420999999999992,6.421978759765626,0.05263671875,7.052871704101563
14.430999999999983,6.513195800781251,0.071478271484375,6.508709716796876
14.440999999999974,7.011151123046876,0.193798828125,6.683218383789063
14.450999999999963,7.2019592285156255,0.0288604736328125,6.722695922851563
14.460999999999956,7.601370239257813,-0.2537628173828125,6.268704223632813
14.471000000000004,7.226931762695313,-0.7071563720703126,5.828170776367188
14.480999999999996,7.221997070312501,-0.7076049804687501,6.672152709960938
14.490999999999984,6.960009765625,-0.2292388916015625,7.955322265625001
14.500999999999976,5.58367919921875,0.4352996826171875,8.096633911132812
14.510999999999967,5.585772705078125,0.8010650634765626,7.3846923828125
14.520999999999958,6.834698486328126,0.65018310546875,6.987225341796876
14.531000000000006,8.156747436523439,0.3599334716796875,6.146682739257813
14.540999999999997,7.806832885742188,0.3028106689453125,6.416595458984376
14.550999999999988,6.577047729492188,0.28172607421875,6.210385131835938
14.56099999999998,6.343023681640625,-0.1314422607421875,7.193435668945313
14.57099999999997,6.856530761718751,-0.78297119140625,7.548434448242188
14.58099999999996,6.961654663085938,-0.9932189941406252,7.259381103515626
14.591000000000008,6.521270751953126,-0.63223876953125,6.8610168457031255
14.601,6.471624755859375,0.031103515625,6.784753417968751
14.61099999999999,7.108200073242188,0.5247222900390626,7.199716186523438
14.62099999999998,7.318896484375,0.6851745605468751,6.723144531250001
14.630999999999972,7.123751831054688,0.6258087158203125,6.0460449218750005
14.639999999999986,6.842025756835938,0.32239990234375,6.378463745117188
14.649999999999975,6.947149658203125,0.033197021484375,7.177584838867188
14.659999999999968,6.292330932617188,-0.2020233154296875,8.048483276367188
14.66999999999996,6.054718017578125,-0.2923431396484375,7.589108276367188
14.680000000000009,6.323135375976563,-0.3273345947265625,7.006216430664063
14.689999999999998,7.430599975585938,-0.3363067626953125,6.489868164062501
14.699999999999989,7.847656250000001,-0.1697235107421875,6.204254150390626
14.70999999999998,7.46005859375,0.0282623291015625,6.06219482421875
14.71999999999997,6.698919677734375,0.195892333984375,6.321490478515625
14.72999999999996,6.500186157226563,0.102581787109375,7.279269409179688
14.740000000000007,6.732565307617188,-0.139666748046875,7.59464111328125
14.75,6.791632080078125,-0.2349212646484375,7.485479736328125
14.759999999999993,6.4198852539062505,-0.07596435546875,6.8370910644531255
14.769999999999982,6.6202636718750005,0.299969482421875,7.049581909179688
14.779999999999973,6.758883666992188,0.4224395751953125,6.96658935546875
14.789999999999964,7.087115478515625,0.2346221923828125,6.531887817382813
14.799999999999956,7.479797363281251,-0.25062255859375,5.906378173828125
14.810000000000002,7.503125000000001,-0.717474365234375,6.197225952148438
14.819999999999991,7.246670532226563,-0.6663330078125,6.892568969726563
14.829999999999984,7.128536987304688,-0.178546142578125,7.861264038085938
14.839999999999977,5.09140625,0.3422882080078125,7.6335205078125
14.849999999999966,5.617623901367188,0.5534332275390625,7.322784423828126
14.859999999999957,7.149322509765626,0.6006866455078126,7.539013671875001
14.870000000000005,7.7417846679687505,0.361578369140625,6.447100830078125
14.879999999999995,7.857376098632813,0.37982177734375,6.018380737304688
14.889999999999986,6.747817993164063,0.3560455322265625,5.97366943359375
14.899999999999975,6.448745727539063,0.1088623046875,7.035076904296876
14.909999999999968,6.7159667968750005,-0.44202880859375,7.977304077148438
14.91999999999996,6.767556762695313,-0.8858520507812501,7.370486450195313
14.930000000000009,6.54429931640625,-0.786260986328125,6.761724853515625
14.939999999999998,6.417492675781251,-0.2093505859375,6.784603881835938
14.949999999999989,7.196426391601563,0.424981689453125,7.2746337890625
14.95999999999998,7.20823974609375,0.6522766113281251,6.92711181640625
14.96999999999997,7.236352539062499,0.6578094482421876,5.889630126953126
14.97999999999996,7.075900268554688,0.396270751953125,6.1372619628906255
14.990000000000007,6.774734497070313,0.09151611328125,7.013543701171876
15.0,6.443661499023438,-0.143255615234375,8.142092895507814
15.009999999999993,6.312069702148438,-0.404345703125,7.833450317382813
15.019999999999982,6.170010375976563,-0.5307037353515626,6.785800170898438
15.029999999999973,7.009506225585938,-0.46475830078125,6.527999877929688
15.039999999999964,7.726531982421876,-0.156414794921875,6.5090087890625
15.049999999999956,7.496395874023438,0.0506927490234375,6.2882934570312505
15.060000000000002,7.358074951171876,0.1798919677734375,5.94256591796875
15.069999999999991,6.609197998046875,0.122918701171875,6.596487426757813
15.079999999999984,6.583328247070313,0.035888671875,7.379010009765626
15.089999999999977,6.411361694335938,0.09749755859375,8.330209350585939
15.099999999999966,6.225787353515625,-0.0133087158203125,7.324429321289063
15.109999999999957,6.5066162109375005,0.0913665771484375,7.002777099609376
15.120000000000005,6.449044799804688,0.141162109375,6.5395141601562505
15.128999999999962,7.594790649414063,0.1828826904296875,6.716564941406251
15.13900000000001,7.911508178710938,-0.1128997802734375,6.314910888671876
15.149,7.769299316406251,-0.4711883544921875,5.3761230468750005
15.158999999999992,7.255044555664063,-0.380120849609375,6.5963378906250005
15.168999999999984,5.646334838867188,-0.1140960693359375,7.643838500976563
15.178999999999974,5.412908935546875,0.365167236328125,8.856576538085939
15.188999999999965,6.151467895507813,0.193798828125,8.34232177734375
15.198999999999955,7.5258544921875,-0.0605621337890625,6.142944335937501
15.209000000000003,7.922274780273438,0.22669677734375,5.756243896484375
15.218999999999994,7.020571899414063,0.73392333984375,5.966192626953125
15.228999999999983,7.026553344726563,0.7405029296875001,7.097134399414063
15.238999999999976,7.081732177734375,-0.164788818359375,7.106704711914063
15.248999999999969,6.958065795898438,-0.9226379394531252,6.373379516601563
15.258999999999958,6.344219970703126,-1.003237915039063,7.042852783203125
15.269000000000004,6.04425048828125,-0.3976165771484375,8.064782714843751
15.278999999999996,6.5843750000000005,0.0801513671875,8.123400878906251
15.288999999999987,7.048834228515625,0.3162689208984375,6.850399780273438
15.298999999999978,7.683316040039063,0.504833984375,5.025311279296876
15.308999999999967,7.122256469726563,0.5879760742187501,5.933444213867188
15.31899999999996,7.41519775390625,0.5658447265625001,6.872082519531251
15.33099999999996,6.6382080078125005,0.1120025634765625,7.953378295898438
15.339,5.91864013671875,-0.417205810546875,7.142742919921876
15.34899999999999,6.3406311035156255,-0.6776977539062501,7.063040161132813
15.35899999999998,6.738397216796876,-0.5923126220703125,7.556509399414063
15.368999999999971,7.341326904296875,-0.1945465087890625,7.147677612304688
15.378999999999962,7.164724731445313,0.1918548583984375,6.554766845703125
15.38900000000001,6.855633544921876,0.4104766845703125,5.534033203125
15.399,7.1705566406250005,0.413616943359375,6.418539428710938
15.408999999999992,7.345962524414063,0.1407135009765625,7.224090576171876
15.418999999999984,6.898251342773438,-0.141162109375,7.152462768554688
15.428999999999974,6.327770996093751,-0.5049835205078126,6.905429077148438
15.438999999999965,6.361416625976563,-0.39896240234375,7.165322875976563
15.448999999999955,6.264666748046875,-0.153424072265625,7.722195434570313
15.459000000000003,6.8191467285156255,0.0160003662109375,7.133023071289063
15.468999999999994,7.402935791015626,-0.074468994140625,5.9623046875000005
15.478999999999983,7.935733032226563,-0.3294281005859375,5.5136962890625005
15.488999999999976,7.8494506835937505,-0.14654541015625,6.047091674804688
15.498999999999969,7.321139526367188,0.4119720458984375,7.712026977539063
15.508999999999958,4.882653808593751,0.7751953125000001,7.970126342773438
15.519000000000004,5.095294189453125,0.5468536376953126,8.120858764648439
15.528999999999996,6.606506347656251,0.26497802734375,7.914349365234376
15.538999999999987,7.753897094726563,-0.0873291015625,6.6609375
15.548999999999978,8.127886962890626,-0.0524871826171875,5.684017944335938
15.558999999999967,7.285549926757813,0.00777587890625,5.294476318359376
15.56899999999996,6.710433959960938,-0.0512908935546875,6.50601806640625
15.579000000000008,6.691891479492188,-0.3117828369140625,7.890872192382813
15.589,6.613983154296876,-0.5825927734375,7.872329711914063
15.59899999999999,6.209786987304688,-0.47911376953125,7.261923217773438
15.60899999999998,6.207095336914063,0.0895721435546875,6.90916748046875
15.618999999999971,7.027151489257813,0.7059600830078125,7.2483154296875005
15.627999999999986,7.414151000976563,0.7856628417968751,6.769351196289063
15.637999999999977,7.395758056640625,0.5867797851562501,5.889031982421876
15.647999999999968,7.208688354492188,0.2187713623046875,5.881704711914063
15.65799999999996,6.7174621582031255,-0.2319305419921875,6.866848754882813
15.668000000000006,6.49644775390625,-0.578106689453125,8.04324951171875
15.677999999999995,6.306088256835938,-0.7307830810546876,7.974462890625
15.687999999999988,6.130532836914063,-0.6640899658203125,6.990963745117188
15.69799999999998,6.865054321289063,-0.2232574462890625,6.597085571289063
15.70799999999997,7.573855590820313,0.23028564453125,6.48448486328125
15.71799999999996,7.816253662109376,0.4367950439453125,6.189300537109376
15.728000000000009,7.48936767578125,0.5040863037109375,5.790487670898438
15.738,6.5155883789062505,0.23267822265625,6.456970214843751
15.74799999999999,6.513644409179688,-0.0055328369140625,7.579537963867188
15.75799999999998,6.113186645507813,-0.181536865234375,8.584719848632814
15.767999999999972,6.2568908691406255,-0.3237457275390625,7.641445922851563
15.777999999999963,6.5114013671875,-0.3084930419921875,6.693237304687501
15.787999999999954,6.703256225585938,-0.1227691650390625,6.145635986328125
15.798000000000002,7.859768676757813,0.1275543212890625,6.381155395507813
15.807999999999993,8.073904418945313,-0.0569732666015625,6.199169921875001
15.817999999999984,7.617071533203125,-0.264678955078125,5.595492553710938
15.827999999999976,7.140798950195313,-0.1942474365234375,6.689498901367188
15.837999999999964,5.5425567626953125,0.161798095703125,8.073306274414064
15.847999999999956,5.1877075195312505,0.6000885009765625,8.976803588867188
15.858000000000004,6.052325439453125,0.3907379150390625,8.390322875976564
15.867999999999997,7.47740478515625,0.059515380859375,6.15550537109375
15.877999999999986,8.134466552734375,0.0753662109375,5.355337524414063
15.887999999999977,7.546490478515626,0.3828125,5.743981933593751
15.897999999999968,6.964047241210938,0.35888671875,6.800155639648438
15.90799999999996,6.729574584960938,-0.35828857421875,7.346859741210938
15.918000000000006,6.761276245117188,-0.893927001953125,7.074703979492188
15.927999999999995,6.11124267578125,-0.9094787597656252,7.243679809570313
15.937999999999988,6.1925903320312505,-0.1317413330078125,7.924069213867188
15.94799999999998,6.6705078125,0.3964202880859375,7.574005126953126
15.95799999999997,7.189398193359375,0.6059204101562501,6.682022094726563
15.96799999999996,7.802197265625001,0.6491363525390625,5.219259643554688
15.978000000000009,7.162033081054688,0.457879638671875,5.99041748046875
15.988,7.101470947265626,0.343634033203125,7.033432006835938
15.99799999999999,6.3295654296875,-0.1686767578125,8.02052001953125
16.00799999999998,5.9193878173828125,-0.57362060546875,7.571463012695313
16.017999999999972,6.238497924804688,-0.6942962646484375,7.17235107421875
16.027999999999963,6.969729614257813,-0.4988525390625,7.114779663085938
16.037999999999954,7.586715698242188,-0.075665283203125,6.608151245117188
16.048000000000002,7.396954345703126,0.2065093994140625,6.0953918457031255
16.057999999999993,7.338934326171875,0.411224365234375,5.673699951171876
16.067999999999984,6.825726318359376,0.295184326171875,6.532785034179688
16.077999999999975,6.903485107421876,0.0195892333984375,7.416992187500001
16.087999999999965,6.543252563476563,-0.1777984619140625,7.816104125976563
16.097999999999956,6.068026733398438,-0.3611297607421875,7.375271606445313
16.10699999999997,6.471325683593751,-0.0859832763671875,7.269549560546875
16.117999999999995,6.5918518066406255,0.0877777099609375,7.033731079101563
16.127999999999986,7.190145874023438,0.212640380859375,6.487026977539063
16.137999999999977,7.656100463867188,-0.0275146484375,5.751608276367188
16.147999999999968,7.884292602539063,-0.5028900146484375,5.673699951171876
16.156999999999982,7.416842651367188,-0.4864410400390625,6.526803588867188
16.166999999999973,6.774285888671876,-0.1742095947265625,7.875619506835938
16.177999999999997,5.31451416015625,0.4278228759765625,8.37342529296875
16.186999999999955,5.260830688476563,0.6002380371093751,7.953079223632813
16.197000000000003,6.564038085937501,0.6612487792968751,7.458264160156251
16.206999999999994,8.0522216796875,0.404046630859375,6.20933837890625
16.216999999999985,8.228225708007812,0.2543609619140625,5.631082153320313
16.226999999999975,7.276428222656251,0.194097900390625,5.685812377929688
16.236999999999966,6.334051513671875,-0.0378326416015625,6.8969055175781255
16.246999999999957,6.305490112304688,-0.5115631103515625,8.032034301757813
16.257000000000005,6.63162841796875,-0.97198486328125,8.039660644531251
16.266999999999996,6.481793212890626,-0.795233154296875,7.147229003906251
16.277999999999963,6.490914916992188,0.0228790283203125,6.575851440429688
16.286999999999978,7.039114379882813,0.646893310546875,6.677685546875001
16.29699999999997,7.710980224609376,0.8345611572265625,6.5903564453125005
16.30699999999996,7.437478637695313,0.6690246582031251,6.087765502929688
16.317000000000007,6.8236328125000005,0.346923828125,6.234909057617188
16.326999999999998,6.448446655273438,-0.0040374755859375,7.248614501953125
16.33699999999999,6.201113891601563,-0.43843994140625,8.250357055664063
16.34699999999998,6.384445190429688,-0.6207244873046875,7.888629150390625
16.35699999999997,6.391174316406251,-0.6075653076171875,6.913653564453125
16.366999999999962,7.150070190429688,-0.270062255859375,6.158944702148438
16.37700000000001,7.777523803710938,0.048150634765625,6.204254150390626
16.387,7.68974609375,0.21353759765625,6.138906860351563
16.39699999999999,7.431945800781251,0.326287841796875,6.1208129882812505
16.406999999999982,6.327770996093751,0.06400146484375,6.68785400390625
16.416999999999973,6.410464477539063,-0.026318359375,7.680325317382813
16.426999999999964,6.118569946289063,-0.0764129638671875,8.553167724609375
16.436999999999955,6.283657836914063,-0.0037384033203125,7.64189453125
16.447000000000003,6.445156860351563,0.1535736083984375,6.7602294921875
16.456999999999994,6.861465454101563,0.05921630859375,5.8965087890625005
16.466999999999985,8.252151489257812,0.0348419189453125,6.1003265380859375
16.47800000000001,7.901040649414063,-0.279931640625,6.122457885742188
16.486999999999966,7.4780029296875,-0.3943267822265625,5.991464233398438
16.496999999999957,6.545495605468751,-0.3180633544921875,7.372131347656251
16.507000000000005,5.3892822265625,0.0408233642578125,8.172598266601563
16.516999999999996,5.620614624023438,0.471038818359375,8.642739868164064
16.526999999999987,6.346313476562501,0.3533538818359375,7.642941284179688
16.536999999999978,7.912554931640625,0.169573974609375,5.638558959960938
16.54699999999997,8.148522949218751,0.224005126953125,5.799310302734376
16.55699999999996,7.091152954101563,0.5528350830078126,5.809927368164063
