time,ax,ay,az
0.0,6.838436889648438,0.8973663330078125,6.952233886718751
0.0090000000000145,6.736453247070313,0.429168701171875,6.953280639648438
0.0190000000000054,6.623104858398438,-0.0275146484375,7.043899536132813
0.0289999999999963,6.882699584960938,-0.4768707275390625,7.028945922851563
0.0389999999999872,6.614581298828125,-0.7221099853515626,7.345065307617188
0.0489999999999781,6.6711059570312505,-0.7849151611328126,7.251605224609375
0.0590000000000827,6.999636840820313,-0.739605712890625,6.719256591796875
0.0690000000000807,7.251156616210938,-0.6283508300781251,6.312966918945313
0.0790000000000716,7.038815307617188,-0.342138671875,6.232516479492188
0.0890000000000554,7.63890380859375,-0.2298370361328125,5.97247314453125
0.0990000000000463,7.7746826171875005,-0.524871826171875,6.215768432617188
0.1090000000000372,7.134219360351563,-0.6787445068359376,5.7314208984375
0.1190000000000282,6.977355957031251,-0.160302734375,7.251455688476563
0.1290000000000191,5.469732666015625,0.0737213134765625,8.544793701171876
0.13900000000001,5.719009399414063,0.6304443359375,8.7699951171875
0.1490000000000009,6.032437133789063,0.9764709472656252,7.935134887695313
0.1589999999999989,6.788192749023438,0.7805786132812501,6.664675903320313
0.1689999999999898,7.197323608398438,0.9156097412109376,6.676339721679688
0.1790000000000873,7.066479492187501,0.706707763671875,6.757537841796876
0.1890000000000782,7.219754028320313,0.0109161376953125,7.070965576171876
0.1990000000000691,6.9635986328125,-0.7976257324218751,5.7843566894531255
0.20900000000006,7.581033325195313,-1.3690032958984375,5.72244873046875
0.2190000000000509,7.350897216796875,-1.4570800781250002,6.235656738281251
0.2290000000000489,7.955770874023438,-0.9651062011718752,6.054119873046876
0.2390000000000398,8.221795654296876,-0.3330169677734375,5.514593505859375
0.2490000000000236,8.0211181640625,-0.0898712158203125,4.472625732421875
0.2590000000000145,7.470825195312501,0.15611572265625,5.636764526367188
0.2690000000000054,7.041357421875,0.0538330078125,6.998141479492188
0.2789999999999963,6.439175415039063,-0.340643310546875,8.250506591796876
0.2889999999999872,4.873382568359375,-0.7316802978515625,8.78076171875
0.2989999999999781,5.278775024414063,-0.8623748779296876,8.750106811523438
0.3090000000000827,5.899499511718751,-0.217425537109375,8.883193969726562
0.3179999999999907,6.566281127929688,1.113894653320313,7.444058227539063
0.3280000000000882,6.699218750000001,2.661593627929688,6.4874755859375
0.3380000000000791,7.567874145507813,2.512655639648438,5.518930053710938
0.34800000000007,8.736199951171876,0.7995697021484376,5.1014251708984375
0.3580000000000609,7.879956054687501,-0.9920227050781252,6.2015625000000005
0.3680000000000447,6.221450805664063,-2.1021789550781254,7.219006347656251
0.3780000000000427,4.977011108398438,-2.2707061767578125,8.54569091796875
0.3880000000000407,6.0472412109375,-2.0792999267578125,7.984033203125
0.3990000000000009,7.38887939453125,-1.107763671875,7.424468994140626
0.4080000000000154,7.702008056640626,0.59635009765625,5.552725219726563
0.4180000000000063,7.444805908203126,2.26158447265625,6.075054931640626
0.4279999999999972,6.28470458984375,3.086874389648438,7.041806030273438
0.4379999999999882,6.645236206054688,2.6760986328125003,7.520620727539063
0.4479999999999791,6.9492431640625005,0.9748260498046876,7.412057495117188
0.4580000000000837,7.151266479492188,-0.7376617431640625,6.22489013671875
0.4680000000000817,6.224740600585938,-1.7727508544921875,7.411459350585938
0.4780000000000655,5.759085083007813,-2.1560119628906254,8.080184936523438
0.4880000000000564,6.61607666015625,-1.84766845703125,8.363555908203125
0.4990000000000236,7.023712158203126,-1.5399230957031251,6.265713500976563
0.5080000000000382,8.063137817382813,-1.4940155029296875,4.4240264892578125
0.5180000000000291,8.703451538085938,-1.232476806640625,4.863961791992188
0.52800000000002,8.461651611328126,-0.4801605224609375,4.618124389648438
0.5380000000000109,8.502325439453125,0.3291290283203125,5.134024047851563
0.5479999999999947,7.968630981445313,1.25789794921875,4.9817962646484375
0.5579999999999998,7.33385009765625,1.424481201171875,6.282012939453126
0.5679999999999907,6.301452636718751,0.7116424560546876,8.548233032226562
0.5780000000000882,3.7319732666015626,-0.1030303955078125,10.00396728515625
0.5880000000000791,3.2443359375000003,-0.4616180419921875,11.236892700195312
0.5990000000000464,4.712033081054688,0.5117126464843751,10.364797973632813
0.6080000000000609,7.045843505859375,1.170867919921875,7.692886352539063
0.6180000000000447,8.676684570312501,1.2146820068359376,4.540365600585938
0.6280000000000427,8.184112548828125,0.793438720703125,3.5224731445312503
0.6380000000000408,8.218356323242189,-0.009869384765625,4.456027221679688
0.6480000000000246,8.227777099609376,-1.2146820068359376,6.870437622070313
0.6580000000000155,7.15440673828125,-2.5871246337890628,7.031488037109376
0.6680000000000064,6.594842529296876,-2.8890380859375,6.811370849609376
0.6779999999999973,4.935739135742188,-1.9137634277343751,7.918386840820313
0.6879999999999882,5.59324951171875,0.0198883056640625,9.008206176757811
0.6990000000000691,6.2254882812500005,1.5496429443359376,9.345559692382814
0.7080000000000837,7.3966552734375,2.18681640625,6.149374389648438
0.7180000000000817,7.746868896484376,2.124310302734376,4.691696166992188
0.7280000000000655,7.513442993164063,1.7290863037109376,5.118472290039063
0.7380000000000564,7.225286865234375,1.3645172119140625,6.975112915039063
0.7480000000000473,6.517233276367188,0.2824737548828125,8.366098022460939
0.7580000000000382,6.538467407226563,-1.1704193115234376,6.6980224609375005
0.7670000000000528,6.936383056640626,-2.449700927734375,6.204104614257813
0.7770000000000437,7.284951782226563,-2.895468139648438,6.159841918945313
0.7880000000000109,7.495797729492188,-2.274893188476563,7.026254272460938
0.7989999999999782,6.935186767578125,-1.053033447265625,6.9671875000000005
0.8079999999999998,7.213024902343751,-0.092413330078125,5.7489166259765625
0.8179999999999907,7.496844482421875,0.3959716796875,5.898153686523438
0.8269999999999982,7.423870849609376,0.99351806640625,6.366650390625001
0.8369999999999891,6.348556518554688,1.5363342285156252,7.835543823242188
0.84699999999998,5.567080688476563,1.8657623291015624,8.33514404296875
0.8570000000000846,5.643194580078125,1.7571990966796875,8.457464599609375
0.8670000000000755,6.201712036132813,0.986639404296875,7.980593872070313
0.8770000000000664,6.761276245117188,0.0647491455078125,7.064834594726563
0.8870000000000573,7.208987426757813,-1.1246612548828123,6.422726440429688
0.8990000000000009,7.473217773437501,-2.010812377929688,5.885443115234375
0.9070000000000392,7.135864257812501,-2.0093170166015626,6.373977661132813
0.91700000000003,7.256240844726563,-1.864117431640625,6.180178833007813
0.9270000000000208,7.148724365234376,-1.2924407958984376,6.865652465820313
0.9370000000000118,7.175640869140626,-0.26856689453125,6.737948608398438
0.9470000000000028,6.565682983398438,0.478216552734375,7.117919921875001
0.9570000000000008,5.592202758789063,1.4982025146484377,8.113232421875
0.9669999999999916,6.226235961914063,2.1736572265625003,7.939620971679688
0.9770000000000892,6.894662475585938,1.5421661376953126,7.442562866210938
0.98700000000008,7.5880615234375,0.6715667724609375,5.732168579101563
0.9980000000000472,7.87218017578125,-0.1973876953125,5.318701171875
1.0070000000000618,7.230520629882813,-0.8245422363281251,6.10107421875
1.0170000000000528,6.953729248046876,-1.0084716796875002,7.177285766601563
1.0270000000000437,6.322088623046875,-1.200625610351563,8.05042724609375
1.0370000000000417,6.169262695312501,-0.8300750732421875,7.321139526367188
1.0470000000000257,6.669461059570313,-0.186322021484375,7.012945556640625
1.0570000000000164,7.084573364257813,0.500946044921875,6.678433227539063
1.0670000000000073,7.311569213867188,1.042266845703125,6.517681884765626
1.0769999999999982,7.351046752929688,0.9266754150390626,6.285751342773438
1.086999999999989,7.103265380859376,0.514404296875,6.301602172851563
1.0990000000000464,6.750210571289063,-0.2528656005859375,6.817202758789063
1.1070000000000846,6.612487792968751,-0.82962646484375,7.46005859375
1.1170000000000757,6.390875244140625,-1.0307525634765626,7.627090454101563
1.1270000000000664,6.7219482421875005,-1.0059295654296876,6.866250610351563
1.1370000000000573,7.1256958007812505,-0.8384490966796876,6.574057006835938
1.1470000000000482,7.299905395507813,-0.4385894775390625,6.182272338867188
1.157000000000039,7.403085327148438,0.0907684326171875,6.261975097656251
1.16700000000003,7.163677978515626,0.4038970947265625,6.490017700195313
1.177000000000021,6.9582153320312505,0.478814697265625,6.892868041992188
1.1870000000000118,6.462652587890625,0.4062896728515625,7.302447509765625
1.1990000000000691,6.194085693359376,0.286810302734375,7.617819213867188
1.2070000000000007,6.171804809570313,0.132489013671875,7.852142333984376
1.2169999999999916,6.526205444335938,0.03828125,7.481442260742188
1.2270000000000891,6.914401245117188,-0.0315521240234375,7.000384521484375
1.23700000000008,7.045843505859375,-0.0925628662109375,6.271545410156251
1.247000000000071,7.275979614257813,-0.1152923583984375,6.31461181640625
1.2570000000000618,7.074105834960938,-0.1915557861328125,6.656002807617188
1.2670000000000528,6.896157836914063,-0.3063995361328125,6.833053588867188
1.2770000000000437,6.7937255859375005,-0.4825531005859375,6.935784912109376
1.2870000000000417,6.880307006835938,-0.801214599609375,6.764416503906251
1.2970000000000257,6.461904907226563,-1.0104156494140626,7.150817871093751
1.3070000000000164,6.9420654296875,-0.7280914306640626,7.253848266601563
1.316000000000031,6.363958740234375,-0.146844482421875,7.427459716796876
1.3269999999999982,6.7653137207031255,0.3105865478515625,6.666619873046876
1.3360000000000127,7.470376586914063,0.7907470703125,6.991561889648438
1.3460000000000036,7.424468994140626,1.1746063232421875,6.196926879882813
1.3560000000000016,6.594543457031251,1.4297149658203123,6.843670654296876
1.3659999999999854,6.461306762695313,0.727642822265625,6.661087036132813
1.3759999999999764,7.28599853515625,-0.641510009765625,7.181771850585938
1.386000000000081,6.96060791015625,-1.6507293701171877,7.305587768554688
1.396000000000079,6.298611450195313,-1.6329345703125002,7.024908447265625
1.40600000000007,6.0005859375,-1.3120300292968752,7.274185180664063
1.4160000000000537,7.153958129882813,-0.8517578125,6.865353393554688
1.4260000000000446,7.718457031250001,0.0635528564453125,6.867596435546876
1.4360000000000357,7.020571899414063,1.367059326171875,6.188851928710938
1.4460000000000264,6.578842163085938,2.16588134765625,6.497344970703126
1.4560000000000173,6.788342285156251,1.975521850585937,7.165771484375001
1.4660000000000082,7.0927978515625005,1.0555755615234377,7.517181396484376
1.475999999999999,6.254348754882813,0.025421142578125,7.56533203125
1.48599999999999,5.990866088867188,-0.9012542724609376,7.05631103515625
1.495999999999981,6.609197998046875,-1.7338714599609375,7.308428955078125
1.5060000000000855,7.415646362304688,-1.9406799316406247,6.873577880859376
1.5160000000000764,7.371234130859375,-1.4635101318359376,6.244628906250001
1.5260000000000673,7.334896850585938,-0.5994903564453126,5.644989013671875
1.5360000000000582,7.437179565429688,-0.0127105712890625,5.81217041015625
1.5460000000000491,7.521667480468751,0.4012054443359375,6.593496704101563
1.55600000000004,6.960308837890626,0.6736602783203125,7.165322875976563
1.566000000000031,5.885144042968751,0.9136657714843752,7.723989868164063
1.5760000000000147,5.62315673828125,0.9266754150390626,8.246020507812501
1.5860000000000127,6.0330352783203125,0.5476013183593751,8.144485473632812
1.5960000000000036,6.961505126953125,0.0838897705078125,7.252352905273438
1.6060000000000016,7.230819702148438,-0.3665130615234375,6.0405120849609375
1.6159999999999854,7.54439697265625,-0.6805389404296875,5.7055511474609375
1.6259999999999764,7.516732788085938,-0.8519073486328126,6.306536865234375
1.636000000000081,7.115078735351563,-0.94447021484375,6.87926025390625
1.646000000000079,6.598281860351563,-0.9721343994140624,7.105358886718751
1.65600000000007,6.585571289062501,-0.974676513671875,6.873577880859376
1.6660000000000537,6.716564941406251,-0.7783355712890626,7.089508056640626
1.6760000000000446,6.373529052734376,-0.0677398681640625,7.098928833007813
1.6860000000000357,6.644638061523438,0.9380401611328124,7.1191162109375
1.6960000000000264,6.593496704101563,1.4910247802734375,6.746173095703125
1.7060000000000173,8.305685424804688,1.849313354492188,6.573010253906251
1.7160000000000082,7.781561279296875,1.6230651855468752,6.415548706054688
1.725999999999999,6.443661499023438,0.8339630126953126,6.419735717773438
1.73599999999999,5.582931518554688,-0.241351318359375,7.540658569335938
1.745999999999981,5.906378173828125,-1.5822418212890623,8.39615478515625
1.7560000000000855,7.079489135742188,-2.530450439453125,7.843319702148438
1.7660000000000764,7.427310180664063,-2.4670471191406254,6.300704956054688
1.7760000000000673,6.972720336914063,-1.1086608886718752,5.7354583740234375
1.7860000000000582,6.899746704101563,0.4104766845703125,6.529495239257813
1.7960000000000491,7.79801025390625,1.2834686279296876,6.604562377929688
1.80600000000004,7.508358764648438,1.2453369140625,6.388333129882813
1.8150000000000543,6.496896362304688,1.1242126464843751,6.527401733398438
1.8250000000000453,5.5041259765625,1.093408203125,7.984481811523438
1.8350000000000364,6.061895751953125,0.5079742431640626,9.1097412109375
1.8450000000000275,6.738098144531251,-0.5639007568359375,7.664773559570313
1.8550000000000184,7.310372924804688,-1.2405517578125,5.559304809570313
1.865000000000009,7.10655517578125,-1.2601409912109376,5.447152709960938
1.875,7.371084594726563,-0.8782257080078125,6.558654785156251
1.884999999999991,7.696475219726563,-0.675604248046875,7.278372192382813
1.8949999999999816,6.959561157226563,-0.4373931884765625,6.6609375
1.9050000000000864,5.99161376953125,0.145648193359375,6.358276367187501
1.9150000000000773,5.993258666992188,0.7212127685546875,7.9469482421875
1.925000000000068,6.779818725585938,1.1396148681640623,8.39615478515625
1.9350000000000591,6.463250732421876,1.0160980224609375,7.450189208984375
1.94500000000005,7.227081298828126,0.410028076171875,5.3661041259765625
1.955000000000041,7.615426635742188,-0.2980255126953125,5.700466918945313
1.965000000000032,7.580136108398438,-0.6047241210937501,6.971673583984376
1.9750000000000227,6.180178833007813,-0.7520172119140626,7.971920776367188
1.9850000000000136,5.9730712890625,-0.858038330078125,7.342224121093751
1.9950000000000043,6.839184570312501,-1.099090576171875,6.402090454101563
2.0049999999999955,7.701260375976563,-1.0277618408203126,6.409866333007813
2.0149999999999864,7.578491210937501,-0.1182830810546875,6.430502319335938
2.0249999999999773,6.60172119140625,0.7322784423828126,7.057806396484375
2.0350000000000747,6.2210021972656255,1.039126586914063,6.856979370117188
2.04500000000008,6.972421264648438,0.6703704833984375,7.113882446289063
2.0550000000000708,6.941018676757813,0.271856689453125,7.0832275390625
2.0650000000000546,6.588711547851563,-0.03050537109375,6.920980834960938
2.075000000000045,6.282312011718751,-0.5179931640625001,7.197024536132813
2.0850000000000364,6.817202758789063,-0.9582275390625,7.011599731445313
2.095000000000028,7.533181762695313,-0.9520965576171876,7.197024536132813
2.105000000000018,6.764117431640625,-0.3587371826171875,6.406875610351563
2.115000000000009,6.975860595703126,0.0426177978515625,6.249862670898438
2.125,7.356579589843751,0.288006591796875,6.876119995117188
2.134999999999991,6.9061767578125,0.6077148437500001,7.080087280273438
2.144999999999982,6.092401123046876,0.8421875000000001,7.646530151367188
2.1550000000000864,6.350051879882813,0.4658050537109375,7.013394165039063
2.1650000000000773,7.243081665039063,-0.200079345703125,7.122256469726563
2.175000000000068,7.2019592285156255,-0.47313232421875,6.735556030273438
2.185000000000059,6.766360473632813,-0.4260284423828125,6.599777221679688
2.19500000000005,6.765164184570313,-0.569732666015625,6.554168701171876
2.205000000000041,7.325177001953126,-0.7285400390625001,6.630581665039063
2.215000000000032,7.015637207031251,-0.3599334716796875,7.304690551757813
2.2250000000000227,6.172702026367188,0.3964202880859375,7.260577392578125
2.2350000000000136,6.180776977539063,0.7651763916015626,7.492208862304688
2.2450000000000045,7.115078735351563,0.5875274658203126,6.856530761718751
2.2549999999999955,7.576995849609376,0.32120361328125,6.577346801757813
2.2649999999999864,6.815707397460938,0.17705078125,6.415847778320313
2.2749999999999773,6.540411376953125,-0.136376953125,6.737649536132813
2.2850000000000747,6.813912963867188,-0.7478302001953125,7.390673828125
2.29500000000008,7.108798217773438,-1.129296875,7.018627929687501
2.3050000000000708,6.672302246093751,-0.9147125244140626,6.7985107421875
2.314000000000078,6.564187622070313,-0.440234375,6.528747558593751
2.324000000000069,7.032086181640626,0.0131591796875,6.989169311523438
2.33400000000006,7.234259033203125,0.349615478515625,6.936083984375
2.345000000000028,6.900942993164063,0.695343017578125,6.716415405273438
2.354000000000049,6.545645141601563,0.76502685546875,6.772341918945313
2.36400000000004,6.666470336914063,0.5076751708984375,7.1813232421875
2.374000000000024,6.823184204101563,-0.0142059326171875,7.461254882812501
2.3840000000000146,6.804193115234376,-0.4270751953125,7.038516235351563
2.394000000000005,6.5664306640625005,-0.684576416015625,6.6337219238281255
2.4039999999999964,6.993356323242188,-0.7970275878906251,6.633273315429688
2.413999999999988,7.274334716796876,-0.60831298828125,6.961953735351563
2.423999999999978,7.018777465820313,-0.2968292236328125,6.730471801757813
2.4340000000000828,6.7482666015625,0.1203765869140625,6.582131958007813
2.4440000000000808,6.794772338867188,0.2510711669921875,6.552374267578125
2.454000000000072,6.7413879394531255,0.35709228515625,7.250408935546876
2.4640000000000555,6.602468872070313,0.304156494140625,7.178631591796876
2.4740000000000464,6.170159912109376,0.0674407958984375,7.3727294921875
2.4840000000000373,7.228726196289063,-0.264080810546875,6.827371215820313
2.494000000000028,7.524508666992188,-0.32598876953125,6.896008300781251
2.504000000000019,7.079638671875,-0.3046051025390625,6.196777343750001
2.51400000000001,6.749014282226563,-0.2130889892578125,6.624301147460938
2.524000000000001,6.373977661132813,-0.0650482177734375,7.051077270507813
2.533999999999999,6.756192016601563,-0.0554779052734375,7.630380249023438
2.54399999999999,7.242333984375,-0.124713134765625,7.026553344726563
2.554000000000088,6.682321166992188,0.0322998046875,6.636712646484376
2.564000000000078,6.55985107421875,0.4969085693359375,6.995001220703125
2.574000000000069,6.547738647460938,0.563751220703125,7.196875
2.58400000000006,7.409963989257813,0.0602630615234375,6.911260986328125
2.594000000000051,7.495050048828125,-0.5573211669921876,6.0544189453125
2.604000000000049,6.742135620117188,-0.6395660400390626,6.415249633789063
2.61400000000004,6.332406616210938,-0.40673828125,7.392019653320313
2.624000000000024,6.719406127929688,-0.444122314453125,7.850796508789063
2.6340000000000146,7.115975952148438,-0.4771697998046875,6.856680297851563
2.644000000000005,7.012945556640625,-0.2097991943359375,6.079690551757813
2.6539999999999964,6.5858703613281255,0.361578369140625,6.477307128906251
2.663999999999988,6.948345947265626,0.6889129638671876,7.447946166992188
2.673999999999978,7.110443115234376,0.482403564453125,7.5162841796875
2.6840000000000828,6.55087890625,0.209051513671875,6.646731567382813
2.6940000000000808,6.256292724609375,0.05203857421875,6.719854736328125
2.704000000000072,6.572113037109376,-0.1093109130859375,7.563088989257813
2.7140000000000555,7.041357421875,-0.3935791015625,7.701858520507813
2.7240000000000464,6.977355957031251,-0.6017333984375001,6.529196166992188
2.7340000000000373,7.303643798828125,-0.7131378173828126,5.456573486328125
2.744000000000028,7.315606689453125,-0.6249114990234376,6.193338012695313
2.754000000000019,7.366448974609375,-0.2902496337890625,7.114331054687501
2.76400000000001,6.512149047851563,0.0734222412109375,7.680624389648438
2.773000000000025,6.123654174804688,0.268267822265625,6.983486938476563
2.783999999999999,6.427960205078126,0.268267822265625,6.963449096679688
2.79399999999999,7.041058349609376,0.3440826416015625,7.40263671875
2.804000000000088,6.976159667968751,0.4990020751953125,7.283157348632813
2.814000000000078,6.519924926757813,0.2956329345703125,6.6471801757812505
2.824000000000069,6.965692138671876,-0.2986236572265625,5.856283569335938
2.83400000000006,7.672549438476563,-0.9812561035156252,6.2643676757812505
2.8430000000000817,7.213174438476563,-1.3005157470703126,6.791333007812501
2.853000000000065,6.330313110351563,-1.09879150390625,7.3703369140625
2.8630000000000564,6.451885986328126,-0.3853546142578125,7.78604736328125
2.873000000000048,6.5066162109375005,0.369354248046875,7.285101318359375
2.883000000000038,6.855783081054688,0.902001953125,6.78714599609375
2.893000000000029,7.294372558593751,1.2520660400390626,6.512896728515625
2.90300000000002,6.985879516601563,1.2984222412109376,6.689947509765625
2.913000000000011,6.747817993164063,0.7825225830078125,6.899896240234376
2.9229999999999947,6.862213134765626,-0.271856689453125,6.963299560546876
2.933,6.990365600585938,-1.165185546875,7.089956665039063
2.9429999999999907,6.5090087890625,-1.3573394775390626,7.193734741210938
2.953000000000088,6.5499816894531255,-1.1310913085937502,7.083676147460938
2.963000000000079,7.033581542968751,-0.8538513183593751,6.667666625976563
2.97300000000007,7.40921630859375,-0.26796875,6.425717163085938
2.983000000000061,6.968533325195313,0.7079040527343751,6.690545654296876
2.9930000000000447,6.50302734375,1.4416778564453123,7.143939208984375
3.0030000000000427,6.639553833007813,1.350161743164063,7.29796142578125
3.0130000000000408,6.940121459960938,0.7464843750000001,7.142742919921876
3.023000000000025,6.743481445312501,0.0973480224609375,6.913803100585938
3.0330000000000155,6.326425170898438,-0.4634124755859375,7.117172241210938
3.0430000000000064,6.710134887695313,-1.0995391845703126,7.155752563476563
3.0529999999999973,7.120611572265625,-1.4232849121093751,7.095040893554688
3.062999999999988,6.848605346679688,-1.1472412109375,6.584674072265625
3.072999999999979,6.729125976562501,-0.372943115234375,6.6576477050781255
3.083000000000084,6.808529663085938,0.331671142578125,6.744229125976563
3.0930000000000817,7.513442993164063,0.5993408203125,6.39835205078125
3.103000000000065,7.8871337890625,0.4466644287109375,5.983538818359375
3.1130000000000564,7.266708374023438,0.1792938232421875,6.0209228515625
3.123000000000048,6.0236145019531255,0.1981353759765625,7.644287109375001
3.133000000000038,5.542257690429688,0.1176849365234375,8.697320556640626
3.143000000000029,5.998791503906251,-0.2450897216796875,8.474063110351564
3.15300000000002,7.067376708984376,-0.6902587890625,6.322537231445313
3.163000000000011,7.786346435546876,-0.7038665771484376,5.611492919921876
3.1729999999999947,7.435833740234376,-0.151031494140625,5.886788940429688
3.183,6.988870239257813,0.3503631591796875,7.069021606445313
3.1929999999999907,6.725836181640625,0.2597442626953125,7.251904296875001
3.203000000000088,7.043301391601563,-0.1562652587890625,6.457717895507813
3.213000000000079,6.334201049804688,-0.439337158203125,6.676788330078126
3.22300000000007,6.591702270507813,-0.3153717041015625,7.270895385742188
3.233000000000061,6.437530517578126,-0.1721160888671875,8.00556640625
3.2430000000000447,6.937130737304688,-0.333465576171875,6.986178588867188
3.2530000000000427,7.5796875,-0.301165771484375,5.924472045898438
3.2630000000000408,7.074105834960938,0.0527862548828125,6.204254150390626
3.273000000000025,7.056161499023438,0.374737548828125,6.835745239257813
3.2830000000000155,6.667068481445313,0.3392974853515625,7.716812133789063
3.2930000000000064,6.353640747070313,0.1601531982421875,7.269100952148438
3.302000000000021,6.253302001953125,0.1224700927734375,7.152911376953125
3.312999999999988,6.694882202148438,0.0773101806640625,7.254895019531251
3.3220000000000027,7.514340209960938,-0.0162994384765625,7.037918090820313
3.3320000000000007,7.1430419921875,-0.1335357666015625,6.39775390625
3.3430000000000817,6.885690307617188,-0.2356689453125,5.915051269531251
3.352000000000089,7.065731811523438,-0.4580291748046875,6.633572387695313
3.36200000000008,7.015338134765625,-0.6329864501953125,7.25968017578125
3.372000000000071,6.627291870117188,-0.4257293701171875,7.6813720703125
3.382000000000062,6.033334350585938,-0.064599609375,7.114031982421875
3.3920000000000528,6.606655883789063,0.2259490966796875,7.0030761718750005
3.402000000000044,7.464096069335938,0.32239990234375,6.69981689453125
3.4120000000000417,7.384243774414063,0.395672607421875,6.533831787109375
3.422000000000025,6.707742309570313,0.4493560791015625,6.461755371093751
3.4320000000000164,6.6217590332031255,0.16568603515625,6.939822387695313
3.442000000000008,6.648675537109376,-0.212042236328125,7.625894165039063
3.451999999999998,6.519775390625001,-0.50244140625,7.446301269531251
3.461999999999989,6.45218505859375,-0.4936187744140625,7.25609130859375
3.47199999999998,6.646282958984376,-0.3871490478515625,6.7087890625
3.4820000000000846,7.070965576171876,-0.1523773193359375,6.845764160156251
3.4920000000000755,7.256539916992188,0.0321502685546875,6.536972045898438
3.5020000000000664,7.313812255859376,0.131591796875,6.240890502929688
3.5120000000000573,7.268951416015626,-0.063702392578125,6.1022705078125
3.522000000000048,7.2617736816406255,-0.371148681640625,6.524710083007813
3.532000000000039,6.571664428710938,-0.363970947265625,7.490414428710938
3.54200000000003,5.959463500976563,-0.1724151611328125,7.890573120117188
3.552000000000021,6.071017456054688,0.000897216796875,7.835244750976563
3.562000000000012,6.9701782226562505,-0.029010009765625,6.793426513671876
3.5720000000000027,7.451235961914063,0.133685302734375,6.412258911132813
3.5820000000000007,7.150219726562501,0.4122711181640625,6.234909057617188
3.591999999999992,6.870736694335938,0.50064697265625,6.769650268554688
3.602000000000089,6.9133544921875005,-0.01734619140625,6.8176513671875005
3.61200000000008,7.015936279296875,-0.713287353515625,6.665274047851563
3.622000000000071,6.904232788085938,-1.059912109375,6.58018798828125
3.632000000000062,6.528448486328125,-1.102081298828125,7.030441284179688
3.6420000000000528,6.235955810546876,-0.8481689453125001,7.465740966796876
3.652000000000044,7.195678710937501,-0.2645294189453125,7.559948730468751
3.6620000000000417,6.9686828613281255,0.5565734863281251,6.904681396484375
3.6720000000000255,6.8744750976562505,1.2012237548828126,6.048287963867188
3.682000000000016,7.204351806640625,1.4093780517578125,6.791333007812501
3.6920000000000073,6.903634643554688,1.1415588378906252,7.127639770507813
3.701999999999998,6.431100463867188,0.509320068359375,7.482489013671875
3.711999999999989,6.413754272460938,-0.509320068359375,7.026104736328126
3.72199999999998,7.292129516601563,-1.48878173828125,6.701013183593751
3.7320000000000846,7.034628295898438,-1.60721435546875,6.993505859375
3.742000000000076,6.796417236328126,-1.0857818603515623,6.630581665039063
3.7520000000000655,6.643142700195313,-0.5209838867187501,6.763668823242188
3.762000000000057,7.313363647460938,-0.086431884765625,6.377566528320313
3.772000000000048,7.177435302734375,0.7393066406250001,7.1974731445312505
3.782000000000039,6.172253417968751,1.6498321533203126,7.438973999023438
3.79200000000003,6.172851562500001,1.7231048583984376,7.44869384765625
3.802000000000021,6.869989013671876,0.8525054931640625,7.101919555664063
3.812000000000012,7.330261230468751,-0.17525634765625,6.573309326171875
3.8210000000000255,6.8044921875,-0.80689697265625,6.903485107421876
3.831000000000017,6.336444091796875,-1.2170745849609377,6.960906982421876
3.841000000000008,6.780865478515626,-1.532595825195313,7.311868286132813
3.850999999999999,7.205697631835938,-1.4312103271484375,6.871035766601563
3.86099999999999,6.85234375,-0.6258087158203125,6.543402099609375
3.870999999999981,6.5604492187500005,0.461767578125,6.701910400390625
3.8810000000000855,7.127041625976563,1.0863800048828125,6.5544677734375005
3.891000000000077,7.748065185546875,0.96959228515625,6.3654541015625
3.9010000000000673,7.703353881835938,0.444720458984375,5.8565826416015625
3.911000000000058,6.558953857421876,0.1574615478515625,6.964047241210938
3.921000000000049,5.395712280273438,-0.0010467529296875,8.339630126953125
3.93100000000004,5.670260620117188,-0.401654052734375,8.977252197265626
3.941000000000031,6.706097412109376,-0.9272735595703124,7.374374389648438
3.951000000000015,7.821337890625,-1.0783050537109375,5.29716796875
3.9610000000000127,7.745373535156251,-0.6255096435546875,5.391824340820313
3.971000000000004,7.358822631835938,0.2011260986328125,6.323883056640626
3.9810000000000016,6.767407226562501,0.5612091064453125,7.484732055664063
3.9909999999999854,6.753500366210938,0.37025146484375,7.014590454101563
4.000999999999976,6.6935363769531255,-0.0620574951171875,6.491812133789063
4.011000000000081,6.192141723632813,-0.2500244140625,7.070965576171876
4.021000000000079,6.514242553710938,-0.0490478515625,7.895956420898438
4.03100000000007,6.342724609375001,-0.27095947265625,7.709484863281251
4.041000000000054,7.382748413085938,-0.6015838623046875,6.343771362304688
4.051000000000045,7.997940063476563,-0.6105560302734375,5.683718872070313
4.061000000000036,7.114031982421875,-0.01854248046875,6.143692016601563
4.071000000000026,6.845614624023438,0.3126800537109375,7.231716918945313
4.081000000000017,6.333303833007813,0.2755950927734375,7.710531616210938
4.091000000000008,6.124551391601563,0.31163330078125,7.5701171875
4.100999999999999,6.283059692382813,0.43724365234375,7.475460815429688
4.11099999999999,6.976757812500001,0.4592254638671875,7.060348510742188
4.120999999999981,7.644137573242188,0.10228271484375,6.630731201171876
4.1310000000000855,7.365103149414063,-0.136676025390625,5.759234619140625
4.141000000000076,6.8140625,-0.3979156494140625,6.213824462890625
4.151000000000067,7.024310302734375,-0.8016632080078125,7.0616943359375
4.161000000000058,6.858175659179688,-0.9867889404296876,7.578491210937501
4.171000000000049,6.23087158203125,-0.62027587890625,7.682717895507813
4.18100000000004,6.050531005859376,0.0287109375,6.98453369140625
4.191000000000031,6.978402709960938,0.42767333984375,6.9806457519531255
4.201000000000015,7.823132324218751,0.5670410156250001,6.297863769531251
4.211000000000013,7.256390380859376,0.6709686279296876,6.322387695312501
4.221000000000004,6.556411743164063,0.6223693847656251,6.587216186523438
4.231000000000002,6.438876342773438,0.228192138671875,7.475311279296876
4.2409999999999854,6.431100463867188,-0.3668121337890625,7.924816894531251
4.250999999999976,6.479998779296875,-0.7448394775390625,7.432693481445313
4.261000000000081,6.609048461914063,-0.7209136962890625,6.935934448242188
4.271000000000079,6.8463623046875,-0.478216552734375,6.481195068359376
4.28100000000007,7.303344726562501,-0.189312744140625,6.708489990234376
4.291000000000054,7.495050048828125,-0.008673095703125,6.223245239257813
4.301000000000045,7.431796264648438,0.11304931640625,6.12200927734375
4.311000000000036,6.915298461914063,-0.012860107421875,6.198721313476563
4.32000000000005,6.919186401367188,-0.200677490234375,7.1430419921875
4.330000000000041,6.382650756835938,-0.2083038330078125,7.959808349609376
4.340000000000032,6.019427490234375,-0.085235595703125,7.828814697265625
4.350000000000023,6.191693115234376,0.090020751953125,7.366598510742188
4.360000000000014,7.041656494140626,0.094805908203125,6.6382080078125005
4.3700000000000045,7.61617431640625,0.208453369140625,6.416146850585938
4.379999999999996,7.284054565429688,0.2154815673828125,6.241937255859376
4.391000000000076,6.945205688476563,0.1232177734375,6.507662963867188
4.399999999999977,6.75125732421875,-0.26378173828125,6.852194213867188
4.410000000000075,6.720452880859376,-0.71717529296875,7.194183349609376
4.42000000000008,6.690246582031251,-0.8679077148437501,6.916793823242188
4.430000000000071,6.836492919921875,-0.9760223388671876,6.654058837890625
4.440000000000055,6.617422485351563,-0.789251708984375,6.854437255859375
4.4500000000000455,7.0404602050781255,-0.3165679931640625,7.224688720703125
4.460000000000036,7.332803344726563,0.585882568359375,7.551425170898438
4.470000000000027,6.584225463867188,1.3000671386718752,6.412857055664063
4.480000000000018,6.463699340820313,1.262982177734375,6.619216918945313
4.4909999999999854,7.195828247070313,0.8676086425781251,6.896755981445313
4.5,6.730471801757813,0.406439208984375,7.709783935546875
4.509999999999991,6.530691528320313,-0.212042236328125,7.345214843750001
4.519999999999982,6.677984619140625,-1.1065673828125,6.39835205078125
4.530000000000086,7.37691650390625,-1.4955108642578123,6.701910400390625
4.540000000000077,7.205099487304688,-1.0714263916015625,6.628189086914063
4.550000000000068,6.609347534179688,-0.5042358398437501,6.922476196289063
4.560000000000059,7.0404602050781255,-0.050543212890625,6.593646240234375
4.57000000000005,6.788192749023438,0.3919342041015625,6.9268127441406255
4.580000000000041,6.564337158203125,1.206158447265625,7.641146850585938
4.591000000000008,6.317901611328126,1.4850433349609375,7.450637817382813
4.600000000000023,6.661834716796876,0.9658538818359376,7.093545532226563
4.610000000000014,7.380355834960938,0.0671417236328125,6.218161010742188
4.6200000000000045,7.071414184570313,-0.5740692138671876,6.702957153320313
4.629999999999996,6.5305419921875005,-0.8797210693359375,7.005169677734376
4.639999999999986,6.4782043457031255,-1.2927398681640625,7.422525024414063
4.649999999999977,6.97257080078125,-1.3734893798828125,6.974215698242188
4.660000000000075,6.987374877929688,-0.9093292236328124,6.545645141601563
4.67000000000008,6.892718505859375,-0.0162994384765625,6.649871826171876
4.680000000000071,7.028347778320313,0.7502227783203126,6.618469238281251
4.691000000000031,7.165472412109375,0.9018524169921877,6.762771606445313
4.7000000000000455,7.191790771484375,0.8088409423828126,6.406576538085938
4.710000000000036,6.561645507812501,0.4990020751953125,6.992309570312501
4.720000000000027,6.382202148437501,0.1182830810546875,7.52286376953125
4.730000000000018,6.428707885742188,-0.3596343994140625,7.908517456054688
4.740000000000009,6.461306762695313,-0.77998046875,7.22977294921875
4.75,6.9516357421875,-0.8402435302734376,6.481344604492188
4.759999999999991,7.276577758789063,-0.7393066406250001,6.229226684570313
4.769999999999982,7.638754272460938,-0.381317138671875,6.274984741210938
4.780000000000086,7.217510986328126,-0.097198486328125,6.479849243164063
4.791000000000054,6.821240234375001,0.1918548583984375,6.6352172851562505
4.800000000000068,6.474316406250001,0.3485687255859375,7.216763305664063
4.810000000000059,6.365155029296876,0.3069976806640625,7.628436279296875
4.819000000000081,6.1118408203125005,0.3165679931640625,7.709634399414063
4.829000000000072,6.666320800781251,0.0979461669921875,7.025057983398438
4.839000000000056,6.672601318359376,-0.174658203125,6.632974243164063
4.849000000000046,7.744625854492188,-0.5275634765625,6.323284912109376
4.859000000000037,8.03726806640625,-0.46954345703125,6.492709350585938
4.869000000000028,6.892419433593751,-0.4140655517578125,6.051577758789063
4.879000000000019,6.501232910156251,-0.3982147216796875,6.9001953125
4.891000000000076,6.304144287109375,-0.141461181640625,7.600473022460938
4.899000000000001,6.189898681640625,0.184228515625,8.383444213867188
4.908999999999999,6.764715576171875,0.4581787109375,7.2865966796875
4.91899999999999,6.970626831054688,0.4284210205078125,6.236105346679688
4.929000000000087,7.412954711914063,0.544012451171875,6.2338623046875
4.939000000000078,7.242782592773438,0.5254699707031251,6.531439208984375
4.949000000000069,6.839483642578125,-0.0270660400390625,7.051824951171875
4.95900000000006,7.060498046875001,-0.7789337158203126,6.676638793945313
4.969000000000051,6.474017333984375,-1.1862701416015626,7.072610473632813
4.979000000000049,6.339285278320313,-0.76383056640625,7.590304565429688
4.9909999999999854,6.416146850585938,-0.3361572265625,7.601071166992188
4.999000000000024,7.159939575195313,-0.124114990234375,6.682321166992188
5.009000000000015,7.791281127929688,0.1182830810546875,5.568426513671875
5.0190000000000055,7.129733276367188,0.5004974365234376,6.117672729492188
5.028999999999996,6.726434326171876,0.8036071777343751,7.057806396484375
5.038999999999987,6.435137939453125,0.5154510498046876,8.017379760742188
5.048999999999978,6.310125732421875,0.1009368896484375,7.6715026855468755
5.059000000000083,6.234609985351563,-0.22490234375,7.069470214843751
5.069000000000081,6.458016967773438,-0.3075958251953125,7.191192626953126
5.079000000000072,7.276129150390625,-0.3019134521484375,6.982589721679688
5.090000000000032,7.264465332031251,-0.4038970947265625,6.631179809570313
5.099000000000046,7.291381835937501,-0.4209442138671875,5.637213134765625
5.109000000000037,7.271792602539063,-0.41331787109375,6.209188842773438
5.119000000000028,7.200613403320313,-0.4302154541015625,6.635964965820313
5.129000000000019,6.998440551757813,-0.335858154296875,7.33145751953125
5.13900000000001,6.31162109375,-0.252716064453125,7.153808593750001
5.149000000000001,6.198721313476563,0.0803009033203125,7.313662719726563
5.158999999999999,6.397305297851563,0.4565338134765625,7.7292236328125
5.16899999999999,6.802548217773438,0.7056610107421876,7.42476806640625
5.179000000000087,7.068722534179688,0.6313415527343751,6.6429931640625
5.191000000000031,7.221697998046875,0.256304931640625,5.866751098632813
5.199000000000069,7.279718017578125,-0.1242645263671875,6.367547607421876
5.20900000000006,6.934439086914063,-0.58917236328125,6.9387756347656255
5.219000000000051,6.6337219238281255,-0.910076904296875,7.205398559570313
5.229000000000049,6.772042846679688,-1.2254486083984375,6.696975708007813
5.23900000000004,6.907073974609376,-1.2640289306640626,6.590057373046876
5.249000000000024,6.6920410156250005,-0.6361267089843751,7.207342529296875
5.259000000000015,6.893765258789063,0.4140655517578125,7.621109008789063
5.2690000000000055,6.244479370117188,1.30694580078125,7.342074584960938
5.278999999999996,6.875372314453125,1.24892578125,6.3241821289062505
5.291000000000054,7.574453735351563,0.9585266113281252,6.559701538085938
5.298999999999978,7.126892089843751,0.6264068603515626,6.863558959960938
5.309000000000083,6.3152099609375005,0.1269561767578125,7.386038208007813
5.317999999999991,6.483737182617188,-0.8178131103515626,7.0643859863281255
5.328000000000088,7.132125854492188,-1.6326354980468751,6.877166748046876
5.338000000000079,7.168463134765625,-1.4642578125,6.815856933593751
5.349000000000046,6.634918212890626,-0.7509704589843751,6.796267700195313
5.358000000000061,6.921429443359376,-0.045159912109375,6.787594604492188
5.368000000000045,7.220950317382813,0.3620269775390625,6.531887817382813
5.378000000000043,7.00546875,0.9184509277343752,6.990963745117188
5.38900000000001,6.428109741210938,1.3459747314453123,7.112686157226563
5.399000000000001,6.345266723632813,1.122418212890625,7.61617431640625
5.408000000000016,6.879110717773438,0.39537353515625,7.083526611328126
5.418000000000006,6.958514404296875,-0.3988128662109375,6.898699951171875
5.427999999999997,6.706546020507813,-0.7403533935546875,6.738995361328126
5.437999999999988,6.624151611328125,-0.968994140625,6.904083251953126
5.447999999999979,7.072012329101563,-1.1668304443359376,6.987673950195313
5.458000000000084,7.396505737304688,-1.1002868652343751,6.29666748046875
5.468000000000082,7.185211181640626,-0.6015838623046875,6.286499023437501
5.4780000000000655,6.809725952148438,0.066094970703125,6.386688232421876
5.488000000000056,6.866101074218751,0.47073974609375,7.264465332031251
5.498000000000047,6.86490478515625,0.634033203125,7.269549560546875
5.508000000000038,6.376968383789063,0.7660736083984375,7.300503540039063
5.518000000000029,6.242236328125,0.7253997802734375,7.203305053710938
5.52800000000002,6.6788818359375,0.4233367919921875,7.422375488281251
5.538000000000011,7.035974121093751,-0.055029296875,7.120013427734375
5.547999999999995,7.060647583007813,-0.4379913330078125,6.490765380859376
5.558,6.874325561523438,-0.7541107177734375,6.180477905273438
5.567999999999991,7.260278320312499,-0.8957214355468751,6.612039184570313
5.578000000000088,7.162481689453125,-0.8824127197265625,6.923822021484376
5.588000000000079,6.9372802734375005,-0.6196777343750001,6.868194580078126
5.59800000000007,6.606655883789063,-0.155517578125,6.623703002929688
5.608000000000061,6.429006958007813,0.2062103271484375,6.890625000000001
5.618000000000045,6.85294189453125,0.5374328613281251,7.294223022460938
5.628000000000043,6.5951416015625,0.493170166015625,7.32607421875
5.638000000000041,6.926065063476563,0.4233367919921875,7.049432373046876
5.648000000000025,7.063189697265625,0.37144775390625,6.831259155273438
5.658000000000016,6.963150024414063,0.1003387451171875,6.667965698242188
5.668000000000006,7.030889892578125,-0.37802734375,6.529196166992188
5.677999999999997,6.718807983398438,-0.7355682373046876,6.869241333007813
5.687999999999988,6.595889282226563,-0.6841278076171875,7.393515014648438
5.697999999999979,6.647628784179688,-0.5677886962890626,7.249362182617188
5.708000000000084,7.046890258789063,-0.3037078857421875,7.049282836914063
5.718000000000082,6.988571166992188,0.1782470703125,6.55028076171875
5.7280000000000655,6.816156005859376,0.7992706298828126,6.755294799804688
5.738000000000056,6.884045410156251,0.8782257080078125,6.846063232421876
5.748000000000047,7.2830078125,0.3198577880859375,6.673348999023438
5.758000000000038,7.0225158691406255,-0.183929443359375,6.790585327148438
5.768000000000029,6.186758422851563,-0.3835601806640625,7.173397827148438
5.77800000000002,6.3558837890625,-0.5390777587890625,7.683914184570313
5.788000000000011,6.972122192382813,-0.8471221923828126,7.165472412109375
5.797999999999995,7.445404052734376,-0.8006164550781251,6.313265991210938
5.808,7.106854248046876,-0.292193603515625,6.067727661132813
5.817999999999991,6.733761596679688,0.344830322265625,6.641647338867188
5.826999999999998,6.887036132812501,0.5929107666015625,7.437927246093751
5.836999999999989,6.893316650390625,0.475823974609375,7.319644165039063
5.84699999999998,6.40732421875,0.4027008056640625,6.931747436523438
5.857000000000085,6.085971069335938,0.30325927734375,7.179229736328126
5.867000000000076,6.697573852539063,0.0659454345703125,7.606155395507813
5.877000000000066,7.0763488769531255,-0.318511962890625,7.260577392578125
5.887000000000057,7.088461303710938,-0.6253601074218751,6.069223022460938
5.897000000000048,7.325177001953126,-0.7337738037109376,5.777777099609375
5.907000000000039,7.511648559570313,-0.8076446533203125,6.283657836914063
5.91700000000003,7.267904663085938,-0.6015838623046875,7.063937377929688
5.927000000000021,6.339434814453125,-0.189013671875,7.238446044921876
5.937000000000012,6.090756225585938,0.1828826904296875,7.214370727539063
5.947000000000003,6.544448852539063,0.3641204833984375,7.348654174804688
5.957000000000001,7.149322509765626,0.5298065185546875,7.411758422851563
5.966999999999992,6.828567504882813,0.7467834472656251,7.004272460937501
5.977000000000089,6.5200744628906255,0.5857330322265626,6.441867065429688
5.98700000000008,7.064086914062501,0.1102081298828125,6.569271850585938
5.997000000000071,7.276428222656251,-0.6388183593750001,6.630432128906251
6.007000000000062,7.146182250976563,-1.0821929931640626,6.630731201171876
6.017000000000053,6.858474731445313,-1.3280303955078123,6.354687500000001
6.027000000000044,6.5305419921875005,-1.362274169921875,6.93369140625
6.037000000000042,6.704602050781251,-0.7838684082031251,7.5043212890625
6.0470000000000255,6.776229858398438,0.3246429443359375,7.960406494140625
6.057000000000016,6.492559814453125,1.225,6.82303466796875
6.067000000000007,7.290484619140625,1.3995086669921877,6.187506103515625
6.076999999999998,7.552920532226563,1.341189575195313,6.503176879882813
6.086999999999989,6.667068481445313,1.0413696289062502,6.985879516601563
6.09699999999998,6.259732055664063,0.24105224609375,7.60361328125
6.107000000000085,6.607553100585938,-1.0836883544921876,6.926364135742188
6.117000000000076,7.248016357421876,-1.9305114746093752,7.120013427734375
6.127000000000066,6.863259887695313,-1.5765594482421876,6.852792358398438
6.137000000000057,6.477008056640625,-0.7571014404296875,6.8535400390625005
6.147000000000048,7.147528076171875,-0.218023681640625,6.507363891601563
6.157000000000039,7.620809936523438,0.2546600341796875,6.240890502929688
6.16700000000003,6.9791503906250005,1.146942138671875,7.102966308593751
6.177000000000021,6.039166259765626,1.777835083007813,7.326522827148438
6.187000000000012,6.266162109375,1.3648162841796876,7.7615234375
6.197000000000003,7.009506225585938,0.301165771484375,7.059002685546876
6.207000000000001,6.93070068359375,-0.5420684814453125,6.825875854492188
6.216999999999992,6.602020263671876,-0.9292175292968752,6.757986450195313
6.227000000000089,6.625946044921876,-1.2517669677734375,7.034030151367188
6.23700000000008,7.182669067382813,-1.398013305664063,7.031488037109376
6.247000000000071,7.171005249023438,-0.9963592529296876,6.613983154296876
6.257000000000062,6.650320434570313,-0.04306640625,6.623852539062501
6.267000000000053,6.433642578125,0.7484283447265625,6.819296264648438
6.277000000000044,7.414599609375,0.9177032470703126,6.755892944335938
6.287000000000042,7.90029296875,0.528759765625,6.185263061523438
6.2970000000000255,7.280764770507813,0.07237548828125,5.984735107421876
6.307000000000016,6.089260864257813,-0.0213836669921875,7.351943969726563
6.317000000000007,5.562145996093751,-0.1254608154296875,8.616720581054688
6.326999999999998,6.168365478515626,-0.467449951171875,8.516381835937501
6.336999999999989,7.097134399414063,-0.8312713623046876,6.318798828125001
6.346000000000004,7.810272216796876,-0.7651763916015626,5.3227386474609375
6.356000000000002,7.438375854492188,-0.1308441162109375,5.925967407226563
6.3659999999999854,7.103863525390626,0.4804595947265625,7.076797485351563
6.375999999999976,6.618618774414063,0.4714874267578125,7.543948364257813
6.386000000000081,6.835147094726563,0.0408233642578125,6.445306396484376
6.396000000000079,6.59215087890625,-0.280828857421875,6.744677734375
6.40600000000007,6.17703857421875,-0.240753173828125,7.416842651367188
6.416000000000054,6.795071411132813,-0.0586181640625,8.036669921875001
6.426000000000045,6.510653686523438,-0.2974273681640625,6.966439819335938
6.436000000000036,7.369290161132813,-0.5369842529296875,5.741589355468751
6.446000000000026,7.85543212890625,-0.35828857421875,6.100775146484375
6.456000000000017,6.993804931640626,0.10706787109375,6.743630981445313
6.466000000000008,6.785650634765625,0.1987335205078125,7.423721313476563
6.475999999999999,6.457717895507813,0.0276641845703125,7.280764770507813
6.48599999999999,6.11124267578125,0.1700225830078125,7.2752319335937505
6.495999999999981,6.390875244140625,0.4251312255859375,7.680175781250001
6.5060000000000855,7.002627563476563,0.3823638916015625,7.083825683593751
6.516000000000076,7.726382446289063,-0.07476806640625,6.334051513671875
6.526000000000067,7.305886840820313,-0.208154296875,5.7130279541015625
6.536000000000058,6.625198364257813,-0.1906585693359375,6.53592529296875
6.546000000000049,6.7548461914062505,-0.3913360595703125,7.553967285156251
6.55600000000004,6.893765258789063,-0.7693634033203126,7.47261962890625
6.566000000000031,6.654656982421876,-0.6715667724609375,7.164874267578125
6.576000000000015,6.262573242187501,-0.0530853271484375,6.680227661132813
6.586000000000013,6.834548950195313,0.4065887451171875,7.195529174804688
6.596000000000004,7.648324584960938,0.3790740966796875,6.5978332519531255
6.606000000000002,7.341476440429688,0.303558349609375,6.3226867675781255
6.6159999999999854,6.503475952148438,0.2788848876953125,6.359024047851563
6.625999999999976,6.412109375000001,0.224005126953125,7.516583251953126
6.636000000000081,6.546542358398438,-0.11065673828125,8.081082153320313
6.646000000000079,6.508709716796876,-0.438140869140625,7.326821899414063
6.65600000000007,6.654656982421876,-0.455487060546875,6.66392822265625
6.666000000000054,6.771444702148438,-0.25660400390625,6.483438110351563
6.676000000000045,7.094741821289063,0.026617431640625,7.0942932128906255
6.686000000000036,7.257885742187501,0.006280517578125,6.644039916992188
6.696000000000026,7.409814453125,-0.148040771484375,5.959014892578125
6.706000000000017,7.403533935546876,-0.4424774169921875,5.8055908203125
6.716000000000008,6.991561889648438,-0.56524658203125,6.80150146484375
6.725999999999999,6.354986572265625,-0.250921630859375,8.070614624023438
6.73599999999999,5.707794189453125,0.045458984375,8.118316650390625
6.745999999999981,6.315060424804688,0.2029205322265625,7.292279052734376
6.7560000000000855,7.231417846679688,0.1703216552734375,6.514541625976563
6.766000000000076,7.522714233398438,0.4071868896484375,6.328070068359375
6.776000000000067,7.057955932617188,0.6287994384765625,6.627890014648438
6.786000000000058,6.649722290039063,0.323895263671875,6.733612060546876
6.796000000000049,7.0736572265625,-0.395672607421875,6.756640625
6.80600000000004,6.939822387695313,-1.0815948486328126,6.697573852539063
6.816000000000031,6.716116333007813,-1.104473876953125,6.8969055175781255
6.8250000000000455,6.654507446289063,-1.0585662841796877,6.980197143554688
6.836000000000013,6.623703002929688,-0.8492156982421876,7.143490600585938
6.845000000000027,7.1899963378906255,-0.2444915771484375,6.9073730468750005
6.855000000000018,6.777874755859376,0.787457275390625,7.327420043945313
6.865000000000009,6.724789428710938,1.403994750976563,6.553720092773438
6.875999999999976,7.201062011718751,1.2716552734375002,6.937878417968751
6.884999999999991,7.0823303222656255,0.90140380859375,6.783407592773438
6.896000000000079,6.301153564453125,0.4844970703125,7.262820434570313
6.905000000000086,6.367098999023438,-0.3264373779296875,7.362561035156251
6.915000000000077,7.275830078125001,-1.3933776855468751,6.7413879394531255
6.925000000000068,7.375570678710938,-1.7488250732421875,6.750061035156251
6.935000000000059,6.765762329101563,-1.117034912109375,6.395361328125
6.94500000000005,6.488223266601563,-0.3593353271484375,6.925466918945313
6.955000000000041,7.156350708007813,0.0814971923828125,6.875970458984376
6.965000000000032,7.309176635742188,0.5625549316406251,6.934439086914063
6.975000000000023,6.320742797851563,1.3933776855468751,7.224987792968751
6.985000000000014,6.150720214843751,1.6281494140625,7.266110229492188
6.9950000000000045,6.78056640625,0.9431243896484376,7.383047485351563
7.004999999999996,7.4899658203125,-0.1443023681640625,6.641647338867188
7.014999999999986,6.739144897460938,-0.796429443359375,6.632525634765625
7.024999999999977,6.373828125,-1.1300445556640626,6.7243408203125
7.035000000000075,6.870437622070313,-1.3944244384765625,7.387384033203125
7.04500000000008,7.159939575195313,-1.4144622802734377,7.039712524414063
7.055000000000071,6.897354125976563,-0.7295867919921876,6.484933471679688
7.065000000000055,6.640301513671876,0.298175048828125,6.643740844726563
7.0750000000000455,6.754547119140626,1.0448089599609376,6.819296264648438
7.085000000000036,7.332055664062499,1.1011840820312502,6.956420898437501
7.095000000000027,7.54320068359375,0.672613525390625,6.247619628906251
7.105000000000018,6.863558959960938,0.2106964111328125,6.498840332031251
7.115000000000009,6.097036743164063,-0.1093109130859375,7.5399108886718755
7.125,5.985781860351563,-0.4344024658203125,8.3560791015625
7.134999999999991,6.430801391601563,-0.8145233154296876,7.8015991210937505
7.144999999999982,7.334298706054688,-1.0711273193359376,5.940921020507813
7.155000000000086,7.59703369140625,-0.8469726562500001,5.651419067382813
7.165000000000077,7.467086791992188,-0.1375732421875,6.103466796875001
7.175000000000068,7.0165344238281255,0.4900299072265625,7.203305053710938
7.185000000000059,6.624600219726563,0.5106658935546875,7.070816040039063
7.19500000000005,6.708489990234376,0.2669219970703125,6.740042114257813
7.205000000000041,6.26077880859375,0.09749755859375,7.133172607421876
7.215000000000032,6.232815551757813,0.163592529296875,7.791879272460938
7.225000000000023,6.49345703125,-0.0324493408203125,7.845413208007813
7.235000000000014,7.059152221679688,-0.4867401123046875,6.471325683593751
7.245000000000003,7.821487426757813,-0.6612487792968751,5.764468383789063
7.2549999999999955,7.694381713867188,-0.4870391845703125,6.0405120849609375
7.264999999999986,7.000982666015625,-0.222509765625,6.534579467773438
7.274999999999977,6.52635498046875,-0.1736114501953125,7.541854858398438
7.285000000000075,6.178683471679688,0.034393310546875,7.6311279296875005
7.29500000000008,5.973519897460938,0.4095794677734375,7.879507446289063
7.305000000000071,6.763369750976563,0.6184814453125,7.350299072265625
7.315000000000055,7.472320556640626,0.524871826171875,6.536373901367188
7.325000000000045,7.358523559570313,0.3641204833984375,5.989968872070313
7.335000000000036,7.079489135742188,0.155816650390625,6.163580322265625
7.344000000000051,6.927261352539063,-0.4472625732421875,6.865951538085938
7.354000000000049,6.962103271484375,-1.044061279296875,7.333251953125001
7.36400000000004,6.459811401367188,-1.1424560546875,7.4086181640625
7.374000000000024,6.0509796142578125,-0.643902587890625,7.337139892578126
7.3840000000000146,6.730770874023438,-0.122918701171875,7.160537719726563
7.394000000000005,7.511349487304688,0.2092010498046875,6.561047363281251
7.405000000000086,7.722494506835938,0.509918212890625,5.942864990234376
7.413999999999987,6.766360473632813,0.8391967773437501,6.287844848632813
7.423999999999978,6.474017333984375,0.7457366943359376,7.1932861328125
7.434000000000083,6.599926757812501,0.255706787109375,8.079736328125001
7.444000000000081,6.344219970703126,-0.289202880859375,7.672549438476563
7.454000000000072,6.23087158203125,-0.5172454833984376,7.006365966796875
7.464000000000055,6.529495239257813,-0.5477508544921875,7.024908447265625
7.474000000000046,7.22139892578125,-0.4281219482421875,6.963748168945313
7.484000000000037,7.341625976562501,-0.2681182861328125,6.614581298828125
7.494000000000028,7.304391479492188,-0.1628448486328125,5.674896240234375
7.504000000000019,7.527200317382813,-0.211444091796875,5.803497314453125
7.51400000000001,7.490713500976563,-0.44202880859375,6.402090454101563
7.524000000000001,6.802099609375,-0.332269287109375,7.515386962890625
7.533999999999999,5.763421630859376,-0.0734222412109375,7.826571655273438
7.54399999999999,5.735308837890625,0.16568603515625,7.910461425781251
7.554000000000087,6.6950317382812505,0.2779876708984375,7.533032226562501
7.564000000000078,7.286746215820313,0.416009521484375,6.780416870117188
7.574000000000069,7.224240112304688,0.6184814453125,6.264517211914063
7.58400000000006,7.041207885742188,0.4332061767578125,5.968136596679688
7.594000000000051,7.2746337890625,-0.0897216796875,6.7004150390625
7.604000000000049,7.126144409179688,-0.784765625,6.806137084960938
7.61400000000004,6.521270751953126,-1.1294464111328126,7.0353759765625
7.624000000000024,6.397155761718751,-1.1542694091796877,6.884793090820313
7.6340000000000146,6.855484008789063,-1.155615234375,7.025506591796876
7.644000000000005,6.773986816406251,-0.6675292968750001,7.192687988281251
7.653999999999996,7.224090576171876,0.23746337890625,6.99649658203125
7.663999999999987,6.522018432617188,1.3070953369140623,7.0404602050781255
7.673999999999978,7.0584045410156255,1.4515472412109376,6.356182861328126
7.684000000000083,7.28001708984375,1.2103454589843752,7.099975585937501
7.694000000000081,6.665274047851563,0.7959808349609375,6.953729248046876
7.704000000000072,6.174795532226563,0.1915557861328125,7.572360229492188
7.714000000000055,6.575851440429688,-0.8871978759765625,7.010104370117188
7.724000000000046,7.595239257812499,-1.832565307617188,6.709835815429688
7.734000000000037,7.178182983398438,-1.6363739013671876,6.591403198242188
7.744000000000028,6.4901672363281255,-0.8245422363281251,6.508560180664063
7.754000000000019,6.846063232421876,-0.1484893798828125,6.919036865234376
7.76400000000001,7.38529052734375,0.2271453857421875,6.7189575195312505
7.774000000000001,6.984683227539063,0.9586761474609377,7.171005249023438
7.783999999999999,5.901144409179688,1.7527130126953123,7.264465332031251
7.79399999999999,6.224142456054688,1.541119384765625,7.601071166992188
7.804000000000087,7.251605224609375,0.542218017578125,7.134817504882813
7.814000000000078,7.412506103515626,-0.435748291015625,6.463998413085938
7.824000000000069,6.435437011718751,-0.8836090087890626,6.583328247070313
7.835000000000036,6.4542785644531255,-1.287506103515625,6.922177124023438
7.844000000000051,7.279119873046875,-1.6285980224609375,7.396954345703126
7.854000000000049,7.32547607421875,-1.4446685791015623,6.531439208984375
7.863000000000056,6.6071044921875,-0.5520874023437501,6.231918334960938
7.874000000000024,6.6740966796875005,0.4915252685546875,6.737051391601563
7.883000000000038,7.03836669921875,1.126007080078125,7.253250122070313
7.893000000000029,7.097882080078126,1.1903076171875,7.044796752929688
7.903999999999996,6.969430541992188,0.9012542724609376,6.332705688476563
7.913000000000011,6.519326782226563,0.4493560791015625,6.925765991210938
7.922999999999995,6.454428100585938,-0.0442626953125,7.7552429199218755
7.934000000000083,6.323284912109376,-0.5435638427734375,8.09588623046875
7.942999999999991,6.572711181640625,-0.9799102783203124,6.938177490234375
7.953000000000088,7.279867553710938,-1.2447387695312502,5.825030517578125
7.963000000000079,7.744326782226563,-1.0292572021484376,5.9347900390625
7.97300000000007,7.54080810546875,-0.3712982177734375,6.454727172851563
7.983000000000061,6.741836547851563,0.2325286865234375,7.030291748046875
7.993000000000045,6.572113037109376,0.5090209960937501,6.892568969726563
8.003000000000043,6.5200744628906255,0.45997314453125,7.047787475585938
8.01300000000004,6.282910156250001,0.5094696044921876,7.610342407226563
8.023000000000025,6.482989501953125,0.5627044677734375,7.650119018554688
8.033000000000015,6.223544311523438,0.179742431640625,7.30513916015625
8.043000000000006,7.358822631835938,-0.359783935546875,6.395510864257813
8.052999999999997,7.776776123046876,-0.6400146484375,6.269601440429688
8.062999999999988,7.124349975585938,-0.6314910888671875,6.186309814453126
8.072999999999979,7.188052368164063,-0.689361572265625,6.587216186523438
8.083000000000084,6.666619873046876,-0.6196777343750001,7.152761840820313
8.093000000000082,6.351248168945313,-0.2388092041015625,7.3365417480468755
8.103000000000065,6.266311645507813,0.38580322265625,7.883395385742188
8.113000000000056,6.615927124023438,0.733624267578125,7.113882446289063
8.123000000000047,7.245025634765626,0.7979248046875,6.9396728515625
8.133000000000038,7.293774414062501,0.7873077392578126,6.1070556640625
8.143000000000029,6.861166381835938,0.4239349365234375,6.504672241210938
8.15300000000002,7.140200805664063,-0.2444915771484375,6.864157104492188
8.163000000000011,6.826324462890626,-1.03658447265625,6.973468017578125
8.172999999999995,6.682919311523438,-1.2577484130859375,7.475909423828125
8.183,6.324032592773438,-1.026715087890625,6.890325927734375
8.19299999999999,6.735256958007813,-0.547003173828125,7.382000732421876
8.203000000000088,7.485031127929688,-0.039776611328125,6.253152465820313
8.21300000000008,7.35,0.4448699951171875,6.390725708007813
8.22300000000007,6.942962646484376,0.9126190185546876,6.189151000976563
8.233000000000061,6.487774658203126,0.939984130859375,7.298410034179688
8.243000000000045,6.535476684570313,0.564947509765625,7.795767211914063
8.253000000000043,6.447848510742188,0.0346923828125,7.606753540039063
8.26300000000004,6.274087524414063,-0.407037353515625,7.123153686523438
8.273000000000025,6.838885498046875,-0.65496826171875,6.653610229492188
8.283000000000015,7.188949584960938,-0.7971771240234375,6.914999389648438
8.293000000000006,7.389328002929688,-0.6613983154296875,6.372482299804688
8.302999999999997,7.077395629882813,-0.3566436767578125,6.380706787109376
8.312999999999988,6.989019775390625,-0.1855743408203125,6.216217041015626
8.322999999999979,7.280465698242188,-0.0318511962890625,6.8942138671875
8.333000000000084,6.739144897460938,0.0916656494140625,7.1765380859375005
8.343000000000082,6.309976196289063,0.380120849609375,7.528097534179688
8.353000000000065,6.033334350585938,0.464459228515625,7.483984375
8.36400000000004,6.693087768554688,0.390289306640625,7.457366943359376
8.373000000000047,7.136911010742188,0.1831817626953125,6.844866943359375
8.383000000000038,7.215567016601563,-0.0758148193359375,6.320144653320313
8.393000000000029,7.035226440429688,-0.20875244140625,6.295620727539063
8.402000000000044,6.971524047851563,-0.5498443603515626,6.618917846679688
8.412000000000042,6.894662475585938,-0.7995697021484376,6.916793823242188
8.422000000000025,7.097732543945313,-1.014154052734375,6.545046997070313
8.432000000000016,6.793276977539063,-1.000396728515625,6.692639160156251
8.442000000000007,6.39237060546875,-0.599639892578125,7.112088012695313
8.451999999999998,6.858175659179688,0.2883056640625,7.94754638671875
8.461999999999989,6.489569091796875,1.1252593994140625,7.572958374023438
8.47199999999998,6.804791259765626,1.2389068603515625,6.381454467773438
8.483000000000061,7.301849365234376,1.04256591796875,6.304144287109375
8.492000000000075,7.207192993164063,0.6766510009765625,6.731369018554688
8.502000000000066,6.727630615234376,0.154022216796875,7.356878662109375
8.512000000000057,6.4796997070312505,-0.7865600585937501,7.041207885742188
8.522000000000048,6.972421264648438,-1.6079620361328126,6.84337158203125
8.532000000000039,6.820941162109375,-1.4162567138671875,7.047937011718751
8.54200000000003,6.706396484375,-0.7150817871093751,7.147976684570313
8.552000000000021,6.961505126953125,-0.0880767822265625,6.712677001953126
8.562000000000012,7.2647644042968755,0.2920440673828125,6.207843017578125
8.572000000000003,7.1242004394531255,0.9834991455078126,6.798959350585938
8.583000000000084,6.389828491210938,1.487884521484375,7.339083862304688
8.591999999999992,6.374874877929688,1.2272430419921876,7.715017700195313
8.60200000000009,6.829913330078125,0.3303253173828125,7.041806030273438
8.61200000000008,6.941018676757813,-0.5229278564453126,6.741238403320313
8.622000000000071,6.557159423828126,-0.8569915771484375,6.877615356445313
8.632000000000062,6.564636230468751,-1.1100067138671876,7.197622680664063
8.642000000000053,7.281063842773438,-1.247430419921875,6.991711425781251
8.652000000000044,7.1095458984375,-1.0612579345703126,6.198870849609375
8.662000000000042,7.05032958984375,-0.4055419921875,6.245376586914063
8.672000000000025,6.983187866210938,0.3696533203125,6.743182373046875
8.683,6.888082885742188,0.7236053466796876,7.027899169921875
8.692000000000007,7.134368896484376,0.704315185546875,6.89122314453125
8.701999999999998,6.741537475585938,0.4390380859375,6.682171630859376
8.711999999999989,6.259881591796876,0.4029998779296875,7.523013305664063
8.72199999999998,6.177337646484376,0.2444915771484375,7.947695922851563
8.732000000000085,6.482391357421876,-0.21712646484375,7.584024047851563
8.742000000000075,7.281512451171875,-0.7122406005859375,6.235955810546876
8.752000000000066,7.505517578125,-0.94566650390625,5.797515869140625
8.762000000000057,7.40562744140625,-0.62625732421875,6.205450439453125
8.772000000000048,6.816604614257813,-0.29368896484375,7.088461303710938
8.783000000000015,6.842175292968751,-0.1232177734375,7.102966308593751
8.79200000000003,6.747817993164063,-0.05802001953125,6.778622436523438
8.802000000000021,6.573309326171875,0.103179931640625,6.905877685546876
8.812000000000012,6.218310546875,0.4729827880859375,7.437777709960938
8.822000000000003,6.849801635742188,0.46954345703125,7.438226318359375
8.832,6.804193115234376,0.0937591552734375,6.688751220703126
8.841000000000008,7.185061645507813,-0.451898193359375,6.117672729492188
8.85200000000009,7.593295288085938,-0.5027404785156251,6.557458496093751
8.86099999999999,6.885092163085938,-0.346923828125,7.119415283203126
8.872000000000071,6.651068115234375,-0.421990966796875,7.0856201171875
8.882000000000062,6.602618408203125,-0.2974273681640625,7.075750732421875
8.892000000000053,6.261077880859376,0.1407135009765625,7.256240844726563
8.902000000000044,6.798809814453126,0.6273040771484375,7.467834472656251
8.911000000000058,7.083676147460938,0.5987426757812501,6.7234436035156255
8.92100000000005,7.457666015625,0.33675537109375,6.356033325195313
8.93100000000004,6.9492431640625005,0.3004180908203125,6.319097900390625
8.942000000000007,6.373977661132813,0.03409423828125,7.158145141601563
8.951000000000015,7.0377685546875,-0.5598632812500001,7.404580688476563
8.961000000000013,6.8191467285156255,-1.0993896484375,7.005169677734376
8.971000000000004,6.663180541992188,-0.8513092041015625,6.889877319335938
8.983000000000061,6.478652954101563,-0.305950927734375,6.816305541992188
8.990999999999985,7.125396728515626,0.016748046875,7.102667236328125
9.000999999999976,7.664474487304688,0.197088623046875,6.373379516601563
9.01100000000008,6.860269165039063,0.4287200927734375,6.423773193359375
9.02100000000008,6.357379150390625,0.7612884521484375,6.858026123046876
9.03100000000007,6.493157958984376,0.5597137451171875,7.838833618164063
9.041000000000054,6.739593505859376,0.087628173828125,7.682867431640625
9.051000000000045,6.581832885742188,-0.3049041748046875,6.840829467773438
9.061000000000035,6.447100830078125,-0.4376922607421875,6.782360839843751
9.071000000000026,6.910064697265626,-0.3988128662109375,6.929205322265625
9.083000000000084,7.110443115234376,-0.40374755859375,7.233212280273438
9.091000000000008,7.335794067382813,-0.432757568359375,6.122308349609376
9.101,7.428955078125001,-0.4571319580078125,5.69254150390625
9.11099999999999,7.382000732421876,-0.4711883544921875,6.039764404296875
9.12099999999998,7.009954833984375,-0.26258544921875,7.2531005859375
9.131000000000084,6.1088500976562505,0.051739501953125,7.987472534179688
9.141000000000076,5.931201171875,0.29010009765625,7.649670410156251
9.151000000000067,6.462802124023438,0.3126800537109375,7.249212646484375
9.161000000000058,7.171603393554688,0.352008056640625,6.856231689453126
9.17100000000005,7.173248291015626,0.5268157958984375,6.766659545898438
9.182000000000016,6.816903686523438,0.3985137939453125,6.454876708984376
9.191000000000033,7.139752197265626,-0.0716278076171875,6.487176513671876
9.201000000000016,7.079638671875,-0.798223876953125,6.502877807617188
9.211000000000013,7.015188598632813,-1.063052368164063,6.8355957031250005
9.221000000000004,6.755743408203125,-1.131988525390625,6.852044677734376
9.231000000000002,6.58916015625,-1.081146240234375,6.949093627929688
9.240999999999984,6.562393188476563,-0.575714111328125,7.2507080078125
9.250999999999976,6.827520751953125,0.324493408203125,7.577743530273438
9.26100000000008,6.474166870117188,1.2822723388671875,7.119714355468751
9.27100000000008,7.265512084960938,1.2951324462890623,6.495401000976563
9.283000000000015,7.627987670898438,1.1150909423828126,6.270648193359375
9.291000000000054,6.645086669921875,0.7895507812500001,6.7578369140625005
9.301000000000045,6.268704223632813,0.2130889892578125,7.634567260742188
9.311000000000035,6.579440307617188,-0.8927307128906251,7.295718383789063
9.321000000000026,7.236950683593751,-1.8349578857421875,7.039263916015625
9.331000000000016,7.107003784179688,-1.5901672363281252,6.546990966796876
9.341000000000008,6.432745361328125,-0.761138916015625,6.651815795898438
9.350000000000025,7.046292114257813,-0.0275146484375,6.887484741210938
9.360000000000014,7.5010314941406255,0.29129638671875,6.477606201171875
9.37099999999998,7.019226074218751,0.91695556640625,6.892269897460938
9.383000000000038,6.098681640625,1.5747650146484375,7.13048095703125
9.391000000000076,6.128439331054688,1.4494537353515626,7.963845825195313
9.401000000000067,7.0284973144531255,0.4720855712890625,7.25010986328125
9.410000000000077,7.100723266601563,-0.4780670166015625,6.682470703125
9.42000000000008,6.607254028320313,-0.9221893310546876,6.480148315429688
9.43000000000007,6.644638061523438,-1.2046630859375,6.8789611816406255
9.440000000000056,7.226931762695313,-1.4093780517578125,7.279269409179688
9.450000000000044,7.287942504882813,-1.251318359375,6.447100830078125
9.460000000000036,6.869989013671876,-0.5076751708984375,6.327322387695313
9.470000000000027,6.567178344726563,0.4251312255859375,6.551028442382813
9.480000000000018,6.982440185546875,0.9867889404296876,7.433590698242188
9.490000000000007,7.096087646484375,0.9703399658203126,7.061993408203126
9.5,6.873428344726563,0.7587463378906251,6.611141967773438
9.509999999999993,6.353341674804688,0.4613189697265625,6.863259887695313
9.519999999999982,6.451885986328126,0.0378326416015625,7.680026245117188
9.530000000000086,6.662582397460938,-0.4735809326171875,7.853039550781251
9.540000000000076,6.859671020507813,-0.9377410888671877,6.715667724609376
9.550000000000068,7.125396728515626,-1.1022308349609375,5.853741455078126
9.56000000000006,7.3814025878906255,-0.892431640625,6.103915405273438
9.57000000000005,7.356130981445313,-0.3581390380859375,6.859072875976563
9.58000000000004,6.8918212890625,0.0656463623046875,6.985729980468751
9.590000000000032,6.603366088867188,0.325390625,6.788491821289063
9.600000000000025,6.446951293945313,0.4592254638671875,6.891522216796876
9.610000000000014,6.303546142578125,0.6009857177734376,7.687802124023438
9.620000000000005,6.6277404785156255,0.5467041015625,7.586715698242188
9.629999999999995,6.465643310546875,0.0399261474609375,6.949841308593751
9.639999999999986,7.260726928710938,-0.48389892578125,6.266909790039063
9.649999999999975,7.845114135742188,-0.6631927490234375,6.423623657226563
9.660000000000077,7.102069091796875,-0.5420684814453125,6.648077392578125
9.67000000000008,6.871185302734376,-0.5964996337890626,6.590805053710938
9.68000000000007,6.5155883789062505,-0.450103759765625,7.077545166015626
9.690000000000056,6.330761718750001,0.0249725341796875,7.605856323242188
9.700000000000044,6.533682250976563,0.5507415771484375,7.8015991210937505
9.710000000000036,6.891970825195313,0.6957916259765625,6.904681396484375
9.720000000000027,7.287792968750001,0.6002380371093751,6.303845214843751
9.730000000000018,7.10057373046875,0.58857421875,6.342874145507813
9.740000000000007,6.769949340820313,0.2412017822265625,6.901690673828125
9.75,7.114331054687501,-0.5357879638671875,7.069320678710938
9.759999999999993,6.894662475585938,-1.2442901611328123,6.8026977539062505
9.769999999999982,6.432894897460938,-1.128997802734375,7.201361083984375
9.780000000000086,6.333303833007813,-0.5790039062500001,7.2770263671875
9.790000000000076,6.914102172851563,-0.199481201171875,7.274334716796876
9.800000000000068,7.627090454101563,0.0856842041015625,6.155654907226563
9.81000000000006,7.131976318359375,0.460870361328125,6.041409301757813
9.82000000000005,6.666769409179688,0.8836090087890626,6.636712646484376
9.829000000000072,6.603216552734375,0.871197509765625,7.796215820312501
9.840000000000032,6.444110107421875,0.347222900390625,7.8240295410156255
9.850000000000025,6.414352416992188,-0.185723876953125,7.05032958984375
9.860000000000014,6.36844482421875,-0.433953857421875,7.053021240234376
9.870000000000005,6.824230957031251,-0.482403564453125,7.072760009765625
9.87900000000002,7.1855102539062505,-0.4940673828125,7.12210693359375
9.889999999999986,7.359121704101563,-0.5967987060546875,5.935986328125001
9.899999999999975,7.608398437500001,-0.5333953857421876,5.678784179687501
9.909,7.257586669921875,-0.4628143310546875,6.039315795898438
9.91899999999999,7.071414184570313,-0.20157470703125,7.215267944335938
9.929000000000087,6.313415527343751,0.0285614013671875,7.728775024414063
9.939000000000078,6.001931762695313,0.1529754638671875,7.500881958007813
9.94900000000007,6.335546875,0.3709991455078125,7.451235961914063
9.95900000000006,6.815258789062501,0.4951141357421875,7.233959960937501
9.969000000000053,7.117022705078125,0.6548187255859376,7.014291381835938
9.979000000000047,6.979000854492188,0.370550537109375,6.205899047851563
9.98900000000004,7.199417114257813,-0.0829925537109375,6.2494140625000005
9.999000000000024,7.114031982421875,-0.6880157470703125,6.3152099609375005
10.009000000000016,7.120312500000001,-1.1650360107421875,6.840231323242188
10.019000000000004,6.970925903320313,-1.4533416748046877,6.71536865234375
10.028999999999996,6.222348022460938,-1.3396942138671877,7.096237182617188
10.038999999999987,6.550430297851563,-0.45638427734375,7.618267822265626
10.048999999999978,6.5329345703125,0.682781982421875,7.971771240234376
10.059000000000085,6.975711059570313,1.3962188720703126,6.740939331054688
10.06900000000008,7.275082397460938,1.5224273681640623,6.002081298828125
10.079000000000072,7.26805419921875,1.3127777099609377,6.244030761718751
10.089000000000055,6.812268066406251,0.82962646484375,7.211080932617188
10.099000000000046,6.427810668945313,-0.2253509521484375,7.670904541015625
10.109000000000036,6.720901489257813,-1.4267242431640623,7.106704711914063
10.119000000000028,6.772790527343751,-1.93140869140625,6.836343383789063
10.12900000000002,6.788790893554688,-1.460369873046875,6.864456176757813
10.13900000000001,7.021469116210938,-0.6950439453125,6.789987182617188
10.149,7.342971801757813,-0.1128997802734375,6.402688598632813
10.159,7.383944702148438,0.6261077880859376,6.235806274414063
10.16899999999999,6.414352416992188,1.4735290527343752,7.1256958007812505
10.179000000000087,6.252105712890626,1.7515167236328126,7.813412475585938
10.189000000000078,6.501831054687501,1.1325866699218752,7.781411743164063
10.19900000000007,6.928009033203126,0.121722412109375,6.844717407226563
10.20900000000006,6.7721923828125,-0.5555267333984375,6.594692993164063
10.219000000000053,6.549533081054688,-1.0618560791015623,6.839184570312501
10.229000000000047,7.112387084960938,-1.3814147949218751,7.178182983398438
10.23900000000004,7.228277587890625,-1.4868377685546876,6.734957885742188
10.249000000000024,7.054815673828125,-1.0427154541015626,6.072213745117188
10.259000000000016,6.820343017578126,-0.1876678466796875,6.530841064453125
10.269000000000004,6.903335571289063,0.5586669921875,7.012496948242188
10.278999999999996,7.109246826171876,0.9553863525390626,7.2378479003906255
10.288999999999987,6.865203857421876,0.8513092041015625,6.5305419921875005
10.298999999999978,6.662432861328125,0.6470428466796876,6.761874389648438
10.309000000000085,6.497943115234375,0.3213531494140625,7.48338623046875
10.31900000000008,6.406576538085938,-0.0070281982421875,8.022613525390625
10.329000000000072,6.423324584960938,-0.419598388671875,7.387084960937501
10.339000000000055,6.955972290039063,-0.9147125244140626,6.175692749023438
10.349000000000046,7.595538330078125,-0.98095703125,6.028848266601563
10.359000000000036,7.5129943847656255,-0.7337738037109376,6.341229248046876
10.369000000000028,7.062591552734376,-0.2271453857421875,6.8535400390625005
10.378000000000045,6.603665161132813,0.03349609375,6.731069946289063
10.38900000000001,6.834249877929688,0.1233673095703125,6.936532592773438
10.398000000000025,6.592898559570313,0.27933349609375,7.137359619140626
10.408000000000015,6.180029296875,0.476422119140625,7.606903076171876
10.41899999999999,6.66990966796875,0.50184326171875,7.35777587890625
10.427999999999995,6.552523803710938,-0.050244140625,6.690545654296876
10.437999999999988,7.461553955078125,-0.4053924560546875,6.494952392578125
10.44799999999998,7.514340209960938,-0.4520477294921875,6.587963867187501
10.458000000000084,6.898251342773438,-0.3943267822265625,6.662731933593751
10.468000000000082,6.979898071289063,-0.5163482666015625,6.666320800781251
10.479000000000047,6.5918518066406255,-0.415411376953125,7.060797119140625
10.48900000000004,6.272293090820313,0.1305450439453125,7.639053344726563
10.498000000000047,6.480895996093751,0.509918212890625,7.667614746093751
10.508000000000038,7.052871704101563,0.4849456787109375,6.741537475585938
10.518000000000027,7.389178466796875,0.357989501953125,6.350051879882813
10.52800000000002,7.072161865234375,0.4821044921875,6.34451904296875
10.538000000000013,6.53831787109375,0.24105224609375,7.030142211914063
10.547999999999996,7.102368164062501,-0.4975067138671875,7.143640136718751
10.558,6.937579345703125,-1.050042724609375,6.909616088867188
10.56799999999999,6.435287475585938,-0.8777770996093751,7.1585937500000005
10.578000000000088,6.353341674804688,-0.3763824462890625,7.131976318359375
10.58800000000008,7.000982666015625,-0.1327880859375,7.218707275390625
10.59800000000007,7.645333862304688,0.029010009765625,6.2210021972656255
10.60800000000006,7.117321777343751,0.38101806640625,6.164776611328126
10.618000000000045,6.549084472656251,0.7271942138671875,6.663778686523438
10.628000000000045,6.492410278320313,0.630743408203125,7.767953491210938
10.63800000000004,6.701312255859375,0.1413116455078125,7.753448486328126
10.648000000000025,6.517083740234376,-0.219219970703125,7.066629028320313
10.658000000000015,6.398800659179688,-0.3539520263671875,6.722695922851563
10.668000000000006,6.932943725585938,-0.4311126708984375,6.9193359375000005
10.677999999999995,7.327120971679688,-0.475225830078125,7.098330688476563
10.687999999999988,7.218408203125,-0.490777587890625,6.293377685546876
10.69799999999998,7.026254272460938,-0.3061004638671875,6.0390167236328125
10.708000000000084,7.020721435546876,-0.2428466796875,6.360220336914063
10.718000000000082,7.29796142578125,-0.1804901123046875,7.183715820312501
10.728000000000064,6.634320068359376,-0.0719268798828125,7.282409667968751
10.738000000000056,6.112887573242188,0.183929443359375,7.28121337890625
10.748000000000047,6.223992919921876,0.40853271484375,7.368991088867188
10.758000000000038,6.826773071289063,0.3620269775390625,7.452432250976563
10.768000000000027,7.288540649414063,0.3183624267578125,6.922027587890626
10.77800000000002,6.986328125000001,0.09630126953125,6.114083862304688
10.788000000000013,7.025057983398438,-0.1326385498046875,6.276779174804688
10.797999999999996,7.091900634765626,-0.5136566162109375,6.791033935546875
10.808,6.935934448242188,-0.8125793457031251,7.201062011718751
10.81799999999999,6.684713745117188,-0.8871978759765625,6.7354064941406255
10.828000000000088,6.837240600585938,-0.9893310546875,6.397903442382813
10.83800000000008,6.670657348632813,-0.6437530517578125,7.078890991210938
10.84800000000007,6.89481201171875,0.02213134765625,7.486526489257813
10.85800000000006,6.5544677734375005,0.9948638916015624,7.89132080078125
10.868000000000045,6.585122680664063,1.2668701171875,6.371286010742188
10.878000000000045,7.279718017578125,0.9601715087890624,6.446951293945313
10.887000000000056,7.423870849609376,0.6151916503906251,6.546691894531251
10.898000000000025,6.563739013671875,0.188116455078125,7.353140258789063
10.90700000000004,6.463699340820313,-0.48988037109375,7.3574768066406255
10.91700000000003,6.796267700195313,-1.42657470703125,6.661386108398438
10.92700000000002,7.1490234375,-1.556521606445313,7.033132934570313
10.937000000000012,6.883746337890625,-0.8363555908203125,6.725088500976563
10.947000000000005,6.632675170898438,-0.1051239013671875,6.965393066406251
10.957,7.254745483398438,0.3174652099609375,6.382949829101563
10.966999999999992,7.193585205078126,0.6823333740234375,6.682321166992188
10.97700000000009,6.55386962890625,1.2924407958984376,7.317401123046875
10.98700000000008,6.152215576171876,1.2797302246093751,7.527499389648438
10.997000000000073,6.561495971679688,0.5706298828125,7.499685668945313
11.007000000000062,7.3021484375,-0.3533538818359375,6.575103759765626
11.017000000000053,6.911859130859376,-0.8094390869140625,6.733761596679688
11.027000000000044,6.617871093750001,-0.8982635498046876,6.606356811523438
11.037000000000042,6.828866577148438,-1.0922119140625002,7.239791870117188
11.047000000000024,7.315307617187501,-1.122418212890625,6.624899291992188
11.057000000000016,7.083526611328126,-0.6376220703125001,6.399996948242188
11.067000000000007,6.573309326171875,0.1215728759765625,6.625796508789063
11.076999999999998,6.803445434570313,0.687567138671875,7.114779663085938
11.086999999999987,6.920083618164063,0.8222991943359376,7.401589965820313
11.09699999999998,6.828717041015626,0.719268798828125,6.7159667968750005
11.107000000000085,6.566580200195313,0.50244140625,6.8918212890625
11.117000000000075,6.613534545898438,0.1105072021484375,7.1047607421875005
11.127000000000066,6.884494018554688,-0.3216522216796875,7.560546875000001
11.137000000000056,6.793576049804688,-0.7322784423828126,6.925018310546876
11.147000000000048,6.8969055175781255,-0.86671142578125,6.297714233398438
11.15700000000004,7.079040527343751,-0.8366546630859376,6.404483032226563
11.16700000000003,7.401440429687501,-0.5417694091796875,6.788940429687501
11.17700000000002,6.995599365234376,-0.1203765869140625,6.924569702148438
11.187000000000012,6.676040649414063,0.1963409423828125,6.648825073242188
11.197000000000005,6.617572021484375,0.450701904296875,6.935186767578125
11.207,6.773538208007813,0.46834716796875,7.286746215820313
11.216999999999992,6.572561645507813,0.5423675537109376,7.565780639648438
11.22700000000009,6.211581420898438,0.2992218017578125,6.944607543945313
11.23700000000008,6.908270263671875,-0.15731201171875,6.705947875976563
11.247000000000073,7.1526123046875005,-0.752166748046875,6.385192871093751
11.257000000000062,7.651165771484376,-0.9366943359375,6.727780151367188
11.267000000000053,7.277774047851563,-0.6836791992187501,6.746322631835938
11.277000000000044,6.561645507812501,-0.4855438232421875,6.449942016601563
11.287000000000042,6.565533447265626,-0.1431060791015625,7.203903198242188
11.297000000000024,6.579290771484375,0.3147735595703125,7.443759155273438
11.307000000000016,6.393865966796875,0.8855529785156251,7.884591674804688
11.317000000000007,6.82901611328125,0.8676086425781251,6.721200561523438
11.326999999999998,7.272988891601563,0.5423675537109376,6.3959594726562505
11.336999999999987,7.260427856445313,0.34273681640625,6.428707885742188
11.34699999999998,6.725238037109375,0.0411224365234375,7.056610107421876
11.357000000000085,6.6038146972656255,-0.557470703125,7.13048095703125
11.367000000000075,7.041357421875,-1.2746459960937502,6.840231323242188
11.377000000000066,6.860119628906251,-1.235467529296875,6.945205688476563
11.387000000000056,6.535476684570313,-0.5779571533203125,7.008010864257813
11.397000000000048,6.704751586914063,-0.0107666015625,7.162930297851563
11.40600000000007,7.403982543945313,0.2648284912109375,6.4635498046875
11.416000000000054,7.3724304199218755,0.4882354736328125,6.277078247070313
11.426000000000045,6.661386108398438,0.8658142089843751,6.645535278320313
11.436000000000035,6.297116088867188,0.8753845214843751,7.571163940429688
11.446000000000026,6.509606933593751,0.34034423828125,7.86380615234375
11.456000000000016,6.723144531250001,-0.23985595703125,7.200015258789063
11.466000000000008,6.485980224609375,-0.5471527099609376,6.788192749023438
11.476,6.749462890625001,-0.5733215332031251,6.744079589843751
11.48599999999999,7.132275390625001,-0.633734130859375,6.99888916015625
11.49599999999998,7.389328002929688,-0.671417236328125,6.519476318359375
11.506000000000084,7.273437500000001,-0.4664031982421875,6.010455322265625
11.516000000000076,7.025506591796876,-0.256304931640625,6.170010375976563
11.526000000000067,7.146182250976563,-0.06280517578125,6.895858764648438
11.536000000000058,6.792080688476563,0.03768310546875,7.438674926757813
11.54600000000005,6.2688537597656255,0.289501953125,7.45706787109375
11.55600000000004,5.998941040039063,0.4969085693359375,7.450637817382813
11.566000000000033,6.552972412109376,0.490777587890625,7.4205810546875
11.576000000000016,7.1301818847656255,0.352606201171875,7.121359252929688
11.586000000000013,7.280914306640626,0.058319091796875,6.337191772460938
11.596000000000004,7.061544799804688,-0.20157470703125,6.069223022460938
11.606000000000002,7.043600463867188,-0.5825927734375,6.483587646484375
11.615999999999984,7.028347778320313,-0.874188232421875,7.048385620117188
11.625999999999976,6.821389770507813,-1.0223785400390626,6.825726318359376
11.63600000000008,6.908718872070313,-1.00189208984375,6.582431030273438
11.64600000000008,6.513345336914063,-0.7388580322265625,6.804940795898438
11.65600000000007,6.62564697265625,0.0118133544921875,7.589108276367188
11.666000000000054,6.738845825195313,1.02821044921875,8.048483276367188
11.676000000000045,6.463998413085938,1.4126678466796876,6.753948974609376
11.686000000000035,7.2291748046875,1.1780456542968751,6.217263793945313
11.696000000000026,7.42476806640625,0.7569519042968751,6.369940185546875
11.706000000000016,6.83739013671875,0.2729034423828125,7.209585571289063
11.716000000000008,6.511700439453126,-0.4972076416015625,7.379608154296876
11.726,6.6516662597656255,-1.52108154296875,6.786846923828126
11.73599999999999,7.101919555664063,-1.7918914794921876,6.930999755859376
11.74599999999998,6.804641723632813,-1.111053466796875,6.9492431640625005
11.756000000000084,6.69144287109375,-0.20157470703125,7.02879638671875
11.766000000000076,7.127789306640626,0.34752197265625,6.4288574218750005
11.776000000000067,7.267156982421875,0.766522216796875,6.383547973632813
11.786000000000058,6.820941162109375,1.41580810546875,7.18192138671875
11.79600000000005,6.102120971679688,1.5278106689453126,7.619165039062499
11.80600000000004,6.447698974609375,0.8528045654296875,7.637557983398438
11.816000000000033,7.054516601562501,-0.2714080810546875,6.791781616210938
11.826000000000016,6.906625366210938,-0.9144134521484376,6.723144531250001
11.836000000000013,6.573458862304688,-1.10596923828125,6.797164916992188
11.846000000000004,6.824081420898438,-1.2821228027343752,7.114181518554688
11.856000000000002,7.471871948242188,-1.316217041015625,6.574057006835938
11.865999999999984,7.279418945312501,-0.91396484375,6.036773681640625
11.875999999999976,6.928607177734375,-0.02392578125,6.360369873046875
11.88600000000008,6.660189819335938,0.6854736328125001,7.065133666992188
11.89600000000008,6.82542724609375,1.0226776123046877,7.559051513671876
11.90600000000007,6.685760498046876,0.96002197265625,7.112686157226563
11.915000000000076,6.407025146484376,0.7173248291015626,7.021768188476563
11.925000000000068,6.434390258789063,0.460272216796875,7.31710205078125
11.93500000000006,6.72733154296875,-0.08134765625,7.546041870117188
11.94500000000005,6.987973022460938,-0.6027801513671875,6.930252075195313
11.95500000000004,7.107751464843751,-1.1118011474609375,6.023165893554688
11.965000000000032,7.323382568359375,-1.1509796142578126,6.123355102539063
11.975000000000025,7.308428955078125,-0.8738891601562501,6.5619445800781255
11.985000000000014,7.007861328125,-0.4677490234375,7.037020874023438
11.995000000000005,6.710134887695313,-0.0219818115234375,6.819744873046876
12.004999999999995,6.553121948242188,0.3552978515625,6.910513305664063
12.014999999999986,6.534878540039063,0.8051025390625001,7.41160888671875
12.024999999999975,6.1919921875,0.9012542724609376,7.523461914062499
12.035000000000077,6.922027587890626,0.68607177734375,7.236950683593751
12.04500000000008,6.590655517578125,0.000897216796875,6.411511230468751
12.05500000000007,7.428955078125001,-0.5899200439453125,6.545794677734375
12.065000000000056,7.617370605468751,-0.7496246337890625,6.797463989257813
12.075000000000044,6.757089233398438,-0.8812164306640625,6.5724121093750005
12.085000000000036,6.835296630859376,-0.8803192138671876,6.725387573242188
12.095000000000027,6.511550903320313,-0.6144439697265626,6.90318603515625
12.105000000000018,6.538916015625,0.176751708984375,7.926461791992188
12.115000000000007,6.6591430664062505,0.7630828857421875,7.320242309570313
12.125,6.928457641601563,0.8674591064453125,6.788790893554688
12.134999999999993,7.232913208007813,0.8735900878906251,6.216665649414063
12.144999999999982,7.045693969726563,0.7433441162109375,6.707592773437501
12.155000000000086,6.720901489257813,0.210546875,7.142892456054688
12.165000000000076,6.988870239257813,-0.7636810302734376,6.935485839843751
12.175000000000068,6.811221313476563,-1.3718444824218752,6.906924438476563
12.18500000000006,6.443661499023438,-1.185821533203125,7.107302856445313
12.19500000000005,6.552374267578125,-0.7295867919921876,7.354336547851563
12.20500000000004,7.179379272460938,-0.2770904541015625,6.873129272460938
12.215000000000032,7.571762084960938,0.0964508056640625,5.9762115478515625
12.225000000000025,7.084722900390625,0.67410888671875,6.210684204101563
12.235000000000014,6.672152709960938,1.057070922851563,6.833950805664063
12.245000000000005,6.376669311523438,0.9018524169921877,8.009902954101562
12.254999999999995,6.46414794921875,0.343035888671875,7.668661499023438
12.264999999999986,6.381454467773438,-0.2092010498046875,7.182669067382813
12.274999999999975,6.504074096679688,-0.4786651611328125,6.802847290039063
12.285000000000077,7.032235717773438,-0.6543701171875,6.887036132812501
12.29500000000008,7.383197021484375,-0.7500732421875,6.856381225585938
12.30500000000007,7.190744018554688,-0.6388183593750001,6.073858642578125
12.315000000000056,7.02042236328125,-0.3985137939453125,6.255694580078125
12.325000000000044,7.113284301757813,-0.179742431640625,6.49046630859375
12.335000000000036,7.187155151367188,-0.0477020263671875,7.214071655273438
12.345000000000027,6.717312622070313,0.069085693359375,7.033282470703125
12.355000000000018,6.15909423828125,0.2739501953125,7.195080566406251
12.365000000000007,6.268704223632813,0.4701416015625,7.573406982421876
12.375,6.679180908203126,0.5156005859375,7.700662231445313
12.384999999999993,6.950140380859375,0.2884552001953125,6.924270629882813
12.394999999999982,7.130331420898438,0.014056396484375,6.0838775634765625
12.403999999999996,7.14842529296875,-0.267071533203125,6.1955810546875005
12.413999999999987,7.165771484375001,-0.5156005859375,6.800454711914063
12.423999999999978,6.766510009765626,-0.8000183105468751,7.065283203125
12.434000000000085,6.885391235351563,-0.9414794921875,6.63760986328125
12.44400000000008,6.917391967773438,-1.0603607177734375,6.356033325195313
12.454000000000072,6.546392822265625,-0.713287353515625,7.054666137695313
12.464000000000055,6.765164184570313,0.1248626708984375,7.681072998046876
12.475000000000025,6.456521606445313,0.9736297607421877,7.966687011718751
12.484000000000036,6.893466186523438,1.2529632568359377,6.430203247070313
12.494000000000028,7.187753295898438,1.1071655273437502,6.3002563476562505
12.50400000000002,7.254595947265625,0.8429351806640626,6.537719726562501
12.51400000000001,6.655703735351563,0.399560546875,7.321139526367188
12.524,6.533831787109375,-0.6193786621093751,7.293026733398438
12.534,7.060348510742188,-1.6046722412109375,6.63760986328125
12.54399999999999,6.847259521484376,-1.7057586669921876,6.972271728515626
12.554000000000087,6.719555664062501,-0.9423767089843752,7.041357421875
12.564000000000078,6.730621337890626,-0.240155029296875,6.928009033203126
12.575000000000044,7.330410766601563,0.1520782470703125,6.3869873046875005
12.58400000000006,7.324429321289063,0.7560546875,6.373678588867188
12.594000000000053,6.374276733398438,1.4874359130859376,7.313363647460938
12.604000000000047,6.322238159179688,1.5493438720703123,7.696475219726563
12.61400000000004,6.581683349609375,0.7176239013671876,7.543350219726563
12.624000000000024,7.039712524414063,-0.2672210693359375,6.614880371093751
12.634000000000016,6.719854736328125,-0.7838684082031251,6.728826904296875
12.644000000000004,6.548635864257813,-1.1261566162109375,6.969430541992188
12.653999999999996,7.231118774414063,-1.3672088623046876,7.04075927734375
12.663999999999987,7.361663818359376,-1.4104248046875,6.454876708984376
12.673999999999978,6.97257080078125,-0.8261871337890626,5.903237915039063
12.684000000000085,6.768304443359376,0.1063201904296875,6.827221679687501
12.69400000000008,6.8415771484375005,0.7962799072265626,7.278372192382813
12.704000000000072,6.797613525390625,1.080548095703125,7.364205932617188
12.714000000000055,6.748416137695313,0.8904876708984376,6.587216186523438
12.724000000000046,6.675741577148438,0.6676788330078125,6.985430908203125
12.734000000000036,6.548934936523438,0.3007171630859375,7.527200317382813
12.744000000000028,6.384744262695313,-0.112750244140625,7.763616943359375
12.75400000000002,6.689050292968751,-0.7128387451171876,6.887484741210938
12.76400000000001,7.312167358398438,-1.2601409912109376,5.996099853515625
12.774,7.655203247070313,-1.2404022216796875,6.0360260009765625
12.784,7.258334350585938,-0.802410888671875,6.537271118164063
12.79399999999999,6.816455078125,-0.154620361328125,7.096984863281251
12.804000000000087,6.604861450195313,0.1724151611328125,6.824081420898438
12.814000000000078,6.651815795898438,0.4290191650390625,7.0524230957031255
12.82400000000007,6.440670776367188,0.6507812500000001,7.08621826171875
12.83400000000006,6.6576477050781255,0.7301849365234375,7.584173583984375
12.844000000000053,6.423025512695313,0.4089813232421875,7.155453491210938
12.854000000000047,7.164724731445313,-0.176153564453125,6.737350463867188
12.86400000000004,7.518228149414063,-0.4631134033203125,6.57779541015625
12.875,7.0509277343750005,-0.7107452392578125,6.151617431640625
12.884000000000016,6.944458007812501,-0.7512695312500001,6.8702880859375
12.894000000000004,6.672003173828125,-0.629248046875,6.9193359375000005
12.903999999999996,6.447250366210938,-0.1547698974609375,7.809823608398438
12.913999999999987,6.493008422851563,0.3629241943359375,7.2722412109375005
12.922999999999996,6.829913330078125,0.665435791015625,7.017132568359376
12.933,7.234558105468751,0.8590850830078126,6.573159790039063
12.94299999999999,7.115676879882813,0.7624847412109376,6.398651123046876
12.953000000000088,6.906625366210938,0.3330169677734375,6.791931152343751
12.96300000000008,6.983935546875,-0.47791748046875,6.7040039062500005
12.975000000000025,6.756491088867188,-1.0489959716796875,7.322784423828126
12.984000000000036,6.485232543945313,-1.0883239746093751,7.174295043945313
12.993000000000045,6.484634399414063,-0.8202056884765626,7.369589233398438
13.003000000000045,6.969729614257813,-0.3961212158203125,6.759481811523438
13.01300000000004,7.421627807617188,0.0764129638671875,6.324929809570313
13.023000000000025,7.165173339843751,0.65018310546875,6.390426635742188
13.033000000000015,6.829315185546876,0.95882568359375,6.638806152343751
13.043000000000006,6.50242919921875,0.7852142333984375,7.518078613281251
13.052999999999995,6.61368408203125,0.299371337890625,7.359719848632813
13.062999999999988,6.4183898925781255,-0.222210693359375,7.466488647460938
13.075000000000044,6.513195800781251,-0.5653961181640625,6.913504028320313
13.083000000000084,6.949990844726563,-0.7777374267578125,6.921728515625
13.093000000000082,7.199267578125,-0.8160186767578126,6.626992797851563
13.103000000000064,7.233810424804688,-0.5562744140625,6.395361328125
13.113000000000056,7.0180297851562505,-0.1972381591796875,6.415997314453126
13.123000000000047,7.091452026367188,0.068487548828125,6.558654785156251
13.133000000000038,7.048834228515625,0.115740966796875,6.928009033203126
13.143000000000027,6.807781982421876,0.15850830078125,7.018927001953125
13.15300000000002,6.246273803710938,0.3026611328125,7.4068237304687505
13.163000000000013,6.275283813476563,0.2890533447265625,7.515386962890625
13.175000000000068,6.689797973632813,0.1789947509765625,7.434637451171875
13.183,7.083526611328126,-0.0635528564453125,6.690396118164063
13.19299999999999,7.134518432617188,-0.165985107421875,6.306835937500001
13.203000000000088,7.019525146484376,-0.2591461181640625,6.339584350585938
13.21300000000008,7.081881713867188,-0.3457275390625,6.909915161132813
13.22300000000007,6.916345214843751,-0.4900299072265625,6.922476196289063
13.23300000000006,6.663778686523438,-0.5972473144531251,6.691143798828126
13.243000000000045,6.97496337890625,-0.561956787109375,6.574057006835938
13.253000000000045,6.716864013671875,-0.5211334228515625,6.966140747070313
13.26300000000004,6.640451049804688,-0.164788818359375,7.42955322265625
13.274999999999975,6.734210205078125,0.4188507080078125,7.592697143554688
13.283000000000015,6.312966918945313,0.8463745117187501,7.003973388671875
13.293000000000006,7.366448974609375,0.7251007080078126,6.417343139648438
13.302999999999995,7.5129943847656255,0.5106658935546875,6.552523803710938
13.312999999999988,6.776080322265625,0.3385498046875,6.686807250976563
13.32299999999998,6.379211425781251,-0.025421142578125,7.284054565429688
13.333000000000084,6.637460327148438,-0.7789337158203126,7.099526977539063
13.343000000000082,7.308129882812499,-1.2801788330078123,7.14005126953125
13.353000000000064,6.767706298828125,-0.93011474609375,6.823782348632813
13.363000000000056,6.486727905273438,-0.2510711669921875,6.741238403320313
13.375,7.040011596679688,0.083441162109375,6.75125732421875
13.383000000000038,7.509405517578125,0.221612548828125,6.510803222656251
13.393000000000027,6.92711181640625,0.7230072021484375,7.005020141601563
13.40300000000002,6.069821166992188,1.099090576171875,7.15799560546875
13.412000000000042,6.330163574218751,0.8302246093750001,7.729971313476563
13.422000000000024,7.115228271484376,0.088824462890625,7.15201416015625
13.432000000000016,7.040011596679688,-0.4209442138671875,6.715817260742188
13.44299999999999,6.573159790039063,-0.6018829345703125,6.520223999023438
13.451999999999998,6.757089233398438,-0.8184112548828125,6.8056884765625005
13.461999999999987,7.29197998046875,-1.077557373046875,7.029095458984376
13.47199999999998,7.430450439453126,-0.974676513671875,6.379660034179688
13.48300000000006,6.682321166992188,-0.4487579345703125,6.359771728515626
13.492000000000075,6.639105224609375,0.116937255859375,6.703256225585938
13.502000000000066,6.909017944335938,0.5576202392578126,7.621258544921876
13.512000000000056,6.76322021484375,0.735418701171875,7.336990356445313
13.522000000000048,6.436184692382813,0.8617767333984375,7.004721069335938
13.53200000000004,6.430502319335938,0.6515289306640626,6.85294189453125
13.54200000000003,7.100872802734376,0.200079345703125,7.211080932617188
13.55200000000002,7.069021606445313,-0.349017333984375,7.060348510742188
13.562000000000012,6.854138183593751,-0.7517181396484376,6.489718627929688
13.572000000000005,6.798211669921876,-0.9957611083984376,6.402838134765625
13.582,7.192687988281251,-1.0969970703125,6.639404296875001
13.591999999999992,7.271044921875,-0.7255493164062501,7.093994140625001
13.60200000000009,6.814959716796875,-0.253912353515625,6.652713012695313
13.61200000000008,6.566879272460938,0.3321197509765625,6.779370117187501
13.622000000000073,6.693087768554688,0.6391174316406251,6.9671875000000005
13.632000000000062,6.817352294921876,0.8765808105468751,7.578790283203125
13.642000000000053,6.369342041015625,0.77579345703125,7.126593017578125
13.652000000000044,6.584674072265625,0.3050537109375,6.893765258789063
13.662000000000042,6.878363037109375,-0.36307373046875,6.624151611328125
13.672000000000024,7.37691650390625,-0.8508605957031251,6.939224243164063
13.682000000000016,7.310372924804688,-0.8798706054687501,6.942514038085938
13.692000000000007,6.749014282226563,-0.8463745117187501,6.148477172851563
13.701999999999998,6.881652832031251,-0.593658447265625,6.949691772460938
13.711999999999987,6.808828735351563,-0.0530853271484375,6.963299560546876
13.72199999999998,6.5484863281250005,0.55926513671875,7.77049560546875
13.732000000000085,6.718209838867188,0.8227478027343751,6.934588623046875
13.742000000000075,7.008010864257813,0.6599029541015625,6.602767944335938
13.752000000000066,6.925915527343751,0.6690246582031251,6.845465087890625
13.762000000000056,6.720452880859376,0.4127197265625,7.065582275390626
13.772000000000048,6.758734130859375,-0.21593017578125,7.137359619140626
13.78200000000004,7.104013061523438,-0.9954620361328126,6.485980224609375
13.79200000000003,7.079190063476563,-1.2427947998046875,6.746023559570313
13.80200000000002,6.542205810546876,-0.8411407470703126,6.981692504882813
13.812000000000012,6.728079223632813,-0.4161590576171875,7.2531005859375
13.822000000000005,7.1256958007812505,-0.10587158203125,6.743032836914063
13.832,7.376766967773438,0.1798919677734375,6.1955810546875005
13.841999999999992,6.76920166015625,0.686370849609375,6.664376831054688
13.85200000000009,6.573010253906251,0.9245819091796876,7.181472778320313
13.86200000000008,6.421231079101563,0.6495849609375001,7.877713012695313
13.872000000000073,6.60770263671875,0.0997406005859375,7.217062377929688
13.882000000000062,6.637460327148438,-0.300567626953125,6.92113037109375
13.892000000000053,6.635067749023438,-0.4741790771484375,6.800006103515625
13.902000000000044,7.115975952148438,-0.6102569580078125,6.886587524414063
13.912000000000042,7.259381103515626,-0.7479797363281251,6.668414306640625
13.922000000000024,7.292129516601563,-0.6418090820312501,6.123056030273438
13.932000000000016,6.846063232421876,-0.3563446044921875,6.461904907226563
13.941000000000033,6.9342895507812505,-0.0366363525390625,6.929953002929688
13.951000000000016,6.826324462890626,0.1567138671875,7.402188110351563
13.961000000000013,6.668414306640625,0.2740997314453125,7.042105102539063
13.971000000000004,6.392071533203126,0.45279541015625,7.070965576171876
13.981000000000002,6.495550537109375,0.4616180419921875,7.234558105468751
13.990999999999984,6.911560058593751,0.3976165771484375,7.428057861328125
14.000999999999976,6.979898071289063,0.0112152099609375,6.730322265625
14.01100000000008,7.023114013671876,-0.307745361328125,6.234759521484375
14.02100000000008,7.0533203125,-0.5653961181640625,6.403137207031251
14.03100000000007,6.935635375976563,-0.764129638671875,6.8619140625
14.041000000000054,7.026104736328126,-0.8350097656250001,6.854437255859375
14.051000000000045,7.035675048828126,-0.9326568603515626,6.500186157226563
14.061000000000035,6.624899291992188,-0.6721649169921875,6.700863647460938
14.071000000000026,6.708190917968751,-0.0115142822265625,7.390823364257813
14.081000000000016,6.475961303710938,0.92174072265625,8.074203491210938
14.091000000000008,6.35887451171875,1.229486083984375,6.9671875000000005
14.101,7.076797485351563,0.96839599609375,6.599029541015626
14.11099999999999,7.401739501953125,0.7191192626953126,6.368295288085938
14.12099999999998,6.960009765625,0.3231475830078125,7.003674316406251
14.131000000000084,6.783856201171876,-0.3712982177734375,7.021319580078125
14.141000000000076,6.866549682617188,-1.3429840087890623,6.607553100585938
14.151000000000067,6.921878051757813,-1.5826904296875002,6.98094482421875
14.161000000000058,6.6740966796875005,-1.0503417968750002,7.099526977539063
14.17100000000005,6.590505981445313,-0.32479248046875,7.357925415039063
14.18100000000004,7.095788574218751,0.218621826171875,6.544448852539063
14.191000000000033,7.164126586914063,0.7092498779296875,6.427362060546876
14.201000000000016,6.841726684570313,1.3032073974609375,6.846063232421876
14.211000000000013,6.565234375,1.32489013671875,7.350747680664063
14.221000000000004,6.569570922851563,0.7490264892578126,7.521817016601563
14.231000000000002,6.81944580078125,-0.146246337890625,6.870138549804688
14.240999999999984,6.537869262695313,-0.750372314453125,7.047637939453126
14.250999999999976,6.668563842773438,-1.0555755615234377,6.901541137695313
14.26100000000008,6.9061767578125,-1.2478790283203125,7.172799682617188
14.27100000000008,7.452133178710938,-1.1949432373046875,6.3211914062500005
14.28100000000007,7.263119506835938,-0.7258483886718751,6.034680175781251
14.291000000000054,6.900494384765626,-0.06041259765625,6.310574340820313
14.301000000000045,6.899298095703125,0.5356384277343751,7.126593017578125
14.311000000000035,6.749761962890625,0.787457275390625,7.523013305664063
14.321000000000026,6.451437377929688,0.8335144042968751,7.121209716796876
14.331000000000016,6.301751708984376,0.6424072265625,7.163528442382813
14.341000000000008,6.8026977539062505,0.3285308837890625,7.273138427734375
14.351,6.829913330078125,-0.043963623046875,7.388729858398438
14.36099999999999,6.785052490234375,-0.4592254638671875,6.666769409179688
14.37099999999998,6.976608276367188,-0.8031585693359375,6.260330200195313
14.381000000000084,7.437179565429688,-1.06888427734375,6.250311279296875
14.391000000000076,7.427459716796876,-0.8949737548828126,6.729574584960938
14.401000000000067,6.796716308593751,-0.5265167236328125,6.790435791015626
14.410000000000077,6.542803955078125,-0.018841552734375,7.024310302734375
14.42000000000008,6.561196899414063,0.3246429443359375,7.076498413085938
14.43100000000004,6.738397216796876,0.6159393310546876,7.384542846679688
14.440000000000056,6.4124084472656255,0.7687652587890625,7.085470581054688
14.450000000000044,6.869839477539063,0.5474517822265625,6.8415771484375005
14.460000000000036,6.808978271484375,0.0070281982421875,6.630432128906251
14.470000000000027,7.2513061523437505,-0.5806488037109375,6.7147705078125
14.480000000000018,7.386486816406251,-0.6919036865234376,7.093395996093751
14.490000000000007,6.6397033691406255,-0.7424468994140625,6.4841857910156255
14.5,6.714172363281251,-0.7031188964843751,6.975860595703126
14.509999999999993,6.840679931640626,-0.356494140625,6.902587890625001
14.519999999999982,6.577047729492188,0.2675201416015625,7.617819213867188
14.530000000000086,6.775482177734376,0.7464843750000001,7.056759643554688
14.540000000000076,6.891970825195313,0.7373626708984375,6.6142822265625005
14.550000000000068,7.231716918945313,0.6757537841796876,6.675741577148438
14.56000000000006,6.892568969726563,0.5060302734375001,6.829913330078125
14.57000000000005,6.535177612304688,-0.0,7.197174072265626
14.58000000000004,6.982589721679688,-0.7494750976562501,6.824230957031251
14.590000000000032,6.886138916015626,-1.2238037109375002,6.905578613281251
14.600000000000025,6.718508911132813,-0.9603210449218752,7.052124023437501
14.610000000000014,6.655255126953126,-0.55029296875,7.049282836914063
14.620000000000005,7.098928833007813,-0.1567138671875,6.779818725585938
14.629999999999995,7.500283813476563,0.1523773193359375,6.174496459960938
14.639999999999986,6.83739013671875,0.63642578125,6.636413574218751
14.649999999999975,6.452334594726563,0.9495544433593752,7.107751464843751
14.660000000000077,6.40672607421875,0.721661376953125,7.879956054687501
14.67000000000008,6.672152709960938,0.22430419921875,7.33983154296875
14.68000000000007,6.574356079101563,-0.25899658203125,6.888381958007813
14.690000000000056,6.631179809570313,-0.475225830078125,6.785351562500001
14.700000000000044,7.067077636718751,-0.6069671630859376,6.913803100585938
14.710000000000036,7.136312866210938,-0.748577880859375,6.901242065429688
14.720000000000027,7.277774047851563,-0.6554168701171875,6.040213012695313
14.730000000000018,7.15440673828125,-0.5016937255859375,6.1970764160156255
14.740000000000007,7.249362182617188,-0.2619873046875,6.436184692382813
14.75,6.821688842773438,0.02691650390625,7.352243041992188
14.759999999999993,6.358126831054688,0.2974273681640625,7.42117919921875
14.769999999999982,6.125,0.587078857421875,7.608847045898438
14.780000000000086,6.491513061523438,0.53533935546875,7.29197998046875
14.790000000000076,7.0210205078125005,0.4762725830078125,7.129284667968751
14.800000000000068,7.120462036132813,0.1915557861328125,6.500933837890625
14.81000000000006,7.002777099609376,-0.11424560546875,6.335845947265626
14.82000000000005,6.9866271972656255,-0.5905181884765626,6.353790283203126
14.83000000000004,7.179977416992188,-1.0913146972656251,6.5831787109375
14.840000000000032,7.3245788574218755,-1.3314697265625002,6.693237304687501
14.850000000000025,6.446502685546876,-1.2350189208984377,6.889279174804688
14.860000000000014,6.389529418945313,-0.45458984375,7.490863037109375
14.870000000000005,6.447399902343751,0.5869293212890625,8.0115478515625
14.879999999999995,6.6636291503906255,1.2357666015625002,7.094442749023438
14.889999999999986,7.2889892578125,1.3374511718750002,6.268255615234375
14.899999999999975,7.360916137695313,1.1295959472656252,6.159393310546876
14.909,6.857727050781251,0.7947845458984376,6.893466186523438
14.92000000000008,6.642095947265625,-0.0862823486328125,7.439273071289063
14.929000000000087,6.609497070312501,-1.178643798828125,7.175042724609376
14.939000000000078,6.856381225585938,-1.747927856445313,6.943560791015625
14.950000000000044,6.716714477539063,-1.3897888183593752,6.97197265625
14.960000000000036,6.859671020507813,-0.6476409912109375,6.933541870117188
14.970000000000027,7.283755493164063,-0.0345428466796875,6.559701538085938
14.979000000000047,7.258035278320313,0.55328369140625,6.1919921875
14.98900000000004,6.812417602539063,1.230682373046875,6.872232055664063
14.999000000000024,6.390277099609375,1.4593231201171877,7.543948364257813
15.009000000000016,6.479550170898438,0.993817138671875,7.709335327148438
15.019000000000004,6.775033569335938,0.1194793701171875,7.055862426757813
15.028999999999996,6.740939331054688,-0.5639007568359375,6.685311889648438
15.038999999999987,6.667816162109376,-0.9381896972656252,6.845166015625001
15.048999999999978,6.990066528320313,-1.1496337890625,7.07664794921875
15.059000000000085,7.232015991210938,-1.1686248779296875,6.744229125976563
15.06900000000008,7.048535156250001,-0.832318115234375,6.255844116210938
15.079000000000072,6.852493286132813,-0.1763031005859375,6.465194702148438
15.089000000000055,6.905279541015625,0.4308135986328125,7.057955932617188
15.099000000000046,6.888082885742188,0.762335205078125,7.266110229492188
15.109000000000036,6.702209472656251,0.6750061035156251,6.732415771484376
15.119000000000028,6.884045410156251,0.4493560791015625,6.740640258789063
15.12900000000002,6.706845092773438,0.142657470703125,7.123452758789063
15.13900000000001,6.605010986328126,-0.0794036865234375,7.666567993164063
15.149,6.4276611328125,-0.32957763671875,7.271044921875
15.159,6.836941528320313,-0.66513671875,6.572860717773438
15.16899999999999,7.39366455078125,-0.8136260986328125,6.222348022460938
15.179000000000087,7.404879760742188,-0.6548187255859376,6.424072265625001
15.189000000000078,7.023861694335938,-0.1697235107421875,6.898699951171875
15.19900000000007,6.624600219726563,0.0300567626953125,6.740640258789063
15.20900000000006,6.756042480468751,0.153424072265625,7.053619384765626
15.219000000000053,6.4647460937500005,0.2106964111328125,6.989767456054688
15.229000000000047,6.6645263671875,0.34393310546875,7.388131713867188
15.23900000000004,6.367547607421876,0.28770751953125,7.258334350585938
15.249000000000024,6.996047973632813,-0.08553466796875,6.844418334960938
15.259000000000016,7.518826293945313,-0.164190673828125,6.713723754882813
15.269000000000004,7.026852416992188,-0.2355194091796875,6.3810058593750005
15.278999999999996,6.958364868164063,-0.3425872802734375,6.529345703125
15.288999999999987,6.773388671875001,-0.49825439453125,6.941168212890625
15.298999999999978,6.631927490234376,-0.3648681640625,7.435086059570313
15.309000000000085,6.446054077148438,-0.032000732421875,7.471722412109376
15.31900000000008,6.661834716796876,0.14415283203125,7.042553710937501
15.329000000000072,7.181173706054688,0.3816162109375,6.840530395507813
15.339000000000055,7.094891357421876,0.6226684570312501,6.5472900390625
15.349000000000046,6.806735229492188,0.6210235595703125,6.7712951660156255
15.359000000000036,7.115975952148438,0.0662445068359375,6.543701171875001
15.369000000000028,7.020870971679688,-0.599639892578125,6.868194580078126
15.37900000000002,6.773837280273438,-0.79373779296875,7.196575927734376
15.38900000000001,6.181375122070313,-0.71717529296875,7.328167724609376
15.399,6.656750488281251,-0.5552276611328125,7.360168457031251
15.408000000000015,7.339981079101563,-0.39716796875,6.408670043945313
15.418000000000006,7.369589233398438,0.0058319091796875,6.306536865234375
15.427999999999995,6.850250244140626,0.562255859375,6.312966918945313
15.439000000000078,6.635516357421875,0.720465087890625,7.279418945312501
15.44799999999998,6.775631713867188,0.5404235839843751,7.485479736328125
15.458000000000084,6.509906005859375,0.1813873291015625,7.3574768066406255
15.468000000000082,6.320144653320313,-0.082843017578125,7.078292846679688
15.478000000000064,6.628338623046876,-0.32000732421875,7.063937377929688
15.48900000000004,7.05870361328125,-0.5324981689453125,7.1813232421875
15.498000000000047,7.242932128906251,-0.632537841796875,6.411660766601563
15.508000000000038,7.1406494140625005,-0.5354888916015625,6.154907226562501
15.518000000000027,7.126742553710938,-0.34034423828125,6.193188476562501
15.52800000000002,7.283306884765626,-0.244940185546875,6.8984008789062505
15.538000000000013,6.868643188476563,-0.07117919921875,7.068423461914063
15.547999999999996,6.341976928710938,0.1900604248046875,7.254446411132813
15.558,6.155804443359376,0.3784759521484375,7.377813720703125
15.56799999999999,6.620413208007813,0.44681396484375,7.568920898437501
15.579000000000072,6.9851318359375005,0.33914794921875,7.117022705078125
15.58800000000008,7.094442749023438,0.1867706298828125,6.462503051757813
15.59800000000007,6.9462524414062505,-0.08194580078125,6.177935791015625
15.60800000000006,7.213473510742188,-0.423486328125,6.602917480468751
15.618000000000045,6.976757812500001,-0.7273437500000001,6.871035766601563
15.628000000000045,6.881353759765625,-0.9688446044921876,6.625198364257813
15.63800000000004,6.908120727539063,-1.0778564453125,6.560000610351563
15.648000000000025,6.395660400390626,-0.853253173828125,7.102667236328125
15.658000000000015,6.871035766601563,-0.0059814453125,7.782757568359376
15.668000000000006,6.555364990234375,0.98095703125,7.828366088867188
15.677999999999995,6.695480346679688,1.2762908935546875,6.372781372070313
15.687999999999988,7.277325439453126,1.14365234375,6.229974365234376
15.69799999999998,7.261026000976563,0.8046539306640625,6.63402099609375
15.708000000000084,6.696826171875,0.384307861328125,7.368392944335938
15.718000000000082,6.441119384765625,-0.5625549316406251,7.340130615234376
15.728000000000064,6.933541870117188,-1.5563720703125,6.68486328125
15.738000000000056,6.993057250976563,-1.5971954345703123,6.975711059570313
15.748000000000047,6.714172363281251,-0.9027496337890626,7.029843139648438
15.758000000000038,6.831857299804688,-0.219818115234375,6.758135986328125
15.768000000000027,7.320541381835938,0.1075164794921875,6.345864868164063
15.77800000000002,7.240988159179688,0.7179229736328125,6.524710083007813
15.788000000000013,6.39835205078125,1.4177520751953123,7.380206298828125
15.797999999999996,6.221151733398438,1.3974151611328125,7.722045898437501
15.808,6.726882934570313,0.609808349609375,7.337588500976563
15.81799999999999,7.127938842773438,-0.3419891357421875,6.609945678710938
15.828000000000088,6.744528198242188,-0.7295867919921876,6.661685180664063
15.83800000000008,6.489718627929688,-0.9773681640625,7.035226440429688
15.84800000000007,7.096237182617188,-1.218121337890625,7.143939208984375
15.85800000000006,7.270745849609375,-1.2092987060546876,6.538616943359376
15.868000000000045,6.915597534179688,-0.6129486083984376,6.218310546875
15.878000000000045,6.755593872070313,0.249127197265625,6.8012023925781255
15.88800000000004,6.7841552734375,0.7823730468750001,7.23336181640625
15.898000000000025,7.130630493164063,0.8140747070312501,7.030740356445313
15.908000000000015,6.969281005859376,0.5878265380859375,6.460409545898438
15.918000000000006,6.525158691406251,0.35948486328125,6.8610168457031255
15.92700000000002,6.402090454101563,0.109161376953125,7.645932006835938
15.937000000000012,6.515438842773438,-0.30684814453125,7.858273315429688
15.947000000000005,6.882699584960938,-0.7137359619140625,6.837539672851563
15.958000000000084,7.0883117675781255,-0.9846954345703126,5.9672393798828125
15.968000000000082,7.41280517578125,-0.7390075683593751,6.220553588867188
15.978000000000064,7.128985595703125,-0.3058013916015625,6.850250244140626
15.988000000000056,6.936233520507813,0.0083740234375,7.041207885742188
15.997000000000073,6.743331909179688,0.1553680419921875,6.65196533203125
16.007000000000062,6.660189819335938,0.2307342529296875,6.788790893554688
16.017000000000053,6.280068969726563,0.436346435546875,7.450189208984375
16.027000000000044,6.537570190429688,0.3961212158203125,7.623800659179688
16.03700000000004,6.630282592773438,0.06998291015625,7.221099853515626
16.047000000000025,7.197622680664063,-0.4460662841796875,6.201412963867188
16.057000000000016,7.623202514648438,-0.4711883544921875,6.482839965820313
16.067000000000007,7.1693603515625,-0.365765380859375,6.5066162109375005
16.076999999999998,6.8550354003906255,-0.396868896484375,6.8669982910156255
16.08699999999999,6.510354614257813,-0.380718994140625,6.979000854492188
16.09699999999998,6.367248535156251,-0.093310546875,7.487423706054688
16.107000000000085,6.5559631347656255,0.3838592529296875,7.669708251953126
16.117000000000075,6.871185302734376,0.4777679443359375,7.033432006835938
16.127000000000066,7.242333984375,0.504833984375,6.511849975585938
16.137000000000057,7.024758911132813,0.5019927978515626,6.165374755859376
16.147000000000048,6.916793823242188,0.2409027099609375,6.853988647460938
16.15700000000004,7.12210693359375,-0.3982147216796875,6.925915527343751
16.16700000000003,6.840081787109376,-0.9893310546875,7.048086547851563
16.17700000000002,6.432296752929688,-0.9129180908203126,7.101620483398438
16.187000000000012,6.343472290039063,-0.5976959228515626,7.239941406250001
16.197000000000003,7.048834228515625,-0.2782867431640625,7.205996704101563
16.207,7.470825195312501,0.0287109375,6.295620727539063
16.21699999999999,7.081134033203125,0.460870361328125,6.207095336914063
16.22700000000009,6.646133422851563,0.8704498291015625,6.602618408203125
16.23700000000008,6.629833984375001,0.7089508056640625,7.654006958007813
16.24700000000007,6.752005004882813,0.30445556640625,7.6550537109375005
16.257000000000062,6.387734985351563,-0.13218994140625,7.0927978515625005
16.267000000000053,6.35947265625,-0.418402099609375,6.942514038085938
16.277000000000044,6.848455810546875,-0.56165771484375,7.032235717773438
16.28700000000004,7.205996704101563,-0.6304443359375,7.153659057617188
16.297000000000025,7.271493530273438,-0.5268157958984375,6.189151000976563
16.307000000000016,7.071862792968751,-0.4044952392578125,5.91864013671875
16.317000000000007,7.411160278320313,-0.294586181640625,6.137860107421876
16.326999999999998,7.398599243164063,-0.1777984619140625,7.054516601562501
16.33699999999999,6.518429565429688,0.01854248046875,7.325625610351563
16.34699999999998,5.90428466796875,0.3407928466796875,7.537966918945313
16.357000000000085,6.112588500976563,0.3877471923828125,7.6072021484375005
16.367000000000075,6.949093627929688,0.3862518310546875,7.510003662109375
16.377000000000066,7.117471313476563,0.2911468505859375,6.770697021484375
16.387000000000057,7.027151489257813,0.189910888671875,6.186459350585938
16.397000000000048,7.035226440429688,-0.0584686279296875,6.241787719726563
16.40700000000004,7.185211181640626,-0.6144439697265626,6.679629516601563
16.41700000000003,7.103414916992188,-0.9775177001953126,6.697125244140626
16.42700000000002,6.999188232421876,-1.2897491455078125,6.43125
16.436000000000035,6.55386962890625,-1.2152801513671876,6.81107177734375
16.447000000000003,6.341229248046876,-0.6122009277343751,7.570416259765626
16.457,6.880157470703126,0.4936187744140625,8.300750732421875
16.46699999999999,6.451736450195313,1.3733398437500002,6.986029052734375
16.476,6.869839477539063,1.48878173828125,6.154907226562501
16.48599999999999,7.560696411132813,1.2948333740234377,6.2987609863281255
16.49599999999998,7.015188598632813,0.8345611572265625,6.984982299804688
16.506000000000085,6.671704101562501,0.0148040771484375,7.494900512695313
16.516000000000076,6.492410278320313,-1.26387939453125,6.71776123046875
