time,ax,ay,az
0.0,6.5185791015625005,0.0898712158203125,6.609197998046875
0.0099999999999909,6.605758666992188,0.13338623046875,7.210781860351563
0.0200000000000954,6.992309570312501,0.0291595458984375,7.286447143554688
0.0300000000000864,7.217062377929688,-0.135479736328125,6.809277343750001
0.0400000000000773,6.800454711914063,-0.165985107421875,6.175543212890625
0.0500000000000682,6.794024658203125,0.011962890625,6.52037353515625
0.0600000000000591,6.848455810546875,0.15731201171875,7.578341674804688
0.07000000000005,6.628787231445313,0.0770111083984375,7.3933654785156255
0.0790000000000645,6.708639526367188,-0.1208251953125,6.956420898437501
0.0890000000000554,6.73331298828125,-0.2441925048828125,6.548037719726563
0.0990000000000463,7.029544067382813,-0.167779541015625,6.7653137207031255
0.1090000000000372,7.181173706054688,0.0154022216796875,7.163677978515626
0.1190000000000282,6.911859130859376,0.0698333740234375,6.5036254882812505
0.1290000000000191,7.135714721679688,-0.0124114990234375,6.379360961914063
0.13900000000001,6.951934814453126,-0.0979461669921875,6.570468139648438
0.1490000000000009,6.937130737304688,-0.1389190673828125,7.164126586914063
0.1589999999999918,6.660339355468751,-0.1760040283203125,7.416693115234375
0.1690000000000964,6.437680053710938,-0.289202880859375,6.853240966796876
0.1790000000000873,6.976757812500001,-0.334661865234375,6.807632446289063
0.1890000000000782,6.9420654296875,-0.2429962158203125,6.770248413085938
0.1990000000000691,7.0404602050781255,0.0512908935546875,6.945654296875
0.20900000000006,6.9941040039062505,0.188714599609375,6.793426513671876
0.2190000000000509,6.752603149414063,0.14893798828125,6.627441406250001
0.2290000000000418,7.089956665039063,0.0509918212890625,6.781463623046876
0.2390000000000327,6.771893310546876,-0.054132080078125,7.069021606445313
0.2490000000000236,6.656451416015625,-0.039178466796875,7.06827392578125
0.2590000000000145,6.805838012695313,-0.0366363525390625,6.999636840820313
0.2690000000000054,6.575552368164063,0.0832916259765625,6.842773437500001
0.2789999999999963,7.0688720703125005,0.1591064453125,6.824679565429688
0.2890000000001009,7.001132202148438,0.2358184814453125,6.948794555664063
0.2990000000000918,6.841876220703125,0.1783966064453125,6.709088134765626
0.3090000000000827,6.748864746093751,-0.05084228515625,7.075900268554688
0.3190000000000736,6.468334960937501,-0.3781768798828125,7.167117309570313
0.3290000000000646,6.8140625,-0.4508514404296875,7.447796630859376
0.3390000000000555,6.769949340820313,-0.3662139892578125,7.0856201171875
0.3490000000000464,6.933990478515626,0.021533203125,6.464297485351563
0.3590000000000373,7.0473388671875,0.2404541015625,6.344818115234376
0.3690000000000282,7.223492431640626,0.208154296875,6.478652954101563
0.3790000000000191,7.040011596679688,0.0267669677734375,7.263867187500001
0.38900000000001,6.263919067382813,-0.1754058837890625,7.678530883789063
0.3990000000000009,6.02451171875,-0.2391082763671875,7.622006225585938
0.4089999999999918,6.541757202148438,-0.370849609375,7.340728759765626
0.4190000000000964,7.06827392578125,-0.3043060302734375,6.621160888671875
0.4290000000000873,7.664474487304688,0.0291595458984375,6.249114990234376
0.4390000000000782,7.50791015625,0.2603424072265625,5.900845336914063
0.4490000000000691,7.173846435546875,0.2690155029296875,6.161038208007813
0.45900000000006,6.775482177734376,0.175555419921875,6.9420654296875
0.4690000000000509,6.41629638671875,-0.0107666015625,7.396954345703126
0.4790000000000418,6.5448974609375,-0.1493865966796875,7.464395141601563
0.4890000000000327,6.682321166992188,-0.258697509765625,7.168164062500001
0.4990000000000236,6.7877441406250005,-0.139666748046875,6.6995178222656255
0.5090000000000146,7.085919189453126,0.3536529541015625,6.871334838867188
0.5190000000000055,6.81346435546875,0.6365753173828126,6.648376464843751
0.5289999999999964,7.316802978515626,0.753363037109375,6.428408813476563
0.539000000000101,7.031488037109376,0.3194091796875,6.078045654296876
0.5490000000000919,7.641744995117188,-0.291595458984375,6.1070556640625
0.5590000000000828,6.586618041992188,-0.9135162353515626,7.326223754882813
0.5690000000000737,7.603463745117188,-0.7011749267578126,7.604360961914063
0.5780000000000882,4.593450927734375,-0.085833740234375,8.05640869140625
0.5890000000000555,5.86600341796875,0.2917449951171875,7.359719848632813
0.59800000000007,7.586715698242188,0.1544708251953125,7.7435791015625
0.6090000000000373,7.83330078125,-0.2435943603515625,6.180926513671875
0.6180000000000518,8.593093872070312,-0.3213531494140625,4.619320678710938
0.6280000000000427,6.1884033203125,-0.424981689453125,6.0116516113281255
0.6380000000000337,7.213174438476563,-0.2630340576171875,6.462503051757813
0.6490000000000009,7.232464599609376,-0.6122009277343751,8.604159545898439
0.6580000000000155,7.164724731445313,-1.0917633056640623,5.975015258789063
0.6680000000000064,6.6456848144531255,-1.04376220703125,5.915200805664063
0.6779999999999973,6.166870117187501,-0.1718170166015625,7.647128295898438
0.6879999999999882,6.155654907226563,1.092959594726563,8.260525512695313
0.6980000000000928,6.450241088867188,1.37872314453125,8.650814819335938
0.7080000000000837,6.685760498046876,1.048248291015625,6.0849243164062505
0.7180000000000746,7.310223388671876,0.47073974609375,5.5092102050781255
0.7280000000000655,7.179229736328126,0.4110748291015625,6.993505859375
0.7380000000000564,7.188201904296876,0.4024017333984375,7.194931030273438
0.7480000000000473,6.473718261718751,-0.116339111328125,7.429403686523438
0.7580000000000382,7.013394165039063,-0.495263671875,6.018231201171876
0.7680000000000291,7.197323608398438,-0.769512939453125,6.154010009765625
0.77800000000002,7.105209350585938,-0.4756744384765625,7.038665771484376
0.7880000000000109,6.563140869140626,-0.248529052734375,7.217510986328126
0.7980000000000018,6.453530883789063,-0.1383209228515625,7.530639648437501
0.8079999999999927,6.613983154296876,-0.2540618896484375,6.707443237304688
0.8180000000000973,7.30992431640625,-0.4373931884765625,6.668713378906251
0.8280000000000882,7.052572631835938,-0.25780029296875,6.980496215820313
0.8380000000000791,6.644039916992188,-0.0650482177734375,6.724938964843751
0.84800000000007,6.560000610351563,0.2636322021484375,7.478302001953126
0.8580000000000609,6.55028076171875,0.27694091796875,7.112088012695313
0.8680000000000518,7.047039794921876,0.1359283447265625,6.805838012695313
0.8780000000000427,7.375122070312501,-0.05802001953125,6.172552490234375
0.8880000000000337,6.549682617187501,-0.288006591796875,6.241339111328125
0.8980000000000246,7.035226440429688,-0.1410125732421875,7.218258666992188
0.9080000000000156,6.978103637695313,0.3859527587890625,8.069268798828126
0.9180000000000064,6.199319458007813,0.945068359375,7.46962890625
0.9279999999999972,6.273937988281251,0.90618896484375,6.707443237304688
0.9379999999999882,6.750360107421876,0.5561248779296876,7.143640136718751
0.9480000000000928,7.416543579101563,-0.2639312744140625,6.583328247070313
0.9580000000000836,7.691989135742188,-1.2254486083984375,6.582730102539063
0.9680000000000746,7.231866455078125,-1.6556640625,5.7098876953125
0.9780000000000656,6.8415771484375005,-1.5476989746093752,6.551626586914063
0.9880000000000564,6.369192504882813,-1.0107147216796877,7.16995849609375
0.9980000000000472,7.709634399414063,-0.431561279296875,6.789389038085938
1.0080000000000382,7.316653442382813,-0.2328277587890625,6.117523193359375
1.018000000000029,7.083676147460938,0.31282958984375,5.897555541992188
1.02800000000002,5.757290649414063,1.296328735351563,7.840179443359376
1.038000000000011,5.699868774414063,1.969241333007813,9.188098144531253
1.0480000000000018,6.103167724609375,1.6875152587890627,8.352639770507814
1.0579999999999927,7.170706176757813,0.7719055175781251,6.505120849609376
1.068000000000097,7.5019287109375,0.236566162109375,5.194137573242188
1.0780000000000882,7.009805297851563,-0.21234130859375,5.9039855957031255
1.0880000000000791,7.510452270507813,-0.5474517822265625,7.229025268554688
1.0970000000000937,7.051824951171875,-1.137969970703125,6.886886596679688
1.1070000000000846,6.979000854492188,-1.4880340576171875,6.198721313476563
1.1170000000000757,6.571514892578126,-1.170269775390625,6.813015747070313
1.1270000000000664,6.424969482421876,-0.3982147216796875,7.7657104492187505
1.1370000000000573,6.003427124023438,0.3937286376953125,7.997042846679688
1.1480000000000246,7.461404418945313,0.55567626953125,6.584973144531251
1.157000000000039,6.685311889648438,0.1918548583984375,5.8869384765625
1.16700000000003,7.998239135742188,0.2059112548828125,6.086419677734376
1.177000000000021,7.411309814453125,0.8409912109375001,7.903732299804688
1.1870000000000118,6.227133178710938,0.7309326171875,7.082778930664063
1.1970000000000027,6.203506469726563,-0.1830322265625,6.6561523437500005
1.2069999999999936,6.535177612304688,-0.6114532470703126,7.298260498046876
1.2170000000000982,7.113583374023438,-0.6069671630859376,7.035226440429688
1.2270000000000891,7.01085205078125,-0.2567535400390625,7.689297485351563
1.23700000000008,6.958065795898438,-0.198583984375,5.732318115234375
1.247000000000071,7.144537353515625,0.23148193359375,6.495999145507813
1.2570000000000618,6.682321166992188,0.5477508544921875,6.802398681640626
1.2670000000000528,6.960458374023438,0.5495452880859375,7.382150268554688
1.2770000000000437,6.775332641601563,0.12860107421875,7.413851928710938
1.2870000000000346,6.337341308593751,-0.4134674072265625,6.518130493164063
1.2970000000000257,6.632675170898438,-0.348419189453125,7.255792236328125
1.3070000000000164,6.285452270507813,-0.414813232421875,7.515686035156251
1.3170000000000073,7.162481689453125,-0.368756103515625,7.041207885742188
1.3269999999999982,7.425665283203125,-0.3491668701171875,6.400894165039063
1.336999999999989,7.572958374023438,-0.3479705810546875,5.254101562500001
1.3470000000000937,7.135714721679688,0.1386199951171875,6.572113037109376
1.3570000000000846,6.406875610351563,0.3724945068359375,7.602416992187501
1.3670000000000757,6.4228759765625005,0.3877471923828125,7.823132324218751
1.3770000000000664,6.231021118164063,0.0563751220703125,7.420880126953126
1.3870000000000573,6.995449829101563,-0.2651275634765625,6.373229980468751
1.3970000000000482,7.170257568359376,-0.1906585693359375,6.829165649414063
1.407000000000039,7.158743286132813,-0.0566741943359375,6.746322631835938
1.41700000000003,6.348406982421875,-0.1386199951171875,6.425119018554688
1.427000000000021,8.15869140625,-0.5296569824218751,5.5869689941406255
1.4370000000000118,6.914550781250001,-0.9974060058593752,6.2628723144531255
1.4470000000000027,6.681723022460938,-1.0385284423828125,7.003225708007813
1.4569999999999936,6.439923095703126,0.133685302734375,8.984280395507813
1.4670000000000982,5.969332885742188,0.9365447998046876,8.265908813476564
1.4770000000000891,6.737799072265625,1.2139343261718751,6.872531127929688
1.48700000000008,7.1720520019531255,1.4013031005859375,6.0807373046875
1.497000000000071,7.060498046875001,1.33924560546875,5.879611206054688
1.5070000000000618,7.364505004882813,0.6021820068359376,6.935485839843751
1.5170000000000528,7.279568481445313,-0.8988616943359375,6.902438354492188
1.5270000000000437,7.231118774414063,-1.7672180175781251,6.850100708007813
1.5370000000000346,5.4371337890625,-1.4147613525390623,7.609146118164063
1.5470000000000257,5.887088012695313,-0.67530517578125,7.932742309570313
1.5570000000000164,6.478353881835938,-0.032000732421875,8.11502685546875
1.5670000000000073,7.288839721679688,0.3979156494140625,6.3295654296875
1.5769999999999982,7.648623657226563,1.1388671875,5.337542724609375
1.5860000000000127,7.035525512695313,1.4135650634765626,5.701962280273438
1.5960000000000036,7.634567260742188,0.8979644775390626,6.22130126953125
1.6059999999999943,7.710980224609376,-0.2968292236328125,7.600323486328126
1.6160000000000991,6.629833984375001,-1.582989501953125,6.280368041992188
1.6270000000000664,5.996249389648438,-1.463958740234375,7.639801025390626
1.6370000000000573,4.697528076171875,-1.006378173828125,8.406024169921876
1.646000000000072,7.078143310546875,-0.5875274658203126,7.861862182617188
1.6560000000000628,7.975509643554688,-0.107666015625,6.685760498046876
1.6660000000000537,8.2986572265625,0.397467041015625,3.9226318359375
1.6760000000000446,6.917990112304688,1.2819732666015626,5.325131225585938
1.6860000000000357,6.844717407226563,1.4688934326171876,7.967285156250001
1.6960000000000264,6.09329833984375,0.9338531494140626,8.679675292968751
1.7060000000000173,6.323733520507813,-0.2148834228515625,7.69991455078125
1.7160000000000082,6.1910949707031255,-1.1494842529296876,5.96409912109375
1.7270000000000891,7.156051635742188,-1.2861602783203123,5.930154418945313
1.73599999999999,7.904180908203125,-1.2671691894531252,6.858175659179688
1.7460000000000946,7.9325927734375,-1.3335632324218751,6.1046630859375
1.7560000000000855,7.116424560546876,-1.0008453369140626,6.213674926757813
1.7660000000000764,6.020773315429688,0.7304840087890625,7.530191040039063
1.7760000000000673,6.206198120117188,1.958175659179688,8.727078247070313
1.7860000000000582,6.282611083984375,2.5027862548828126,8.420678710937501
1.7960000000000491,6.408670043945313,1.7495727539062502,6.040960693359375
1.80600000000004,7.207492065429688,0.7690643310546875,5.7051025390625005
1.816000000000031,7.581332397460938,-0.0590667724609375,6.833801269531251
1.8269999999999984,7.08023681640625,-1.0491455078125,7.627688598632813
1.8360000000000127,6.330313110351563,-1.756900024414063,7.422824096679688
1.846000000000004,5.93359375,-2.0233734130859378,6.806137084960938
1.8559999999999943,6.403585815429688,-1.1097076416015623,7.718905639648438
1.8660000000000991,6.322088623046875,0.0321502685546875,7.930050659179688
1.87600000000009,7.265512084960938,1.1171844482421875,6.935037231445313
1.886000000000081,7.199716186523438,1.3853027343750002,5.288943481445313
1.896000000000072,8.385238647460938,1.1835784912109375,4.288845825195313
1.9060000000000628,8.4948486328125,0.3363067626953125,5.387188720703126
1.9160000000000537,7.917938232421876,-0.6711181640625,6.3884826660156255
1.927000000000021,5.829217529296876,-1.5276611328125,7.745523071289063
1.936000000000036,5.116378784179688,-1.74598388671875,9.074450683593753
1.9460000000000264,4.453634643554688,-1.1171844482421875,8.921624755859376
1.9560000000000173,7.225735473632813,-0.19140625,7.993603515625001
1.966000000000008,7.845263671875,0.701324462890625,5.695980834960938
1.975999999999999,8.431893920898439,1.314422607421875,4.2288818359375
1.98599999999999,7.39964599609375,1.7700592041015626,5.746075439453126
1.9960000000000944,6.564785766601563,1.52467041015625,7.723989868164063
2.006000000000085,5.941519165039063,0.162994384765625,8.460903930664063
2.0160000000000764,5.47960205078125,-1.194195556640625,8.039511108398438
2.027000000000044,6.183468627929688,-1.882061767578125,6.642245483398438
2.036000000000058,7.482489013671875,-1.878472900390625,6.9985900878906255
2.046000000000049,7.624099731445313,-1.4989501953125002,5.9851837158203125
2.05600000000004,8.460305786132814,-0.446514892578125,5.667718505859376
2.066000000000031,6.986477661132813,0.7502227783203126,6.261227416992188
2.075000000000045,6.252105712890626,1.7909942626953126,7.008609008789063
2.0850000000000364,6.188253784179688,2.2521636962890628,8.83997802734375
2.095000000000028,5.73919677734375,2.041766357421875,8.435183715820314
2.105000000000018,6.347958374023438,1.27225341796875,6.997393798828125
2.115000000000009,7.015188598632813,0.08134765625,6.504522705078125
2.1270000000000664,8.242431640625,-1.03658447265625,5.71287841796875
2.136000000000081,7.307980346679688,-1.6206726074218751,6.728527832031251
2.146000000000072,6.731069946289063,-1.6812347412109376,6.185562133789063
2.1550000000000864,6.758135986328125,-1.568484497070313,7.094741821289063
2.1650000000000773,6.856829833984375,-1.3525543212890625,6.569271850585938
2.175000000000068,7.101620483398438,-0.3712982177734375,7.009506225585938
2.185000000000059,6.800006103515625,0.8006164550781251,6.846063232421876
2.19500000000005,6.2882934570312505,1.7093475341796875,6.884045410156251
2.205000000000041,7.0975830078125,1.9550354003906247,7.191491699218751
2.215000000000032,6.796865844726563,1.3335632324218751,7.173098754882813
2.2250000000000227,6.851596069335938,0.7751953125000001,7.105657958984375
2.2350000000000136,6.328817749023438,0.1493865966796875,7.304840087890626
2.2450000000000045,5.835946655273438,-0.7765411376953125,7.320541381835938
2.2549999999999955,7.375421142578125,-1.4678466796875,7.246670532226563
2.2650000000001,7.331158447265626,-1.5079223632812502,6.560598754882813
2.275000000000091,7.232614135742188,-1.088922119140625,5.631979370117188
2.285000000000082,7.393814086914063,-0.5743682861328125,6.148776245117188
2.2950000000000728,7.829263305664063,-0.0632537841796875,6.197824096679688
2.305000000000064,6.4482971191406255,0.304156494140625,6.741088867187501
2.316000000000031,6.856829833984375,0.4723846435546875,6.184963989257813
2.325000000000045,6.677386474609375,0.4155609130859375,7.913302612304688
2.3350000000000364,6.185263061523438,-0.0563751220703125,7.645034790039063
2.345000000000028,6.05142822265625,0.7672698974609375,8.724835205078126
2.355000000000018,6.2195068359375005,1.0684356689453125,7.528695678710938
2.365000000000009,6.84337158203125,0.34871826171875,5.7380004882812505
2.375,9.128732299804687,-0.481207275390625,5.366851806640625
2.384999999999991,7.38768310546875,-0.7357177734375,5.778823852539063
2.3950000000000955,6.387435913085938,-0.169573974609375,7.094891357421876
2.4050000000000864,5.6644287109375,-0.373541259765625,8.601617431640626
2.4150000000000773,6.846810913085938,-0.6850250244140625,7.77169189453125
2.425000000000068,6.774435424804688,-0.2045654296875,7.306634521484375
2.435000000000059,6.4049316406250005,0.8338134765625,6.227731323242188
2.44500000000005,7.208837890625,1.24114990234375,6.35289306640625
2.455000000000041,7.842572021484376,0.55328369140625,6.741238403320313
2.465000000000032,7.352691650390626,0.0466552734375,5.9294067382812505
2.4750000000000227,6.600823974609376,-0.070880126953125,7.230520629882813
2.4850000000000136,4.916598510742188,-0.392083740234375,7.643688964843751
2.4950000000000045,6.992160034179688,-0.7403533935546875,8.382546997070314
2.5049999999999955,6.871334838867188,-0.9191986083984376,7.285400390625001
2.5150000000001,7.523162841796876,-0.588873291015625,5.16258544921875
2.525000000000091,7.001132202148438,0.071478271484375,5.76431884765625
2.535000000000082,8.017230224609376,0.337652587890625,6.514840698242188
2.5450000000000728,7.125247192382813,0.5031890869140625,7.2961669921875005
2.555000000000064,6.539663696289063,0.240753173828125,6.744378662109376
2.5650000000000546,5.791683959960938,0.0462066650390625,6.829913330078125
2.575000000000045,6.658245849609376,-0.215032958984375,7.811618041992188
2.5850000000000364,6.716265869140625,-0.2537628173828125,8.151513671875001
2.594000000000051,7.044796752929688,0.0115142822265625,6.95103759765625
2.604000000000042,6.248965454101563,0.26976318359375,6.235656738281251
2.6140000000000327,7.059002685546876,0.3533538818359375,5.910714721679688
2.624000000000024,7.646679687500001,0.0095703125,6.6636291503906255
2.6340000000000146,8.250506591796876,-0.5779571533203125,6.089111328125
2.644000000000005,6.6382080078125005,-1.116436767578125,5.857330322265625
2.6539999999999964,5.981893920898438,-1.06708984375,7.2064453125
2.664000000000101,6.4662414550781255,-0.0928619384765625,9.060842895507813
2.674000000000092,6.055017089843751,0.6156402587890626,8.533428955078126
2.6840000000000828,6.718060302734376,0.9568817138671876,6.507064819335938
2.6940000000000737,7.273886108398438,1.3050018310546876,5.637661743164063
2.704000000000065,7.139453125,1.4982025146484377,5.86600341796875
2.7140000000000555,8.0235107421875,0.8698516845703126,7.207940673828125
2.7240000000000464,6.958364868164063,-0.5046844482421875,6.836343383789063
2.7340000000000373,6.36246337890625,-1.3180114746093752,6.964047241210938
2.744000000000028,5.470181274414063,-1.2094482421875,7.734307861328125
2.754000000000019,6.514242553710938,-0.9950134277343752,8.162728881835939
2.76400000000001,7.531387329101563,-0.8339630126953126,7.000234985351563
2.774000000000001,7.576846313476563,-0.304754638671875,5.257391357421875
2.783999999999992,7.462301635742188,0.7008758544921876,5.115032958984376
2.7940000000000964,6.2882934570312505,1.4784637451171876,7.338784790039063
2.804000000000088,6.700265502929688,1.3687042236328126,8.095138549804688
2.814000000000078,6.653161621093751,0.672314453125,8.008856201171875
2.824000000000069,6.3032470703125005,-0.2548095703125,6.002679443359376
2.83400000000006,6.936532592773438,-0.7283905029296875,6.564935302734376
2.844000000000051,7.329364013671875,-0.8815155029296876,7.552920532226563
2.854000000000042,6.593197631835938,-0.7568023681640625,7.611837768554688
2.8640000000000327,6.44620361328125,-0.5492462158203125,6.0903076171875
2.874000000000024,7.453329467773438,-0.401654052734375,5.886190795898438
2.8840000000000146,7.951733398437501,-0.3757843017578125,5.701513671875
2.894000000000005,7.800701904296876,0.0765625,6.989468383789063
2.9039999999999964,6.165225219726563,0.6519775390625,7.048385620117188
2.914000000000101,5.518331909179688,0.8338134765625,7.8509460449218755
2.924000000000092,6.047689819335938,0.5969482421875001,7.913153076171875
2.9340000000000828,7.1481262207031255,0.2878570556640625,7.769897460937501
2.9440000000000737,6.695928955078125,0.195892333984375,6.584225463867188
2.954000000000065,6.283657836914063,-0.1296478271484375,5.4912658691406255
2.9640000000000555,7.892666625976563,-0.72196044921875,5.883648681640626
2.9740000000000464,8.621206665039063,-1.715029907226563,6.15550537109375
2.9840000000000373,8.287890625000001,-1.7023193359375002,6.4109130859375005
2.994000000000028,5.6292877197265625,-0.2235565185546875,7.3485046386718755
3.004000000000019,4.677490234375,0.94566650390625,8.679525756835938
3.01400000000001,6.213824462890625,1.5642974853515623,8.920428466796876
3.024000000000001,6.5858703613281255,1.4774169921875,7.241885375976563
3.033999999999992,7.723989868164063,1.25430908203125,5.152117919921875
3.0440000000000964,8.345761108398438,0.7191192626953126,5.467788696289063
3.054000000000088,7.065731811523438,0.078057861328125,6.579141235351563
3.062999999999988,6.572561645507813,-0.4311126708984375,7.91524658203125
3.074000000000069,5.296868896484376,-1.1834289550781252,7.885937500000001
3.083000000000084,6.693386840820313,-1.6510284423828123,7.333102416992188
3.0930000000000746,7.398150634765625,-1.5348388671875002,6.6908447265625
3.103000000000065,6.793276977539063,-0.38699951171875,6.707443237304688
3.1130000000000564,6.44022216796875,0.8055511474609376,6.545944213867188
3.123000000000048,6.960458374023438,1.47562255859375,7.433291625976563
3.133000000000038,7.160537719726563,1.2350189208984377,5.728131103515626
3.144000000000005,8.540756225585938,0.551788330078125,5.967987060546875
3.15300000000002,7.313363647460938,-0.3943267822265625,5.416647338867188
3.163000000000011,6.747219848632813,-0.615789794921875,7.426712036132813
3.173000000000002,4.677490234375,-0.8569915771484375,8.952877807617188
3.1829999999999927,5.955874633789063,-0.7448394775390625,8.840426635742189
3.1930000000000973,6.287994384765626,-0.6391174316406251,7.174743652343751
3.203000000000088,8.497689819335939,-0.3022125244140625,5.3605712890625
3.213000000000079,7.608099365234375,0.435748291015625,4.96878662109375
3.22300000000007,7.806683349609376,1.1496337890625,6.545495605468751
3.233000000000061,6.197824096679688,1.089968872070313,6.995001220703125
3.243000000000052,7.253848266601563,0.2444915771484375,7.253997802734376
3.2530000000000427,6.307434082031251,-0.7251007080078126,6.834249877929688
3.2630000000000337,6.389678955078126,-0.8587860107421875,7.626641845703125
3.273000000000025,5.074508666992188,-0.478216552734375,8.366098022460939
3.2830000000000155,7.219006347656251,-0.3886444091796875,6.660040283203125
3.2930000000000064,7.7507568359375005,-0.8734405517578125,5.673251342773438
3.3029999999999973,9.254641723632814,-1.2828704833984377,4.2341156005859375
3.312999999999988,7.65086669921875,-0.0442626953125,6.312966918945313
3.3230000000000928,6.0883636474609375,1.5723724365234375,8.810519409179689
3.333000000000084,4.711883544921875,2.136871337890625,8.828463745117189
3.3430000000000746,5.2629241943359375,1.49954833984375,8.436679077148439
3.353000000000065,6.504821777343751,0.6449493408203125,6.332107543945313
3.3630000000000564,8.141345214843751,0.1595550537109375,6.395510864257813
3.373000000000048,8.632870483398438,-0.7135864257812501,6.088961791992188
3.383000000000038,7.266857910156251,-1.299468994140625,5.31810302734375
3.393000000000029,6.097933959960938,-1.1572601318359377,7.235006713867188
3.40300000000002,5.351748657226563,-0.8059997558593751,7.947247314453126
3.413000000000011,7.362561035156251,-0.438739013671875,8.606253051757813
3.423000000000002,7.206893920898438,-0.0650482177734375,6.534429931640625
3.4329999999999927,6.551925659179688,0.5662933349609376,4.919439697265625
3.4430000000000973,7.021170043945313,1.3788726806640623,6.661386108398438
3.453000000000088,6.616824340820313,1.386050415039063,8.022763061523438
3.463000000000079,7.095339965820313,0.696240234375,7.605108642578125
3.47300000000007,7.130331420898438,-0.4892822265625,6.142346191406251
3.483000000000061,7.152163696289063,-1.4367431640625,5.00048828125
3.493000000000052,6.807333374023438,-1.29677734375,7.383944702148438
3.5030000000000427,6.238348388671875,-0.96361083984375,8.362509155273438
3.5120000000000573,6.874176025390626,-0.4224395751953125,7.609893798828126
3.523000000000025,6.454727172851563,-0.0883758544921875,5.891125488281251
3.5330000000000155,7.886535644531251,0.35948486328125,5.118771362304688
3.5430000000000064,7.5521728515625,1.1056701660156252,7.200762939453125
3.5529999999999973,6.857427978515625,1.2885528564453126,7.554565429687501
3.562000000000012,5.591604614257813,0.97318115234375,7.403085327148438
3.5720000000000027,5.611343383789063,-0.174658203125,6.852044677734376
3.5819999999999936,6.81944580078125,-1.0932586669921875,6.629684448242188
3.5920000000000982,8.090353393554688,-1.6504302978515626,7.1705566406250005
3.602000000000089,9.142190551757814,-1.863519287109375,5.919537353515626
3.61200000000008,7.385888671875,-0.6358276367187501,5.476162719726563
3.622000000000071,5.3940673828125005,0.6232666015625,6.848904418945313
3.632000000000062,5.78226318359375,1.804302978515625,9.225183105468751
3.643000000000029,4.836148071289063,2.223602294921875,9.4518798828125
3.652000000000044,6.759780883789063,1.37274169921875,7.049133300781251
3.6620000000000346,8.3201904296875,0.631939697265625,5.235409545898438
3.6720000000000255,7.9828369140625,-0.140264892578125,4.798913574218751
3.682000000000016,7.736700439453125,-0.59036865234375,6.644937133789063
3.6920000000000073,5.512200927734376,-1.0802490234375002,8.16168212890625
3.701999999999998,6.400894165039063,-1.6109527587890626,7.40921630859375
3.711999999999989,7.132125854492188,-1.9565307617187504,7.127639770507813
3.7220000000000937,7.212576293945313,-1.4584259033203126,5.59324951171875
3.7320000000000846,6.902587890625001,0.266473388671875,6.914999389648438
3.742000000000076,6.358724975585938,1.6905059814453127,7.784103393554688
3.7520000000000655,6.133673095703125,2.178741455078125,7.446749877929688
3.762000000000057,7.243380737304688,1.765872192382813,6.868493652343751
3.772000000000048,7.413851928710938,0.92413330078125,5.893368530273438
3.782000000000039,6.995599365234376,-0.0121124267578125,6.229974365234376
3.79200000000003,6.8224365234375,-0.9254791259765626,7.717111206054688
3.802000000000021,6.150271606445313,-1.6632904052734376,7.491610717773438
3.812000000000012,6.840081787109376,-1.8330139160156247,7.506115722656251
3.8220000000000014,6.434689331054688,-1.3929290771484375,6.376370239257813
3.8319999999999936,7.73819580078125,-0.5052825927734376,5.981295776367188
3.842000000000098,7.393814086914063,0.4236358642578125,6.579440307617188
3.852000000000089,7.897601318359375,0.9087310791015626,5.476162719726563
3.86200000000008,6.98453369140625,1.2242523193359376,6.687106323242188
3.872000000000071,6.277377319335938,0.9045440673828126,6.999636840820313
3.882000000000062,5.600128173828125,0.7508209228515625,8.813809204101563
3.8920000000000528,5.494256591796876,0.05562744140625,8.2125244140625
3.902000000000044,7.037619018554688,-0.7428955078125,6.916195678710938
3.9120000000000346,7.7193542480468755,-1.4715850830078123,5.390628051757813
3.9220000000000255,8.493203735351564,-1.7527130126953123,5.0920043945312505
3.932000000000016,7.9325927734375,-0.68726806640625,6.601422119140626
3.9420000000000073,6.218759155273438,0.3829620361328125,7.671054077148438
3.951999999999998,5.026806640625001,1.40743408203125,8.268301391601563
3.961999999999989,5.756842041015625,1.46126708984375,8.141494750976562
3.9720000000000937,7.0090576171875005,1.4464630126953126,7.330410766601563
3.9820000000000846,7.881301879882813,1.002191162109375,6.355136108398438
3.992000000000076,7.381253051757813,0.3348114013671875,5.77568359375
4.002000000000066,7.331158447265626,-0.3569427490234375,5.761477661132813
4.012000000000057,5.957669067382813,-1.2098968505859375,7.289437866210938
4.022000000000048,7.175640869140626,-1.8032562255859377,7.526602172851563
4.032000000000039,6.874774169921875,-1.6804870605468751,7.797711181640626
4.04200000000003,6.316406250000001,-0.728240966796875,6.616226196289063
4.051000000000045,6.004772949218751,0.7421478271484375,6.9806457519531255
4.061000000000036,6.719555664062501,1.7365631103515626,7.895657348632813
4.071000000000026,7.135565185546875,1.9729797363281247,7.08861083984375
4.081000000000017,7.145135498046876,1.71846923828125,6.251806640625
4.091000000000008,7.317401123046875,0.49945068359375,5.0176849365234375
4.100999999999999,7.90328369140625,-0.98155517578125,6.1492248535156255
4.11099999999999,7.343270874023438,-2.15989990234375,7.35299072265625
4.121000000000095,5.964547729492188,-2.1512268066406253,7.862609863281251
4.1310000000000855,5.458517456054688,-1.7331237792968752,7.3335510253906255
4.141000000000076,6.757986450195313,-0.9942657470703126,7.182669067382813
4.151000000000067,8.29566650390625,0.0249725341796875,6.0927001953125
4.161000000000058,7.627688598632813,1.1704193115234376,5.887686157226563
4.171000000000049,7.246520996093751,2.3006134033203125,5.81695556640625
4.18100000000004,5.995501708984375,2.1920501708984377,7.459310913085938
4.191000000000031,5.863311767578125,1.1716156005859375,7.999136352539063
4.201000000000022,6.62803955078125,-0.1000396728515625,7.783804321289063
4.211000000000013,6.001931762695313,-1.5402221679687502,6.8954101562500005
4.221000000000004,7.781860351562501,-2.400503540039063,6.176739501953126
4.2309999999999945,8.324975585937501,-2.0721221923828126,6.589608764648438
4.241000000000099,7.502227783203126,-0.9544891357421876,6.399847412109375
4.25100000000009,6.48448486328125,0.4879364013671875,6.409866333007813
4.261000000000081,5.348159790039063,1.4999969482421875,7.349551391601563
4.271000000000072,6.411062622070313,1.90987548828125,8.017230224609376
4.281000000000063,7.108798217773438,1.7243011474609375,8.061642456054688
4.291000000000054,7.312466430664063,1.2768890380859377,6.871334838867188
4.301000000000045,6.601272583007813,0.7364654541015625,5.8356475830078125
4.311000000000036,6.345864868164063,-0.1637420654296875,6.721051025390626
4.321000000000026,6.994253540039063,-1.0178924560546876,7.514938354492188
4.331000000000017,7.358673095703126,-2.0121582031250003,7.364804077148438
4.341000000000008,7.453030395507813,-2.104122924804688,5.719009399414063
4.350999999999999,6.3259765625,-1.5077728271484376,5.782562255859375
4.36099999999999,7.004272460937501,-0.2277435302734375,7.324728393554688
4.371000000000095,6.408370971679688,0.9159088134765626,8.404528808593751
4.3810000000000855,7.030740356445313,1.6259063720703126,7.008309936523438
4.391000000000076,6.782809448242188,1.6022796630859375,5.756842041015625
4.401000000000067,7.663128662109376,0.97677001953125,5.448648071289063
4.411000000000058,6.899148559570313,0.4248321533203125,7.701110839843751
4.421000000000049,6.529196166992188,-0.1072174072265625,8.221347045898439
4.43100000000004,5.474069213867188,-0.811383056640625,7.806683349609376
4.441000000000031,6.541757202148438,-1.449005126953125,6.621609497070313
4.451000000000022,7.391571044921876,-1.463958740234375,6.498391723632813
4.461000000000013,7.747018432617188,-0.67291259765625,6.326724243164063
4.472000000000094,7.395309448242188,0.1625457763671875,6.228927612304688
4.4809999999999945,7.206893920898438,0.4355987548828125,5.658148193359375
4.491000000000099,7.133023071289063,0.58438720703125,6.670208740234376
4.50100000000009,6.460110473632813,0.6989318847656251,7.542901611328125
4.511000000000081,6.061447143554688,0.6772491455078126,8.214617919921876
4.520000000000096,5.557958984375,-0.0225799560546875,7.357925415039063
4.531000000000063,7.49833984375,-0.6335845947265626,6.483438110351563
4.541000000000054,6.823931884765625,-1.01983642578125,6.170907592773438
4.551000000000045,8.334844970703125,-1.1058197021484375,6.377865600585938
4.561000000000036,7.556958007812501,-0.43245849609375,6.905728149414063
4.57000000000005,6.5688232421875,0.4044952392578125,6.877166748046876
4.580000000000041,5.501284790039063,1.3555450439453125,7.733859252929688
4.590000000000032,5.994903564453125,1.4599212646484376,7.758233642578125
4.600000000000023,7.012945556640625,1.1272033691406251,7.531686401367188
4.610000000000014,7.541555786132813,0.3632232666015625,6.435287475585938
4.621000000000095,7.188201904296876,-0.1583587646484375,6.103616333007813
4.629999999999996,7.013543701171876,-0.3744384765625,6.342575073242188
4.641000000000076,6.0943450927734375,-0.8961700439453125,7.400094604492188
4.650000000000091,7.265960693359376,-1.2087005615234376,7.23575439453125
4.660000000000082,6.94864501953125,-1.1005859375,7.254595947265625
4.670000000000073,6.494952392578125,-0.1774993896484375,6.458615112304688
4.680000000000064,5.761029052734376,0.8348602294921875,7.287344360351563
4.690000000000055,7.152761840820313,1.290347290039063,7.892218017578125
4.7000000000000455,6.789688110351563,1.266571044921875,7.092947387695313
4.710000000000036,7.121807861328126,0.8577392578125,5.702560424804688
4.720000000000027,7.758084106445313,-0.0713287353515625,5.452236938476563
4.730000000000018,7.861862182617188,-1.2836181640625002,6.235507202148438
4.740000000000009,7.21182861328125,-1.5951019287109376,7.269998168945313
4.75,5.3945159912109375,-1.4322570800781251,7.691690063476563
4.759999999999991,6.006268310546876,-0.9840972900390624,7.404132080078125
4.770000000000096,7.0942932128906255,-0.4323089599609375,7.275979614257813
4.780000000000086,7.937078857421875,0.296978759765625,6.150720214843751
4.790000000000077,6.958364868164063,1.346124267578125,6.236553955078126
4.800000000000068,6.999337768554688,1.944866943359375,6.336892700195313
4.810000000000059,6.274386596679688,1.52706298828125,7.60361328125
4.82000000000005,6.9223266601562505,0.474627685546875,7.453927612304688
4.830000000000041,6.2284790039062505,-0.356494140625,7.559500122070313
4.840000000000032,5.932098388671875,-1.050042724609375,6.810922241210938
4.850000000000023,6.835147094726563,-1.5729705810546877,6.361865234375
4.860000000000014,8.29327392578125,-1.9161560058593752,6.259881591796876
4.8700000000000045,8.210281372070312,-2.0437103271484376,5.3551879882812505
4.879999999999996,7.829113769531251,-0.7053619384765626,6.178085327148438
4.8900000000001,5.978753662109376,1.08084716796875,7.700064086914063
4.900000000000091,5.307785034179688,2.337698364257813,8.800949096679688
4.910000000000082,5.652017211914063,2.529852294921876,8.640945434570312
4.920000000000073,6.482989501953125,1.9444183349609376,6.977655029296876
4.930000000000064,7.719952392578126,1.05093994140625,5.8655548095703125
4.940000000000055,7.930200195312499,-0.052337646484375,6.309078979492188
4.9500000000000455,7.313214111328126,-0.92054443359375,6.1447387695312505
4.960000000000036,5.893966674804688,-1.5379791259765627,7.532882690429688
4.970000000000027,6.142645263671875,-1.8980621337890624,7.185659790039063
4.980000000000018,7.1421447753906255,-1.863668823242188,7.733410644531251
4.990000000000009,7.617370605468751,-1.1746063232421875,6.31102294921875
5.0,6.08731689453125,0.1556671142578125,6.027801513671875
5.009999999999991,7.289437866210938,1.3911346435546876,6.690396118164063
5.020000000000096,6.747518920898438,1.6770477294921875,7.1526123046875005
5.030000000000086,8.011996459960939,1.4232849121093751,6.357678222656251
5.040000000000077,6.774884033203126,0.614593505859375,6.157449340820313
5.050000000000068,6.814810180664063,-0.055328369140625,6.707891845703125
5.060000000000059,5.426666259765625,-0.3650177001953125,8.896203613281251
5.069000000000074,6.0046234130859375,-0.6854736328125001,8.788687133789063
5.079000000000065,6.182720947265626,-0.923834228515625,7.329214477539063
5.089000000000056,7.806234741210938,-1.029705810546875,5.265017700195313
5.099000000000046,8.20654296875,-0.6331359863281251,4.922131347656251
5.109000000000037,7.966387939453125,-0.003289794921875,5.968136596679688
5.119000000000028,7.097433471679688,0.478515625,6.78953857421875
5.129000000000019,6.713723754882813,0.23985595703125,6.609646606445313
5.1400000000001,6.479998779296875,-0.1266571044921875,7.233810424804688
5.149000000000001,6.026156616210938,-0.0061309814453125,8.0881103515625
5.158999999999992,5.531790161132813,0.60352783203125,8.879754638671876
5.169000000000096,5.792132568359375,0.5749664306640625,7.392916870117188
5.179000000000087,8.357275390625,-0.076263427734375,5.586071777343751
5.189000000000078,7.879656982421875,-0.90858154296875,4.332809448242188
5.199000000000069,8.605056762695312,-1.0439117431640623,5.653961181640625
5.20900000000006,7.243978881835938,-0.320904541015625,7.990463256835938
5.219000000000051,5.60760498046875,0.3333160400390625,8.431594848632812
5.229000000000042,4.421783447265625,0.6963897705078126,8.379705810546875
5.239000000000033,6.161337280273438,0.8903381347656251,7.708587646484376
5.249000000000024,7.4920593261718755,1.116885375976563,6.920532226562501
5.259000000000015,8.541802978515626,0.6476409912109375,5.659793090820313
5.2690000000000055,7.615127563476563,0.0976470947265625,5.06748046875
5.278999999999996,6.877615356445313,-0.1981353759765625,6.352743530273438
5.289000000000101,5.732766723632813,-0.6356781005859375,8.053866577148439
5.299000000000092,6.916046142578126,-1.18731689453125,8.357125854492189
5.309000000000083,6.522317504882813,-1.383059692382813,7.347457885742188
5.319000000000074,6.311172485351563,-0.5181427001953125,6.281863403320313
5.329000000000065,6.149972534179688,0.8531036376953126,7.023114013671876
5.339000000000056,7.081582641601563,1.5191375732421877,7.847506713867188
5.349000000000046,7.438226318359375,1.3546478271484377,6.487176513671876
5.359000000000037,7.602865600585938,0.7617370605468751,5.32169189453125
5.369000000000028,7.507162475585938,-0.20037841796875,4.947702026367188
5.379000000000019,7.109396362304688,-1.209747314453125,7.08621826171875
5.38900000000001,7.279867553710938,-1.5529327392578127,8.06717529296875
5.399000000000001,5.155557250976563,-1.6288970947265626,8.087811279296876
5.408999999999992,6.092550659179688,-1.1073150634765625,6.716415405273438
5.419000000000096,6.851895141601563,-0.1446014404296875,7.111340332031251
5.429000000000087,8.211029052734375,0.735418701171875,6.319696044921876
5.439000000000078,7.506265258789063,1.5044830322265623,6.285751342773438
5.449000000000069,7.131527709960938,1.7646759033203123,5.731570434570313
5.45900000000006,5.897256469726563,1.3582366943359376,7.091003417968751
5.469000000000051,6.606057739257813,0.3677093505859375,8.084521484375001
5.4780000000000655,5.989819335937501,-0.7128387451171876,8.200860595703126
5.489000000000033,6.85533447265625,-1.490875244140625,6.353341674804688
5.499000000000024,6.294424438476563,-1.941876220703125,6.2314697265625005
5.509000000000015,8.505166625976564,-1.8084899902343752,6.067727661132813
5.5190000000000055,8.64857177734375,-0.7357177734375,6.941915893554688
5.528999999999996,6.444409179687501,0.6572113037109375,6.169711303710938
5.539000000000101,5.618222045898438,1.5583160400390623,6.651068115234375
5.549000000000092,6.244628906250001,1.902996826171875,8.555111694335938
5.557999999999993,6.39476318359375,1.6440002441406252,8.101119995117188
5.569000000000074,7.266259765625,0.9722839355468752,7.64249267578125
5.578000000000088,6.301452636718751,0.1670318603515625,5.8326568603515625
5.588000000000079,7.275082397460938,-0.4409820556640625,6.20096435546875
5.59800000000007,7.054217529296875,-0.9701904296875,7.307083129882813
5.608000000000061,7.543051147460938,-1.5397735595703126,6.738546752929688
5.619000000000028,7.007711791992188,-1.6081115722656252,6.30205078125
5.628000000000043,6.587066650390626,-1.08084716796875,6.421530151367188
5.638000000000034,6.198272705078126,-0.0004486083984375,7.291232299804688
5.648000000000025,6.525009155273438,0.7734008789062501,8.465988159179688
5.658000000000016,7.228128051757813,1.1575592041015623,6.411959838867188
5.668000000000006,7.337887573242188,1.0774078369140625,5.8217407226562505
5.677999999999997,7.382150268554688,0.6600524902343751,5.144192504882813
5.687999999999988,7.006515502929688,0.403448486328125,7.674044799804688
5.698000000000093,6.277227783203125,-0.0315521240234375,8.254544067382813
5.708000000000084,5.733364868164063,-0.441729736328125,8.062240600585938
5.719000000000051,6.196627807617188,-1.023724365234375,6.58975830078125
5.7280000000000655,7.485031127929688,-1.0295562744140625,6.591403198242188
5.738000000000056,7.39127197265625,-0.5348907470703126,6.43125
5.748000000000047,7.706045532226563,0.1066192626953125,6.555364990234375
5.758000000000038,7.049133300781251,0.2474822998046875,5.447003173828126
5.768000000000029,7.5862670898437505,0.07177734375,6.193637084960938
5.77800000000002,6.4228759765625005,-0.0474029541015625,6.9926086425781255
5.788000000000011,6.190945434570313,0.058319091796875,7.744326782226563
5.798000000000002,5.750112915039063,-0.0514404296875,8.213421630859376
5.807999999999993,6.851596069335938,-0.6733612060546875,7.09818115234375
5.819000000000074,7.688250732421875,-0.2412017822265625,7.145584106445313
5.828000000000088,7.694531250000001,0.7289886474609375,6.3825012207031255
5.838000000000079,5.950491333007813,1.3754333496093751,6.28470458984375
5.84800000000007,6.898699951171875,1.002191162109375,6.66153564453125
5.858000000000061,7.061544799804688,0.12740478515625,7.21123046875
5.868000000000052,7.23336181640625,-0.5133575439453125,7.223043823242188
5.878000000000043,6.349603271484376,-0.7034179687500001,7.566378784179688
5.888000000000034,6.12021484375,-0.5351898193359376,6.875222778320313
5.898000000000025,6.484783935546876,-0.322100830078125,7.538864135742188
5.908000000000016,7.336990356445313,-0.3431854248046875,6.270050048828126
5.919000000000096,8.183215332031251,-0.0853851318359375,6.248367309570313
5.927999999999997,7.117022705078125,0.315521240234375,5.711682128906251
5.937999999999988,5.9996887207031255,0.7705596923828125,6.904531860351563
5.948000000000093,6.1013732910156255,0.7499237060546875,8.626889038085938
5.958000000000084,6.248068237304688,0.287109375,8.284002685546875
5.968000000000075,6.6740966796875005,0.0423187255859375,6.91275634765625
5.9780000000000655,6.997543334960938,-0.3386993408203125,5.725140380859376
5.988000000000056,7.777972412109375,-0.6775482177734375,5.724691772460938
5.998000000000047,7.989715576171876,-0.780279541015625,6.720452880859376
6.008000000000038,7.074404907226563,-0.6383697509765626,6.588262939453125
6.0190000000000055,6.23984375,-0.5004974365234376,6.288891601562501
6.02800000000002,6.534729003906251,-0.37623291015625,7.272839355468751
6.038000000000011,7.009506225585938,-0.0058319091796875,7.559201049804688
6.048000000000002,6.4243713378906255,0.5109649658203126,7.857525634765626
6.057000000000016,6.647927856445313,0.9577789306640626,6.603366088867188
6.067000000000007,6.5927490234375,0.9694427490234376,6.848605346679688
6.076999999999998,7.074703979492188,0.71298828125,6.719555664062501
6.086999999999989,6.654507446289063,0.3720458984375,7.128536987304688
6.097000000000094,6.967935180664063,-0.3790740966796875,6.097186279296875
6.107000000000085,7.073806762695313,-1.3058990478515626,6.391323852539063
6.119000000000028,7.757785034179688,-2.068234252929688,6.35050048828125
6.128000000000043,7.921975708007813,-1.118829345703125,7.544995117187501
6.137000000000057,5.401693725585938,0.1981353759765625,7.285250854492188
6.147000000000048,5.820394897460938,0.802410888671875,7.291232299804688
6.157000000000039,7.153659057617188,1.18731689453125,7.471722412109376
6.16700000000003,6.912457275390626,1.2607391357421875,6.669760131835938
6.177000000000021,7.708438110351563,1.2239532470703125,6.335397338867188
6.187000000000012,6.685760498046876,0.4940673828125,6.724490356445313
6.197000000000003,6.672451782226563,-0.112750244140625,6.863110351562501
6.206999999999994,6.366650390625001,-0.4918243408203125,8.027697753906251
6.217000000000098,6.611141967773438,-1.076959228515625,6.876718139648438
6.227000000000089,7.205697631835938,-1.430462646484375,6.551925659179688
6.23700000000008,7.529293823242188,-1.0643981933593751,6.46953125
6.247000000000071,6.206646728515626,0.0444122314453125,6.609347534179688
6.257000000000062,6.310125732421875,0.81287841796875,7.961004638671875
6.267000000000053,6.52635498046875,0.7720550537109375,6.932046508789063
6.277000000000044,8.490811157226563,0.7856628417968751,6.447399902343751
6.287000000000035,6.471176147460938,0.23985595703125,5.153314208984376
6.2970000000000255,7.594940185546876,0.1305450439453125,6.3319580078125
6.307000000000016,6.559103393554688,-0.27454833984375,8.338732910156251
6.317000000000007,6.400146484375001,-0.5911163330078125,8.048184204101563
6.326999999999998,5.647232055664063,-0.3656158447265625,7.593594360351563
6.336999999999989,6.301751708984376,-0.3246429443359375,6.71536865234375
6.347000000000094,7.260876464843751,-0.084039306640625,6.552523803710938
6.357000000000085,8.631375122070313,-0.0136077880859375,6.358724975585938
6.367000000000076,7.219454956054688,0.0429168701171875,5.450741577148438
6.377000000000066,7.331158447265626,0.1368255615234375,5.7140747070312505
6.387000000000057,5.978604125976563,0.0394775390625,7.591201782226563
6.397000000000048,6.872082519531251,-0.094805908203125,8.116372680664064
6.407000000000039,5.802001953125,-0.209051513671875,8.244674682617188
6.41700000000003,6.035726928710938,-0.1646392822265625,6.425866699218751
6.427000000000021,7.176239013671876,-0.1182830810546875,6.211132812500001
6.437000000000012,7.921527099609375,-0.341241455078125,6.283209228515625
6.447000000000003,8.298208618164063,-0.4592254638671875,6.17344970703125
6.456999999999994,7.339981079101563,0.0216827392578125,6.747967529296876
6.467000000000098,5.566781616210938,0.7230072021484375,7.12210693359375
6.477000000000089,5.588613891601563,0.9619659423828124,8.474511718750001
6.48700000000008,6.146533203125,0.72794189453125,8.228973388671875
6.497000000000071,7.22379150390625,0.306549072265625,6.846212768554688
6.507000000000062,7.8464599609375005,-0.1045257568359375,5.900097656250001
6.517000000000053,7.065582275390626,-0.157611083984375,5.562295532226563
6.527000000000044,7.047637939453126,-0.103179931640625,7.063189697265625
6.537000000000035,6.396109008789063,-0.5363861083984376,7.540658569335938
6.5470000000000255,7.448544311523438,-1.018191528320313,6.726583862304688
6.55600000000004,6.7548461914062505,-1.0180419921875,6.624450683593751
6.566000000000031,6.4946533203125005,-0.12979736328125,6.785800170898438
6.576000000000022,5.754000854492188,0.8882446289062501,8.260824584960938
6.586000000000013,6.585571289062501,1.1620452880859375,7.952032470703125
6.596000000000004,7.050479125976563,0.956732177734375,6.5173828125
6.6059999999999945,7.582827758789063,0.5834899902343751,5.470181274414063
6.616000000000099,7.460806274414063,0.0453094482421875,5.6408020019531255
6.62600000000009,7.328915405273438,-0.6735107421875001,7.094442749023438
6.637000000000057,6.882998657226563,-1.1650360107421875,7.398599243164063
6.646000000000072,5.9395751953125,-1.3313201904296876,7.191790771484375
6.656000000000063,6.432745361328125,-1.1441009521484375,6.855184936523438
6.666000000000054,7.033731079101563,-0.476422119140625,7.209136962890626
6.676000000000045,7.369140625000001,0.3677093505859375,6.994552612304688
6.686000000000036,6.899298095703125,1.09759521484375,6.319247436523438
6.696000000000026,7.25908203125,1.3585357666015625,6.079840087890625
6.706000000000017,6.552972412109376,1.086529541015625,6.933242797851563
6.716000000000008,6.1731506347656255,0.53773193359375,7.551275634765625
6.725999999999999,6.379211425781251,-0.2415008544921875,7.395458984375001
6.73599999999999,6.827520751953125,-1.2984222412109376,7.176388549804688
6.746000000000095,7.866348266601563,-2.032794189453125,5.9567718505859375
6.7560000000000855,8.011697387695314,-0.9897796630859376,6.875671386718751
6.766000000000076,6.073260498046875,0.1039276123046875,6.659442138671875
6.776000000000067,6.258685302734375,0.7852142333984375,6.874923706054688
6.786000000000058,6.714022827148438,0.9921722412109376,7.607351684570313
6.796000000000049,7.130929565429688,0.8030090332031251,6.753799438476563
6.80600000000004,7.2387451171875,0.96959228515625,7.32607421875
6.816000000000031,5.9969970703125,0.7648773193359375,7.014291381835938
6.826000000000022,6.596487426757813,0.4675994873046875,7.158892822265625
6.836000000000013,6.59573974609375,-0.4027008056640625,7.248614501953125
6.846000000000004,8.162429809570312,-1.174755859375,6.168515014648438
6.8559999999999945,7.057656860351563,-1.556521606445313,6.029147338867188
6.866000000000099,6.907522583007813,-0.90977783203125,6.720452880859376
6.87600000000009,5.6273437500000005,-0.1161895751953125,7.629931640625
6.886000000000081,6.634619140625,0.3034088134765625,8.535671997070313
6.896000000000072,6.690695190429688,0.567938232421875,6.495849609375001
6.906000000000063,8.096783447265626,0.925030517578125,5.970379638671876
6.916000000000054,6.415249633789063,0.7870086669921875,5.319000244140625
6.926000000000045,8.108596801757812,0.5040863037109375,6.859671020507813
6.936000000000036,6.384594726562501,-0.1638916015625,8.090054321289063
6.946000000000026,6.502279663085938,-0.53533935546875,7.25968017578125
6.956000000000017,5.341281127929688,-0.6862213134765626,7.603912353515626
6.966000000000008,6.959112548828125,-0.8237945556640626,6.935037231445313
6.975999999999999,7.300503540039063,-0.5275634765625,7.192987060546876
6.98599999999999,7.91763916015625,-0.225201416015625,5.786001586914063
6.996000000000095,7.199716186523438,0.22071533203125,5.4857330322265625
7.0060000000000855,7.217062377929688,0.4553375244140625,6.235656738281251
7.016000000000076,6.552075195312501,0.5378814697265626,7.589407348632813
7.026000000000067,6.399398803710938,0.4209442138671875,8.018576049804688
7.036000000000058,5.697177124023438,-0.05084228515625,7.364505004882813
7.045000000000073,6.588861083984376,-0.512310791015625,6.199020385742188
7.055000000000064,7.3694396972656255,-0.8553466796875001,6.8678955078125
7.065000000000055,8.231814575195314,-0.98992919921875,6.420782470703125
7.0750000000000455,7.513742065429688,-0.48868408203125,6.45218505859375
7.085000000000036,6.797613525390625,0.337353515625,6.768005371093751
7.095000000000027,5.386441040039063,1.3029083251953126,7.470227050781251
7.105000000000018,5.798413085937501,1.389041137695313,8.51458740234375
7.115000000000009,7.179528808593751,0.9832000732421876,7.418338012695313
7.125,7.23037109375,0.3309234619140625,6.47012939453125
7.134999999999991,7.405926513671876,-0.0503936767578125,5.981594848632813
7.145000000000096,6.7832580566406255,-0.2669219970703125,6.312368774414063
7.155000000000086,6.613833618164063,-0.7286895751953125,7.579537963867188
7.165000000000077,7.143939208984375,-1.2438415527343751,6.7428833007812505
7.175000000000068,7.258035278320313,-1.4659027099609376,6.643441772460938
7.185000000000059,6.907223510742188,-0.636724853515625,6.504672241210938
7.19500000000005,5.812469482421875,0.5386291503906251,7.2770263671875
7.205000000000041,6.589907836914063,1.376031494140625,8.304040527343751
7.215000000000032,6.415100097656251,1.38948974609375,7.240689086914063
7.225000000000023,7.481292724609376,1.1352783203125,6.358724975585938
7.235000000000014,6.743182373046875,0.7086517333984376,5.76910400390625
7.245000000000003,7.6804748535156255,-0.2118927001953125,6.404183959960938
7.2549999999999955,7.07425537109375,-1.251019287109375,7.312765502929688
7.2650000000001,7.262521362304688,-1.7054595947265627,6.835296630859376
7.275000000000091,5.597735595703125,-1.555474853515625,6.981991577148438
7.285000000000082,6.965841674804688,-0.9882843017578126,6.783108520507813
7.295000000000073,6.944158935546875,-0.186920166015625,7.573556518554688
7.305000000000064,7.69632568359375,0.5685363769531251,6.193637084960938
7.315000000000055,6.789389038085938,1.2457855224609375,6.05382080078125
7.325000000000045,7.399496459960938,1.4252288818359375,6.282910156250001
7.335000000000036,5.78525390625,1.2236541748046876,7.830908203125
7.345000000000027,5.9039855957031255,0.5887237548828126,7.773486328125
7.355000000000018,6.683816528320313,-0.3509613037109375,7.8632080078125
7.365000000000009,7.249063110351563,-1.6967864990234376,5.9851837158203125
7.375,8.403631591796875,-1.6022796630859375,6.122607421875
7.384999999999991,7.188052368164063,-0.59036865234375,6.653161621093751
7.395000000000095,5.87198486328125,-0.0275146484375,6.619366455078126
7.405000000000086,6.997244262695313,0.4242340087890625,7.479498291015625
7.415000000000077,6.426763916015625,0.46834716796875,7.057507324218751
7.425000000000068,7.382598876953126,0.8214019775390625,6.989468383789063
7.435000000000059,6.3884826660156255,1.0783050537109375,7.675689697265626
7.44500000000005,6.374874877929688,1.059014892578125,6.750360107421876
7.455000000000041,6.704153442382813,0.6135467529296875,7.369290161132813
7.465000000000032,7.333401489257813,-0.5004974365234376,5.938229370117188
7.475000000000023,7.73460693359375,-1.262384033203125,6.441418457031251
7.485000000000014,7.053021240234376,-1.3106842041015625,6.881951904296876
7.495000000000003,5.5328369140625,-0.6926513671875001,7.152163696289063
7.5049999999999955,6.434390258789063,-0.215032958984375,8.256936645507814
7.5150000000001,6.38040771484375,-0.1230682373046875,7.086666870117188
7.525000000000091,8.332452392578126,0.5659942626953125,6.115878295898438
7.535000000000082,6.652862548828126,0.8556457519531251,5.372833251953125
7.544000000000096,8.013940429687501,0.7971771240234375,5.686260986328126
7.554000000000087,6.989318847656251,0.2495758056640625,7.635464477539063
7.564000000000078,6.620861816406251,-0.2432952880859375,7.650418090820313
7.574000000000069,5.531192016601563,-0.2495758056640625,7.770944213867188
7.58400000000006,5.820843505859376,-0.5743682861328125,7.642791748046876
7.594000000000051,6.952084350585938,-0.651678466796875,7.123901367187501
7.605000000000018,7.928704833984375,-0.360382080078125,6.728826904296875
7.614000000000033,7.154556274414063,0.0201873779296875,5.445208740234375
7.624000000000024,7.86021728515625,0.34752197265625,5.5151916503906255
7.6340000000000146,6.812866210937501,0.2726043701171875,6.9223266601562505
7.644000000000005,6.947149658203125,0.221014404296875,7.3126159667968755
7.653999999999996,5.658148193359375,0.0919647216796875,8.03427734375
7.664000000000101,6.3690429687500005,-0.2930908203125,7.013394165039063
7.674000000000092,6.322836303710938,-0.7303344726562501,6.488970947265625
7.684000000000083,8.259030151367188,-0.7487274169921876,6.842623901367188
7.694000000000074,7.145135498046876,-0.73392333984375,5.87078857421875
7.704000000000065,7.615576171875,-0.27335205078125,6.746173095703125
7.714000000000055,6.987225341796876,0.463861083984375,7.095639038085938
7.724000000000046,5.770748901367188,1.4204437255859377,8.011697387695314
7.734000000000037,5.4363861083984375,1.7032165527343752,7.922125244140625
7.744000000000028,6.833651733398438,1.0832397460937502,7.21123046875
7.754000000000019,7.559799194335938,0.270361328125,6.559103393554688
7.76400000000001,7.773486328125,-0.4332061767578125,6.2218994140625
7.774000000000001,6.702957153320313,-0.5628540039062501,6.0950927734375
7.783999999999992,6.3774169921875,-0.9407318115234377,7.400094604492188
7.794000000000096,6.849203491210938,-1.341339111328125,6.951486206054688
7.804000000000087,7.5264526367187505,-1.327880859375,7.297363281250001
7.814000000000078,6.81346435546875,-0.3563446044921875,6.406127929687501
7.824000000000069,5.633175659179688,0.8665618896484376,6.963748168945313
7.83400000000006,6.740191650390625,1.5438110351562502,7.8632080078125
7.844000000000051,6.959262084960938,1.4822021484375,7.599276733398438
7.854000000000042,7.267605590820313,0.9924713134765626,6.043951416015625
7.864000000000033,6.865054321289063,0.443524169921875,5.918341064453125
7.874000000000024,7.216763305664063,-0.5899200439453125,6.329415893554688
7.8840000000000146,7.0150390625000005,-1.4524444580078126,7.85543212890625
7.894000000000005,7.180874633789063,-1.6858703613281252,7.010104370117188
7.903999999999996,5.9338928222656255,-1.460369873046875,6.747518920898438
7.914000000000101,6.940270996093751,-0.9002075195312501,5.990567016601563
7.924000000000092,7.522116088867188,0.0695343017578125,7.430001831054688
7.934000000000083,7.155603027343751,0.8623748779296876,6.565383911132813
7.944000000000074,7.048684692382813,1.4485565185546876,6.458316040039063
7.954000000000065,6.609048461914063,1.335357666015625,6.492709350585938
7.964000000000055,6.517681884765626,0.9334045410156252,7.551724243164063
7.974000000000046,5.741589355468751,0.5169464111328126,8.326022338867189
7.984000000000037,6.353192138671876,-0.308343505859375,7.085321044921876
7.994000000000028,7.038217163085938,-1.4066864013671876,6.515887451171875
8.003000000000043,8.24542236328125,-2.3267822265625,5.3246826171875
8.013000000000034,8.4637451171875,-1.2592437744140623,6.5499816894531255
8.023000000000025,6.584674072265625,-0.0602630615234375,6.8080810546875
8.033999999999992,5.530294799804688,0.6536224365234375,7.061843872070313
8.043000000000006,6.626843261718751,1.128399658203125,7.981491088867188
8.052999999999997,6.177188110351563,1.3145721435546875,7.602267456054688
8.062999999999988,7.236502075195313,1.5303527832031252,7.259829711914063
8.073000000000093,6.742733764648438,0.8942260742187501,6.916943359375001
8.083000000000084,7.303195190429688,0.298175048828125,5.750411987304688
8.093000000000075,6.658843994140626,-0.3692047119140625,7.0464416503906255
8.103000000000065,7.279867553710938,-1.1958404541015626,6.498690795898438
8.113000000000056,6.995449829101563,-1.6893096923828126,7.181472778320313
8.123000000000047,6.9157470703125,-1.6208221435546877,6.79312744140625
8.133000000000038,5.958416748046876,-0.5896209716796875,6.963150024414063
8.143000000000029,6.292031860351563,0.3363067626953125,7.976406860351563
8.15300000000002,6.8822509765625,0.9197967529296877,6.939373779296876
8.163000000000011,8.15570068359375,1.33206787109375,6.146383666992188
8.173000000000002,7.205398559570313,0.9511993408203124,4.903738403320313
8.182999999999993,7.452880859375001,0.5782562255859376,6.076998901367188
8.193000000000097,6.596487426757813,-0.01734619140625,8.37821044921875
8.203000000000088,5.846563720703125,-0.4705902099609375,8.513391113281251
8.21300000000008,5.613885498046876,-0.8357574462890626,7.806982421875
8.22300000000007,6.318350219726563,-1.05213623046875,6.7952209472656255
8.233000000000061,7.616323852539063,-0.6447998046875001,6.217114257812501
8.243000000000052,8.151065063476564,-0.149237060546875,6.4252685546875
8.253000000000043,7.844815063476563,0.288006591796875,5.102322387695313
8.263000000000034,7.131378173828126,0.4462158203125,5.98443603515625
8.273000000000025,6.374276733398438,0.3871490478515625,6.898999023437501
8.283000000000015,6.438128662109375,0.2878570556640625,8.507260131835938
8.293000000000006,5.9039855957031255,-0.1344329833984375,8.007211303710939
8.302999999999997,6.051727294921875,-0.547003173828125,6.635516357421875
8.312999999999988,7.279269409179688,-0.6802398681640626,6.5275512695312505
8.323000000000093,7.82193603515625,-0.7615875244140625,6.183767700195313
8.333000000000084,8.240188598632812,-0.4222900390625,6.450988769531251
8.343000000000075,7.466189575195313,0.27215576171875,6.603067016601563
8.353000000000065,5.104714965820313,1.3015625000000002,7.005319213867188
8.363000000000056,5.308682250976563,1.4241821289062502,8.443557739257812
8.373000000000047,6.955822753906251,0.8858520507812501,8.251254272460939
8.383000000000038,7.466787719726563,0.4047943115234375,7.060498046875001
8.393000000000029,7.1376586914062505,-0.03349609375,5.671307373046876
8.40300000000002,6.911709594726563,-0.2199676513671875,5.345916748046875
8.413000000000011,7.018627929687501,-0.7200164794921875,7.569668579101563
8.423000000000002,7.202557373046876,-1.2012237548828126,7.020571899414063
8.432999999999993,7.190145874023438,-1.3268341064453126,7.128836059570313
8.443000000000097,6.3929687500000005,-0.7617370605468751,6.191543579101563
8.453000000000088,5.735159301757813,0.393280029296875,7.394711303710938
8.46300000000008,6.684414672851563,1.3055999755859375,8.627038574218751
8.47300000000007,6.638507080078125,1.594354248046875,7.631875610351563
8.483000000000061,6.986178588867188,1.303955078125,5.607904052734376
8.493000000000052,7.339083862304688,0.7230072021484375,5.438180541992188
8.503000000000043,7.914349365234376,-0.404046630859375,6.126794433593751
8.512000000000057,7.257885742187501,-1.387994384765625,7.689447021484375
8.523000000000025,6.773089599609375,-1.7981719970703127,6.726284790039063
8.533000000000015,5.6173248291015625,-1.8591827392578129,7.109246826171876
8.543000000000006,6.7069946289062505,-1.376031494140625,6.582131958007813
8.552000000000021,7.847805786132813,-0.2726043701171875,7.7178588867187505
8.562000000000012,6.940420532226563,0.7271942138671875,6.09808349609375
8.572000000000003,7.23037109375,1.7165252685546877,6.076998901367188
8.581999999999994,6.526504516601563,1.889987182617188,6.722994995117188
8.592000000000098,6.88883056640625,1.5707275390625002,7.778570556640625
8.60200000000009,5.911611938476563,0.9096282958984376,8.315704345703125
8.61200000000008,5.743533325195313,-0.1640411376953125,7.239044189453126
8.622000000000071,6.621310424804688,-1.36915283203125,6.305340576171876
8.632000000000062,7.98343505859375,-2.284912109375,6.365753173828126
8.642000000000053,8.406024169921876,-2.202069091796876,5.921032714843751
8.652000000000044,8.08631591796875,-1.0325469970703125,6.178533935546875
8.662000000000035,5.765963745117188,0.035888671875,6.036474609375
8.672000000000025,6.2075439453125005,0.9365447998046876,7.667016601562499
8.682000000000016,6.211880493164063,1.796826171875,9.079086303710938
8.692000000000007,6.220104980468751,2.0689819335937503,7.769299316406251
8.701999999999998,6.922027587890626,1.6987304687500002,6.958065795898438
8.711999999999989,6.852493286132813,0.7161285400390626,5.7305236816406255
8.722000000000094,7.527499389648438,0.11185302734375,6.625796508789063
8.732000000000085,6.725836181640625,-0.8812164306640625,7.233511352539063
8.742000000000075,7.530340576171875,-1.891033935546875,6.329116821289063
8.752000000000066,6.918289184570313,-2.4817016601562503,6.380108642578126
8.762000000000057,6.857876586914063,-1.6604492187500002,6.890325927734375
8.772000000000048,5.643643188476563,-0.1550689697265625,7.796365356445313
8.782000000000039,6.656301879882813,0.925030517578125,7.95352783203125
8.79200000000003,7.3966552734375,1.1952423095703126,5.961557006835938
8.802000000000021,8.417837524414063,1.2415985107421876,5.391226196289063
8.812000000000012,6.4423156738281255,1.3598815917968752,5.673101806640625
8.822000000000003,6.820492553710938,1.1013336181640625,8.055511474609375
8.831999999999994,5.6991210937500005,-0.04007568359375,8.794519042968751
8.842000000000098,6.667068481445313,-0.8972167968750001,7.767654418945313
8.85200000000009,5.80499267578125,-1.36795654296875,6.663778686523438
8.86200000000008,7.297811889648438,-0.9996490478515626,6.25479736328125
8.872000000000071,7.294372558593751,-0.5636016845703126,7.0105529785156255
8.882000000000062,8.387481689453125,-0.277838134765625,5.872283935546875
8.892000000000053,7.246072387695313,0.056524658203125,5.218960571289063
8.902000000000044,7.496994018554688,0.25301513671875,5.726635742187501
8.912000000000035,6.145187377929688,0.3349609375,7.465292358398438
8.922000000000025,6.034381103515625,0.0605621337890625,8.138504028320312
8.932000000000016,6.165972900390625,-0.102581787109375,8.269198608398439
8.942000000000007,6.266909790039063,-0.399859619140625,6.884194946289063
8.951999999999998,7.292578125,-0.26138916015625,6.9208312988281255
8.961999999999989,8.938073730468751,0.614593505859375,6.590954589843751
8.972000000000094,5.878863525390625,1.102978515625,6.1417480468750005
8.982000000000085,6.327770996093751,0.9374420166015626,6.100625610351563
8.992000000000075,6.8475585937500005,0.0294586181640625,7.6311279296875005
9.002000000000066,7.453778076171876,-0.5087219238281251,8.043997192382813
9.012000000000056,6.545346069335938,-0.49825439453125,7.49295654296875
9.022000000000048,5.481546020507813,-0.29249267578125,6.657348632812501
9.03200000000004,7.115078735351563,-0.0991424560546875,6.621459960937501
9.041000000000054,7.355682373046876,-0.4266265869140625,6.847708129882813
9.051000000000045,8.908615112304688,-0.224603271484375,6.10406494140625
9.061000000000035,6.35648193359375,0.0958526611328125,5.891125488281251
9.071000000000026,5.837741088867188,0.634033203125,7.0987792968750005
9.081000000000016,6.059353637695313,0.7677185058593751,8.740835571289063
9.091000000000008,6.283358764648438,0.4670013427734375,8.907119750976562
9.101,6.605459594726563,0.317315673828125,6.545645141601563
9.11099999999999,6.768753051757813,0.0874786376953125,5.75714111328125
9.121000000000096,7.733560180664063,-0.27813720703125,5.725738525390625
9.131000000000084,8.329312133789063,-0.8302246093750001,6.447998046875001
9.141000000000076,7.6475769042968755,-1.1894104003906252,6.317453002929688
9.151000000000067,6.699069213867188,-1.054229736328125,5.774935913085938
9.161000000000058,5.538220214843751,-0.831121826171875,7.107452392578126
9.17100000000005,7.245922851562501,-0.3530548095703125,8.268450927734376
9.18100000000004,6.5155883789062505,0.34273681640625,8.154055786132814
9.191000000000033,6.240142822265626,0.9710876464843752,6.510803222656251
9.201000000000022,6.945803833007813,1.5308013916015626,6.415399169921876
9.211000000000013,7.186257934570313,1.40205078125,6.893765258789063
9.221000000000004,7.037020874023438,1.02880859375,7.337738037109376
9.230999999999996,6.283209228515625,0.2404541015625,6.890774536132813
9.2410000000001,6.86729736328125,-0.7835693359375001,6.346762084960938
9.25100000000009,6.056362915039063,-1.917950439453125,6.2841064453125
9.26100000000008,8.828463745117189,-2.112496948242188,6.973767089843751
9.271000000000072,6.904531860351563,-1.9563812255859376,6.487026977539063
9.281000000000065,8.032333374023438,-0.8170654296875001,6.320294189453126
9.291000000000054,5.956921386718751,0.7606903076171876,7.099676513671875
9.301000000000045,5.943463134765626,1.899407958984375,7.855731201171875
9.311000000000035,6.180477905273438,2.564544677734375,8.238543701171876
9.321000000000026,6.475961303710938,1.9973541259765624,7.278820800781251
9.331000000000016,7.689297485351563,0.7804290771484376,5.8610687255859375
9.341000000000008,7.500881958007813,-0.1885650634765625,6.801651000976563
9.351,6.152963256835938,-0.6898101806640625,6.639852905273438
9.36099999999999,6.331658935546876,-1.0754638671875,7.938424682617188
9.371000000000096,7.002178955078126,-2.0063262939453126,6.5233642578125
9.381000000000084,8.109793090820313,-2.249472045898438,5.973519897460938
9.391000000000076,7.4187866210937505,-1.0020416259765623,6.214422607421875
9.401000000000067,5.5630432128906255,0.6907073974609376,7.069171142578125
9.411000000000058,6.3259765625,1.681683349609375,8.219851684570314
9.42100000000005,6.790585327148438,1.3410400390625,7.5264526367187505
9.43100000000004,8.106503295898438,1.110903930664063,5.6262969970703125
9.441000000000033,6.0592041015625,0.8749359130859375,6.005072021484375
9.451000000000022,7.18790283203125,0.407635498046875,6.849203491210938
9.461000000000013,6.542355346679688,-0.5416198730468751,8.807827758789063
9.471000000000004,6.959860229492188,-1.2764404296875,7.367196655273438
9.480999999999996,5.969033813476563,-1.0448089599609376,6.624749755859376
9.4910000000001,6.432894897460938,-0.7678680419921876,6.259133911132813
9.50100000000009,7.795169067382813,-0.4610198974609375,7.093844604492188
9.51100000000008,8.318096923828126,-0.2271453857421875,6.223245239257813
9.521000000000072,7.328915405273438,0.0491973876953125,5.211334228515625
9.531000000000065,6.840081787109376,0.3644195556640625,5.56932373046875
9.540000000000076,6.491363525390626,0.4988525390625,8.16407470703125
9.550000000000068,6.249563598632813,0.46236572265625,8.705096435546876
9.561000000000035,5.492761230468751,0.476422119140625,8.483483886718751
9.57000000000005,5.593099975585938,0.1730133056640625,6.170159912109376
9.58000000000004,7.98343505859375,-0.2130889892578125,5.992810058593751
9.590000000000032,8.094241333007814,-0.756353759765625,6.086419677734376
9.600000000000025,8.572457885742189,-1.01265869140625,5.871237182617188
9.61099999999999,7.274932861328126,-0.4415802001953125,6.659591674804688
9.620000000000005,5.0902099609375,0.2920440673828125,7.349252319335938
9.629999999999995,5.511752319335938,0.7393066406250001,8.707489013671875
9.6400000000001,6.290386962890626,0.7959808349609375,8.613580322265626
9.650000000000093,7.422375488281251,0.685772705078125,6.491213989257813
9.660000000000082,7.879806518554688,0.55567626953125,5.656951904296875
9.670000000000073,6.72733154296875,0.439337158203125,5.341580200195313
9.680000000000064,7.473217773437501,0.25181884765625,7.36973876953125
9.690000000000056,6.183319091796876,-0.6622955322265626,7.685708618164063
9.700000000000044,7.54439697265625,-1.389190673828125,6.658395385742188
9.711000000000013,6.298013305664063,-1.4036956787109376,6.895858764648438
9.720000000000027,6.180776977539063,-0.4472625732421875,7.105957031250001
9.730000000000018,6.0868682861328125,0.7496246337890625,8.45596923828125
9.740000000000007,6.728527832031251,1.0866790771484376,7.630230712890626
9.75,7.553967285156251,1.062005615234375,5.457171630859375
9.759999999999993,7.687203979492188,0.7168762207031251,5.253652954101563
9.770000000000095,7.815805053710938,0.1538726806640625,5.707046508789063
9.780000000000086,6.899298095703125,-0.6878662109375,7.483834838867188
9.790000000000076,6.82901611328125,-1.26029052734375,7.620211791992188
9.800000000000068,5.393917846679688,-1.4970062255859375,7.36375732421875
9.811000000000035,6.3451171875000005,-1.06888427734375,7.325177001953126
9.82000000000005,6.799856567382813,-0.1780975341796875,7.612286376953126
9.83000000000004,7.705596923828126,0.707305908203125,6.629385375976563
9.840000000000032,7.140200805664063,1.23038330078125,5.777627563476563
9.850000000000025,7.7552429199218755,1.341189575195313,5.4049835205078125
9.860000000000014,6.388931274414063,1.081146240234375,7.239044189453126
9.870000000000005,6.289938354492188,0.3656158447265625,7.697372436523438
9.879999999999995,5.889031982421876,-0.6527252197265625,7.761224365234375
9.8900000000001,6.814361572265626,-1.6619445800781252,7.129882812500001
9.900000000000093,7.276577758789063,-2.08214111328125,6.240890502929688
9.911000000000058,8.474212646484375,-0.791943359375,6.954776000976563
9.920000000000073,6.335397338867188,0.27095947265625,6.206497192382813
9.930000000000064,6.879708862304688,0.8525054931640625,6.391473388671876
9.940000000000056,6.628488159179688,1.266421508789063,7.310821533203126
9.950000000000044,6.539962768554688,1.140811157226563,7.427310180664063
9.960000000000036,7.060498046875001,0.9580780029296876,7.830160522460938
9.970000000000027,6.061596679687501,0.3141754150390625,7.275830078125001
9.980000000000018,6.664077758789063,0.1401153564453125,6.80748291015625
9.990000000000007,6.349304199218751,-0.3659149169921875,7.132574462890625
9.999000000000024,8.356378173828126,-1.0404724121093751,6.088064575195313
10.01100000000008,7.368991088867188,-1.4886322021484375,6.12200927734375
10.020000000000095,7.263568115234375,-1.00667724609375,6.1525146484375
10.030000000000086,5.471975708007813,-0.0578704833984375,7.395608520507813
10.0390000000001,6.371286010742188,0.3189605712890625,8.523858642578126
10.049000000000092,6.934140014648438,0.449505615234375,7.162033081054688
10.06000000000006,7.838085937500001,0.6640899658203125,6.098681640625
10.069000000000074,6.246871948242188,0.7647277832031251,5.245428466796875
10.08000000000004,7.739990234375001,0.7442413330078126,6.911410522460938
10.089000000000055,6.674395751953125,0.054730224609375,8.336639404296875
10.099000000000046,6.901840209960938,-0.3241943359375,7.122854614257813
10.11099999999999,5.445657348632813,-0.5211334228515625,7.138705444335938
10.119000000000028,6.5739074707031255,-0.6868194580078125,6.594244384765625
10.12900000000002,7.418038940429688,-0.555975341796875,7.597930908203126
10.13900000000001,7.91405029296875,-0.5336944580078126,6.347659301757813
10.149,7.153359985351563,-0.1134979248046875,5.318850708007813
10.158999999999992,6.904232788085938,0.22071533203125,6.0345306396484375
10.169000000000096,6.866549682617188,0.4342529296875,7.382000732421876
10.179000000000087,6.657348632812501,0.3946258544921875,8.275628662109376
10.189000000000078,6.151617431640625,0.1782470703125,7.225735473632813
10.19900000000007,5.580838012695313,-0.1686767578125,6.1740478515625
10.211000000000013,7.736102294921875,-0.4320098876953125,6.951486206054688
10.219000000000053,7.686157226562501,-0.76083984375,6.9223266601562505
10.229000000000042,8.09708251953125,-0.6216217041015626,6.582879638671876
10.239000000000033,6.842025756835938,0.1774993896484375,6.401492309570313
10.249000000000024,5.290139770507813,0.93729248046875,6.90677490234375
10.259000000000016,6.266311645507813,1.1086608886718752,8.461053466796876
10.269000000000004,7.041357421875,0.728240966796875,7.751354980468751
10.278999999999996,7.224838256835938,0.14534912109375,6.300854492187501
10.2890000000001,7.17833251953125,-0.1299468994140625,6.109448242187501
10.299000000000092,6.594692993164063,-0.0946563720703125,6.341827392578126
10.309000000000085,6.926513671875001,-0.246136474609375,7.974612426757813
10.319000000000074,6.847857666015625,-0.8596832275390626,6.716116333007813
10.329000000000065,7.521817016601563,-1.113446044921875,6.2389465332031255
10.339000000000055,6.755294799804688,-0.482403564453125,6.41868896484375
10.349000000000046,5.729626464843751,0.5845367431640626,7.659988403320313
10.359000000000036,6.28111572265625,1.2342712402343752,8.632122802734376
10.369000000000028,6.453680419921875,1.0555755615234377,7.603463745117188
10.37900000000002,7.389926147460938,0.6742584228515626,5.493209838867188
10.38900000000001,7.326373291015625,0.2444915771484375,5.672653198242188
10.399,8.0103515625,-0.523077392578125,5.9937072753906255
10.408999999999992,7.321737670898438,-1.2408508300781251,7.323980712890625
10.419000000000096,6.864157104492188,-1.5180908203125,6.5245605468750005
10.429000000000087,5.647830200195313,-1.3265350341796875,7.113284301757813
10.439000000000078,6.698471069335938,-0.7466339111328125,7.1526123046875005
10.44900000000007,7.095639038085938,0.1694244384765625,8.038314819335938
10.45900000000006,6.965393066406251,0.9422271728515624,6.413006591796876
10.469000000000053,6.969281005859376,1.526614379882813,6.3056396484375
10.479000000000042,7.066778564453125,1.5601104736328126,6.314462280273438
10.489000000000033,6.78714599609375,1.0802490234375002,7.4890686035156255
10.499000000000024,6.351696777343751,0.310137939453125,7.629632568359375
10.509000000000016,6.15550537109375,-0.5957519531250001,7.157098388671876
10.519000000000004,6.270947265625001,-1.6444488525390626,6.151019287109375
10.528999999999996,7.952481079101563,-2.0230743408203127,6.631179809570313
10.538000000000013,8.061791992187501,-1.975222778320313,6.2099365234375
10.548000000000002,8.2627685546875,-0.676800537109375,6.404483032226563
10.557999999999993,5.577847290039063,0.7068572998046876,6.545794677734375
10.568000000000096,6.075653076171875,1.5616058349609376,7.703054809570313
10.578000000000088,6.268554687500001,2.0600097656250003,8.707489013671875
10.58800000000008,6.426315307617188,1.748974609375,7.37392578125
10.59800000000007,7.35,0.99232177734375,6.431698608398438
10.60800000000006,7.0329833984375005,-0.0590667724609375,6.2135253906250005
10.618000000000052,7.089657592773438,-0.4711883544921875,6.733462524414063
10.62900000000002,6.3720336914062505,-0.9332550048828124,7.5997253417968755
10.638000000000034,7.219903564453125,-1.6728607177734376,6.3765197753906255
10.648000000000025,7.358822631835938,-2.0031860351562503,6.202011108398438
10.658000000000015,7.442861938476563,-1.1542694091796877,6.501531982421875
10.668000000000006,5.583081054687501,0.3692047119140625,7.32188720703125
10.677999999999995,6.324630737304688,1.2392059326171876,8.258432006835939
10.687999999999988,6.901989746093751,1.21064453125,6.908120727539063
10.698000000000093,8.087811279296876,1.0543792724609375,5.787646484375
10.708000000000084,6.553570556640626,0.8508605957031251,5.664279174804688
10.718000000000076,7.307382202148438,0.4939178466796875,6.936233520507813
10.728000000000064,6.193338012695313,-0.2978759765625,8.639749145507814
10.738000000000056,6.621160888671875,-0.8957214355468751,7.561444091796876
10.748000000000047,5.702709960937501,-0.9903778076171876,7.165771484375001
10.758000000000038,6.960159301757813,-0.8335144042968751,6.282162475585938
10.768000000000027,7.5162841796875,-0.476123046875,6.884344482421875
10.77800000000002,8.197720336914063,-0.2648284912109375,5.948098754882813
10.788000000000013,7.329364013671875,0.1437042236328125,5.443563842773438
10.798000000000002,7.090405273437501,0.320904541015625,5.952435302734376
10.807999999999993,6.513793945312501,0.316717529296875,7.5862670898437505
10.818000000000096,6.198721313476563,0.28651123046875,8.589505004882813
10.828000000000088,5.410665893554688,0.212042236328125,7.971322631835938
10.83800000000008,6.320443725585938,0.043963623046875,6.5036254882812505
10.84800000000007,7.256390380859376,-0.4529449462890625,6.420184326171875
10.85800000000006,8.717657470703125,-0.7487274169921876,6.214572143554688
10.868000000000052,8.1048583984375,-0.2812774658203125,6.214123535156251
10.878000000000045,6.3959594726562505,0.4007568359375,6.658843994140626
10.888000000000034,5.2289794921875,0.730633544921875,7.185061645507813
10.898000000000025,6.015689086914063,0.5401245117187501,8.791528320312501
10.908000000000015,7.297064208984375,0.380718994140625,7.77408447265625
10.918000000000006,7.090255737304688,0.198284912109375,6.6429931640625
10.927999999999995,6.771893310546876,0.227294921875,5.531192016601563
10.937999999999988,7.347457885742188,0.1903594970703125,6.393118286132813
10.948000000000093,6.812268066406251,-0.203369140625,7.456918334960938
10.958000000000084,7.580734252929688,-0.700726318359375,6.5903564453125005
10.968000000000076,6.665722656250001,-1.1195770263671876,6.546841430664063
10.978000000000064,6.640750122070313,-0.7104461669921875,6.693685913085938
10.988000000000056,5.6183715820312505,0.17525634765625,8.1239990234375
10.998000000000047,6.6696105957031255,0.7734008789062501,8.582925415039064
11.008000000000038,6.424520874023438,0.9102264404296876,6.708489990234376
11.018000000000027,7.929153442382813,0.685772705078125,5.409020996093751
11.02800000000002,7.562490844726563,0.369354248046875,5.209988403320313
11.037000000000036,7.761972045898438,-0.260791015625,6.497943115234375
11.047000000000024,6.650619506835938,-0.723455810546875,7.766458129882813
11.057000000000016,6.495251464843751,-1.09879150390625,7.167416381835938
11.067000000000007,5.62315673828125,-1.327880859375,7.197772216796875
11.076999999999998,7.126593017578125,-0.8028594970703126,7.1873046875
11.086999999999987,6.619964599609376,0.113348388671875,7.66641845703125
11.097000000000094,7.366448974609375,0.9772186279296876,6.384893798828125
11.107000000000085,7.1541076660156255,1.2299346923828125,5.8857421875
11.117000000000075,7.476956176757813,1.0932586669921875,6.015988159179688
11.127000000000066,5.770748901367188,0.8194580078125001,7.246520996093751
11.137000000000056,6.752752685546875,0.1108062744140625,7.763616943359375
11.147000000000048,6.502279663085938,-1.0996887207031252,7.609744262695313
11.15700000000004,7.918386840820313,-1.8976135253906248,6.244778442382813
11.16700000000003,6.968084716796875,-0.941778564453125,6.747219848632813
11.17700000000002,6.150869750976563,-0.0432159423828125,6.811819458007813
11.187000000000012,6.896008300781251,0.4675994873046875,7.190145874023438
11.197000000000005,7.323681640625001,0.631939697265625,6.879708862304688
11.206999999999994,7.286746215820313,0.416009521484375,5.612689208984375
11.217000000000098,7.155603027343751,0.7240539550781251,7.1720520019531255
11.22700000000009,5.726785278320313,0.7524658203125001,7.710083007812501
11.23700000000008,6.465792846679688,0.744390869140625,8.508157348632814
11.247000000000073,6.162982177734375,-0.1215728759765625,6.768902587890626
11.257000000000062,7.945303344726563,-0.9802093505859376,5.954379272460938
11.267000000000053,7.527798461914063,-1.0190887451171875,5.852395629882813
11.277000000000044,6.887185668945313,-0.427374267578125,7.1182189941406255
11.287000000000036,5.85284423828125,-0.0354400634765625,7.272390747070313
11.297000000000024,6.834848022460938,-0.1843780517578125,7.7881408691406255
11.307000000000016,6.977505493164063,-0.2298370361328125,5.949893188476563
11.318000000000096,7.759130859375,0.1878173828125,6.628488159179688
11.326999999999998,6.319396972656251,0.5330963134765625,6.073260498046875
11.336999999999987,7.539312744140625,0.509320068359375,7.272390747070313
11.347000000000094,6.324481201171875,0.1134979248046875,7.470077514648438
11.357000000000085,6.8320068359375,0.118133544921875,7.047787475585938
11.367000000000075,5.749813842773438,0.1434051513671875,7.519125366210938
11.377000000000066,7.1421447753906255,-0.136077880859375,6.96658935546875
11.387000000000056,6.733163452148438,-0.3028106689453125,7.162780761718751
11.397000000000048,7.929751586914063,-0.4759735107421875,5.890377807617188
11.40700000000004,6.796267700195313,-0.3330169677734375,5.9996887207031255
11.41700000000003,7.556808471679688,-0.3046051025390625,6.527252197265626
11.42700000000002,6.273937988281251,-0.0955535888671875,7.487722778320313
11.437000000000012,6.468634033203125,0.0058319091796875,7.243829345703125
11.447000000000005,6.226086425781251,-0.173760986328125,6.484933471679688
11.456999999999994,7.658642578125001,-0.5166473388671875,6.4886718750000005
11.467000000000098,7.350897216796875,-0.7940368652343751,6.628488159179688
11.47700000000009,7.440170288085938,0.142059326171875,7.55277099609375
11.48700000000008,6.369790649414063,1.0008453369140626,7.4771057128906255
11.496000000000096,5.387188720703126,1.39307861328125,7.226333618164063
11.506000000000084,6.656600952148438,1.0370330810546875,7.080685424804688
11.516000000000076,7.309027099609375,0.4574310302734375,7.1301818847656255
11.527000000000044,7.761373901367188,-0.029010009765625,6.397006225585938
11.536000000000058,6.865951538085938,-0.5909667968750001,6.706246948242188
11.54600000000005,6.507962036132813,-0.7961303710937501,6.304891967773438
11.55600000000004,6.456372070312501,-0.7849151611328126,7.986276245117188
11.566000000000033,6.740640258789063,-0.772503662109375,6.824978637695313
11.576000000000022,7.52884521484375,-0.657659912109375,6.89122314453125
11.586000000000013,7.25010986328125,-0.076861572265625,6.026156616210938
11.596000000000004,6.0251098632812505,1.014154052734375,6.77159423828125
11.605999999999996,6.361267089843751,1.5810455322265626,8.2962646484375
11.6160000000001,6.265414428710938,1.242495727539063,7.882348632812499
11.62600000000009,7.11612548828125,0.6350799560546876,6.584973144531251
11.63600000000008,6.816156005859376,-0.0794036865234375,5.944509887695313
11.646000000000072,7.574453735351563,-0.8345611572265625,5.833554077148438
11.656000000000065,7.748513793945313,-1.4976043701171875,7.1959777832031255
11.666000000000054,7.1669677734375,-1.6380187988281252,6.4916625976562505
11.676000000000045,6.221749877929688,-1.224102783203125,6.535476684570313
11.686000000000035,6.341976928710938,-0.6003875732421875,6.8012023925781255
11.696000000000026,7.675540161132813,0.1123016357421875,7.240988159179688
11.706000000000016,7.116574096679688,0.6436035156250001,7.068722534179688
11.716000000000008,6.843670654296876,1.278533935546875,6.167916870117188
11.726,6.060549926757813,1.679141235351563,7.383197021484375
11.73599999999999,6.480746459960938,1.3479187011718752,7.796066284179688
11.746000000000096,6.594842529296876,0.596051025390625,8.030389404296876
11.756000000000084,6.705947875976563,-0.34871826171875,6.617721557617188
11.766000000000076,6.408520507812501,-0.99830322265625,6.182870483398438
11.776000000000067,7.325625610351563,-1.4751739501953125,5.895162963867188
11.786000000000058,7.929901123046876,-1.719964599609375,6.761575317382813
11.79600000000005,8.06239013671875,-1.8035552978515623,5.754000854492188
11.80600000000004,7.6837646484375,-0.7065582275390625,6.360519409179688
11.816000000000033,5.468087768554688,0.7004272460937501,7.120761108398438
11.826000000000022,5.728729248046875,1.6914031982421875,8.868988037109375
11.836000000000013,6.083578491210938,2.22569580078125,8.7771728515625
11.846000000000004,6.461306762695313,1.7492736816406251,6.997842407226563
11.855999999999996,7.909564208984375,0.9513488769531252,5.463601684570313
11.8660000000001,7.40084228515625,-0.0082244873046875,5.866452026367188
11.87600000000009,7.046890258789063,-0.56943359375,7.1885009765625005
11.88600000000008,6.179580688476563,-1.120025634765625,7.622753906250001
11.896000000000072,6.891970825195313,-1.9341003417968752,6.852044677734376
11.906000000000065,7.408917236328126,-2.226593017578125,6.111990356445313
11.916000000000054,7.321139526367188,-1.1034271240234377,6.732864379882813
11.926000000000045,5.7218505859375,0.609808349609375,7.412506103515626
11.936000000000035,6.361566162109376,1.581494140625,7.836441040039063
11.946000000000026,7.0832275390625,1.3598815917968752,6.722695922851563
11.956000000000016,8.391519165039064,1.04974365234375,5.599530029296876
11.966000000000008,6.529345703125,0.8252899169921876,5.8177032470703125
11.975000000000025,6.638058471679688,0.34871826171875,7.345214843750001
11.98599999999999,6.147579956054688,-0.4361968994140625,8.830557250976563
11.996000000000096,6.560897827148438,-1.1593536376953126,7.839132690429688
12.004999999999995,6.234161376953126,-1.0343414306640626,6.717910766601563
12.016000000000076,6.729275512695313,-0.6762023925781251,6.166421508789063
12.026000000000067,7.382449340820313,-0.222808837890625,6.800604248046875
12.035000000000082,8.395556640625001,0.073870849609375,6.223245239257813
12.045000000000073,7.491311645507813,0.0586181640625,5.347860717773438
12.055000000000064,7.321289062500001,0.047552490234375,5.4254699707031255
12.065000000000056,6.070867919921875,0.1185821533203125,7.789486694335938
12.075000000000044,6.117074584960938,0.26318359375,8.909811401367188
12.085000000000036,5.4139556884765625,0.1825836181640625,8.67608642578125
12.095000000000027,6.451287841796876,-0.012860107421875,6.223693847656251
12.105000000000018,7.107452392578126,-0.2226593017578125,5.99998779296875
12.115000000000007,8.202206420898438,-0.33316650390625,6.097933959960938
12.125,8.478848266601563,-0.121124267578125,6.576150512695313
12.134999999999993,7.127191162109376,0.0873291015625,6.497494506835938
12.145000000000095,5.266961669921876,0.2618377685546875,6.69383544921875
12.155000000000086,5.7649169921875005,0.4388885498046875,8.5355224609375
12.165000000000076,6.497494506835938,0.488385009765625,8.764761352539063
12.175000000000068,7.248913574218751,0.191107177734375,7.045693969726563
12.18500000000006,7.146481323242188,-0.01614990234375,5.433843994140625
12.19500000000005,7.30155029296875,0.250323486328125,5.527752685546876
12.20500000000004,6.752453613281251,0.28890380859375,7.273587036132813
12.215000000000032,7.416244506835938,-0.2468841552734375,7.457666015625
12.225000000000025,7.040310668945313,-0.9860412597656252,6.457418823242188
12.235000000000014,6.514840698242188,-0.9561340332031252,6.375473022460938
12.245000000000005,5.738449096679688,-0.194696044921875,7.3245788574218755
12.254999999999995,6.550131225585938,0.515899658203125,8.944802856445314
12.2650000000001,6.773687744140625,0.5550781250000001,7.191491699218751
12.275000000000093,7.800253295898438,0.3935791015625,5.427713012695313
12.285000000000082,7.117919921875001,0.3434844970703125,4.864559936523438
12.295000000000073,7.626791381835938,0.2045654296875,6.74228515625
12.305000000000064,6.824679565429688,-0.1831817626953125,8.205197143554688
12.315000000000056,6.70340576171875,-0.6711181640625,7.386337280273438
12.325000000000044,5.488424682617188,-1.060061645507813,6.471624755859375
12.335000000000036,6.982888793945313,-0.6311920166015625,7.119714355468751
12.345000000000027,6.725088500976563,-0.0085235595703125,7.970425415039063
12.355000000000018,7.640997314453125,0.6087615966796875,7.038067626953126
12.365000000000007,6.608898925781251,0.7932891845703126,5.626446533203126
12.375,7.443609619140625,0.6530242919921876,5.431002807617188
12.384999999999993,6.364108276367188,0.2642303466796875,6.625048828125
12.395000000000095,7.82791748046875,-0.262286376953125,8.060147094726563
12.405000000000086,5.681774902343751,-1.1524749755859376,7.292727661132813
12.415000000000076,7.637857055664063,-1.0911651611328126,7.19029541015625
12.425000000000068,6.463699340820313,-0.16568603515625,7.036123657226563
12.434000000000085,6.260330200195313,0.3865509033203125,6.687255859375001
12.444000000000074,7.296765136718751,0.721661376953125,7.026702880859376
12.45500000000004,7.090704345703125,0.54132080078125,6.452035522460938
12.465000000000032,7.479946899414063,0.4236358642578125,6.241189575195313
12.475000000000025,6.523214721679688,0.4553375244140625,7.905825805664063
12.484000000000036,5.87138671875,0.5307037353515626,7.2617736816406255
12.494000000000028,6.376669311523438,0.2474822998046875,8.180374145507812
12.50400000000002,7.36973876953125,-0.6223693847656251,5.862713623046876
12.51400000000001,7.617370605468751,-1.0998382568359375,6.056362915039063
12.525000000000093,7.438525390625,-0.7176239013671876,6.436483764648438
12.533999999999992,5.776580810546875,0.030206298828125,7.388131713867188
12.544000000000096,6.3833984375,0.196490478515625,7.725036621093751
12.554000000000087,6.844866943359375,-0.113946533203125,7.164126586914063
12.564000000000078,7.926910400390626,-0.0130096435546875,5.6273437500000005
12.57400000000007,6.603665161132813,0.370849609375,6.26676025390625
12.58400000000006,7.078591918945313,0.564947509765625,6.541159057617188
12.594000000000053,6.904531860351563,0.1819854736328125,8.041455078125
12.604000000000042,6.754547119140626,-0.1810882568359375,7.041656494140626
12.615000000000007,6.358425903320313,-0.042767333984375,7.023562622070313
12.624000000000024,5.9264160156250005,-0.1173858642578125,6.973468017578125
12.634000000000016,7.451834106445313,-0.2738006591796875,7.269998168945313
12.644000000000004,7.377066040039063,-0.50662841796875,6.814959716796875
12.653999999999996,7.482040405273438,-0.364569091796875,5.543753051757813
12.6640000000001,6.705050659179688,-0.0318511962890625,6.139654541015625
12.674000000000092,7.076947021484376,0.093011474609375,7.304690551757813
12.684000000000085,6.443212890625,0.2397064208984375,7.935284423828126
12.694000000000074,6.366500854492188,0.2902496337890625,7.408767700195313
12.704000000000065,6.0544189453125,0.106768798828125,6.485531616210938
12.714000000000055,7.721746826171875,-0.3052032470703125,5.7608795166015625
12.724000000000046,7.39366455078125,-0.636724853515625,6.985879516601563
12.734000000000036,7.587911987304688,-0.90618896484375,6.304592895507813
12.744000000000028,7.043899536132813,-0.3844573974609375,7.351345825195313
12.75400000000002,6.4318481445312505,0.4218414306640625,7.284503173828125
12.76400000000001,5.0614990234375,1.0609588623046875,7.602267456054688
12.774,6.518130493164063,1.1701202392578125,7.932891845703126
12.783999999999992,7.629183959960938,0.8837585449218751,6.920233154296875
12.794000000000096,7.626193237304688,0.436944580078125,5.922378540039063
12.804000000000087,6.78056640625,0.092413330078125,5.972174072265625
12.814000000000078,6.931747436523438,-0.2726043701171875,7.005169677734376
12.82400000000007,6.223843383789063,-0.83082275390625,7.899545288085938
12.83400000000006,7.173248291015626,-1.311431884765625,6.893765258789063
12.844000000000053,7.063638305664063,-1.3585357666015625,6.509158325195313
12.854000000000042,6.764266967773438,-0.4366455078125,6.5712158203125
12.864000000000033,6.028399658203125,0.7316802978515625,7.213473510742188
12.874000000000024,7.040161132812501,1.4350982666015626,8.172299194335938
12.884000000000016,6.693386840820313,1.1276519775390623,6.2643676757812505
12.894000000000004,7.61796875,0.8529541015625001,6.132626342773438
12.903999999999996,6.685910034179688,0.33436279296875,5.958865356445313
12.9140000000001,6.950289916992188,-0.474627685546875,7.47501220703125
12.924000000000092,7.0419555664062505,-1.1545684814453123,7.666268920898438
12.934000000000085,7.097433471679688,-1.4950622558593751,6.82901611328125
12.944000000000074,5.553622436523438,-1.3761810302734376,6.208291625976563
12.954000000000065,7.514639282226563,-0.5132080078125001,6.968832397460938
12.964000000000055,7.011898803710938,0.2729034423828125,7.461254882812501
12.974000000000046,7.978350830078125,0.6697723388671876,6.182122802734376
12.984000000000036,6.491213989257813,0.95703125,5.794973754882813
12.994000000000028,7.060498046875001,1.15322265625,6.824679565429688
13.00400000000002,5.689999389648438,1.014154052734375,8.409463500976564
13.013000000000034,6.042306518554688,0.3431854248046875,8.220001220703125
13.024,6.859820556640625,-0.6925018310546875,6.581085205078126
13.033000000000015,7.023562622070313,-1.728936767578125,5.797964477539063
13.043000000000006,8.379855346679689,-1.5855316162109376,6.003427124023438
13.052999999999995,8.30224609375,-0.5280120849609375,7.099227905273438
13.062999999999988,5.758636474609375,0.0677398681640625,6.369192504882813
13.073000000000093,6.186907958984375,0.4741790771484375,6.725238037109375
13.083000000000084,6.037820434570313,1.0355377197265625,8.427407836914064
13.093000000000076,6.877615356445313,1.2381591796875,7.923770141601563
13.103000000000064,7.148724365234376,1.1221191406250002,7.635464477539063
13.113000000000056,6.350650024414063,0.686370849609375,5.608950805664063
13.124000000000024,7.156201171875001,0.4200469970703125,6.248367309570313
13.133000000000038,7.028646850585938,-0.434552001953125,7.191491699218751
13.143000000000027,8.113681030273439,-1.3365539550781251,6.849951171875
13.15300000000002,6.560897827148438,-1.7720031738281252,6.415847778320313
13.163000000000013,6.0808868408203125,-1.15621337890625,6.744528198242188
13.173000000000002,5.8055908203125,-0.173760986328125,8.013192749023439
13.182999999999993,6.879409790039063,0.3336151123046875,8.321536254882814
13.193000000000096,7.710830688476563,0.7215118408203125,6.015838623046875
13.203000000000088,7.565481567382813,0.9347503662109377,5.019329833984376
13.21300000000008,6.807632446289063,1.0744171142578125,5.388983154296875
13.22300000000007,7.296017456054688,0.7262969970703126,7.959060668945313
13.23300000000006,6.627142333984375,-0.1568634033203125,8.562887573242188
13.243000000000052,6.037670898437501,-0.6736602783203125,7.123004150390625
13.253000000000045,5.324234008789063,-0.8525054931640625,7.0712646484375
13.263000000000034,6.993356323242188,-0.7947845458984376,7.055712890625
13.273000000000025,7.9828369140625,-0.4720855712890625,7.431198120117188
13.283000000000015,7.6236511230468755,-0.241351318359375,5.457022094726563
13.293000000000006,7.6072021484375005,0.1508819580078125,4.7839599609375005
13.302999999999995,6.800305175781251,0.41451416015625,6.271246337890625
13.312999999999988,6.880007934570313,0.4364959716796875,7.961303710937501
13.323000000000093,6.08013916015625,0.37025146484375,8.658889770507812
13.333000000000084,5.873629760742188,0.0892730712890625,7.348056030273438
13.343000000000076,5.745477294921876,-0.2021728515625,6.606805419921876
13.353000000000064,7.895956420898438,-0.34632568359375,6.260928344726563
13.363000000000056,7.528695678710938,-0.4930206298828125,6.718359375
13.373000000000047,7.994949340820313,-1.0047332763671877,5.65545654296875
13.383000000000038,7.658193969726563,-0.69085693359375,6.217114257812501
13.393000000000027,6.670358276367188,0.346624755859375,7.53243408203125
13.40300000000002,4.379913330078125,1.329376220703125,8.425314331054688
13.413000000000013,6.08133544921875,1.430911254882813,8.646627807617188
13.423000000000002,7.190594482421876,0.8870483398437501,7.123303222656251
13.432999999999993,7.896554565429688,0.3707000732421875,5.416647338867188
13.443000000000096,7.072012329101563,0.286212158203125,5.884844970703125
13.453000000000088,7.218258666992188,-0.1302459716796875,6.810174560546876
13.46300000000008,6.373229980468751,-0.9233856201171876,7.5279479980468755
13.47300000000007,7.233810424804688,-1.5895690917968752,6.827670288085938
13.48300000000006,6.811370849609376,-1.463809204101563,6.736453247070313
13.493000000000052,6.1860107421875,-0.4912261962890625,7.162780761718751
13.503000000000045,5.886788940429688,0.6881652832031251,7.703802490234375
13.513000000000034,7.425964355468751,1.3833587646484375,7.900592041015625
13.523000000000025,6.95103759765625,1.1853729248046876,5.726336669921875
13.53200000000004,7.670156860351563,1.1091094970703126,5.541210937500001
13.54200000000003,7.118667602539063,0.4164581298828125,6.106158447265625
13.55200000000002,7.011300659179688,-0.5802001953125,7.673147583007813
13.562000000000012,6.645535278320313,-1.2688140869140625,7.442562866210938
13.572000000000005,6.20335693359375,-1.6321868896484375,7.507611083984376
13.581999999999994,6.115728759765625,-1.484893798828125,6.233712768554688
13.592000000000098,7.453030395507813,-0.4912261962890625,7.557257080078125
13.603000000000064,6.966888427734376,0.4260284423828125,6.5903564453125005
13.613000000000056,7.921975708007813,1.097894287109375,5.99400634765625
13.622000000000073,6.720303344726563,1.230682373046875,5.689251708984376
13.632000000000062,7.321139526367188,1.1764007568359376,6.956271362304688
13.642000000000053,5.842227172851563,0.7375122070312501,8.188299560546875
13.652000000000044,5.792880249023438,-0.0294586181640625,8.185159301757814
13.662000000000036,6.423474121093751,-0.892431640625,7.027450561523438
13.672000000000024,6.756640625,-1.702618408203125,6.525457763671875
13.682000000000016,8.443258666992188,-1.4500518798828126,6.099728393554688
13.692000000000007,8.434286499023438,-0.4637115478515625,6.46654052734375
13.703000000000088,6.153561401367188,0.156414794921875,5.426217651367188
13.711999999999987,6.793875122070313,0.590069580078125,6.768154907226563
13.722000000000094,5.9772583007812505,1.0285095214843751,8.724087524414063
13.732000000000085,6.450839233398438,1.2161773681640626,8.037567138671875
13.742000000000075,6.394015502929688,0.9356475830078126,8.014688110351564
13.752000000000066,6.595590209960938,0.4116729736328125,5.75115966796875
13.762000000000056,7.246072387695313,0.3386993408203125,6.6636291503906255
13.772000000000048,7.370486450195313,-0.2956329345703125,6.568673706054688
13.78200000000004,7.859020996093751,-1.1180816650390626,6.274386596679688
13.79200000000003,6.945355224609376,-1.6247100830078127,6.287994384765626
13.802999999999995,6.408819580078125,-1.1112030029296875,6.915447998046876
13.812000000000012,5.667718505859376,-0.24822998046875,8.147775268554689
13.822000000000005,6.399249267578125,0.2133880615234375,8.154055786132814
13.831999999999994,7.56832275390625,0.55029296875,6.356781005859376
13.843000000000076,7.5521728515625,0.750372314453125,5.3671508789062505
13.85200000000009,6.9582153320312505,1.155914306640625,5.480947875976563
13.86200000000008,7.2408386230468755,0.94207763671875,7.749261474609375
13.872000000000073,6.399548339843751,0.0698333740234375,8.060595703125001
13.882000000000062,6.5066162109375005,-0.4403839111328125,7.20225830078125
13.892000000000053,5.51190185546875,-0.8988616943359375,7.10655517578125
13.90300000000002,7.196575927734376,-0.8762817382812501,6.788342285156251
13.912000000000036,7.37572021484375,-0.6596038818359375,7.650717163085938
13.922000000000024,7.497143554687501,-0.3569427490234375,5.750262451171875
13.932000000000016,7.362112426757813,0.12740478515625,5.4443115234375
13.942000000000007,7.255194091796875,0.27933349609375,5.960958862304688
13.951999999999998,7.128536987304688,0.3578399658203125,7.344915771484375
13.961999999999987,6.126046752929688,0.427374267578125,8.1551025390625
13.971000000000004,5.659942626953125,0.3868499755859375,7.725036621093751
13.982000000000085,5.9144531250000005,-0.037384033203125,7.002328491210938
13.9910000000001,7.814608764648438,-0.432159423828125,6.661834716796876
14.003000000000045,6.969879150390626,-0.5465545654296875,6.417492675781251
14.012000000000056,7.95950927734375,-0.659454345703125,6.138308715820313
14.022000000000048,7.730868530273438,-0.1691253662109375,6.647030639648438
14.031000000000065,6.533383178710938,0.22310791015625,6.706396484375
14.041000000000054,5.571566772460938,0.719268798828125,7.57071533203125
14.051000000000045,6.1620849609375,0.9663024902343752,8.240786743164064
14.061000000000035,6.721200561523438,0.5630035400390625,7.53482666015625
14.071000000000026,7.886984252929688,0.051739501953125,6.560598754882813
14.081000000000016,6.663330078125001,-0.043963623046875,5.762823486328125
14.091000000000008,6.939971923828126,0.1830322265625,6.833053588867188
14.103000000000064,6.382202148437501,-0.357391357421875,7.259530639648438
14.11099999999999,8.124896240234376,-1.1221191406250002,6.885391235351563
14.121000000000096,7.193136596679688,-1.2436920166015626,6.131430053710938
14.131000000000084,5.8953125,-0.3650177001953125,6.511102294921876
14.141000000000076,5.732916259765625,0.719268798828125,8.326022338867189
14.151000000000067,6.712228393554688,0.8424865722656251,8.545541381835939
14.161000000000058,7.531985473632813,0.62506103515625,6.2210021972656255
14.17100000000005,7.252203369140625,0.5004974365234376,5.326028442382813
14.18100000000004,7.152761840820313,0.374737548828125,5.545846557617188
14.191000000000033,6.985729980468751,-0.0985443115234375,7.904928588867188
14.203000000000088,7.425964355468751,-0.7322784423828126,7.61856689453125
14.211000000000013,5.832058715820313,-1.2439910888671877,6.7234436035156255
14.221000000000004,6.546841430664063,-1.1041748046875002,6.072064208984376
14.230999999999996,6.692639160156251,-0.4116729736328125,7.696774291992188
14.2410000000001,7.414001464843751,0.2633331298828125,7.511199951171876
14.25100000000009,7.026254272460938,0.7585968017578125,6.6920410156250005
14.26100000000008,7.166519165039063,0.9386383056640626,5.201763916015626
14.271000000000072,6.604412841796876,0.9295166015625,6.397903442382813
14.281000000000065,6.718807983398438,0.659454345703125,7.950836181640626
14.291000000000054,6.238497924804688,-0.055926513671875,7.858572387695313
14.301000000000045,6.447549438476563,-0.9781158447265624,6.859820556640625
14.311000000000035,7.031936645507813,-1.6754028320312502,6.162832641601563
14.321000000000026,8.644982910156251,-0.8746368408203126,6.931149291992188
14.331000000000016,6.597683715820313,0.0035888671875,7.006365966796875
14.341000000000008,6.394015502929688,0.4287200927734375,6.161785888671876
14.351,6.768154907226563,0.7494750976562501,6.941616821289063
14.36099999999999,6.525756835937501,0.5987426757812501,7.286447143554688
14.371000000000096,7.742532348632813,0.6383697509765626,7.499087524414063
14.381000000000084,5.718112182617188,0.466552734375,7.629333496093751
14.391000000000076,6.423175048828125,0.486590576171875,6.47850341796875
14.401000000000067,6.451138305664063,0.160003662109375,7.629333496093751
14.411000000000058,8.227777099609376,-0.62506103515625,6.031390380859375
14.42100000000005,7.458563232421875,-1.146343994140625,6.109597778320313
14.43100000000004,7.098629760742188,-0.8762817382812501,6.230572509765626
14.441000000000033,5.53104248046875,-0.1206756591796875,7.294372558593751
14.451000000000022,6.233114624023438,0.021832275390625,8.722891235351563
14.461000000000013,7.106854248046876,-0.0100189208984375,7.129434204101563
14.471000000000004,7.781262207031251,0.2296875,5.90667724609375
14.480999999999996,6.638806152343751,0.4574310302734375,5.0256103515625
14.490000000000007,7.473516845703125,0.6507812500000001,6.706396484375
14.50100000000009,7.170257568359376,0.1997802734375,8.391818237304689
14.51100000000008,6.280966186523438,-0.046954345703125,7.27822265625
14.520000000000095,5.829217529296876,-0.1155914306640625,7.13406982421875
14.531000000000065,6.2030578613281255,-0.3587371826171875,6.929055786132813
14.540000000000076,7.472320556640626,-0.351409912109375,7.405926513671876
14.550000000000068,7.502377319335938,-0.358587646484375,7.011599731445313
14.56000000000006,7.258035278320313,-0.167779541015625,5.166323852539063
14.57000000000005,7.170108032226563,-0.0231781005859375,5.927761840820313
14.58000000000004,7.020870971679688,-0.031103515625,6.9671875000000005
14.590000000000032,6.842922973632813,0.1006378173828125,8.04444580078125
14.600000000000025,5.9993896484375,0.1224700927734375,7.311718750000001
14.610000000000014,6.011801147460938,-0.1323394775390625,6.730172729492188
14.620000000000005,7.244427490234376,-0.38759765625,6.181973266601563
14.629999999999995,7.320989990234375,-0.40135498046875,7.30394287109375
14.6400000000001,7.56473388671875,-0.44561767578125,6.501531982421875
14.650000000000093,7.620211791992188,-0.030206298828125,6.790435791015626
14.660000000000082,6.460708618164063,0.60950927734375,6.714920043945313
14.670000000000073,5.443264770507813,1.017742919921875,7.340728759765626
14.680000000000064,6.358126831054688,1.0304534912109375,8.33514404296875
14.690000000000056,7.311270141601563,0.3754852294921875,7.307980346679688
14.700000000000044,7.485928344726563,-0.19320068359375,6.155056762695313
14.710000000000036,6.618170166015625,-0.212939453125,5.96649169921875
14.720000000000027,6.821090698242188,-0.1131988525390625,6.986029052734375
14.730000000000018,6.543103027343751,-0.476422119140625,7.781710815429688
14.740000000000007,7.81954345703125,-0.96600341796875,6.494354248046876
14.75,7.1062561035156255,-1.0229766845703123,5.8655548095703125
14.759999999999993,6.429006958007813,-0.08134765625,6.792080688476563
14.770000000000095,5.552127075195313,0.9141143798828124,8.083773803710939
14.780000000000086,7.006515502929688,1.1506805419921875,8.884091186523438
14.790000000000076,6.582281494140625,0.7209136962890625,6.16507568359375
14.800000000000068,7.677484130859375,0.4308135986328125,5.451190185546875
14.81000000000006,6.868792724609375,0.07476806640625,5.788992309570313
14.82000000000005,7.687353515625,-0.527264404296875,7.365850830078125
14.83000000000004,6.842623901367188,-1.0654449462890625,7.470675659179688
14.840000000000032,7.031936645507813,-1.2884033203125,6.568972778320313
14.850000000000025,5.405282592773438,-1.194793701171875,6.1851135253906255
14.860000000000014,7.438973999023438,-0.2758941650390625,7.623352050781251
14.870000000000005,6.880157470703126,0.462664794921875,7.79561767578125
14.879999999999995,7.581930541992188,0.807196044921875,6.221151733398438
14.8900000000001,6.466091918945313,1.04256591796875,5.752505493164063
14.900000000000093,7.073806762695313,1.1774475097656252,6.802249145507813
14.910000000000082,6.113934326171876,0.9093292236328124,8.297161865234376
14.920000000000073,6.578991699218751,0.07177734375,7.775280761718751
14.930000000000064,6.507214355468751,-0.9793121337890626,6.1567016601562505
14.940000000000056,6.840679931640626,-1.7420959472656252,5.950192260742188
14.950000000000044,7.874572753906251,-1.6091583251953123,6.7548461914062505
14.960000000000036,8.504418945312501,-0.7170257568359375,7.386785888671875
14.970000000000027,6.192440795898438,0.0324493408203125,6.048587036132813
14.980000000000018,6.195281982421876,0.6000885009765625,6.206198120117188
14.989000000000033,6.266610717773438,1.3663116455078126,8.059698486328125
15.0,6.466690063476563,1.577456665039063,8.588009643554688
15.009999999999993,7.40921630859375,1.1132965087890625,7.532583618164063
15.020000000000095,6.177786254882813,0.3363067626953125,5.832357788085938
15.028999999999996,7.085470581054688,0.1472930908203125,5.98802490234375
15.0390000000001,6.696228027343751,-0.238360595703125,7.903433227539063
15.049000000000092,7.925714111328125,-1.1156890869140623,6.852642822265626
15.059000000000085,7.006365966796875,-1.7889007568359376,6.051129150390626
15.069000000000074,6.988272094726563,-1.4780151367187502,5.759085083007813
15.079000000000065,5.839236450195313,-0.29847412109375,7.531985473632813
15.089000000000055,6.297714233398438,0.5084228515625,8.773434448242188
15.099000000000046,7.391720581054688,0.68128662109375,7.07664794921875
15.109000000000036,7.531985473632813,0.6972869873046875,5.218362426757813
15.119000000000028,6.915447998046876,0.8842071533203125,4.9107666015625
15.12900000000002,6.929504394531251,1.02103271484375,7.649221801757813
15.13900000000001,6.836492919921875,0.3431854248046875,8.97216796875
15.149,6.106906127929688,-0.304754638671875,7.4786010742187505
15.158999999999992,5.884695434570313,-0.7408020019531251,6.546542358398438
15.169000000000096,6.614431762695313,-0.8737396240234375,6.462054443359375
15.179000000000087,7.8189453125,-0.627752685546875,7.440020751953125
15.189000000000078,7.598678588867188,-0.483599853515625,6.708190917968751
15.19900000000007,7.346112060546876,-0.2089019775390625,4.8188018798828125
15.20900000000006,7.034927368164063,-0.031103515625,5.639904785156251
15.219000000000053,7.207791137695313,0.1574615478515625,7.285250854492188
15.229000000000042,6.36246337890625,0.408831787109375,8.646926879882812
15.239000000000033,5.45806884765625,0.3457275390625,7.566229248046875
15.249000000000024,6.174346923828126,0.0399261474609375,6.376220703125001
15.259000000000016,7.106106567382813,-0.433355712890625,6.754397583007813
15.269000000000004,8.315853881835938,-0.575115966796875,7.151416015625
15.278999999999996,8.310021972656251,0.09869384765625,6.629983520507813
15.2890000000001,5.780020141601563,0.5570220947265625,6.091204833984375
15.299000000000092,5.72723388671875,0.5954528808593751,6.387286376953125
15.309000000000085,6.61966552734375,0.386700439453125,8.81007080078125
15.319000000000074,7.438824462890626,0.1347320556640625,7.974462890625
15.329000000000065,6.784005737304688,0.028411865234375,6.610543823242188
15.339000000000055,6.058306884765625,-0.05323486328125,5.701812744140625
15.349000000000046,7.501629638671876,0.1179840087890625,6.618319702148438
15.359000000000036,6.961505126953125,-0.1567138671875,7.965939331054688
15.369000000000028,7.961602783203125,-0.498553466796875,6.146383666992188
15.37900000000002,6.504373168945313,-0.8222991943359376,5.915200805664063
15.38900000000001,6.545495605468751,-0.42528076171875,6.635665893554688
15.399,5.8869384765625,0.41212158203125,8.672796630859375
15.408999999999992,6.462503051757813,0.7587463378906251,8.980990600585939
15.419000000000096,6.341378784179688,0.701025390625,6.309527587890625
15.429000000000087,7.636660766601563,0.389093017578125,5.2816162109375
15.439000000000078,7.587911987304688,0.1490875244140625,5.6560546875
15.44900000000007,7.707540893554688,-0.217724609375,6.98154296875
15.45900000000006,6.991561889648438,-0.7089508056640625,7.377365112304688
15.469000000000053,6.485830688476563,-1.0966979980468752,6.365155029296876
15.479000000000042,5.951239013671875,-1.346722412109375,6.645086669921875
15.488000000000056,7.099377441406251,-0.6482391357421875,7.947845458984376
15.498000000000047,6.781463623046876,0.23985595703125,7.740737915039063
15.508000000000038,6.747518920898438,0.8513092041015625,6.6884521484375
15.519000000000004,7.2722412109375005,1.1092590332031251,5.633175659179688
15.52800000000002,7.02281494140625,1.21243896484375,6.51798095703125
15.538000000000013,6.796267700195313,1.0913146972656251,7.578491210937501
15.548000000000002,6.019876098632813,0.3530548095703125,7.667016601562499
15.557999999999993,6.500784301757813,-0.8351593017578126,6.423025512695313
15.568000000000096,6.695330810546875,-1.7779846191406252,6.726135253906251
15.578000000000088,8.14971923828125,-1.9070343017578129,6.584674072265625
15.58800000000008,8.139401245117188,-0.8955718994140626,7.146481323242188
15.59800000000007,6.0838775634765625,0.025421142578125,5.972174072265625
15.60800000000006,6.436932373046876,0.651678466796875,6.5114013671875
15.618000000000052,6.7602294921875,1.3778259277343752,7.919134521484375
15.628000000000045,6.302200317382813,1.3914337158203125,7.8120666503906255
15.638000000000034,7.560397338867188,1.0110137939453123,7.249661254882813
15.648000000000025,5.982342529296876,0.3361572265625,6.631478881835938
15.658000000000015,6.764266967773438,0.28052978515625,6.650619506835938
15.668000000000006,6.529495239257813,-0.1303955078125,7.9346862792968755
15.677999999999995,7.7555419921875,-1.1351287841796875,6.233563232421876
15.687999999999988,7.616024780273438,-1.815966796875,5.659793090820313
15.698000000000093,7.251904296875001,-1.3367034912109377,6.100775146484375
15.708000000000084,5.465396118164063,-0.1232177734375,7.386486816406251
15.718000000000076,6.1851135253906255,0.520086669921875,9.08387145996094
15.728000000000064,7.182818603515625,0.5057312011718751,6.772790527343751
15.738000000000056,7.822085571289063,0.6174346923828126,5.6412506103515625
15.748000000000047,6.662731933593751,0.7940368652343751,4.827923583984376
15.758000000000038,7.373626708984376,0.95523681640625,7.396057128906251
15.768000000000027,6.770248413085938,0.23865966796875,8.565728759765626
15.77800000000002,6.150720214843751,-0.3050537109375,7.638156127929688
15.788000000000013,5.652166748046875,-0.5659942626953125,6.649124145507813
15.798000000000002,6.7159667968750005,-0.6679779052734376,6.937878417968751
15.807999999999993,7.559649658203125,-0.578704833984375,7.169808959960938
15.818000000000096,8.082427978515625,-0.508123779296875,6.591104125976563
15.828000000000088,6.850100708007813,-0.147442626953125,4.936187744140625
15.83800000000008,7.299456787109375,0.1490875244140625,5.781365966796876
15.84800000000007,6.731069946289063,0.1777984619140625,7.652511596679688
15.85800000000006,7.134518432617188,0.1745086669921875,8.039511108398438
15.868000000000052,5.2554473876953125,0.17286376953125,7.507012939453125
15.878000000000045,6.131729125976563,0.057421875,6.265863037109376
15.888000000000034,6.9731689453125005,-0.257501220703125,7.298858642578126
15.898000000000025,8.36923828125,-0.5634521484375,6.968832397460938
15.908000000000015,7.71187744140625,-0.1184326171875,6.368594360351563
15.918000000000006,6.719406127929688,0.4924224853515625,6.184066772460938
15.927999999999995,5.2816162109375,0.7262969970703126,6.672601318359376
15.937999999999988,6.990365600585938,0.557171630859375,8.523858642578126
15.948000000000093,6.8266235351562505,0.162994384765625,7.814010620117188
15.958000000000084,7.151565551757813,-0.1102081298828125,6.272442626953126
15.968000000000076,6.320294189453126,-0.127703857421875,6.335397338867188
15.978000000000064,7.147378540039063,0.0016448974609375,6.524261474609376
15.98700000000008,6.936532592773438,0.003289794921875,7.995248413085938
15.998000000000047,7.264614868164063,-0.472235107421875,6.039614868164063
16.008000000000038,7.36495361328125,-0.7995697021484376,5.91265869140625
16.01800000000003,6.836193847656251,-0.3997100830078125,6.722247314453125
16.027000000000044,5.7848052978515625,0.4047943115234375,7.879806518554688
16.037000000000035,6.2150207519531255,0.8758331298828126,9.005664062500001
16.047000000000025,6.201861572265625,0.5371337890625001,6.836193847656251
16.057000000000016,7.744027709960938,0.2956329345703125,5.764617919921875
16.067000000000007,7.416842651367188,0.0800018310546875,5.503976440429688
16.076999999999998,7.7172607421875,-0.1918548583984375,6.566580200195313
16.08699999999999,7.022665405273438,-0.6216217041015626,7.166519165039063
16.097000000000094,6.664227294921876,-0.8931793212890625,7.109844970703126
16.107000000000085,6.109149169921875,-1.1092590332031251,6.349603271484376
16.117000000000075,6.892568969726563,-0.5939575195312501,7.79202880859375
16.127000000000066,6.616824340820313,0.1191802978515625,7.249661254882813
16.137000000000057,7.048086547851563,0.7005767822265625,7.250558471679688
16.147000000000048,6.898550415039063,0.9703399658203126,5.900247192382813
16.15700000000004,7.415945434570313,1.0056304931640625,6.399697875976563
16.16700000000003,6.24283447265625,0.9003570556640625,7.206146240234376
16.17700000000002,6.146533203125,0.2284912109375,7.257138061523438
16.187000000000012,7.141397094726563,-0.8051025390625001,7.137509155273438
16.197000000000003,7.392318725585938,-2.00438232421875,6.263320922851563
16.206999999999994,8.082876586914063,-1.5946533203125002,6.377566528320313
16.2170000000001,6.895559692382813,-0.240155029296875,7.446600341796875
16.22700000000009,5.249765014648438,0.5520874023437501,6.733761596679688
16.23700000000008,7.052124023437501,1.0023406982421876,7.461254882812501
16.24700000000007,6.627590942382813,0.9603210449218752,7.090106201171875
16.257000000000062,7.642941284179688,0.9586761474609377,6.353939819335938
16.267000000000053,6.787445068359376,0.8366546630859376,7.595687866210938
16.277000000000044,5.970828247070313,0.4964599609375,6.447399902343751
16.287000000000035,6.551177978515626,0.1003387451171875,8.029641723632814
16.297000000000025,7.118069458007813,-0.8975158691406251,6.373977661132813
16.307000000000016,7.862609863281251,-1.571026611328125,6.302499389648438
16.317000000000007,7.180575561523438,-1.3624237060546875,6.190646362304688
16.326999999999998,6.121261596679688,-0.43604736328125,6.845166015625001
16.33699999999999,6.167767333984376,0.305352783203125,8.224337768554689
16.347000000000094,6.489569091796875,0.40853271484375,7.443609619140625
16.357000000000085,8.010052490234376,0.6914550781250001,6.027801513671875
16.367000000000075,6.815557861328125,0.736614990234375,5.639456176757813
16.377000000000066,7.222744750976563,0.7322784423828126,5.9806976318359375
16.387000000000057,7.126443481445313,0.28651123046875,8.197421264648439
16.397000000000048,6.418240356445313,-0.389691162109375,7.613333129882813
16.40700000000004,6.127841186523438,-0.4390380859375,7.064535522460938
16.41700000000003,5.684466552734375,-0.5700317382812501,7.322784423828126
16.42700000000002,7.365850830078125,-0.55567626953125,6.827969360351563
16.437000000000012,7.872479248046876,-0.3576904296875,7.213623046875001
16.447000000000003,7.530639648437501,-0.216827392578125,4.9442626953125
16.456999999999994,7.320541381835938,0.0825439453125,5.580389404296875
16.4670000000001,6.747518920898438,0.240155029296875,7.16636962890625
16.476,6.741986083984376,0.329278564453125,7.968032836914063
