time,ax,ay,az
0.0,6.924569702148438,0.070880126953125,6.877017211914063
0.0099999999999909,7.167565917968751,-0.399859619140625,6.498391723632813
0.0199999999999818,7.26207275390625,-0.8586364746093751,6.143093872070313
0.0300000000000366,7.303045654296875,-0.7023712158203126,6.743182373046875
0.0409999999999968,6.72374267578125,-0.375634765625,6.75364990234375
0.0500000000000113,6.625796508789063,0.0683380126953125,7.418487548828126
0.0600000000000022,6.186459350585938,0.221612548828125,7.755990600585938
0.0699999999999931,6.173898315429688,0.1638916015625,7.32786865234375
0.079999999999984,7.496395874023438,-0.2017242431640625,6.750061035156251
0.0900000000000318,7.686157226562501,-0.6062194824218751,5.856881713867188
0.1000000000000227,7.591351318359376,-0.6717163085937501,5.695831298828125
0.1100000000000136,6.870736694335938,-0.4640106201171875,6.401492309570313
0.1200000000000045,6.661087036132813,0.232379150390625,7.4651428222656255
0.1299999999999954,6.307733154296876,0.8167663574218751,7.743728637695313
0.1399999999999863,6.180926513671875,1.2054107666015623,7.469479370117188
0.1499999999999772,6.661834716796876,1.248626708984375,7.197174072265626
0.160000000000025,6.651068115234375,0.7352691650390626,7.19388427734375
0.1700000000000159,6.8909240722656255,0.015252685546875,6.887335205078125
0.1800000000000068,6.899896240234376,-0.72794189453125,6.967486572265625
0.1899999999999906,6.9462524414062505,-1.36915283203125,6.388333129882813
0.1990000000000122,7.487423706054688,-1.5577178955078126,6.362014770507813
0.2090000000000031,7.5521728515625,-1.442874145507813,6.083279418945313
0.2189999999999941,7.520770263671875,-1.161746215820313,5.887387084960938
0.228999999999985,7.081881713867188,-0.5887237548828126,6.344070434570313
0.2389999999999759,7.126443481445313,-0.0610107421875,6.566281127929688
0.2490000000000236,7.0018798828125,0.3231475830078125,7.132424926757813
0.2590000000000145,6.7961181640625,0.432159423828125,6.781912231445313
0.2690000000000054,6.505569458007813,0.4571319580078125,7.350897216796875
0.2789999999999963,6.100625610351563,0.7696624755859376,7.669259643554688
0.2889999999999872,6.11124267578125,1.1279510498046876,8.06837158203125
0.2989999999999781,6.597085571289063,0.93370361328125,7.444058227539063
0.3090000000000259,7.206146240234376,0.3877471923828125,6.051577758789063
0.3190000000000168,7.60361328125,-0.5734710693359375,5.975164794921875
0.3290000000000077,7.235604858398438,-1.5191375732421877,6.139056396484375
0.3389999999999986,7.137509155273438,-1.6568603515625002,7.175491333007813
0.3489999999999966,6.360220336914063,-1.2979736328125,7.327569580078125
0.3589999999999875,6.837838745117188,-0.7765411376953125,6.665872192382813
0.3690000000000282,7.107452392578126,-0.0131591796875,6.706097412109376
0.3790000000000191,7.095938110351563,0.9251800537109376,6.562841796875
0.38900000000001,6.790585327148438,1.6326354980468751,7.511349487304688
0.3990000000000009,6.149075317382813,1.6807861328125002,7.33983154296875
0.4089999999999918,6.620114135742188,1.1325866699218752,7.308578491210938
0.4189999999999827,6.670806884765626,0.3584381103515625,7.231866455078125
0.4300000000000068,6.878811645507813,-0.305352783203125,6.870138549804688
0.4390000000000214,6.769500732421876,-0.9188995361328126,6.969729614257813
0.4490000000000123,6.995449829101563,-1.242047119140625,6.634918212890626
0.4590000000000032,6.9576171875,-1.1879150390625002,6.812567138671875
0.4689999999999941,6.895858764648438,-0.8694030761718751,6.599029541015626
0.478999999999985,7.22379150390625,-0.462066650390625,6.279022216796876
0.4889999999999759,7.588360595703126,-0.18841552734375,6.302798461914063
0.4990000000000236,7.376467895507813,-0.023028564453125,6.1070556640625
0.5090000000000146,6.802847290039063,0.375634765625,7.023861694335938
0.5190000000000055,6.142495727539063,0.7822235107421875,7.677932739257813
0.5289999999999964,6.08372802734375,0.9305633544921876,8.086614990234375
0.5389999999999873,6.351696777343751,0.7319793701171875,7.698269653320313
0.5489999999999782,6.671554565429688,0.3940277099609375,6.832604980468751
0.5590000000000259,6.892269897460938,-0.1353302001953125,6.780267333984376
0.5690000000000168,6.981991577148438,-0.6436035156250001,6.821090698242188
0.5790000000000077,6.918289184570313,-1.161746215820313,6.838735961914063
0.5889999999999986,7.331906127929688,-1.3935272216796877,6.1567016601562505
0.5989999999999966,7.307681274414063,-1.4297149658203123,6.098980712890626
0.6089999999999876,7.13406982421875,-1.194644165039063,6.234310913085938
0.6190000000000282,6.910513305664063,-0.1685272216796875,7.304391479492188
0.6279999999999859,5.948397827148438,0.9538909912109376,8.117868041992189
0.63900000000001,6.478353881835938,1.5918121337890627,7.578790283203125
0.6490000000000009,6.961953735351563,1.5363342285156252,7.371084594726563
0.6589999999999918,7.053170776367188,1.11494140625,5.777478027343751
0.6680000000000064,7.253848266601563,0.42169189453125,6.130383300781251
0.6779999999999973,7.525405883789063,-0.6455474853515626,6.321041870117188
0.6879999999999953,7.697222900390625,-1.5831390380859376,6.7697998046875005
0.6990000000000123,6.315509033203125,-1.7548065185546875,7.0509277343750005
0.7080000000000268,5.875424194335938,-0.9855926513671877,7.361065673828126
0.7189999999999941,6.2135253906250005,-0.067889404296875,8.114129638671876
0.7280000000000086,6.904830932617188,0.4212432861328125,7.105807495117188
0.7379999999999995,7.564584350585938,0.7897003173828125,6.264816284179688
0.7479999999999976,7.2267822265625,1.123016357421875,5.82652587890625
0.7579999999999814,6.802398681640626,1.111053466796875,6.5688232421875
0.7680000000000362,6.546990966796876,0.488385009765625,7.83031005859375
0.77800000000002,6.933242797851563,-0.6326873779296875,7.144836425781251
0.7880000000000109,7.174145507812501,-1.4742767333984377,6.48209228515625
0.7980000000000018,6.92113037109375,-1.5805969238281252,6.061596679687501
0.8079999999999927,6.779370117187501,-1.0806976318359376,7.087265014648438
0.8179999999999836,6.60172119140625,-0.3739898681640625,7.679428100585938
0.8280000000000314,6.912307739257813,0.2428466796875,6.779220581054688
0.8380000000000223,7.264166259765625,0.4749267578125,6.073559570312501
0.8480000000000132,7.308129882812499,0.8635711669921876,6.1671691894531255
0.8580000000000041,6.739144897460938,1.1997283935546876,7.514340209960938
0.867999999999995,6.038418579101563,1.003237915039063,7.9466491699218755
0.8779999999999859,6.0056701660156255,0.1395172119140625,7.738494873046876
0.8879999999999768,6.504223632812501,-0.8586364746093751,7.133770751953126
0.8980000000000246,7.068722534179688,-1.37752685546875,6.620562744140625
0.9080000000000156,7.192089843750001,-1.3853027343750002,6.485681152343751
0.9180000000000064,7.162930297851563,-1.3111328125,6.285900878906251
0.9279999999999972,7.658493041992188,-1.1734100341796876,5.9642486572265625
0.9379999999999952,7.581781005859375,-0.401055908203125,6.408370971679688
0.9479999999999862,6.446951293945313,0.4747772216796875,7.037319946289063
0.9580000000000268,6.272442626953126,1.301263427734375,8.046539306640625
0.9680000000000106,6.080438232421876,1.7074035644531251,8.08631591796875
0.9780000000000086,6.393566894531251,1.5792510986328123,7.133770751953126
0.9879999999999995,7.342822265625,1.0140045166015623,6.219058227539063
0.9979999999999976,7.997491455078125,0.3515594482421875,5.914752197265625
1.0079999999999814,7.381552124023438,-0.30625,6.2882934570312505
1.0180000000000362,6.617572021484375,-0.747381591796875,6.7787719726562505
1.02800000000002,6.3558837890625,-1.293487548828125,7.532284545898438
1.038000000000011,6.718807983398438,-1.7097961425781252,7.390972900390626
1.0480000000000018,6.7413879394531255,-1.3624237060546875,7.167864990234375
1.0579999999999927,6.668264770507813,-0.4831512451171875,6.705648803710938
1.0679999999999836,6.965243530273438,0.3826629638671875,6.542953491210938
1.0780000000000314,7.165023803710938,0.8421875000000001,6.507962036132813
1.0880000000000225,7.336242675781251,0.954937744140625,6.526654052734376
1.0980000000000132,6.785650634765625,0.8596832275390626,6.964047241210938
1.108000000000004,6.156253051757813,0.9034973144531252,7.633071899414063
1.117999999999995,6.2090393066406255,0.50184326171875,7.879956054687501
1.127999999999986,6.715219116210938,-0.039178466796875,7.437777709960938
1.1379999999999768,6.940121459960938,-0.5999389648437501,6.454876708984376
1.1480000000000246,7.177285766601563,-1.0712768554687502,6.154159545898438
1.1580000000000157,7.262371826171876,-1.1572601318359377,6.310574340820313
1.1680000000000064,7.197024536132813,-1.09161376953125,6.815856933593751
1.177000000000021,7.24412841796875,-1.0944549560546877,6.547439575195313
1.1879999999999953,6.845764160156251,-0.6691741943359375,6.685012817382813
1.1970000000000027,6.438128662109375,0.0689361572265625,7.001431274414063
1.2080000000000268,6.223992919921876,0.9852935791015626,7.8990966796875
1.2169999999999843,6.4791015625,1.51629638671875,7.496096801757813
1.2269999999999754,6.802398681640626,1.4322570800781251,6.866250610351563
1.2370000000000232,7.061096191406251,0.6889129638671876,6.230123901367188
1.247000000000014,7.245773315429688,-0.1173858642578125,6.734957885742188
1.257000000000005,6.995001220703125,-0.9304138183593752,7.267156982421875
1.266999999999996,6.864007568359376,-1.4874359130859376,6.826174926757813
1.2769999999999868,6.444857788085938,-1.59046630859375,7.045245361328125
1.2869999999999775,6.676638793945313,-1.11195068359375,6.5712158203125
1.2970000000000257,6.986776733398438,-0.180938720703125,7.290484619140625
1.3070000000000164,7.356729125976563,0.5914154052734375,6.623104858398438
1.3170000000000073,7.270596313476563,1.0786041259765626,6.522317504882813
1.326999999999991,6.534429931640625,1.3298248291015626,6.627590942382813
1.3369999999999962,6.671255493164063,1.06649169921875,7.125247192382813
1.346999999999987,6.728527832031251,0.115740966796875,7.512396240234375
1.3570000000000275,6.889877319335938,-0.8185607910156251,6.978701782226563
1.3670000000000186,6.689050292968751,-1.211541748046875,6.9612060546875005
1.3770000000000095,6.582730102539063,-0.9191986083984376,7.003375244140625
1.3870000000000005,6.6711059570312505,-0.4568328857421875,7.082928466796876
1.3969999999999914,7.315307617187501,-0.203369140625,6.585720825195313
1.4069999999999825,7.526901245117188,-0.09031982421875,5.705252075195313
1.4170000000000371,7.546340942382813,-0.0031402587890625,5.836843872070313
1.427000000000021,6.915298461914063,-0.0046356201171875,6.606356811523438
1.4370000000000118,6.569570922851563,0.0363372802734375,7.787094116210938
1.4470000000000027,6.15311279296875,0.0299072265625,7.890573120117188
1.4569999999999936,6.288742065429688,0.145648193359375,7.481292724609376
1.4669999999999843,6.41031494140625,0.385205078125,7.129434204101563
1.4769999999999754,6.956570434570313,0.640911865234375,6.905130004882813
1.4870000000000232,7.125247192382813,0.4738800048828125,6.765014648437501
1.497000000000014,7.203305053710938,0.0844879150390625,6.392819213867188
1.507000000000005,7.079638671875,-0.471636962890625,6.502578735351563
1.516999999999996,6.826025390625,-0.889141845703125,6.674545288085938
1.5269999999999868,6.319396972656251,-1.1565124511718752,6.8080810546875
1.5369999999999775,7.409664916992188,-1.2522155761718752,6.942514038085938
1.5470000000000257,7.225735473632813,-1.009368896484375,6.611141967773438
1.5570000000000164,7.211380004882813,-0.071478271484375,6.63760986328125
1.5670000000000073,6.573309326171875,0.9093292236328124,7.192538452148438
1.576999999999991,6.103018188476563,1.4895294189453123,7.435983276367188
1.5869999999999962,6.523513793945313,1.496856689453125,7.527648925781251
1.596999999999987,6.586468505859376,0.8134765625000001,7.017581176757813
1.6070000000000275,7.590902709960938,-0.0683380126953125,6.42825927734375
1.6170000000000186,6.997244262695313,-0.7273437500000001,6.919934082031251
1.6270000000000095,6.537121582031251,-0.9491058349609376,6.593945312500001
1.6370000000000005,6.513793945312501,-1.0696319580078126,7.468582153320313
1.6469999999999914,7.402337646484375,-1.269412231445313,6.293377685546876
1.6569999999999825,7.540957641601563,-1.098492431640625,6.445156860351563
1.6670000000000371,6.992459106445313,-0.1849761962890625,6.349005126953125
1.6759999999999948,6.123953247070313,0.9812561035156252,7.357626342773438
1.6870000000000118,6.652413940429688,1.2206634521484376,7.7657104492187505
1.6970000000000027,6.822137451171876,0.9346008300781252,7.054666137695313
1.7060000000000173,6.97855224609375,0.4798614501953125,6.65794677734375
1.7160000000000082,6.482839965820313,0.316119384765625,6.660488891601563
1.725999999999999,6.592001342773438,-0.1134979248046875,7.543649291992188
1.735999999999997,6.761126708984375,-0.6984832763671875,7.3787109375
1.745999999999981,6.818997192382813,-1.0848846435546875,6.587963867187501
1.7560000000000358,7.214071655273438,-0.8559448242187501,6.346163940429688
1.7660000000000196,6.9540283203125,-0.5932098388671876,6.403884887695313
1.7760000000000105,7.589407348632813,-0.3479705810546875,6.7548461914062505
1.7860000000000014,7.447048950195313,-0.0662445068359375,6.496597290039063
1.7959999999999925,6.3839965820312505,0.2041168212890625,6.360220336914063
1.8059999999999832,6.377716064453126,0.3742889404296875,7.278073120117188
1.816000000000031,6.612786865234376,0.3677093505859375,7.986126708984376
1.8260000000000216,6.628189086914063,0.2145843505859375,7.694082641601563
1.8360000000000127,6.655105590820313,0.14534912109375,6.621459960937501
1.846000000000004,6.673348999023438,0.179443359375,6.558953857421876
1.8559999999999943,6.654058837890625,-0.0861328125,6.543701171875001
1.8659999999999848,7.895208740234375,-0.5785552978515626,6.673947143554688
1.8759999999999764,7.775430297851563,-1.0735198974609377,5.943463134765626
1.886000000000024,6.612039184570313,-1.281524658203125,6.001034545898438
1.896000000000015,7.133770751953126,-0.6180328369140625,7.577743530273438
1.906000000000006,6.032586669921876,0.37144775390625,8.548083496093751
1.9159999999999968,5.333056640625,0.8465240478515625,7.594491577148438
1.9259999999999948,6.818399047851563,0.8892913818359376,6.863409423828125
1.9359999999999853,7.440618896484375,0.7191192626953126,6.25479736328125
1.9460000000000264,8.111138916015626,0.6386688232421875,6.392520141601563
1.9560000000000173,7.054217529296875,0.2854644775390625,6.3439208984375
1.966000000000008,6.409118652343751,-0.284417724609375,6.797763061523438
1.975999999999999,6.113485717773438,-0.8807678222656251,7.547238159179688
1.985999999999997,6.620114135742188,-1.0802490234375002,7.998239135742188
1.995999999999981,6.852792358398438,-0.8816650390625,7.442263793945313
2.006000000000036,6.773538208007813,-0.3781768798828125,6.179730224609376
2.01600000000002,7.191192626953126,0.3674102783203125,6.153262329101563
2.0260000000000105,7.401141357421875,0.7825225830078125,6.686956787109375
2.0360000000000014,6.846661376953126,0.883160400390625,6.924270629882813
2.0459999999999923,6.6337219238281255,0.55567626953125,7.077545166015626
2.055999999999983,6.727630615234376,-0.045758056640625,6.980795288085938
2.066000000000031,6.287994384765626,-0.5025909423828125,7.257586669921875
2.076000000000022,6.52635498046875,-0.6543701171875,7.5010314941406255
2.0860000000000127,7.003674316406251,-0.8659637451171875,6.960906982421876
2.096000000000004,7.430450439453126,-0.83082275390625,6.174795532226563
2.1059999999999945,7.542303466796875,-0.452496337890625,5.957070922851563
2.115999999999985,6.799856567382813,-0.0162994384765625,6.450390625000001
2.1259999999999764,6.896755981445313,0.346624755859375,7.003973388671875
2.136000000000024,6.755444335937501,0.2983245849609375,7.390673828125
2.146000000000015,6.6609375,0.0267669677734375,6.758135986328125
2.156000000000006,6.546243286132813,0.1529754638671875,7.389328002929688
2.165999999999997,6.035427856445313,0.2944366455078125,7.468731689453126
2.175999999999995,6.362164306640626,0.1499847412109375,7.167715454101563
2.1850000000000023,7.849749755859375,-0.4027008056640625,6.6429931640625
2.1960000000000264,7.872030639648438,-0.9368438720703126,5.311972045898438
2.2060000000000173,7.568173217773438,-0.5633026123046876,6.225039672851563
2.216000000000008,6.402539062500001,0.0025421142578125,7.361962890625
2.2250000000000227,6.0041748046875005,0.19140625,8.000332641601563
2.2350000000000136,6.228329467773438,0.1526763916015625,7.868441772460938
2.2450000000000045,6.418090820312501,0.2376129150390625,6.636712646484376
2.2549999999999955,7.400991821289063,0.3409423828125,6.626843261718751
2.2649999999999864,7.563687133789063,0.331671142578125,6.671853637695313
2.2749999999999773,7.210931396484375,0.265277099609375,6.396258544921875
2.285000000000025,6.4168945312500005,0.027813720703125,6.793276977539063
2.295000000000016,6.709237670898438,-0.4629638671875,6.736602783203126
2.305000000000007,7.005020141601563,-0.9230865478515624,7.639950561523438
2.3149999999999906,6.771893310546876,-0.8254394531250001,7.173995971679688
2.324999999999996,6.289340209960938,-0.19918212890625,7.084573364257813
2.334999999999986,6.756491088867188,0.2175750732421875,6.860269165039063
2.345000000000028,7.052871704101563,0.3624755859375,6.583477783203126
2.355000000000011,7.41519775390625,0.4188507080078125,6.8490539550781255
2.365000000000009,6.87626953125,0.5067779541015626,6.51798095703125
2.375,6.233413696289063,0.4110748291015625,7.133920288085938
2.384999999999991,6.294573974609375,0.0462066650390625,7.305438232421875
2.394999999999982,7.2626708984375,-0.493768310546875,7.419683837890625
2.4050000000000367,7.206146240234376,-0.8679077148437501,6.503475952148438
2.4150000000000205,7.250259399414063,-0.8194580078125001,5.911611938476563
2.425000000000012,6.507214355468751,-0.452496337890625,6.908718872070313
2.4350000000000023,6.858175659179688,-0.2519683837890625,6.925765991210938
2.444999999999993,7.253848266601563,-0.0471038818359375,7.413552856445313
2.454999999999984,7.019076538085938,-0.1610504150390625,5.912808227539063
2.465000000000032,6.9157470703125,0.1327880859375,6.618170166015625
2.4750000000000227,6.424520874023438,0.5752655029296876,7.667016601562499
2.4850000000000136,6.270947265625001,0.7346710205078125,7.914498901367188
2.4950000000000045,6.50601806640625,0.4185516357421875,7.449441528320313
2.5049999999999955,6.99051513671875,-0.2139862060546875,5.813665771484375
2.5149999999999864,7.306784057617188,-0.5755645751953126,6.210086059570313
2.5249999999999773,7.083676147460938,-0.7905975341796876,6.558056640625001
2.535000000000025,7.404281616210938,-1.0039855957031252,6.920083618164063
2.545000000000016,7.105957031250001,-1.2070556640625,6.530392456054688
2.555000000000007,7.007412719726563,-0.57421875,6.808828735351563
2.5649999999999906,6.042007446289063,0.6119018554687501,7.8748718261718755
2.574999999999996,5.759832763671875,1.2976745605468751,7.759280395507813
2.584999999999986,6.8370910644531255,1.3513580322265626,7.518228149414063
2.595000000000028,7.327719116210938,0.7292877197265626,6.058605957031251
2.605000000000011,7.675540161132813,0.286810302734375,6.010455322265625
2.615000000000009,7.034628295898438,-0.10946044921875,6.8834472656250005
2.625,6.492559814453125,-0.6029296875000001,7.172500610351563
2.634999999999991,6.367098999023438,-1.18851318359375,7.435983276367188
2.644999999999982,6.673797607421876,-1.4173034667968751,6.8789611816406255
2.6550000000000367,7.032684326171876,-0.8735900878906251,7.0856201171875
2.6650000000000205,6.805987548828125,0.0961517333984375,6.991561889648438
2.675000000000012,6.876119995117188,0.8949737548828126,6.610244750976563
2.6850000000000023,7.258782958984375,1.0554260253906251,6.625198364257813
2.694000000000017,6.948345947265626,0.945965576171875,6.425567626953126
2.704000000000008,6.688153076171876,0.5568725585937501,7.183865356445313
2.715000000000032,6.504223632812501,-0.1191802978515625,7.371682739257813
2.7239999999999966,6.588412475585938,-0.85654296875,7.199118041992188
2.733999999999988,6.7578369140625005,-1.26029052734375,6.902139282226563
2.744000000000028,7.145285034179688,-1.2438415527343751,6.535177612304688
2.754000000000019,7.086367797851563,-0.688763427734375,6.723593139648438
2.76400000000001,7.2064453125,-0.093609619140625,6.557907104492188
2.774000000000001,7.0344787597656255,0.344232177734375,6.413903808593751
2.783999999999992,7.004122924804688,0.5815460205078126,6.495550537109375
2.7939999999999827,6.776977539062501,0.6129486083984376,7.140200805664063
2.8040000000000376,6.246572875976563,0.4912261962890625,7.609744262695313
2.8140000000000214,5.9373321533203125,0.1816864013671875,7.449890136718751
2.8240000000000123,7.021618652343751,-0.393878173828125,7.283456420898438
2.834000000000003,7.435385131835938,-0.870001220703125,6.309976196289063
2.843999999999994,7.488919067382813,-0.5819946289062501,6.410165405273438
2.853999999999985,6.933840942382813,-0.259893798828125,6.426315307617188
2.863999999999976,6.542056274414063,-0.0471038818359375,6.8415771484375005
2.874000000000024,6.902139282226563,0.012860107421875,7.200762939453125
2.8840000000000146,6.5260559082031255,0.031402587890625,7.356280517578125
2.894000000000005,6.727481079101563,0.3324188232421875,7.151715087890626
2.9039999999999964,6.651367187500001,0.4079345703125,7.225735473632813
2.913999999999988,7.0105529785156255,0.36187744140625,6.711181640625001
2.923999999999978,6.934588623046875,0.1404144287109375,6.599029541015626
2.934000000000026,7.236950683593751,-0.2118927001953125,6.442465209960938
2.944000000000017,7.08262939453125,-0.6160888671875,6.565982055664063
2.954000000000008,6.883148193359376,-0.74110107421875,7.158743286132813
2.963999999999998,6.307882690429688,-0.3853546142578125,7.410412597656251
2.9739999999999966,6.393566894531251,-0.123516845703125,7.40084228515625
2.983999999999988,6.826922607421875,0.1380218505859375,6.902139282226563
2.994000000000028,7.327270507812501,0.12381591796875,6.432894897460938
3.004000000000019,7.212725830078125,0.3198577880859375,6.297863769531251
3.01400000000001,6.847109985351563,0.3626251220703125,6.788940429687501
3.024000000000001,6.35050048828125,0.2229583740234375,7.283456420898438
3.033999999999992,6.520672607421876,-0.1818359375,7.448245239257813
3.0439999999999827,6.82303466796875,-0.4254302978515625,7.214669799804688
3.0540000000000376,6.971823120117188,-0.602032470703125,6.519326782226563
3.0640000000000214,7.299606323242188,-0.530255126953125,6.484634399414063
3.0740000000000123,6.984683227539063,-0.2117431640625,6.7054992675781255
3.084000000000003,6.695480346679688,-0.007177734375,6.792828369140626
3.093999999999994,6.728976440429688,0.1383209228515625,7.101022338867188
3.103999999999985,7.166220092773438,-0.0527862548828125,6.563290405273438
3.113999999999976,7.034179687500001,-0.1810882568359375,6.837689208984376
3.124000000000024,6.833651733398438,0.0088226318359375,6.93668212890625
3.1340000000000146,6.1567016601562505,0.2776885986328125,7.553070068359376
3.144000000000005,6.445156860351563,0.145050048828125,7.272390747070313
3.1539999999999964,6.754248046875,-0.1431060791015625,6.651367187500001
3.163999999999988,7.5040222167968755,-0.5420684814453125,6.1133361816406255
3.173000000000002,7.440768432617188,-0.8058502197265626,6.033932495117188
3.184000000000026,7.191192626953126,-0.694744873046875,6.800903320312501
3.192999999999984,7.153958129882813,-0.3617279052734375,7.368392944335938
3.203000000000032,6.294723510742188,0.3258392333984375,7.645184326171876
3.213999999999998,5.427862548828125,0.817364501953125,7.372280883789063
3.223000000000013,6.553421020507813,0.9015533447265626,7.392767333984375
3.233000000000004,7.271044921875,0.5449096679687501,6.913653564453125
3.242999999999995,7.827767944335938,0.0497955322265625,6.121710205078125
3.252999999999986,7.365701293945313,-0.2645294189453125,6.167767333984376
3.262999999999977,6.477905273437501,-0.4158599853515625,6.566131591796876
3.273000000000025,6.311172485351563,-0.5703308105468751,7.714120483398438
3.2830000000000155,6.718807983398438,-0.9621154785156252,7.523461914062499
3.2930000000000064,6.8798583984375,-0.7956817626953125,7.009954833984375
3.3029999999999973,6.762173461914063,-0.0874786376953125,6.634170532226563
3.312999999999996,6.761276245117188,0.7514190673828125,6.901541137695313
3.322999999999986,7.073358154296876,1.0235748291015625,6.977804565429688
3.334000000000003,6.997393798828125,0.7258483886718751,6.69981689453125
3.34300000000001,6.824380493164063,0.2968292236328125,6.529644775390626
3.3530000000000086,6.752154541015625,-0.16209716796875,7.028945922851563
3.3629999999999995,6.454727172851563,-0.6219207763671876,7.458413696289063
3.3729999999999976,6.554766845703125,-1.0193878173828126,7.0688720703125005
3.3829999999999814,7.228128051757813,-1.094903564453125,6.709536743164063
3.393000000000036,7.285400390625001,-0.8933288574218751,6.09569091796875
3.40300000000002,7.30753173828125,-0.286212158203125,6.390875244140625
3.413000000000011,6.987823486328126,0.3515594482421875,6.872531127929688
3.423000000000002,6.592449951171876,0.6181823730468751,6.9567199707031255
3.434000000000026,6.670806884765626,0.6599029541015625,7.218408203125
3.442999999999984,6.573608398437501,0.4269256591796875,7.149920654296875
3.453000000000032,6.606057739257813,0.2630340576171875,7.482339477539063
3.4630000000000223,6.567028808593751,0.045458984375,7.242184448242188
3.473000000000013,6.362313842773438,-0.245538330078125,6.854138183593751
3.483000000000004,7.037619018554688,-0.7143341064453126,6.168215942382813
3.492999999999995,8.075250244140626,-1.0935577392578126,6.282012939453126
3.502999999999986,7.461404418945313,-1.086978149414063,6.019427490234375
3.512999999999977,7.343270874023438,-0.5474517822265625,6.820343017578126
3.523000000000025,6.120364379882813,0.254510498046875,7.629034423828125
3.5330000000000155,5.625848388671876,0.7237548828125,7.763018798828125
3.5430000000000064,6.440521240234376,0.9764709472656252,7.995248413085938
3.5529999999999973,6.805239868164063,0.7886535644531251,6.768902587890626
3.562999999999996,7.832702636718751,0.4095794677734375,6.067129516601563
3.572999999999986,7.306335449218751,0.0578704833984375,6.375622558593751
3.583000000000027,6.779669189453125,-0.2127899169921875,6.459213256835938
3.59300000000001,6.511849975585938,-0.6249114990234376,7.659689331054688
3.6030000000000086,6.839334106445313,-1.2028686523437502,6.9301025390625
3.613,6.916793823242188,-1.2359161376953125,6.945205688476563
3.6229999999999976,6.684414672851563,-0.5579193115234375,6.938027954101563
3.634000000000015,6.431997680664063,0.405841064453125,7.1361633300781255
3.643000000000036,7.13406982421875,0.8134765625000001,7.200015258789063
3.65300000000002,7.173098754882813,0.7472320556640626,6.198721313476563
3.663000000000011,7.1167236328125005,0.5357879638671875,6.378463745117188
3.673000000000002,6.6764892578125,0.408233642578125,6.893466186523438
3.682000000000016,6.187057495117188,0.09989013671875,7.919433593750001
3.692999999999984,6.248516845703126,-0.384906005859375,7.661932373046875
3.703000000000032,7.009506225585938,-0.7689147949218751,6.824829101562501
3.7130000000000223,7.184912109375,-0.865216064453125,6.2643676757812505
3.721999999999987,7.494003295898438,-0.6181823730468751,6.146682739257813
3.733000000000004,7.2498107910156255,-0.1739105224609375,6.866101074218751
3.742999999999995,6.730471801757813,-0.113348388671875,6.291134643554688
3.752999999999986,7.101321411132813,-0.055328369140625,6.8296142578125005
3.762000000000001,6.839334106445313,-0.1855743408203125,6.72972412109375
3.771999999999992,6.697872924804688,0.05443115234375,7.473217773437501
3.7819999999999823,6.25479736328125,0.3446807861328125,7.828067016601563
3.792000000000037,6.2793212890625005,0.5431152343750001,7.3245788574218755
3.802000000000021,6.701013183593751,0.419598388671875,6.980795288085938
3.812000000000012,7.027450561523438,0.0797027587890625,6.217263793945313
3.8220000000000014,7.567724609375,-0.2459869384765625,6.157150268554688
3.834000000000003,7.262222290039063,-0.8405426025390625,6.186160278320313
3.841999999999985,7.059899902343751,-1.16219482421875,6.683367919921875
3.851999999999976,7.174743652343751,-1.1340820312500002,7.251007080078126
3.862000000000023,6.615628051757813,-0.268865966796875,7.717709350585938
3.872000000000014,5.391226196289063,0.569732666015625,7.43673095703125
3.882000000000005,6.515139770507813,0.9571807861328124,7.170855712890625
3.891999999999996,7.302297973632813,1.0406219482421877,7.004272460937501
3.901999999999987,7.6475769042968755,0.6735107421875001,6.0771484375
3.9119999999999777,7.418936157226563,0.420794677734375,6.433642578125
3.9220000000000255,6.301602172851563,-0.0345428466796875,6.673348999023438
3.934000000000026,6.364257812500001,-0.5501434326171876,7.696475219726563
3.9420000000000073,6.659442138671875,-1.203765869140625,7.607800292968751
3.951999999999991,6.835745239257813,-1.2667205810546875,6.911560058593751
3.961999999999996,6.957766723632813,-0.7032684326171875,6.557009887695313
3.971999999999987,6.799258422851563,0.168975830078125,6.7548461914062505
3.982000000000028,7.2028564453125,0.8239440917968751,6.84097900390625
3.992000000000018,7.052273559570313,0.896917724609375,6.768753051757813
4.0020000000000095,6.864007568359376,0.673809814453125,6.357379150390625
4.0120000000000005,6.709237670898438,0.247332763671875,6.907073974609376
4.021999999999991,6.530242919921876,-0.300567626953125,7.475759887695313
4.033000000000016,6.615328979492188,-0.7671203613281251,7.461254882812501
4.042000000000037,6.712078857421876,-1.030154418945313,6.905728149414063
4.052000000000021,7.093096923828125,-0.972882080078125,6.330911254882813
4.062000000000012,7.220053100585938,-0.454888916015625,6.6681152343750005
4.072000000000003,7.077096557617188,0.102880859375,6.615628051757813
4.081999999999994,6.948046875,0.43963623046875,6.6935363769531255
4.0919999999999845,6.828567504882813,0.4813568115234375,6.609646606445313
4.101999999999975,6.781613159179688,0.401055908203125,7.157696533203126
4.112000000000023,6.394613647460938,0.330474853515625,7.600173950195313
4.122000000000014,6.202310180664063,0.1024322509765625,7.444955444335938
4.132000000000005,6.327322387695313,-0.3632232666015625,6.818249511718751
4.141999999999996,7.837188720703126,-0.9203948974609376,6.379510498046876
4.151999999999987,7.512844848632813,-0.9580780029296876,6.235357666015625
4.161999999999978,7.5318359375,-0.4840484619140625,6.478802490234376
4.1720000000000255,6.661087036132813,0.0716278076171875,7.039413452148438
4.182000000000016,5.948098754882813,0.35948486328125,7.129583740234375
4.192000000000007,6.408670043945313,0.49107666015625,7.686456298828125
4.201000000000022,6.69742431640625,0.4613189697265625,7.533929443359375
4.211999999999996,7.337139892578126,0.356793212890625,6.804641723632813
4.221999999999987,6.847409057617188,0.260791015625,6.608001708984376
4.232000000000028,6.922177124023438,0.0808990478515625,6.1552062988281255
4.242000000000019,6.948196411132813,-0.261090087890625,7.168313598632813
4.2520000000000095,7.358673095703126,-0.9084320068359376,6.581234741210938
4.261000000000024,6.851745605468751,-1.006378173828125,6.904681396484375
4.271000000000015,6.431399536132813,-0.6096588134765626,7.093844604492188
4.281000000000006,6.173898315429688,0.0752166748046875,7.528994750976563
4.292000000000037,6.934588623046875,0.398663330078125,7.561444091796876
4.300999999999995,7.127639770507813,0.5043853759765625,6.241189575195313
4.310999999999986,7.264016723632813,0.443524169921875,6.148925781250001
4.321000000000026,6.952832031250001,0.45758056640625,6.383847045898438
4.331000000000017,6.602169799804688,0.2145843505859375,7.596136474609375
4.341000000000008,6.3107238769531255,-0.250323486328125,7.620510864257813
4.350999999999999,6.660339355468751,-0.6041259765625,7.169659423828126
4.360999999999997,6.871334838867188,-0.7584472656250001,6.562991333007813
4.370999999999981,7.381851196289063,-0.7422973632812501,6.442764282226563
4.381000000000036,7.360317993164063,-0.3016143798828125,6.743780517578125
4.39100000000002,6.727481079101563,-0.0483001708984375,6.396109008789063
4.4010000000000105,6.821838378906251,0.1505828857421875,6.770697021484375
4.411000000000001,6.964196777343751,0.0895721435546875,6.851745605468751
4.420999999999992,6.966738891601563,0.01614990234375,7.225436401367188
4.430999999999983,6.644039916992188,0.1208251953125,7.286447143554688
4.441000000000031,6.230722045898438,0.2696136474609375,7.249063110351563
4.451000000000022,6.43065185546875,0.1993316650390625,7.151715087890626
4.461000000000013,6.8834472656250005,-0.1425079345703125,6.631478881835938
4.471000000000004,7.58865966796875,-0.4595245361328125,6.305938720703126
4.4809999999999945,7.366598510742188,-0.902001953125,6.058605957031251
4.4909999999999854,7.147827148437501,-0.760540771484375,6.639852905273438
4.500999999999976,7.406674194335938,-0.283819580078125,7.5114990234375005
4.511000000000024,5.7577392578125,0.268865966796875,7.500582885742188
4.521000000000015,5.803945922851563,0.5758636474609375,7.156948852539063
4.531000000000006,6.730770874023438,0.6661834716796875,7.455422973632813
4.540999999999997,7.482788085937501,0.4151123046875,6.857577514648438
4.550999999999995,7.595538330078125,0.235968017578125,6.545944213867188
4.560999999999986,6.794921875000001,0.082244873046875,6.0116516113281255
4.571000000000026,6.604412841796876,-0.162994384765625,6.796267700195313
4.581000000000017,6.611590576171875,-0.5655456542968751,7.512545776367188
4.591000000000008,7.17833251953125,-0.940283203125,7.398449707031251
4.600999999999999,6.540112304687501,-0.7481292724609375,6.812417602539063
4.610999999999997,6.334799194335938,-0.083441162109375,6.800454711914063
4.620999999999981,7.107003784179688,0.43544921875,7.179977416992188
4.631000000000036,7.245623779296875,0.6419586181640625,7.066329956054688
4.64100000000002,6.956420898437501,0.558966064453125,6.0592041015625
4.6510000000000105,6.9582153320312505,0.274847412109375,6.492858886718751
4.661000000000001,6.788342285156251,-0.1341339111328125,6.865054321289063
4.670999999999992,6.598880004882813,-0.5057312011718751,7.772439575195313
4.680999999999983,6.5559631347656255,-0.7716064453125001,7.2985595703125
4.691000000000031,6.654357910156251,-0.8332153320312501,6.521270751953126
4.701000000000022,7.132873535156251,-0.5665924072265626,6.642395019531251
4.711000000000013,7.432992553710938,-0.170770263671875,6.612786865234376
4.720000000000027,7.099826049804688,0.359185791015625,6.802249145507813
4.730000000000011,6.544149780273438,0.5366851806640626,6.498840332031251
4.740000000000009,6.762023925781251,0.45758056640625,6.9911132812500005
4.75,6.782958984375001,0.20755615234375,7.3488037109375
4.759999999999991,6.697274780273438,-0.04306640625,7.396505737304688
4.769999999999982,6.21531982421875,-0.2627349853515625,7.017132568359376
4.780000000000037,6.698620605468751,-0.57840576171875,6.4423156738281255
4.7900000000000205,7.6924377441406255,-0.7717559814453125,6.868792724609375
4.800000000000011,7.558453369140626,-0.8172149658203126,6.231320190429688
4.810000000000002,7.333401489257813,-0.1351806640625,6.727481079101563
4.819999999999993,6.298910522460938,0.3084930419921875,6.747967529296876
4.829999999999984,6.085821533203125,0.5954528808593751,7.495947265625
4.840000000000032,6.627291870117188,0.5483489990234376,7.957714843750001
4.850000000000023,6.797015380859375,0.3122314453125,7.043151855468751
4.860000000000014,7.203305053710938,0.192303466796875,6.613833618164063
4.8700000000000045,6.783706665039063,-0.0418701171875,6.361566162109376
4.879999999999996,7.23216552734375,-0.1278533935546875,6.844268798828126
4.889999999999986,6.750061035156251,-0.4681976318359375,6.976010131835938
4.899999999999977,7.218707275390625,-0.8194580078125001,6.634918212890626
4.910000000000025,6.798062133789063,-0.8362060546875001,6.6860595703125005
4.920000000000016,6.436483764648438,-0.3294281005859375,7.304690551757813
4.930000000000007,6.5798889160156255,0.275445556640625,7.633819580078126
4.939999999999991,6.738845825195313,0.4475616455078125,7.131826782226563
4.949999999999996,7.133023071289063,0.49825439453125,6.196777343750001
4.959999999999987,7.127191162109376,0.379522705078125,6.463998413085938
4.970000000000027,6.9013916015625005,0.326287841796875,6.78116455078125
4.980000000000011,6.483886718750001,0.112451171875,7.657894897460938
4.990000000000009,6.188253784179688,-0.351708984375,7.376318359375
5.0,6.795370483398438,-0.6087615966796875,6.955374145507813
5.009999999999991,7.071713256835938,-0.6530242919921876,6.776828002929688
5.019999999999982,7.313363647460938,-0.632537841796875,6.181225585937501
5.030000000000037,7.804888916015625,-0.3542510986328125,6.451437377929688
5.0400000000000205,6.565234375,-0.1149932861328125,6.235955810546876
5.050000000000011,6.810922241210938,0.0267669677734375,6.856680297851563
5.060000000000002,6.668563842773438,0.145947265625,7.583874511718751
5.069999999999993,6.6815734863281255,0.046356201171875,7.228427124023438
5.079999999999984,6.636413574218751,0.192303466796875,7.328765869140626
5.090000000000032,6.489419555664063,0.3337646484375,6.882550048828126
5.100000000000023,6.673947143554688,0.4314117431640625,7.161285400390626
5.110000000000014,6.917840576171876,0.0049346923828125,6.730471801757813
5.1200000000000045,7.363458251953125,-0.3635223388671875,6.090756225585938
5.129999999999996,7.3464111328125,-0.9568817138671876,6.043951416015625
5.139999999999986,7.2498107910156255,-1.2921417236328123,6.410614013671876
5.149999999999977,6.995300292968751,-0.9214416503906252,7.462451171875
5.160000000000025,6.64359130859375,-0.1816864013671875,7.773486328125
5.170000000000016,5.636315917968751,0.7357177734375,7.562640380859375
5.180000000000007,6.144888305664063,1.0657440185546876,6.964047241210938
5.189999999999991,7.343719482421876,1.2200653076171877,7.097882080078126
5.199999999999996,7.611239624023438,0.7898498535156251,6.323434448242188
5.209999999999987,7.452432250976563,0.23148193359375,6.336743164062501
5.218999999999994,6.738098144531251,-0.3653167724609375,6.401641845703126
5.230000000000011,6.198123168945313,-0.7925415039062501,7.541854858398438
5.238999999999976,6.457717895507813,-1.15621337890625,7.83629150390625
5.25,6.8894287109375005,-1.30216064453125,7.252651977539063
5.259999999999991,6.960159301757813,-0.7464843750000001,6.359622192382813
5.2690000000000055,6.91873779296875,0.1915557861328125,6.42825927734375
5.278999999999996,7.252651977539063,0.9993499755859376,6.806585693359375
5.288999999999987,7.062741088867188,1.1520263671875002,6.943411254882813
5.298999999999978,6.817950439453125,0.86072998046875,6.675292968750001
5.309000000000026,6.468484497070313,0.37025146484375,6.935784912109376
5.319000000000017,6.432147216796875,-0.2618377685546875,7.474264526367188
5.329000000000008,6.479998779296875,-0.7704101562500001,7.766607666015625
5.338999999999999,6.9103637695312505,-1.1131469726562502,6.952233886718751
5.348999999999997,6.948196411132813,-1.0654449462890625,6.179580688476563
5.358999999999988,7.36973876953125,-0.70401611328125,6.153561401367188
5.369000000000028,7.605706787109375,-0.1544708251953125,6.518130493164063
5.379000000000019,7.163229370117188,0.1867706298828125,6.530242919921876
5.38900000000001,6.733761596679688,0.4164581298828125,6.657049560546875
5.399000000000001,6.388931274414063,0.4915252685546875,7.248614501953125
5.408999999999992,6.198571777343751,0.524273681640625,8.027697753906251
5.418999999999983,6.2912841796875005,0.4101776123046875,7.929452514648438
5.429000000000038,6.365304565429688,0.0907684326171875,6.89122314453125
5.439000000000021,7.089956665039063,-0.43485107421875,5.972772216796876
5.449000000000012,8.027099609375,-0.7811767578125001,6.26676025390625
5.459000000000003,7.731018066406251,-0.8326171875,6.162533569335938
5.468999999999994,6.995001220703125,-0.5342926025390625,6.8131652832031255
5.478999999999985,6.161935424804688,-0.2588470458984375,7.0593017578125
5.488999999999976,6.037969970703125,0.0509918212890625,7.669259643554688
5.499000000000024,6.464297485351563,0.412420654296875,8.111587524414062
5.509000000000015,6.885540771484376,0.5156005859375,6.902438354492188
5.5190000000000055,7.459161376953125,0.5342926025390625,6.381753540039063
5.528999999999996,7.021768188476563,0.445916748046875,5.98802490234375
5.538999999999987,7.025656127929688,0.3529052734375,6.770397949218751
5.548999999999978,6.754248046875,-0.2265472412109375,7.245623779296875
5.559000000000026,7.059152221679688,-0.976171875,6.961953735351563
5.569000000000017,6.670956420898438,-1.1722137451171877,6.827969360351563
5.579000000000008,6.4013427734375,-0.6471923828125,7.287792968750001
5.588999999999999,6.449642944335938,0.0091217041015625,7.552621459960938
5.598999999999997,7.106854248046876,0.3183624267578125,6.990365600585938
5.608999999999988,7.424468994140626,0.3751861572265625,5.8740783691406255
5.619000000000028,7.308578491210938,0.375933837890625,5.966790771484376
5.629000000000019,6.929953002929688,0.4699920654296875,6.813763427734376
5.63900000000001,6.295172119140625,0.233575439453125,7.911209106445313
5.649000000000001,6.032437133789063,-0.212939453125,7.828216552734376
5.658999999999992,6.417642211914063,-0.5184417724609376,7.148873901367188
5.668999999999983,6.997991943359375,-0.5347412109375,6.822735595703126
5.679000000000038,7.456619262695313,-0.458477783203125,6.336593627929688
5.687999999999995,7.696026611328126,-0.1733123779296875,6.381903076171875
5.697999999999986,6.655703735351563,-0.0180938720703125,6.12021484375
5.709000000000003,6.857727050781251,0.026617431640625,6.751556396484376
5.718000000000011,6.843521118164063,-0.097796630859375,7.248764038085938
5.728999999999985,6.939224243164063,-0.3772796630859375,7.143341064453126
5.738999999999976,6.624749755859376,-0.21353759765625,7.216464233398438
5.749000000000024,6.164328002929688,0.13876953125,7.192388916015625
5.757999999999981,6.45816650390625,0.44561767578125,7.376318359375
5.768000000000036,6.906326293945313,0.19798583984375,6.773687744140625
5.77800000000002,7.461105346679688,-0.1375732421875,5.954827880859376
5.788000000000011,7.444058227539063,-0.5866302490234375,5.939276123046875
5.798000000000002,7.132125854492188,-0.7639801025390626,6.6382080078125005
5.807999999999993,7.179528808593751,-0.452197265625,7.672549438476563
5.817999999999984,6.501831054687501,-0.1191802978515625,7.761672973632813
5.828000000000031,5.3671508789062505,0.382513427734375,7.014141845703126
5.838000000000022,6.383547973632813,0.5543304443359376,7.240390014648438
5.848000000000013,7.403982543945313,0.5845367431640626,7.1825195312500005
5.858000000000004,7.912405395507813,0.177349853515625,6.238497924804688
5.867999999999995,7.2258850097656255,0.0485992431640625,6.183319091796876
5.877999999999986,6.495401000976563,-0.1179840087890625,6.167318725585938
5.887999999999977,6.27513427734375,-0.25660400390625,8.018426513671876
5.898000000000025,6.949542236328125,-0.7237548828125,7.674642944335938
5.908000000000016,6.716564941406251,-0.8688049316406251,7.0464416503906255
5.918000000000006,6.675292968750001,-0.3246429443359375,6.389678955078126
5.927999999999997,6.699667358398438,0.42767333984375,6.899896240234376
5.937999999999995,7.29317626953125,0.7277923583984376,7.272091674804688
5.947999999999986,7.086965942382813,0.5275634765625,6.472821044921876
5.958000000000027,6.99649658203125,0.1392181396484375,6.242236328125
5.968000000000011,6.6980224609375005,-0.132489013671875,6.639852905273438
5.978000000000009,6.562393188476563,-0.4215423583984375,7.803692626953126
5.988,6.407473754882813,-0.6646881103515625,7.6595397949218755
5.9979999999999976,6.798211669921876,-0.758148193359375,6.776528930664063
6.007999999999981,7.054666137695313,-0.5743682861328125,6.135916137695313
6.018000000000036,7.480844116210938,-0.2086029052734375,6.361865234375
6.02800000000002,7.374523925781251,0.2978759765625,6.911260986328125
6.038000000000011,6.5260559082031255,0.4909271240234375,6.7626220703125
6.048000000000002,6.575701904296875,0.442327880859375,6.929803466796876
6.057999999999993,6.552224731445313,0.0973480224609375,7.151416015625
6.067999999999984,6.934588623046875,-0.1416107177734375,7.551724243164063
6.078000000000031,6.583029174804688,-0.24105224609375,7.288092041015625
6.088000000000022,6.509606933593751,-0.274249267578125,6.548037719726563
6.098000000000013,6.59215087890625,-0.4311126708984375,6.423324584960938
6.108000000000004,8.029641723632814,-0.7064086914062501,6.314462280273438
6.117999999999995,7.459161376953125,-0.6141448974609376,6.571664428710938
6.127999999999986,7.046591186523438,-0.3551483154296875,6.382949829101563
6.137999999999977,6.757388305664063,0.3156707763671875,7.6086975097656255
6.148000000000025,5.708093261718751,0.6754547119140626,7.63292236328125
6.158000000000016,6.189898681640625,0.7913452148437501,7.678530883789063
6.168000000000006,6.705200195312501,0.500347900390625,7.313064575195313
6.177999999999997,7.635464477539063,-0.048150634765625,5.912509155273438
6.187999999999995,7.712026977539063,-0.24942626953125,6.671704101562501
6.197999999999986,6.612637329101563,-0.2959320068359375,6.223693847656251
6.208000000000027,6.561346435546875,-0.273651123046875,7.456918334960938
6.218000000000011,6.702508544921876,-0.7340728759765626,7.048236083984375
6.228000000000009,7.079638671875,-0.8783752441406251,6.910812377929688
6.238,6.822735595703126,-0.380120849609375,6.9994873046875
6.2479999999999976,6.3056396484375,0.4024017333984375,7.063638305664063
6.257000000000005,6.950140380859375,0.7194183349609375,7.309774780273438
6.266999999999996,7.127789306640626,0.4565338134765625,6.577944946289063
6.276999999999987,7.162780761718751,0.1903594970703125,6.198123168945313
6.286999999999978,6.767706298828125,0.120526123046875,6.845166015625001
6.2970000000000255,6.4482971191406255,-0.0634033203125,7.408468627929688
6.307000000000016,6.315359497070313,-0.34752197265625,7.6954284667968755
6.317000000000007,6.872381591796875,-0.5849853515625001,6.942214965820313
6.326999999999991,7.0404602050781255,-0.5417694091796875,6.454727172851563
6.336999999999996,7.268951416015626,-0.4194488525390625,6.269003295898438
6.348000000000013,7.531536865234376,-0.1434051513671875,6.642095947265625
6.357000000000028,6.844268798828126,-0.1260589599609375,6.512896728515625
6.367000000000019,6.705947875976563,-0.026019287109375,6.8131652832031255
6.3770000000000095,6.59573974609375,-0.05203857421875,7.170108032226563
6.3870000000000005,6.759033203125001,-0.1081146240234375,7.359271240234375
6.396999999999991,6.806585693359375,0.019439697265625,7.460955810546875
6.406999999999982,6.502279663085938,0.2648284912109375,6.885092163085938
6.417000000000037,6.500186157226563,0.413916015625,6.920681762695313
6.427000000000021,6.856231689453126,0.09091796875,6.546542358398438
6.437000000000012,7.6933349609375,-0.315521240234375,6.437530517578126
6.447000000000003,7.374224853515625,-0.9577789306640626,6.0988311767578125
6.456999999999994,6.801651000976563,-0.984844970703125,6.657199096679688
6.4669999999999845,7.315457153320313,-0.51260986328125,7.61796875
6.476999999999975,6.0687744140625,0.16748046875,7.790682983398438
6.487000000000023,5.604464721679688,0.544012451171875,7.042852783203125
6.497000000000014,6.852493286132813,0.6914550781250001,7.048983764648438
6.507000000000005,7.484432983398438,0.6784454345703126,6.890325927734375
6.516999999999996,7.632772827148438,0.457281494140625,6.477905273437501
6.526999999999987,6.939373779296876,0.224005126953125,6.324780273437501
6.536999999999978,6.396557617187501,-0.1463958740234375,6.676040649414063
6.5470000000000255,6.328817749023438,-0.55328369140625,7.711129760742188
6.557000000000016,7.154705810546876,-1.0132568359375,7.531536865234376
6.567000000000007,6.783108520507813,-0.94925537109375,6.7985107421875
6.576999999999991,6.588113403320313,-0.371746826171875,6.446353149414063
6.586999999999996,6.932345581054688,0.3255401611328125,6.829464721679688
6.596999999999987,7.248913574218751,0.7378112792968751,7.318447875976563
6.607000000000028,6.818698120117188,0.7428955078125,6.474017333984375
6.617999999999995,6.866549682617188,0.4768707275390625,6.573458862304688
6.6270000000000095,6.768304443359376,-0.0064300537109375,6.584674072265625
6.6370000000000005,6.696826171875,-0.4786651611328125,7.571014404296876
6.646999999999991,6.779519653320313,-0.7971771240234375,7.409963989257813
6.656999999999982,6.582431030273438,-0.9453674316406252,6.721649169921876
6.667000000000037,6.971823120117188,-0.7828216552734376,6.40672607421875
6.677000000000021,7.461853027343751,-0.3653167724609375,6.6561523437500005
6.687000000000012,7.086367797851563,0.1676300048828125,6.689947509765625
6.697000000000003,6.763967895507813,0.51141357421875,6.707144165039063
6.706999999999994,6.658843994140626,0.5967987060546875,6.877914428710938
6.7169999999999845,6.513494873046875,0.49346923828125,7.349700927734376
6.726999999999975,6.7721923828125,0.2675201416015625,7.630081176757813
6.737000000000023,6.535775756835938,-0.0252716064453125,7.046142578125001
6.747000000000014,6.290087890625,-0.451898193359375,6.528897094726563
6.756000000000036,7.3814025878906255,-0.8362060546875001,6.339584350585938
6.76600000000002,7.739840698242188,-0.9893310546875,6.860867309570313
6.7760000000000105,7.2886901855468755,-0.8426361083984376,6.1620849609375
6.786000000000001,7.295718383789063,-0.2008270263671875,6.893316650390625
6.795999999999992,5.993109130859375,0.3557464599609375,7.003225708007813
6.805999999999983,6.019577026367188,0.8620758056640626,7.745523071289063
6.816000000000031,6.466690063476563,0.8674591064453125,8.07734375
6.826000000000022,7.166818237304688,0.4996002197265625,6.697573852539063
6.836000000000013,7.447946166992188,0.203070068359375,6.462951660156251
6.846000000000004,6.704751586914063,0.0061309814453125,6.07176513671875
6.8559999999999945,7.001132202148438,-0.1652374267578125,7.147976684570313
6.8659999999999854,6.799258422851563,-0.8504119873046876,7.0823303222656255
6.875999999999976,7.37930908203125,-1.3061981201171875,6.6621337890625005
6.886000000000024,6.603216552734375,-0.9814056396484376,6.766958618164063
6.896000000000015,6.155056762695313,-0.095703125,7.303195190429688
6.906000000000006,6.777874755859376,0.482403564453125,7.699615478515626
6.915999999999997,7.2148193359375,0.5905181884765626,6.897055053710938
6.925999999999995,7.217959594726563,0.5803497314453125,5.7055511474609375
6.935999999999986,6.807632446289063,0.629547119140625,6.579589843750001
6.946000000000026,6.702658081054688,0.490478515625,7.274185180664063
6.956000000000017,6.257489013671876,-0.0396270751953125,8.181420898437501
6.966000000000008,6.4318481445312505,-0.57242431640625,7.185809326171875
6.975999999999999,6.848156738281251,-0.7876068115234376,6.536672973632813
6.985999999999997,7.0344787597656255,-0.8169158935546875,6.549682617187501
6.995999999999981,7.880853271484375,-0.619976806640625,6.396408081054688
7.006000000000036,7.143939208984375,-0.316119384765625,6.691143798828126
7.01600000000002,6.708489990234376,-0.12740478515625,5.73919677734375
7.0260000000000105,6.786697387695313,0.1105072021484375,7.160836791992188
7.036000000000001,6.867596435546876,0.009271240234375,7.2387451171875
7.045999999999992,6.785351562500001,0.1646392822265625,7.831207275390626
7.055999999999983,6.0998779296875005,0.3808685302734375,7.163079833984376
7.066000000000031,6.420184326171875,0.54251708984375,7.078591918945313
7.076000000000022,6.82303466796875,0.3704010009765625,7.232763671875
7.086000000000013,7.218408203125,-0.0031402587890625,6.3798095703125
7.096000000000004,7.293026733398438,-0.5036376953125,6.058905029296875
7.1059999999999945,7.300802612304688,-1.14425048828125,5.8501525878906255
7.1159999999999854,7.181771850585938,-1.36317138671875,6.815856933593751
7.125999999999976,7.377066040039063,-0.9688446044921876,7.6595397949218755
7.136000000000024,6.461605834960938,0.0276641845703125,7.665222167968751
7.146000000000015,5.061050415039063,0.9069366455078126,7.141098022460938
7.156000000000006,6.529046630859376,1.19569091796875,7.327120971679688
7.165999999999997,7.497592163085938,1.194644165039063,7.334896850585938
7.175999999999995,7.776028442382813,0.6524261474609375,6.112588500976563
7.185999999999986,7.173098754882813,0.1807891845703125,6.124401855468751
7.196000000000026,6.4527832031250005,-0.4510009765625,6.248367309570313
7.206000000000017,6.5081115722656255,-0.8762817382812501,8.082727050781251
7.216000000000008,6.686807250976563,-1.378125,7.673446655273438
7.225999999999999,6.660339355468751,-1.3325164794921875,6.875820922851563
7.235999999999997,6.968084716796875,-0.643902587890625,6.301004028320313
7.245000000000003,6.809576416015625,0.46475830078125,6.801651000976563
7.2549999999999955,7.366448974609375,1.2161773681640626,7.205697631835938
7.264999999999986,6.896755981445313,1.221112060546875,6.616525268554688
7.274999999999977,6.793576049804688,0.8187103271484376,6.386090087890626
7.285000000000025,6.596636962890625,0.2289398193359375,7.004721069335938
7.295000000000016,6.600524902343751,-0.3868499755859375,7.8010009765625
7.305000000000007,6.470428466796876,-0.9625640869140626,7.528695678710938
7.314999999999991,6.773837280273438,-1.2822723388671875,6.588562011718751
7.326000000000022,7.158444213867188,-1.2030181884765625,6.0962890625
7.334999999999987,7.478750610351563,-0.6147430419921875,6.577496337890626
7.345000000000027,7.240090942382813,0.0992919921875,6.626095581054688
7.355000000000011,7.061395263671876,0.4655059814453125,6.517831420898438
7.365000000000009,6.629086303710938,0.600836181640625,6.546093750000001
7.375,6.607553100585938,0.530255126953125,7.376318359375
7.384999999999991,6.354986572265625,0.5565734863281251,8.150466918945312
7.394999999999982,6.107952880859376,0.310137939453125,7.674194335937501
7.405000000000037,6.740191650390625,-0.1691253662109375,6.656451416015625
7.41500000000002,6.821987915039063,-0.6974365234375001,6.098233032226563
7.425000000000011,7.87576904296875,-0.91456298828125,6.121261596679688
7.435000000000002,7.457815551757813,-0.8776275634765626,6.730770874023438
7.444999999999993,7.407870483398438,-0.740203857421875,6.322387695312501
7.454999999999984,6.993057250976563,-0.2069580078125,7.107901000976563
7.465000000000032,5.761477661132813,0.36546630859375,7.268353271484376
7.475000000000023,5.846414184570313,1.0169952392578123,8.077493286132814
7.485000000000014,6.506167602539063,0.8541503906250001,7.926910400390626
7.495000000000003,7.688250732421875,0.3889434814453125,6.259881591796876
7.5049999999999955,7.55875244140625,0.1066192626953125,6.226535034179688
7.514999999999986,6.635964965820313,0.1155914306640625,5.863760375976563
7.524999999999977,6.806735229492188,-0.146246337890625,7.571014404296876
7.535000000000025,6.84097900390625,-0.957928466796875,7.0987792968750005
7.545000000000016,7.2028564453125,-1.3636199951171877,6.853689575195313
7.555000000000007,6.4647460937500005,-0.91875,6.798959350585938
7.564999999999991,6.17703857421875,0.1248626708984375,7.386337280273438
7.574999999999996,6.960159301757813,0.5755645751953126,7.714868164062499
7.584999999999987,7.32188720703125,0.5613586425781251,6.462353515625001
7.595000000000027,7.393814086914063,0.4918243408203125,5.578744506835938
7.605000000000011,6.694583129882813,0.5333953857421876,6.539962768554688
7.615000000000009,6.671704101562501,0.3648681640625,7.600323486328126
7.625,6.062045288085938,-0.1146942138671875,8.387033081054689
7.634999999999991,6.412258911132813,-0.5821441650390625,6.9701782226562505
7.644999999999982,7.077096557617188,-0.7621856689453126,6.504373168945313
7.655000000000037,7.288540649414063,-0.7421478271484375,6.252105712890626
7.66500000000002,7.834497070312499,-0.3659149169921875,6.61966552734375
7.675000000000011,6.621459960937501,-0.146844482421875,6.606655883789063
7.685000000000002,6.695629882812501,0.021832275390625,6.378463745117188
7.694999999999993,7.012945556640625,-0.0820953369140625,6.952233886718751
7.704999999999984,7.154855346679688,-0.2588470458984375,6.981393432617188
7.713999999999999,6.7602294921875,0.0432159423828125,7.478152465820313
7.725999999999999,5.8805084228515625,0.38759765625,7.307232666015626
7.735000000000014,6.235806274414063,0.6410614013671876,7.56114501953125
7.745000000000003,6.8984008789062505,0.3409423828125,7.108050537109375
7.7549999999999955,7.516433715820313,-0.04306640625,6.208889770507813
7.76400000000001,7.063937377929688,-0.4939178466796875,5.76072998046875
7.774999999999977,7.380804443359375,-0.8202056884765626,6.137411499023438
7.783999999999992,7.168463134765625,-1.2024200439453123,7.167565917968751
7.793999999999983,7.222296142578125,-1.0923614501953125,7.305438232421875
7.804000000000038,6.533084106445313,-0.159405517578125,7.652362060546875
7.814000000000021,5.092453002929688,0.7439422607421875,7.044497680664063
7.826000000000022,6.5233642578125,1.203765869140625,7.566378784179688
7.834000000000003,7.683615112304688,1.0228271484375,7.2387451171875
7.843999999999994,7.817150878906251,0.5976959228515626,5.9024902343750005
7.853999999999985,6.860867309570313,0.35828857421875,6.247171020507813
7.863999999999976,6.443511962890626,-0.18123779296875,6.480596923828125
7.874000000000024,6.700714111328126,-0.8279815673828126,8.172598266601563
7.8840000000000146,6.798361206054688,-1.453790283203125,7.3814025878906255
7.894000000000005,6.595291137695313,-1.2792816162109375,6.6935363769531255
7.903999999999996,6.594692993164063,-0.5163482666015625,6.676638793945313
7.913999999999987,6.893316650390625,0.416009521484375,6.993804931640626
7.925000000000011,7.67598876953125,0.9365447998046876,7.128387451171876
7.934000000000026,6.8834472656250005,1.0217803955078126,6.1567016601562505
7.944000000000017,6.7087890625,0.7574005126953125,6.117074584960938
7.954000000000008,6.689648437500001,0.2930908203125,7.455722045898438
7.963999999999999,6.575701904296875,-0.341839599609375,7.964743041992188
7.973999999999997,6.318200683593751,-0.8243927001953125,7.590603637695313
7.9839999999999876,6.571664428710938,-1.12271728515625,6.320742797851563
7.994000000000028,7.189248657226563,-1.023724365234375,6.372332763671875
8.004000000000019,7.729074096679688,-0.5800506591796876,6.614132690429688
8.01400000000001,7.500283813476563,-0.0521881103515625,6.419287109375
8.024999999999977,6.749163818359375,0.4080841064453125,6.344369506835938
8.033999999999992,6.549383544921875,0.5480499267578125,6.610244750976563
8.043999999999983,6.58975830078125,0.5007965087890626,7.856927490234375
8.054000000000038,6.509158325195313,0.3871490478515625,7.998837280273438
8.064000000000021,6.24881591796875,0.191705322265625,7.284503173828125
8.074000000000012,6.5754028320312505,-0.1329376220703125,6.543850708007813
8.084000000000003,6.796865844726563,-0.4744781494140625,6.404632568359376
8.093999999999994,8.141046142578126,-0.7430450439453126,6.494952392578125
8.103999999999985,7.36973876953125,-0.9405822753906252,6.2015625000000005
8.113999999999976,7.270446777343751,-0.7434936523437501,6.203656005859376
8.125999999999976,6.630731201171876,-0.165985107421875,7.308129882812499
8.134000000000015,5.732617187500001,0.4445709228515625,7.92720947265625
8.144000000000005,6.1197662353515625,0.8447296142578126,8.016632080078125
8.153999999999996,6.679928588867188,0.6567626953125001,7.21422119140625
8.163999999999987,7.703503417968751,0.4012054443359375,5.875723266601563
8.173999999999978,7.384094238281251,0.299371337890625,6.551177978515626
8.184000000000026,6.791333007812501,0.133685302734375,6.341079711914063
8.194000000000017,6.648825073242188,-0.3313720703125,7.44749755859375
8.204000000000008,6.936083984375,-1.09879150390625,6.779669189453125
8.213999999999999,6.987673950195313,-1.2888519287109377,6.916644287109375
8.223999999999997,6.512149047851563,-0.6640899658203125,7.179678344726563
8.233999999999988,6.26376953125,0.1902099609375,7.316952514648438
8.244000000000028,7.157696533203126,0.5103668212890625,7.210781860351563
8.252999999999986,7.242184448242188,0.5969482421875001,6.098532104492188
8.262999999999977,7.274185180664063,0.53533935546875,6.01434326171875
8.273000000000025,6.833950805664063,0.4825531005859375,6.78056640625
8.283000000000015,6.598580932617188,0.1052734375,7.606454467773438
8.293000000000006,6.249264526367188,-0.4263275146484375,7.802496337890625
8.302999999999997,6.277227783203125,-0.6769500732421876,7.184164428710938
8.312999999999995,6.650021362304688,-0.5585174560546875,7.001580810546876
8.322999999999986,7.322634887695313,-0.4335052490234375,6.659442138671875
8.333000000000027,7.835543823242188,-0.265576171875,6.168515014648438
8.34300000000001,7.238296508789063,-0.054730224609375,5.989520263671875
8.353000000000009,6.696078491210938,0.1311431884765625,6.215768432617188
8.363,6.483737182617188,0.18721923828125,7.633819580078126
8.372999999999998,6.828118896484376,-0.1514801025390625,7.587463378906251
8.382999999999981,6.655853271484376,-0.308941650390625,7.337289428710938
8.393000000000036,6.473867797851563,-0.06400146484375,6.753051757812501
8.40300000000002,6.384445190429688,0.3129791259765625,7.210632324218751
8.413000000000011,6.732415771484376,0.2394073486328125,7.003375244140625
8.423000000000002,7.615127563476563,-0.14654541015625,6.0774475097656255
8.432999999999993,7.778570556640625,-0.8000183105468751,5.750112915039063
8.442999999999984,7.007861328125,-1.0253692626953126,6.140103149414063
8.453000000000031,7.179678344726563,-0.364569091796875,7.90029296875
8.463000000000022,6.383847045898438,0.2026214599609375,8.322732543945314
8.473000000000013,4.883551025390625,0.6148925781250001,7.164874267578125
8.483000000000004,6.416146850585938,0.511114501953125,6.979598999023438
8.492999999999995,8.020968627929689,0.5150024414062501,6.982888793945313
8.502999999999986,7.738345336914063,0.4318603515625,6.376220703125001
8.512999999999977,7.162332153320313,0.1523773193359375,6.175543212890625
8.523000000000025,6.6071044921875,-0.235968017578125,6.087167358398438
8.533000000000015,6.145187377929688,-0.5371337890625001,7.927957153320313
8.543000000000006,6.974215698242188,-0.8016632080078125,7.828515625
8.552999999999997,6.646432495117188,-0.9476104736328126,7.336990356445313
8.562999999999995,6.665872192382813,-0.432757568359375,6.165972900390625
8.572999999999986,6.828118896484376,0.3581390380859375,6.642095947265625
8.583000000000027,7.445404052734376,0.8907867431640626,7.290185546875
8.59300000000001,6.853689575195313,0.8399444580078126,6.652413940429688
8.603000000000009,6.899298095703125,0.4151123046875,6.501232910156251
8.613,6.7243408203125,-0.0566741943359375,6.576449584960938
8.62299999999999,6.546093750000001,-0.5301055908203125,7.644735717773438
8.632999999999981,6.591104125976563,-0.7289886474609375,7.739541625976563
8.643000000000029,6.613385009765626,-0.9431243896484376,6.830810546875001
8.65300000000002,7.132723999023438,-0.8508605957031251,6.114831542968751
8.663000000000011,7.596136474609375,-0.51380615234375,6.127542114257813
8.673000000000002,7.389776611328125,0.09989013671875,6.722247314453125
8.682999999999993,6.800305175781251,0.4777679443359375,6.783108520507813
8.692999999999984,6.339733886718751,0.5842376708984376,7.0927978515625005
8.703000000000031,6.3839965820312505,0.4801605224609375,7.341476440429688
8.711999999999989,6.605758666992188,0.2851654052734375,7.778720092773438
8.723000000000013,6.711032104492188,0.0955535888671875,7.327120971679688
8.733000000000004,6.81107177734375,-0.1652374267578125,6.529196166992188
8.742999999999995,6.8625122070312505,-0.4161590576171875,6.267507934570313
8.75200000000001,6.981692504882813,-0.6630432128906251,6.37442626953125
8.762999999999977,7.649371337890625,-0.8903381347656251,6.600076293945313
8.771999999999991,7.284204101562499,-0.9800598144531252,6.55626220703125
8.781999999999982,6.981393432617188,-0.6258087158203125,6.577645874023438
8.79200000000003,6.90677490234375,0.2142852783203125,7.615426635742188
8.802000000000021,5.6382598876953125,0.9555358886718752,7.707540893554688
8.812000000000012,6.133523559570313,1.1952423095703126,7.531387329101563
8.822000000000003,6.872232055664063,0.8589355468750001,7.154855346679688
8.831999999999994,7.787692260742188,0.2711090087890625,6.071615600585938
8.841999999999985,7.460955810546875,-0.0832916259765625,6.621011352539063
8.851999999999975,6.542953491210938,-0.3419891357421875,6.316406250000001
8.862000000000023,6.4796997070312505,-0.6615478515625001,7.545593261718751
8.872000000000014,6.761276245117188,-1.1701202392578125,7.059750366210938
8.882000000000005,7.19986572265625,-1.227691650390625,7.005020141601563
8.891999999999996,6.753799438476563,-0.5455078125,6.807931518554688
8.901999999999987,6.356332397460938,0.47073974609375,6.872381591796875
8.911999999999978,7.163229370117188,0.8282806396484376,7.221847534179688
8.922000000000025,7.192089843750001,0.7711578369140626,6.59813232421875
8.932000000000016,6.963299560546876,0.5815460205078126,6.357528686523438
8.942000000000007,6.545346069335938,0.418701171875,7.027899169921875
8.951999999999998,6.445306396484376,0.0378326416015625,7.575350952148438
8.961999999999989,6.254049682617188,-0.3937286376953125,7.872927856445313
8.97199999999998,6.769949340820313,-0.7614379882812501,6.8619140625
8.982000000000028,7.161285400390626,-0.7690643310546875,6.404034423828126
8.992000000000019,7.389776611328125,-0.6569122314453125,6.109597778320313
9.00200000000001,7.700512695312501,-0.4643096923828125,6.3226867675781255
9.012,7.11014404296875,-0.2376129150390625,6.424221801757813
9.021999999999991,6.548037719726563,-0.0713287353515625,6.55386962890625
9.031999999999982,6.6669189453125,0.0216827392578125,7.404730224609375
9.04200000000003,6.565084838867188,0.1170867919921875,7.602716064453125
9.05200000000002,6.525308227539063,0.3754852294921875,7.754046630859375
9.062000000000012,6.328817749023438,0.557470703125,7.005169677734376
9.072000000000005,6.595291137695313,0.606817626953125,6.889877319335938
9.081999999999994,7.065133666992188,0.169573974609375,6.468185424804688
9.091999999999985,7.529891967773438,-0.4146636962890625,6.10167236328125
9.101999999999975,7.594790649414063,-1.075015258789063,6.247769165039063
9.112000000000023,6.970327758789063,-1.4321075439453126,6.3959594726562505
9.122000000000014,7.253250122070313,-0.8779266357421875,7.576995849609376
9.132000000000003,6.072512817382813,-0.0668426513671875,7.917041015625
9.141999999999996,5.515341186523438,0.6156402587890626,7.174444580078125
9.151999999999989,6.669012451171875,0.9368438720703126,7.305288696289063
9.161999999999978,7.565182495117188,0.8912353515625001,6.639254760742188
9.172000000000024,7.869488525390626,0.721661376953125,6.321640014648438
9.182000000000016,6.850100708007813,0.3880462646484375,6.359622192382813
9.192000000000007,6.474017333984375,-0.081048583984375,6.621609497070313
9.201999999999998,6.317303466796876,-0.72076416015625,7.961752319335938
9.211999999999987,7.042703247070313,-1.2851135253906252,7.278671264648438
9.22199999999998,6.645535278320313,-1.24892578125,7.099078369140625
9.232000000000028,6.72972412109375,-0.5586669921875,6.447698974609375
9.24200000000002,6.789987182617188,0.334661865234375,6.824380493164063
9.250999999999976,7.436431884765626,0.8157196044921876,7.0883117675781255
9.261000000000024,7.044796752929688,0.8417388916015626,6.186459350585938
9.271000000000017,6.951486206054688,0.5944061279296875,6.562542724609376
9.281000000000006,6.541607666015626,0.2355194091796875,6.856381225585938
9.290999999999997,6.4156982421875,-0.30684814453125,7.965341186523438
9.300999999999988,6.51199951171875,-0.6658843994140625,7.74058837890625
9.31099999999998,6.39775390625,-0.8783752441406251,6.7653137207031255
9.321000000000026,7.117770385742188,-0.7405029296875001,6.346313476562501
9.331000000000016,7.639501953125,-0.4649078369140625,6.322537231445313
9.341000000000008,7.596884155273438,-0.070281982421875,6.370239257812501
9.351,7.0299926757812505,0.2106964111328125,6.306536865234375
9.36099999999999,6.406576538085938,0.343035888671875,6.811370849609376
9.37099999999998,6.438278198242188,0.2827728271484375,7.651165771484376
9.381000000000029,6.507962036132813,0.1454986572265625,7.986276245117188
9.39100000000002,6.570767211914063,0.04306640625,7.287942504882813
9.40100000000001,6.77757568359375,-0.1344329833984375,6.401043701171876
9.411,6.732864379882813,-0.109759521484375,6.516336059570313
9.420999999999992,7.0210205078125005,-0.253912353515625,6.577047729492188
9.430999999999983,7.821038818359375,-0.5595642089843751,6.779071044921875
9.441000000000033,7.173846435546875,-0.7659240722656251,6.0719146728515625
9.451000000000022,7.379757690429688,-0.527264404296875,6.5748046875
9.461000000000013,6.373828125,0.0949554443359375,7.598678588867188
9.471000000000004,5.519528198242188,0.53533935546875,7.782907104492188
9.480999999999996,6.384594726562501,0.6126495361328126,7.915396118164063
9.490999999999984,7.0533203125,0.25660400390625,6.564187622070313
9.500999999999976,7.99779052734375,0.078656005859375,6.082232666015625
9.511000000000024,6.978253173828126,0.2005279541015625,6.436483764648438
9.521000000000017,6.673648071289063,0.1574615478515625,6.690097045898438
9.531000000000006,6.533682250976563,-0.2776885986328125,7.630679321289063
9.540999999999997,7.150369262695313,-0.9628631591796876,6.752304077148438
9.550999999999988,6.716714477539063,-0.8897399902343751,6.989767456054688
9.56099999999998,6.523513793945313,-0.3087921142578125,7.109994506835938
9.571000000000026,6.433193969726563,0.2286407470703125,7.220950317382813
9.581000000000016,7.354187011718751,0.310137939453125,7.089956665039063
9.591000000000008,7.250857543945313,0.257501220703125,5.906378173828125
9.601,6.968383789062501,0.26737060546875,6.4037353515625
9.61099999999999,6.635516357421875,0.327484130859375,7.012347412109375
9.62099999999998,6.407772827148438,0.0886749267578125,7.935134887695313
9.631000000000029,6.283508300781251,-0.2513702392578125,7.47740478515625
9.64100000000002,6.893017578125001,-0.4012054443359375,6.669760131835938
9.65100000000001,6.956420898437501,-0.435150146484375,6.577047729492188
9.661,7.540359497070313,-0.4287200927734375,6.443212890625
9.670999999999992,7.3709350585937505,-0.234173583984375,6.802548217773438
9.680999999999983,6.562692260742188,-0.2106964111328125,6.256292724609375
9.691000000000033,6.842324829101563,-0.206658935546875,6.688003540039063
9.701000000000022,6.947299194335938,-0.29727783203125,7.166668701171876
9.711000000000013,6.901541137695313,-0.2301361083984375,7.313662719726563
9.720000000000027,6.407623291015626,0.1538726806640625,7.382449340820313
9.730999999999996,6.3122192382812505,0.4795623779296875,7.014291381835938
9.740000000000007,6.735256958007813,0.48509521484375,7.077096557617188
9.750999999999976,7.13048095703125,0.161199951171875,6.609646606445313
9.759999999999993,7.143939208984375,-0.1272552490234375,6.177935791015625
9.769999999999982,7.323382568359375,-0.6999786376953125,6.354537963867188
9.78000000000003,6.955075073242188,-1.0503417968750002,6.721649169921876
9.79000000000002,7.704101562500001,-0.7901489257812501,7.469329833984376
9.800000000000011,6.354388427734375,-0.15133056640625,7.401290893554688
9.810000000000002,5.1313323974609375,0.4795623779296875,6.83499755859375
9.819999999999991,6.595440673828126,0.6135467529296875,7.456021118164063
9.829999999999984,7.7196533203125,0.5079742431640626,7.362411499023438
9.840000000000032,7.630380249023438,0.4287200927734375,6.255844116210938
9.850000000000025,6.697872924804688,0.4101776123046875,6.241638183593751
9.860000000000014,6.556411743164063,0.1224700927734375,6.3346496582031255
9.870000000000005,6.627890014648438,-0.3590362548828125,8.063436889648438
9.879999999999995,7.203155517578126,-0.936993408203125,7.28121337890625
9.889999999999986,6.426763916015625,-1.0071258544921875,6.743331909179688
9.899999999999975,6.530392456054688,-0.544012451171875,6.549682617187501
9.910000000000023,6.905728149414063,0.11544189453125,7.212576293945313
9.920000000000016,7.356430053710938,0.5455078125,7.408767700195313
9.930000000000009,6.898251342773438,0.6793426513671875,6.106906127929688
9.939999999999998,7.041506958007813,0.4631134033203125,6.154757690429688
9.949999999999989,6.686209106445313,0.2136871337890625,6.723593139648438
9.95999999999998,6.771145629882813,-0.191705322265625,7.884442138671876
9.970000000000027,6.485382080078126,-0.55029296875,7.7507568359375005
9.980000000000018,6.3259765625,-0.7535125732421876,6.640151977539063
9.990000000000007,6.782958984375001,-0.6667816162109376,6.646282958984376
10.0,7.407122802734375,-0.416607666015625,6.6764892578125
10.009999999999993,7.64488525390625,-0.04605712890625,6.641497802734375
10.019999999999982,7.162930297851563,0.074169921875,5.952435302734376
10.03000000000003,6.736154174804688,0.2011260986328125,6.34691162109375
10.04000000000002,6.38280029296875,0.30804443359375,7.612435913085938
10.050000000000011,6.344369506835938,0.334661865234375,8.292376708984376
10.060000000000002,6.35887451171875,0.0883758544921875,7.544845581054688
10.069999999999991,6.753201293945313,-0.287109375,6.137710571289063
10.079999999999984,6.8415771484375005,-0.4466644287109375,6.250460815429688
10.090000000000032,7.89610595703125,-0.399261474609375,6.727182006835938
10.100000000000025,7.181173706054688,-0.3635223388671875,6.785949707031251
10.110000000000014,7.354187011718751,-0.4670013427734375,6.291583251953125
10.120000000000005,6.731069946289063,-0.2165283203125,6.764416503906251
10.129999999999995,5.828320312500001,0.241650390625,7.495498657226563
10.139999999999986,6.204254150390626,0.61549072265625,8.219851684570314
10.149999999999975,6.697723388671876,0.3061004638671875,7.563537597656251
10.160000000000023,7.742382812500001,-0.020635986328125,5.872433471679688
10.170000000000016,7.188351440429688,0.122021484375,6.311322021484376
10.180000000000009,6.645236206054688,0.315521240234375,6.450390625000001
10.189999999999998,6.989019775390625,-0.035589599609375,7.572061157226563
10.199999999999989,7.090106201171875,-0.7976257324218751,6.7772766113281255
10.20999999999998,6.766510009765626,-0.981854248046875,6.499588012695313
10.220000000000027,6.373229980468751,-0.42886962890625,7.326522827148438
10.230000000000018,6.225039672851563,0.18841552734375,7.716961669921876
10.240000000000007,7.210183715820313,0.2998199462890625,7.472470092773438
10.249000000000024,7.251007080078126,0.1978363037109375,5.804394531250001
10.259999999999993,7.146182250976563,0.17705078125,5.709738159179688
10.269000000000004,6.976010131835938,0.325390625,6.964495849609375
10.28000000000003,6.658096313476563,0.071478271484375,7.711428833007813
10.29000000000002,6.286349487304688,-0.293389892578125,7.634268188476563
10.300000000000011,6.3833984375,-0.5275634765625,6.644488525390625
10.309000000000026,6.881802368164063,-0.4403839111328125,6.926513671875001
10.319000000000017,7.294223022460938,-0.206658935546875,6.987374877929688
10.329000000000008,7.341775512695313,-0.0046356201171875,6.702508544921876
10.340000000000032,6.859371948242188,0.0252716064453125,6.108999633789063
10.34899999999999,6.853839111328125,-0.006280517578125,6.279470825195313
10.35899999999998,6.933392333984376,-0.075665283203125,7.301101684570313
10.369000000000028,6.95701904296875,-0.259893798828125,7.491162109375001
10.37900000000002,6.485980224609375,-0.249725341796875,7.1660705566406255
10.38900000000001,6.443063354492188,-0.0849365234375,6.852493286132813
10.399,6.569271850585938,0.1780975341796875,7.078442382812501
10.408999999999992,7.067077636718751,0.2537628173828125,7.104013061523438
10.418999999999984,6.891970825195313,0.020635986328125,6.346163940429688
10.42900000000003,7.477255249023438,-0.3751861572265625,5.87138671875
10.43900000000002,7.05631103515625,-0.6730621337890625,6.606805419921876
10.449000000000012,7.226931762695313,-0.59515380859375,7.298110961914063
10.459000000000003,7.2139221191406255,-0.130096435546875,7.845712280273438
10.468999999999994,5.3047943115234375,0.285015869140625,7.0018798828125
10.478999999999983,6.164776611328126,0.384906005859375,6.707293701171875
10.488999999999976,7.198370361328125,0.4263275146484375,7.790982055664063
10.499000000000024,7.746420288085938,0.2103973388671875,6.538168334960938
10.509000000000016,7.410711669921875,0.11903076171875,6.487176513671876
10.519000000000004,6.266311645507813,-0.0251220703125,5.775384521484376
10.528999999999996,6.717312622070313,-0.1281524658203125,7.446301269531251
10.538999999999987,6.794921875000001,-0.530255126953125,7.938723754882813
10.548999999999978,6.94505615234375,-0.74468994140625,7.042553710937501
10.559000000000026,6.5209716796875,-0.476422119140625,6.572711181640625
10.569000000000017,6.459661865234375,0.112152099609375,6.650918579101563
10.579000000000008,7.281961059570313,0.5196380615234375,7.497442626953125
10.589,7.144686889648438,0.4801605224609375,6.965692138671876
10.59899999999999,6.979449462890625,0.2507720947265625,5.853292846679688
10.60899999999998,6.730322265625,-0.0058319091796875,6.558206176757813
10.619000000000028,6.824530029296875,-0.3204559326171875,7.27822265625
10.62900000000002,6.564785766601563,-0.5072265625000001,8.05401611328125
10.63900000000001,6.466839599609376,-0.6059204101562501,7.064236450195313
10.649,6.676937866210938,-0.5878265380859375,6.158944702148438
10.658999999999992,7.374374389648438,-0.3727935791015625,6.5712158203125
10.668999999999984,7.652511596679688,0.032598876953125,6.661685180664063
10.67900000000003,6.90916748046875,0.2755950927734375,6.805838012695313
10.68900000000002,6.545346069335938,0.3991119384765625,6.534130859375001
10.699000000000012,6.426464843750001,0.2639312744140625,7.256390380859376
10.709000000000003,6.7398925781250005,0.057720947265625,7.665222167968751
10.718999999999994,6.707144165039063,-0.0453094482421875,7.597332763671876
10.728999999999983,6.527102661132813,-0.245538330078125,6.471923828125001
10.738999999999976,6.9387756347656255,-0.410626220703125,6.2553955078125005
10.749000000000024,7.050030517578126,-0.5344421386718751,6.487026977539063
10.75799999999998,7.803842163085938,-0.58917236328125,6.739443969726563
10.768000000000027,6.821688842773438,-0.5420684814453125,6.593197631835938
10.77800000000002,7.049432373046876,-0.27215576171875,6.696078491210938
10.788000000000013,6.67947998046875,0.332568359375,7.654156494140626
10.798000000000002,5.816357421875001,0.7228576660156251,7.484732055664063
10.807999999999993,6.36844482421875,0.8574401855468751,7.543499755859376
10.817999999999984,6.978253173828126,0.32359619140625,6.806735229492188
10.828000000000031,7.903732299804688,-0.073870849609375,6.173898315429688
10.838000000000022,7.013992309570313,-0.1446014404296875,6.789837646484376
10.848000000000011,6.5200744628906255,-0.223406982421875,6.501980590820313
10.858000000000004,6.542803955078125,-0.4747772216796875,7.5354248046875005
10.867999999999997,7.169061279296876,-1.0071258544921875,6.748565673828126
10.877999999999986,6.958813476562501,-0.7517181396484376,6.987225341796876
10.887999999999977,6.509756469726563,-0.0874786376953125,6.9731689453125005
10.898000000000025,6.418539428710938,0.518292236328125,7.0856201171875
10.908000000000015,7.2531005859375,0.5178436279296875,7.1669677734375
10.918000000000006,7.143341064453126,0.3327178955078125,6.229525756835938
10.927999999999995,6.9851318359375005,0.252716064453125,6.495999145507813
10.937999999999988,6.506915283203125,0.1490875244140625,6.964794921875001
10.94799999999998,6.558804321289063,-0.10826416015625,7.702755737304688
10.958000000000029,6.441119384765625,-0.4104766845703125,7.569818115234375
10.968000000000018,6.687405395507813,-0.481805419921875,6.702359008789063
10.978000000000009,7.074703979492188,-0.3668121337890625,6.583926391601563
10.988,7.396804809570313,-0.4006072998046875,6.296218872070313
10.99799999999999,7.718457031250001,-0.2908477783203125,6.490316772460938
11.00799999999998,6.8385864257812505,-0.1870697021484375,6.329116821289063
11.018000000000027,6.413754272460938,-0.06160888671875,6.810324096679688
11.02800000000002,6.617272949218751,-0.045458984375,7.591650390625
11.038000000000013,6.747518920898438,-0.0765625,7.534378051757813
11.048000000000002,6.706546020507813,0.1341339111328125,7.211978149414063
11.057999999999993,6.430203247070313,0.4230377197265625,6.761126708984375
11.067999999999984,6.702359008789063,0.5627044677734375,6.956570434570313
11.078000000000031,7.157098388671876,0.2480804443359375,6.850399780273438
11.088000000000022,7.119863891601563,-0.3225494384765625,6.268405151367188
11.098000000000011,7.5019287109375,-0.9353485107421876,5.759683227539063
11.108000000000004,7.092498779296876,-1.341189575195313,6.629385375976563
11.117999999999997,6.819595336914063,-1.2408508300781251,7.267156982421875
11.127999999999986,7.302597045898438,-0.4969085693359375,8.084970092773439
11.137999999999977,5.610745239257813,0.560760498046875,7.398748779296875
11.148000000000025,5.4015441894531255,1.2525146484375,6.668862915039063
11.158000000000015,7.395159912109375,1.27105712890625,7.474563598632813
11.168000000000006,8.161233520507814,0.9482086181640624,6.5724121093750005
11.177999999999995,7.425515747070313,0.5117126464843751,6.304592895507813
11.187999999999988,6.228927612304688,0.031402587890625,6.034231567382813
11.19799999999998,6.296517944335938,-0.6467437744140625,7.363458251953125
11.208000000000029,6.744528198242188,-1.3630218505859375,8.239739990234376
11.218000000000018,7.085321044921876,-1.6060180664062502,7.163528442382813
11.228000000000009,6.568673706054688,-1.054080200195313,6.258984375000001
11.238,6.731967163085938,-0.1045257568359375,6.234460449218751
11.247000000000014,7.353588867187501,0.7684661865234376,7.1496215820312505
11.257000000000003,7.502975463867188,1.152325439453125,7.127490234375
11.268000000000027,6.454727172851563,1.1328857421875,6.227581787109376
11.276999999999989,6.455325317382813,0.70880126953125,6.7428833007812505
11.286999999999978,6.738995361328126,0.135479736328125,7.676437377929688
11.297000000000024,6.47611083984375,-0.4741790771484375,8.15869140625
11.307000000000016,6.370239257812501,-0.8605804443359376,7.100872802734376
11.317000000000007,6.730172729492188,-1.047650146484375,6.2090393066406255
11.326999999999998,7.2408386230468755,-0.9858917236328124,6.222647094726563
11.336999999999987,8.121755981445313,-0.58857421875,6.485232543945313
11.34699999999998,7.451385498046876,-0.2579498291015625,6.069522094726563
11.357000000000028,6.977206420898438,0.0441131591796875,5.914303588867188
11.36700000000002,6.483139038085938,0.265277099609375,7.020571899414063
11.37700000000001,6.208142089843751,0.48748779296875,8.255740356445314
11.387,6.180178833007813,0.5964996337890626,8.5235595703125
11.396999999999991,6.151318359375001,0.4649078369140625,7.141546630859375
11.406999999999982,6.74168701171875,0.1209747314453125,6.2338623046875
11.418000000000006,7.426263427734375,-0.2044158935546875,6.162384033203126
11.42700000000002,8.133868408203126,-0.5202362060546876,6.419436645507813
11.437000000000012,7.1286865234375005,-0.925030517578125,6.1297851562500005
11.447000000000005,7.36375732421875,-0.9902282714843752,6.495401000976563
11.456999999999994,6.100924682617188,-0.49825439453125,7.566976928710938
11.466999999999985,5.5724639892578125,0.1437042236328125,8.074502563476564
11.476999999999975,6.412857055664063,0.5733215332031251,8.180972290039064
11.487000000000023,7.0616943359375,0.538031005859375,6.594543457031251
11.497000000000014,7.858422851562499,0.6640899658203125,5.777777099609375
11.507000000000003,7.115676879882813,0.7846160888671876,6.316555786132813
11.516999999999996,6.906326293945313,0.5135070800781251,6.672750854492188
11.526999999999989,6.700863647460938,-0.3569427490234375,7.579238891601563
11.536999999999978,6.7114807128906255,-1.2401031494140626,6.868045043945313
11.547000000000024,6.479550170898438,-1.2418975830078125,7.325326538085938
11.557000000000016,6.365902709960938,-0.73392333984375,7.44869384765625
11.567000000000007,6.752603149414063,-0.1105072021484375,7.138555908203125
11.576999999999998,7.529443359375,0.2417999267578125,6.593197631835938
11.586999999999987,7.32786865234375,0.5298065185546875,5.50950927734375
11.59699999999998,7.082928466796876,0.6996795654296876,6.373977661132813
11.607000000000028,6.84935302734375,0.5628540039062501,7.210482788085938
11.61700000000002,6.510205078125001,0.0856842041015625,7.769149780273438
11.62700000000001,6.027203369140626,-0.3348114013671875,7.606005859375
11.637,6.271096801757813,-0.5127593994140626,7.152462768554688
11.646999999999991,6.782360839843751,-0.4849456787109375,7.306484985351563
11.656999999999982,7.482638549804688,-0.4007568359375,6.497793579101563
11.66700000000003,7.6700073242187505,-0.329278564453125,5.9252197265625
11.67700000000002,7.411160278320313,-0.2729034423828125,5.5455474853515625
11.687000000000012,6.927859497070313,-0.0680389404296875,6.625796508789063
11.697000000000005,6.483737182617188,-0.040374755859375,7.694082641601563
11.706999999999994,6.481494140625,-0.074468994140625,7.850646972656251
11.716999999999985,6.301303100585938,-0.07117919921875,7.343569946289063
11.726999999999975,6.650320434570313,0.0746185302734375,6.783108520507813
11.737000000000023,6.863558959960938,0.4095794677734375,7.093246459960938
11.747000000000014,6.901690673828125,0.423486328125,6.758135986328125
11.757000000000003,6.974514770507813,0.009271240234375,6.179281616210938
11.766999999999996,7.905825805664063,-0.7044647216796875,6.019726562500001
11.776999999999989,6.949990844726563,-1.0875762939453126,6.505868530273438
11.786,7.206744384765625,-0.6902587890625,7.5402099609375
11.797000000000024,6.499139404296876,-0.0835906982421875,7.969827270507813
11.805999999999983,5.16856689453125,0.386102294921875,7.07724609375
11.817000000000007,6.613235473632813,0.4629638671875,6.965393066406251
11.826999999999998,7.518377685546875,0.5034881591796876,7.207492065429688
11.836000000000013,7.961154174804688,0.3853546142578125,6.171356201171876
11.846000000000004,6.951934814453126,0.285015869140625,6.534729003906251
11.855999999999996,6.376370239257813,0.0136077880859375,6.081036376953126
11.865999999999984,6.433941650390626,-0.2857635498046875,8.075848388671876
11.875999999999976,6.91873779296875,-0.7699615478515626,7.538565063476563
11.886000000000024,6.828866577148438,-0.8897399902343751,7.035525512695313
11.896000000000017,6.685610961914063,-0.5241241455078125,6.420782470703125
11.906000000000006,6.684713745117188,0.2059112548828125,6.652413940429688
11.918000000000006,7.360168457031251,0.5821441650390625,7.509106445312501
11.925999999999988,7.003973388671875,0.5396759033203126,6.500186157226563
11.93599999999998,6.887335205078125,0.247332763671875,6.269302368164063
11.946000000000026,6.787445068359376,-0.0261688232421875,6.586767578125
11.956000000000016,6.787295532226563,-0.3270355224609375,7.56114501953125
11.966000000000008,6.501831054687501,-0.485693359375,7.787094116210938
11.976,6.423025512695313,-0.5653961181640625,6.92113037109375
11.98599999999999,6.679330444335938,-0.5043853759765625,6.447250366210938
11.99599999999998,7.561892700195313,-0.26796875,6.560598754882813
12.006000000000029,7.444805908203126,-0.0155517578125,6.5783935546875005
12.018000000000027,7.224539184570313,0.1392181396484375,6.362911987304688
12.02600000000001,6.419137573242188,0.274847412109375,6.673199462890626
12.036,6.324481201171875,0.1882659912109375,7.451235961914063
12.045999999999992,6.680975341796875,0.10706787109375,7.981341552734375
12.055999999999983,6.610394287109376,-0.135479736328125,7.223043823242188
12.066000000000033,6.949542236328125,-0.280828857421875,6.260479736328126
12.076000000000022,6.701461791992188,-0.2298370361328125,6.485681152343751
12.086000000000013,6.800604248046875,-0.1395172119140625,6.794323730468751
12.096000000000004,7.672549438476563,-0.309539794921875,7.1095458984375
12.105999999999996,7.105358886718751,-0.5610595703125001,6.175393676757813
12.117999999999997,7.371832275390625,-0.3979156494140625,6.337191772460938
12.125999999999976,6.507363891601563,0.083441162109375,7.395309448242188
12.136000000000024,5.820394897460938,0.5366851806640626,7.820739746093751
12.146000000000017,6.3439208984375,0.50543212890625,7.9660888671875005
12.156000000000006,6.977804565429688,0.04964599609375,6.526504516601563
12.165999999999997,7.891769409179688,-0.1018341064453125,6.0345306396484375
12.175999999999988,6.905429077148438,0.07476806640625,6.635516357421875
12.18599999999998,6.6561523437500005,0.19559326171875,6.885989379882813
12.196000000000026,6.6217590332031255,-0.1858734130859375,7.5641357421875
12.206000000000016,7.275830078125001,-0.826336669921875,6.413604736328126
12.218000000000018,6.765762329101563,-0.7409515380859375,6.875222778320313
12.226,6.573309326171875,-0.187518310546875,7.192089843750001
12.23599999999999,6.359771728515626,0.2788848876953125,7.457666015625
12.24599999999998,7.14005126953125,0.1774993896484375,7.138256835937501
12.256000000000029,7.32786865234375,0.1224700927734375,5.9208831787109375
12.26600000000002,6.9253173828125005,0.1766021728515625,6.438427734375001
12.27600000000001,6.621609497070313,0.268865966796875,6.923223876953125
12.286,6.747518920898438,0.0402252197265625,7.80758056640625
12.295999999999992,6.425418090820313,-0.33017578125,7.156350708007813
12.305999999999983,6.833053588867188,-0.395074462890625,6.642395019531251
12.317000000000007,6.734359741210938,-0.286212158203125,6.9582153320312505
12.326000000000022,7.2411376953125,-0.19619140625,6.740640258789063
12.336000000000013,7.364804077148438,-0.1592559814453125,6.8834472656250005
12.345000000000027,6.841876220703125,-0.2260986328125,6.00537109375
12.355000000000018,6.8774658203125005,-0.158807373046875,6.564038085937501
12.365000000000007,6.7123779296875,-0.1351806640625,7.458413696289063
12.375,6.7578369140625005,-0.039178466796875,7.577294921875
12.384999999999993,6.525607299804688,0.01016845703125,7.21422119140625
12.394999999999982,6.681723022460938,0.1362274169921875,6.494354248046876
12.40500000000003,6.807781982421876,0.2106964111328125,6.848605346679688
12.41500000000002,6.975262451171876,0.1395172119140625,6.9312988281250005
12.425000000000011,6.792678833007813,-0.0832916259765625,6.693984985351563
12.435000000000002,7.403384399414063,-0.6509307861328125,6.379211425781251
12.444999999999991,7.054367065429688,-0.9467132568359377,6.4276611328125
12.454999999999984,7.51090087890625,-0.5351898193359376,7.228726196289063
12.465000000000032,6.532785034179688,0.0584686279296875,7.552920532226563
12.475000000000025,5.40423583984375,0.5490966796875001,6.973318481445313
12.485000000000014,6.5353271484375,0.5603118896484376,7.292578125
12.495000000000005,7.435235595703125,0.369354248046875,7.215267944335938
12.504999999999995,7.701559448242188,0.1993316650390625,6.471475219726563
12.514999999999986,6.737799072265625,0.2165283203125,6.554766845703125
12.524999999999975,6.509906005859375,-0.0213836669921875,6.227880859375
12.535000000000023,6.670657348632813,-0.414813232421875,7.77408447265625
12.545000000000016,7.301251220703126,-0.8767303466796875,7.038067626953126
12.555000000000009,6.591403198242188,-0.8668609619140626,6.952383422851563
12.564999999999998,6.447399902343751,-0.32718505859375,6.6429931640625
12.574999999999989,6.7114807128906255,0.239556884765625,7.122406005859376
12.58499999999998,7.319793701171876,0.5194885253906251,7.435983276367188
12.595000000000027,6.965542602539063,0.6099578857421876,6.207843017578125
12.605000000000018,6.7817626953125005,0.4589263916015625,6.521121215820313
12.615000000000007,6.736154174804688,0.1840789794921875,6.635665893554688
12.625,6.818698120117188,-0.2588470458984375,7.767654418945313
12.634999999999993,6.688751220703126,-0.6376220703125001,7.358074951171876
12.644999999999982,6.518728637695313,-0.80570068359375,6.537271118164063
12.65500000000003,6.871783447265625,-0.7110443115234375,6.612936401367188
12.66500000000002,7.45048828125,-0.5042358398437501,6.615927124023438
12.675000000000011,7.4684326171875,-0.1326385498046875,6.801052856445313
12.685000000000002,6.912307739257813,0.2074066162109375,6.189749145507813
12.694999999999991,6.480746459960938,0.422589111328125,6.757089233398438
12.704999999999984,6.548785400390625,0.4987030029296875,7.654156494140626
12.715000000000032,6.498092651367188,0.431561279296875,7.967434692382813
12.725000000000025,6.588262939453125,0.153424072265625,7.138406372070313
12.735000000000014,6.863409423828125,-0.2253509521484375,6.181674194335938
12.745000000000005,6.864605712890626,-0.5052825927734376,6.453082275390625
12.754999999999995,7.148275756835938,-0.5819946289062501,6.729574584960938
12.764999999999986,7.424468994140626,-0.7419982910156251,7.030740356445313
12.774999999999975,7.066479492187501,-0.85355224609375,6.150720214843751
12.785000000000023,7.550976562500001,-0.4720855712890625,6.5927490234375
12.795000000000016,6.338836669921876,0.3170166015625,7.46065673828125
12.805000000000009,5.6859619140625,0.9760223388671876,7.680175781250001
12.81400000000002,6.2568908691406255,0.95164794921875,8.019921875000001
12.824000000000012,7.21182861328125,0.40015869140625,6.513046264648438
12.83499999999998,7.959359741210938,0.0237762451171875,6.298312377929688
12.843999999999994,6.597683715820313,0.05682373046875,6.395809936523438
12.853999999999983,6.688302612304688,-0.0797027587890625,6.907073974609376
12.865000000000007,6.723892211914063,-0.7316802978515625,7.490863037109375
12.874000000000024,7.46304931640625,-1.2668701171875,6.5125976562500005
12.884000000000016,6.628338623046876,-0.9087310791015626,6.877166748046876
12.894000000000004,6.2601806640625,-0.099591064453125,7.135415649414063
12.903999999999996,6.593945312500001,0.4825531005859375,7.449740600585938
12.913999999999987,7.382000732421876,0.4765716552734375,7.145285034179688
12.923999999999978,7.193734741210938,0.4475616455078125,5.715570068359376
12.934000000000026,6.717910766601563,0.4921234130859375,6.605609130859375
12.944000000000017,6.629684448242188,0.40255126953125,7.1813232421875
12.954000000000008,6.536373901367188,-0.0692352294921875,8.101419067382814
12.964,6.375173950195313,-0.5211334228515625,7.135415649414063
12.97399999999999,6.845614624023438,-0.6424072265625,6.476858520507813
12.98399999999998,7.019226074218751,-0.65018310546875,6.609945678710938
12.994000000000028,7.697821044921875,-0.466552734375,6.612487792968751
13.00400000000002,7.11014404296875,-0.26138916015625,6.683666992187501
13.01400000000001,6.783407592773438,-0.0731231689453125,6.0774475097656255
13.024,6.74766845703125,-0.01256103515625,6.7817626953125005
13.033999999999992,6.96898193359375,-0.1200775146484375,7.303643798828125
13.043999999999984,6.8200439453125,0.03529052734375,7.693484497070313
13.05400000000003,6.08612060546875,0.301165771484375,7.186557006835938
13.06400000000002,6.3765197753906255,0.493170166015625,7.089657592773438
13.074000000000012,6.850100708007813,0.334063720703125,7.007412719726563
13.084000000000003,7.422375488281251,0.027215576171875,6.607254028320313
13.093999999999994,6.924569702148438,-0.421392822265625,6.026007080078125
13.103999999999983,7.529592895507813,-0.844281005859375,6.055316162109375
13.113999999999976,6.853839111328125,-1.2113922119140623,6.878512573242188
13.124000000000024,7.342672729492188,-1.149932861328125,7.332055664062499
13.134000000000016,6.972421264648438,-0.169573974609375,7.833599853515626
13.144000000000004,4.919589233398438,0.749176025390625,6.961804199218751
13.153999999999996,6.252554321289063,1.128848266601563,7.1908935546875
13.163999999999987,7.649072265625,1.0443603515625002,7.576995849609376
13.173999999999978,7.888479614257813,0.7463348388671875,6.168814086914063
13.184000000000026,6.931597900390625,0.4409820556640625,6.241040039062501
13.194000000000017,6.345266723632813,-0.131591796875,6.1118408203125005
13.204000000000008,6.7865478515625,-0.7333251953125001,8.019772338867188
13.214,6.756341552734376,-1.3648162841796876,7.735952758789063
13.22399999999999,6.733612060546876,-1.3099365234375,6.872232055664063
13.23399999999998,6.606057739257813,-0.7898498535156251,6.349603271484376
13.244000000000028,6.854586791992188,0.1423583984375,6.614730834960938
13.252999999999986,7.677185058593751,0.8363555908203125,7.276428222656251
13.262999999999977,6.859820556640625,1.103875732421875,6.679180908203126
13.273000000000025,6.607254028320313,1.008172607421875,6.193487548828125
13.283999999999992,6.520672607421876,0.5381805419921876,7.194931030273438
13.293999999999984,6.793576049804688,-0.13458251953125,7.661483764648438
13.302999999999995,6.517233276367188,-0.6685760498046875,7.879656982421875
13.312999999999988,6.49046630859375,-1.0612579345703126,6.498391723632813
13.32299999999998,6.957766723632813,-1.12989501953125,6.341079711914063
13.334000000000003,7.425814819335938,-0.8228973388671875,6.589010620117188
13.343000000000018,7.754196166992188,-0.3587371826171875,6.457717895507813
13.353000000000009,7.239791870117188,0.01614990234375,6.116326904296876
13.363,6.6950317382812505,0.2827728271484375,6.153411865234376
13.37299999999999,6.554766845703125,0.478515625,7.541107177734376
13.38299999999998,6.143093872070313,0.696539306640625,8.45477294921875
13.393000000000027,6.072811889648438,0.6305938720703126,7.995098876953126
13.40300000000002,6.621310424804688,0.159405517578125,6.589459228515626
13.413000000000013,7.298410034179688,-0.2966796875,6.127392578125001
13.423000000000002,7.119265747070313,-0.518890380859375,6.217413330078125
13.432999999999993,7.720999145507813,-0.790447998046875,6.435736083984375
13.442999999999984,7.097134399414063,-1.1106048583984376,6.525009155273438
13.453000000000031,7.204501342773438,-1.28182373046875,6.339883422851563
13.463000000000022,7.061395263671876,-0.3907379150390625,7.720401000976563
13.473000000000011,5.329318237304688,0.7913452148437501,7.894909667968751
13.483000000000004,5.7963195800781255,1.3181610107421875,7.727877807617188
13.492999999999997,7.149472045898438,1.0463043212890626,7.137509155273438
13.502999999999986,7.918386840820313,0.64898681640625,5.857778930664063
13.512999999999977,7.465890502929688,0.5256195068359375,6.488970947265625
13.523000000000025,6.360818481445313,0.1033294677734375,6.35050048828125
13.533000000000015,6.726583862304688,-0.6936981201171876,7.559649658203125
13.543000000000006,6.834249877929688,-1.5997375488281251,7.213024902343751
13.552999999999995,6.763070678710938,-1.5293060302734376,7.069918823242188
13.562999999999988,6.490914916992188,-0.746185302734375,7.092947387695313
13.57299999999998,6.562542724609376,0.052337646484375,6.863259887695313
13.583000000000029,7.624697875976563,0.5662933349609376,6.794772338867188
13.593000000000018,7.400991821289063,0.8228973388671875,6.158197021484376
13.603000000000009,6.835894775390625,0.9676483154296877,6.199319458007813
13.613,6.486428833007813,0.7843170166015626,7.301699829101563
13.62299999999999,6.461456298828126,0.1945465087890625,7.922573852539063
13.63299999999998,6.122308349609376,-0.3778778076171875,7.901489257812501
13.643000000000027,6.42825927734375,-0.6645385742187501,7.011749267578126
13.65300000000002,6.955822753906251,-0.7617370605468751,6.6286376953125
13.663000000000013,7.5318359375,-0.7846160888671876,6.300854492187501
13.673000000000002,7.922573852539063,-0.551190185546875,6.185861206054688
13.682999999999993,7.043600463867188,-0.307147216796875,5.899798583984375
13.692999999999984,6.8894287109375005,-0.1398162841796875,6.236703491210938
13.703000000000031,6.9148498535156255,-0.1499847412109375,7.370785522460938
13.713000000000022,6.581234741210938,-0.0880767822265625,7.617819213867188
13.723000000000011,6.165972900390625,0.3198577880859375,7.957266235351563
13.733000000000004,5.926565551757813,0.7011749267578126,7.371234130859375
13.742999999999997,6.6908447265625,0.725250244140625,7.138555908203125
13.752999999999986,7.325775146484376,0.33675537109375,6.450839233398438
13.762999999999977,7.408169555664063,-0.2696136474609375,5.6034179687500005
13.773000000000025,7.915097045898438,-0.8393463134765625,6.05023193359375
13.783000000000015,6.8044921875,-1.3522552490234376,6.561495971679688
13.793000000000006,7.317401123046875,-1.1512786865234377,7.654754638671876
13.80200000000002,6.417492675781251,-0.411822509765625,8.140896606445313
13.812000000000012,4.646685791015625,0.5265167236328125,7.027301025390625
13.82299999999998,6.426315307617188,0.8809173583984375,7.460955810546875
13.831999999999994,8.162280273437501,0.8380004882812501,7.019226074218751
13.843000000000018,8.054315185546876,0.8006164550781251,5.9491455078125
13.851999999999975,6.713723754882813,0.7119415283203125,6.0644378662109375
13.862000000000023,6.349752807617188,0.203369140625,6.337191772460938
13.872000000000014,6.529046630859376,-0.6597534179687501,8.272488403320313
13.882000000000003,7.04075927734375,-1.41162109375,7.695278930664063
13.891999999999996,6.424819946289063,-1.3654144287109375,6.933840942382813
13.901999999999989,6.350799560546876,-0.7035675048828125,6.456222534179688
13.911999999999978,7.110443115234376,0.105572509765625,6.812417602539063
13.922000000000024,7.835244750976563,0.642706298828125,7.074404907226563
13.932000000000016,6.990216064453126,0.949853515625,6.0475402832031255
13.942000000000007,6.709536743164063,0.8705993652343751,6.190646362304688
13.951999999999998,6.587066650390626,0.428570556640625,7.175790405273438
13.961999999999987,6.638806152343751,-0.1487884521484375,8.185906982421876
13.97199999999998,6.213076782226563,-0.5519378662109375,7.912554931640625
13.982000000000028,6.221151733398438,-0.8142242431640626,6.580337524414063
13.99200000000002,6.914401245117188,-0.8305236816406251,6.545645141601563
14.00200000000001,7.759878540039063,-0.6285003662109375,6.4731201171875
14.012,7.911209106445313,-0.2618377685546875,6.343771362304688
14.021999999999991,7.0539184570312505,-0.011065673828125,5.708990478515625
14.031999999999982,6.848306274414063,0.1646392822265625,6.392819213867188
14.04200000000003,6.398501586914063,0.1783966064453125,7.699765014648438
14.05200000000002,6.369342041015625,0.28172607421875,8.357125854492189
14.062000000000012,6.076251220703125,0.2528656005859375,7.852890014648438
14.072000000000005,6.5260559082031255,0.1197784423828125,6.437380981445313
14.081999999999994,7.102816772460938,0.0378326416015625,6.511700439453126
14.091999999999985,7.123004150390625,-0.098992919921875,6.401791381835938
14.101999999999975,7.785000610351563,-0.383111572265625,6.350201416015626
14.112000000000023,7.076947021484376,-0.8631225585937501,6.191842651367188
14.122000000000014,7.539163208007813,-0.9903778076171876,6.453829956054688
14.132000000000003,6.6232543945312505,-0.3823638916015625,7.925265502929688
14.141999999999996,5.391674804687501,0.3662139892578125,7.768252563476563
14.151999999999989,5.9881744384765625,0.758148193359375,7.877413940429688
14.161999999999978,6.988571166992188,0.5076751708984375,6.845614624023438
14.172000000000024,8.288339233398439,0.3096893310546875,5.88992919921875
14.182000000000016,7.294522094726563,0.397467041015625,6.4970458984375
14.192000000000007,6.324929809570313,0.414215087890625,6.272592163085938
14.201999999999998,6.5748046875,-0.174957275390625,7.848553466796876
14.211999999999987,6.99649658203125,-1.0998382568359375,7.01444091796875
14.22199999999998,6.858624267578126,-1.2317291259765626,7.084722900390625
14.232000000000028,6.385342407226563,-0.6316406250000001,7.0045715332031255
14.24200000000002,6.305490112304688,0.0964508056640625,7.076947021484376
14.25200000000001,7.505966186523438,0.2962310791015625,7.195230102539063
14.262,7.4442077636718755,0.3213531494140625,5.865106201171876
14.271000000000017,7.092050170898438,0.43006591796875,6.0340820312500005
14.281000000000006,6.526953125,0.4565338134765625,6.874774169921875
14.29200000000003,6.695779418945313,0.1332366943359375,7.919134521484375
14.300999999999988,6.190048217773438,-0.20635986328125,7.958462524414063
14.31099999999998,6.31162109375,-0.366363525390625,6.854736328125001
14.321000000000026,6.892718505859375,-0.37264404296875,6.768902587890626
14.331000000000016,7.494900512695313,-0.3635223388671875,6.526803588867188
14.341000000000008,7.646829223632813,-0.2447906494140625,6.475363159179688
14.351,6.968832397460938,-0.2086029052734375,6.128887939453126
14.36099999999999,6.6047119140625,-0.1368255615234375,6.360968017578125
14.37099999999998,6.931448364257813,-0.2989227294921875,7.366149902343751
14.381000000000029,6.87088623046875,-0.3566436767578125,7.446151733398438
14.39100000000002,6.498391723632813,-0.0767120361328125,7.377963256835938
14.40100000000001,6.205899047851563,0.2735015869140625,6.890774536132813
14.411,6.576599121093751,0.5036376953125,7.154257202148438
14.420999999999992,7.066629028320313,0.279931640625,6.811520385742188
14.432000000000016,7.581033325195313,-0.085833740234375,6.178982543945313
14.441000000000033,7.096087646484375,-0.581695556640625,6.193786621093751
14.451000000000022,6.983187866210938,-0.7720550537109375,6.622805786132813
14.461000000000013,7.673596191406251,-0.429168701171875,7.839730834960938
14.471000000000004,5.5605010986328125,-0.0849365234375,7.413253784179688
14.480999999999996,6.012399291992188,0.1598541259765625,6.802548217773438
14.490999999999984,6.816903686523438,0.3650177001953125,7.403384399414063
14.500999999999976,7.686157226562501,0.30684814453125,6.709536743164063
14.511000000000024,7.6478759765625,0.38819580078125,6.782061767578125
14.521000000000017,6.299807739257813,0.3659149169921875,5.916098022460938
14.531000000000006,6.548037719726563,0.224603271484375,7.023263549804688
14.540999999999997,6.816156005859376,-0.4643096923828125,7.687353515625
14.550999999999988,7.26207275390625,-0.8720947265625001,7.228726196289063
14.56099999999998,6.429455566406251,-0.7022216796875,6.848455810546875
14.571000000000026,6.18302001953125,-0.2080047607421875,6.587066650390626
14.581000000000016,7.261026000976563,0.1813873291015625,7.380056762695313
14.591000000000008,7.29197998046875,0.3028106689453125,7.051376342773438
14.601,6.974066162109375,0.396270751953125,5.9403228759765625
14.61099999999999,6.752154541015625,0.291595458984375,6.418539428710938
14.62099999999998,6.901989746093751,-0.0785064697265625,6.825875854492188
14.631000000000029,6.883148193359376,-0.4341033935546875,7.906423950195313
14.64100000000002,6.483438110351563,-0.557171630859375,7.23814697265625
14.65100000000001,6.295471191406251,-0.5366851806640626,6.563888549804688
14.661,7.051974487304688,-0.45279541015625,6.763519287109376
14.670999999999992,7.66402587890625,-0.174957275390625,6.759930419921876
14.680999999999983,7.115377807617188,0.1734619140625,6.706097412109376
14.691000000000033,6.538616943359376,0.427972412109375,6.322537231445313
14.701000000000022,6.5514770507812505,0.3808685302734375,6.989019775390625
14.711000000000013,6.952084350585938,0.0749176025390625,7.502676391601563
14.721000000000004,6.875671386718751,-0.1084136962890625,7.427908325195313
14.730999999999996,6.412109375000001,-0.2666229248046875,6.651068115234375
14.740999999999984,6.534130859375001,-0.385504150390625,6.555514526367188
14.750999999999976,6.726434326171876,-0.471038818359375,6.911111450195313
14.761000000000024,7.909863281250001,-0.5893218994140625,6.8849426269531255
14.771000000000017,7.049581909179688,-0.4990020751953125,6.245376586914063
14.781000000000006,7.521517944335938,-0.1987335205078125,6.236105346679688
14.790999999999997,6.620861816406251,0.3973175048828125,7.332205200195313
14.800000000000011,5.660241699218751,0.7242034912109375,7.580435180664063
14.81099999999998,6.162982177734375,0.745587158203125,8.090054321289063
14.819999999999991,6.883596801757813,0.09390869140625,6.951187133789063
14.829999999999984,7.909115600585938,-0.322698974609375,6.186907958984375
14.840000000000032,7.016983032226563,-0.181536865234375,6.648226928710938
14.850000000000025,6.507214355468751,0.009271240234375,6.460110473632813
14.860000000000014,6.81705322265625,-0.2729034423828125,7.462301635742188
14.870000000000005,7.436880493164063,-0.9329559326171876,6.39775390625
14.879999999999995,7.000085449218751,-0.8329162597656251,6.730770874023438
14.889999999999986,6.233563232421876,-0.0904693603515625,7.248165893554688
14.899999999999975,6.148626708984375,0.5194885253906251,7.635464477539063
14.910000000000023,7.210482788085938,0.46475830078125,7.597781372070313
14.920000000000016,7.2617736816406255,0.2286407470703125,5.846264648437501
14.930000000000009,6.887335205078125,0.2525665283203125,6.172851562500001
14.939999999999998,6.782360839843751,0.2089019775390625,6.777725219726563
14.949999999999989,6.900942993164063,-0.1535736083984375,7.710232543945313
14.95999999999998,6.639254760742188,-0.5573211669921876,7.385140991210938
14.970000000000027,6.451736450195313,-0.5957519531250001,6.483886718750001
14.980000000000018,6.574057006835938,-0.3087921142578125,7.049880981445313
14.990000000000007,7.032086181640626,-0.12261962890625,7.091900634765626
15.0,7.72384033203125,-0.1371246337890625,6.714920043945313
15.009999999999993,7.327569580078125,-0.155517578125,5.710336303710938
15.019999999999982,6.598281860351563,-0.0351409912109375,6.094943237304688
15.03000000000003,6.564486694335938,0.119927978515625,7.66282958984375
15.04000000000002,6.491213989257813,0.06280517578125,8.21671142578125
15.050000000000011,6.65196533203125,-0.1134979248046875,7.300054931640625
15.060000000000002,6.755593872070313,-0.22908935546875,6.0883636474609375
15.069999999999991,6.951336669921876,0.0079254150390625,6.551626586914063
15.079999999999984,6.991262817382813,0.3168670654296875,7.345065307617188
15.090000000000032,6.567327880859375,0.09031982421875,6.974813842773438
15.100000000000025,7.318746948242188,-0.4499542236328125,6.08133544921875
15.110000000000014,7.265512084960938,-1.0795013427734377,6.087615966796875
15.120000000000005,7.075900268554688,-0.9076843261718752,6.926364135742188
15.129999999999995,7.38170166015625,-0.053533935546875,8.161233520507814
15.139999999999986,5.538220214843751,0.4738800048828125,7.42357177734375
15.149999999999975,5.906826782226563,0.6210235595703125,6.412258911132813
15.160000000000023,7.013693237304688,0.6495849609375001,7.379010009765626
15.170000000000016,7.749411010742188,0.5319000244140626,6.850848388671875
15.180000000000009,7.511798095703125,0.2426971435546875,6.796267700195313
15.189999999999998,6.318948364257813,-0.0988433837890625,5.977706909179688
15.199999999999989,6.653909301757813,-0.3898406982421875,6.827371215820313
15.20999999999998,6.546093750000001,-0.708502197265625,8.002127075195313
15.220000000000027,7.335943603515625,-0.9251800537109376,7.226333618164063
15.230000000000018,6.555664062500001,-0.7050628662109375,6.621011352539063
15.240000000000007,6.507962036132813,-0.0593658447265625,6.2165161132812505
15.25,7.137060546875,0.5797515869140626,7.248614501953125
15.259999999999993,7.26865234375,0.7778869628906251,7.457217407226563
15.269000000000004,6.753500366210938,0.7026702880859376,6.190646362304688
15.28000000000003,6.591253662109375,0.2630340576171875,6.546392822265625
15.29000000000002,6.888980102539063,-0.228790283203125,6.699667358398438
15.298999999999978,6.812716674804688,-0.6069671630859376,8.001080322265626
15.310000000000002,6.725686645507813,-0.8396453857421876,7.1855102539062505
15.319999999999991,6.4707275390625005,-0.7985229492187501,6.391473388671876
15.329999999999984,6.913055419921876,-0.6074157714843751,6.403137207031251
15.339,7.783804321289063,-0.1900604248046875,6.7697998046875005
15.34899999999999,7.252502441406251,0.171966552734375,6.667218017578126
15.35899999999998,6.674545288085938,0.4868896484375,6.461456298828126
15.369000000000028,6.369491577148438,0.514105224609375,6.931896972656251
15.37900000000002,6.355734252929688,0.4720855712890625,7.837188720703126
15.38900000000001,6.816006469726563,0.1867706298828125,7.856628417968751
15.399,6.627142333984375,-0.2456878662109375,6.584075927734376
15.408999999999992,6.664974975585938,-0.5396759033203126,6.1656738281250005
15.418999999999984,7.106704711914063,-0.709698486328125,6.42467041015625
15.42900000000003,7.8512451171875,-0.6896606445312501,7.179379272460938
15.43900000000002,7.19986572265625,-0.6343322753906251,6.327770996093751
15.449000000000012,7.167117309570313,-0.27335205078125,6.511102294921876
15.459000000000003,6.008212280273438,0.3135772705078125,6.9277099609375
15.468999999999994,5.96649169921875,0.7932891845703126,8.035174560546876
15.478999999999983,6.660638427734376,0.7606903076171876,8.329760742187501
15.488999999999976,7.163229370117188,0.258099365234375,6.367697143554688
15.499000000000024,7.427459716796876,0.0797027587890625,6.000735473632813
15.509000000000016,6.672750854492188,0.0765625,6.287844848632813
15.519000000000004,6.983786010742188,-0.0617584228515625,7.260577392578125
15.528999999999996,6.94266357421875,-0.7237548828125,7.387234497070313
15.538999999999987,7.199118041992188,-1.298272705078125,6.199468994140625
15.548999999999978,6.509906005859375,-0.844281005859375,6.764117431640625
15.559000000000026,6.289190673828125,-0.021234130859375,7.574154663085938
15.569000000000017,6.760827636718751,0.4550384521484375,7.780514526367188
15.579000000000008,7.155453491210938,0.5072265625000001,6.760678100585938
15.589,7.172799682617188,0.4287200927734375,5.409320068359375
15.59899999999999,6.976757812500001,0.5076751708984375,6.610394287109376
15.610000000000014,6.699966430664063,0.399261474609375,7.51329345703125
15.619000000000028,6.488522338867188,-0.110955810546875,7.9720703125
15.62900000000002,6.295321655273438,-0.63822021484375,6.936532592773438
15.63900000000001,6.743331909179688,-0.7261474609375,6.546392822265625
15.649,7.114331054687501,-0.6027801513671875,7.042105102539063
15.658999999999992,7.534378051757813,-0.36546630859375,6.678433227539063
15.668999999999984,7.266259765625,-0.1263580322265625,6.421530151367188
15.67900000000003,6.756341552734376,-0.0765625,5.677737426757813
15.68900000000002,6.931448364257813,0.07476806640625,6.929653930664063
15.699000000000012,6.764715576171875,0.1114044189453125,7.808627319335938
15.709000000000003,6.576748657226563,0.0665435791015625,7.608547973632813
15.718999999999994,6.245675659179688,0.173162841796875,7.135714721679688
15.728999999999983,6.510653686523438,0.1933502197265625,6.740341186523438
15.738999999999976,7.050778198242188,0.1882659912109375,7.061544799804688
15.74799999999999,7.176388549804688,-0.0530853271484375,6.663180541992188
15.759000000000016,7.00487060546875,-0.4916748046875,5.9149017333984375
15.769000000000004,7.582977294921876,-1.0038360595703126,6.268106079101563
15.778999999999996,6.982440185546875,-1.048248291015625,6.840829467773438
15.788999999999987,7.392916870117188,-0.3898406982421875,7.787243652343751
15.798000000000002,6.117971801757813,0.3114837646484375,7.57669677734375
15.809000000000026,5.198773193359376,0.880169677734375,6.799557495117188
15.819000000000017,6.795669555664063,0.8679077148437501,7.411907958984376
15.829000000000008,7.784851074218751,0.6241638183593751,7.088909912109376
15.838000000000022,7.745822143554688,0.2465850830078125,6.252703857421875
15.848000000000011,6.632077026367188,-0.0514404296875,6.187655639648438
15.858000000000004,6.524261474609376,-0.377728271484375,6.453829956054688
15.867999999999997,6.508261108398438,-0.7397552490234376,8.233758544921876
15.877999999999986,7.214968872070313,-1.0914642333984377,7.237698364257813
15.887999999999977,6.528448486328125,-0.8958709716796875,6.665423583984375
15.898000000000025,6.618020629882813,-0.167779541015625,6.403286743164063
15.910000000000023,6.904083251953126,0.5849853515625001,7.119265747070313
15.918000000000006,7.405776977539063,0.8991607666015625,7.462451171875
15.927999999999995,6.922177124023438,0.774298095703125,6.141598510742188
15.937999999999988,6.657498168945313,0.38221435546875,6.465942382812501
15.94799999999998,6.605310058593751,0.015252685546875,6.911410522460938
15.958000000000029,6.669760131835938,-0.44681396484375,8.170504760742189
15.968000000000018,6.495999145507813,-0.795233154296875,7.412506103515626
15.978000000000009,6.7174621582031255,-0.8994598388671876,6.2936767578125
15.988,6.974215698242188,-0.7452880859375001,6.335845947265626
15.99799999999999,7.674343872070313,-0.31282958984375,6.527401733398438
16.00999999999999,7.390225219726563,0.08194580078125,6.802996826171875
16.01800000000003,7.072460937500001,0.1902099609375,6.103765869140625
16.02800000000002,6.468334960937501,0.2887542724609375,6.653161621093751
16.03800000000001,6.278573608398438,0.3404937744140625,7.805187988281251
16.048000000000002,6.4156982421875,0.3934295654296875,8.360714721679688
16.057999999999993,6.307583618164063,0.13817138671875,7.426412963867188
16.067999999999984,7.132574462890625,-0.210845947265625,5.941818237304688
16.07800000000003,6.935934448242188,-0.440234375,6.157449340820313
16.088000000000022,7.348205566406251,-0.4055419921875,6.457418823242188
16.098000000000013,7.484432983398438,-0.5464050292968751,7.140200805664063
16.110000000000014,7.033731079101563,-0.8540008544921875,6.245376586914063
16.117999999999995,7.253549194335938,-0.5553771972656251,6.697872924804688
16.127999999999986,6.076550292968751,0.1072174072265625,7.576397705078126
16.137999999999977,5.810824584960938,0.8228973388671875,7.866946411132813
16.148000000000025,6.447100830078125,0.820654296875,7.949789428710938
16.158000000000015,7.349102783203126,0.2842681884765625,6.090756225585938
16.168000000000006,7.976107788085938,0.1535736083984375,6.0958404541015625
16.177999999999997,6.5679260253906255,0.21114501953125,6.452334594726563
16.187999999999988,6.754696655273438,0.087030029296875,7.188800048828125
16.19799999999998,6.550579833984376,-0.7016235351562501,7.538565063476563
16.209000000000003,7.207940673828125,-1.2341217041015626,6.519476318359375
16.218000000000018,6.666769409179688,-0.8857025146484375,6.987225341796876
16.22800000000001,6.350350952148438,-0.1347320556640625,7.25908203125
16.238,6.872381591796875,0.3823638916015625,7.2632690429687505
16.24799999999999,7.336242675781251,0.3659149169921875,6.780267333984376
16.25799999999998,7.252203369140625,0.3563446044921875,5.526406860351563
16.26800000000003,6.849801635742188,0.434552001953125,6.8044921875
16.27800000000002,6.584823608398438,0.344830322265625,7.337887573242188
16.28800000000001,6.478353881835938,-0.0426177978515625,8.002276611328126
16.298000000000002,6.2882934570312505,-0.423486328125,7.162631225585938
16.310000000000002,6.661984252929688,-0.4964599609375,6.655703735351563
16.317999999999984,6.9970947265625005,-0.343634033203125,7.057357788085938
16.32800000000003,7.3470092773437505,-0.226995849609375,6.565383911132813
16.33699999999999,7.46962890625,-0.244940185546875,6.418838500976563
16.34699999999998,7.033132934570313,-0.2477813720703125,5.793328857421876
16.357000000000028,6.870437622070313,-0.1990325927734375,6.599777221679688
16.36700000000002,6.740640258789063,-0.21533203125,7.561892700195313
16.37700000000001,6.645086669921875,-0.1287506103515625,7.702456665039063
16.387,6.1791320800781255,0.0928619384765625,7.355981445312499
16.39699999999999,6.491961669921875,0.316717529296875,6.817950439453125
16.406999999999982,6.910961914062501,0.4693939208984375,6.956869506835938
16.41700000000003,7.060198974609375,0.18004150390625,6.55386962890625
16.42700000000002,7.490414428710938,-0.19140625,6.045297241210938
16.437000000000012,7.079190063476563,-0.7908966064453126,6.378314208984375
16.447000000000003,7.225286865234375,-1.021331787109375,6.740640258789063
16.456999999999994,7.4771057128906255,-0.527862548828125,7.817749023437501
16.466999999999985,5.4553771972656255,0.0961517333984375,7.338485717773438
16.476999999999975,5.720654296875001,0.4397857666015625,6.984982299804688
16.487000000000023,6.972122192382813,0.5580688476562501,7.620361328125001
16.497000000000014,7.769299316406251,0.5015441894531251,6.671405029296875
16.507000000000005,7.516134643554688,0.4957122802734375,6.477456665039063
