time,ax,ay,az
0.0,6.881802368164063,-0.1272552490234375,6.909017944335938
0.0099999999999909,6.688003540039063,-0.1419097900390625,7.038516235351563
0.0199999999999818,6.530990600585938,-0.1375732421875,7.128985595703125
0.0299999999999727,6.6950317382812505,-0.17166748046875,7.282858276367188
0.0399999999999636,6.699218750000001,-0.1351806640625,7.061993408203126
0.0499999999999545,6.8475585937500005,0.020635986328125,6.791033935546875
0.0599999999999454,6.832156372070313,0.012860107421875,6.971224975585938
0.0699999999999363,6.686209106445313,-0.100787353515625,6.9582153320312505
0.0800000000000409,7.038665771484376,0.0572723388671875,7.494451904296875
0.0889999999999417,6.361416625976563,0.316717529296875,7.063189697265625
0.0989999999999327,6.956570434570313,0.434552001953125,6.496746826171876
0.1090000000000372,7.535723876953125,0.2519683837890625,6.446502685546876
0.1190000000000282,7.5282470703125,-0.0968994140625,5.846713256835938
0.1290000000000191,7.681222534179688,-0.1631439208984375,5.976361083984376
0.13900000000001,6.789987182617188,-0.18961181640625,6.624151611328125
0.1490000000000009,6.856082153320313,-0.0683380126953125,6.919784545898438
0.1589999999999918,6.747518920898438,-0.122918701171875,7.380505371093751
0.1689999999999827,7.177584838867188,-0.318212890625,6.6083007812500005
0.1789999999999807,6.922476196289063,-0.4445709228515625,6.514990234375
0.1889999999999645,6.846063232421876,-0.3792236328125,6.64658203125
0.1989999999999554,6.685162353515626,-0.1652374267578125,7.3822998046875
0.2089999999999463,6.540859985351563,-0.009271240234375,7.577893066406251
0.2189999999999372,6.622207641601563,0.0466552734375,6.883596801757813
0.2290000000000418,6.862960815429688,0.0418701171875,6.863558959960938
0.2390000000000327,7.002627563476563,0.2920440673828125,6.7114807128906255
0.2490000000000236,7.102218627929688,0.5979949951171876,6.918289184570313
0.2590000000000145,6.942364501953126,0.5902191162109376,6.71177978515625
0.2690000000000054,7.0018798828125,0.174957275390625,6.270947265625001
0.2789999999999963,6.849203491210938,-0.2103973388671875,6.93668212890625
0.2889999999999872,6.564486694335938,-0.3276336669921875,7.426412963867188
0.2989999999999781,6.229376220703125,-0.3351104736328125,7.942910766601563
0.3089999999999691,6.327920532226563,-0.2977264404296875,7.590753173828125
0.31899999999996,6.805987548828125,-0.230584716796875,6.775482177734376
0.3289999999999509,7.1334716796875,-0.095703125,6.522018432617188
0.3389999999999418,7.595687866210938,0.0743194580078125,5.955426025390626
0.3489999999999327,7.237997436523438,0.1440032958984375,6.2509094238281255
0.3590000000000373,7.002178955078126,-0.006280517578125,6.248516845703126
0.3690000000000282,7.176239013671876,-0.411822509765625,6.765014648437501
0.3790000000000191,6.589907836914063,-0.5603118896484376,7.3933654785156255
0.38900000000001,6.393118286132813,0.1114044189453125,7.563088989257813
0.3990000000000009,6.512298583984376,0.6945953369140625,7.754943847656251
0.4089999999999918,6.790585327148438,0.9017028808593752,6.640750122070313
0.4189999999999827,7.447048950195313,0.566741943359375,6.03587646484375
0.4289999999999807,7.64010009765625,0.2151824951171875,6.042306518554688
0.4389999999999645,7.2752319335937505,-0.006280517578125,6.3690429687500005
0.4489999999999554,6.650021362304688,-0.3126800537109375,7.2273803710937505
0.4589999999999463,6.626544189453125,-0.69205322265625,7.211080932617188
0.4689999999999372,6.5140930175781255,-0.820654296875,7.446899414062501
0.4790000000000418,6.734957885742188,-0.5036376953125,7.017730712890626
0.4890000000000327,7.0703674316406255,0.0001495361328125,6.66153564453125
0.4990000000000236,7.199566650390626,0.39537353515625,6.57420654296875
0.5090000000000146,7.1615844726562505,0.669921875,6.337191772460938
0.5190000000000055,6.802249145507813,0.7532135009765626,6.912158203125
0.5289999999999964,6.495550537109375,0.6374725341796875,7.263867187500001
0.5380000000000109,6.402090454101563,0.1475921630859375,7.56473388671875
0.5489999999999782,6.569122314453126,-0.354998779296875,7.621109008789063
0.5589999999999691,6.546542358398438,-0.662445068359375,6.979000854492188
0.5679999999999836,6.777127075195313,-0.7397552490234376,6.739743041992188
0.5789999999999509,7.3694396972656255,-0.515301513671875,6.489569091796875
0.5889999999999418,7.359869384765625,-0.231182861328125,6.277078247070313
0.5989999999999327,7.511050415039063,0.0737213134765625,6.033932495117188
0.6079999999999472,7.075750732421875,0.2687164306640625,6.328369140625001
0.6179999999999382,6.753500366210938,0.2250518798828125,6.997991943359375
0.6279999999999291,6.495101928710938,0.20396728515625,7.575051879882813
0.6380000000000337,6.271096801757813,0.1758544921875,7.740737915039063
0.6480000000000246,6.427960205078126,0.140863037109375,7.470227050781251
0.6580000000000155,6.365155029296876,0.164788818359375,6.8702880859375
0.6680000000000064,7.365701293945313,0.1882659912109375,6.508859252929688
0.6779999999999973,7.40084228515625,-0.22310791015625,6.086419677734376
0.6879999999999882,7.410562133789063,-0.5881256103515625,5.960211181640625
0.6989999999999554,7.406524658203126,-0.81766357421875,6.730172729492188
0.70799999999997,6.486129760742188,-0.7273437500000001,7.207940673828125
0.7179999999999609,6.607403564453126,-0.4197479248046875,7.440768432617188
0.7279999999999518,6.405978393554688,0.1051239013671875,7.752850341796876
0.7379999999999427,6.626394653320313,0.7901489257812501,6.834249877929688
0.7479999999999407,6.886737060546875,1.2562530517578123,6.871932983398438
0.7580000000000382,7.362561035156251,1.1185302734375,6.33255615234375
0.7680000000000291,7.430899047851563,0.6356781005859375,6.451437377929688
0.77800000000002,6.55985107421875,0.040374755859375,6.813314819335938
0.7880000000000109,6.618768310546876,-0.4314117431640625,7.229922485351563
0.7989999999999782,6.640750122070313,-0.9784149169921876,7.625744628906251
0.8079999999999927,6.878213500976563,-1.298870849609375,7.028646850585938
0.8179999999999836,6.858026123046876,-0.8897399902343751,6.6621337890625005
0.8279999999999745,6.945355224609376,-0.04366455078125,6.452484130859376
0.8379999999999654,7.153958129882813,0.6685760498046875,6.5978332519531255
0.8479999999999563,7.330859375,0.786260986328125,6.555364990234375
0.8579999999999472,7.268353271484376,0.4996002197265625,6.178982543945313
0.8679999999999382,6.555364990234375,0.1655364990234375,6.718209838867188
0.8779999999999291,6.467437744140626,-0.060113525390625,7.510153198242188
0.8880000000000337,6.348556518554688,-0.3007171630859375,8.300601196289064
0.8980000000000246,6.3750244140625005,-0.390289306640625,7.563238525390625
0.9080000000000156,6.632376098632813,-0.059515380859375,6.7267333984375
0.9180000000000064,6.928457641601563,0.1040771484375,6.202310180664063
0.9279999999999972,7.794122314453125,0.1969390869140625,6.287994384765626
0.9379999999999882,7.594790649414063,0.1559661865234375,6.394165039062501
0.9479999999999792,6.923223876953125,0.01614990234375,6.219357299804688
0.95799999999997,6.586618041992188,-0.1514801025390625,7.035675048828126
0.9679999999999608,6.526953125,-0.360382080078125,7.557556152343751
0.9779999999999518,6.508709716796876,-0.3234466552734375,7.780364990234376
0.9879999999999428,6.060101318359376,-0.2743988037109375,6.971224975585938
0.9990000000000236,7.600173950195313,0.037384033203125,6.265115356445313
1.0080000000000382,6.549383544921875,-0.014056396484375,6.483438110351563
1.018000000000029,8.000482177734376,-0.012261962890625,6.489120483398438
1.02800000000002,7.354486083984375,0.4701416015625,7.184164428710938
1.038000000000011,6.0281005859375005,0.3768310546875,6.413455200195313
1.0480000000000018,6.647628784179688,0.2624359130859375,7.55875244140625
1.0570000000000164,6.5365234375000005,0.0342437744140625,7.744775390625
1.0670000000000073,6.669760131835938,0.0447113037109375,7.056759643554688
1.0769999999999982,7.036572265625001,0.0258697509765625,6.983187866210938
1.086999999999989,7.081732177734375,-0.310137939453125,5.836395263671875
1.0989999999999398,7.32906494140625,-0.1143951416015625,6.885092163085938
1.106999999999978,6.698770141601563,0.0904693603515625,6.977655029296876
1.116999999999969,6.910812377929688,0.133984375,6.887036132812501
1.1269999999999527,7.006216430664063,-0.36187744140625,6.830212402343751
1.1369999999999436,6.848904418945313,-0.3886444091796875,6.6441894531250005
1.1469999999999343,6.55386962890625,0.2235565185546875,7.440768432617188
1.157000000000039,6.114382934570313,0.3730926513671875,7.432693481445313
1.16700000000003,7.2447265625,0.12022705078125,6.71776123046875
1.177000000000028,7.611090087890625,-0.308642578125,6.262423706054688
1.187000000000019,7.011749267578126,-0.118731689453125,5.888134765625001
1.1989999999999554,6.5185791015625005,0.2905487060546875,7.317401123046875
1.2069999999999936,6.408670043945313,0.2154815673828125,7.756289672851563
1.2169999999999843,6.948944091796876,-0.2358184814453125,7.157247924804688
1.2269999999999754,7.005020141601563,-0.414813232421875,6.645834350585938
1.2369999999999663,6.685760498046876,-0.0850860595703125,6.205151367187501
1.2469999999999573,6.965841674804688,0.1568634033203125,7.303793334960938
1.2569999999999482,7.041656494140626,0.078955078125,7.114779663085938
1.266999999999939,7.205548095703126,-0.1045257568359375,6.370388793945313
1.27699999999993,6.654208374023438,-0.144451904296875,6.314910888671876
1.2870000000000346,6.826773071289063,0.06160888671875,6.966738891601563
1.2980000000000018,6.7548461914062505,0.2008270263671875,7.946798706054688
1.3070000000000164,6.53233642578125,0.084039306640625,7.216165161132813
1.3170000000000073,6.575701904296875,-0.1248626708984375,6.180776977539063
1.3269999999999982,7.497741699218751,-0.399560546875,5.6891021728515625
1.336999999999989,7.496246337890626,-0.7807281494140625,6.379360961914063
1.34699999999998,7.267456054687501,-0.8095886230468751,7.301998901367188
1.356999999999978,6.7757812500000005,-0.32239990234375,7.345663452148438
1.366999999999969,6.220703125000001,0.4155609130859375,7.341775512695313
1.3769999999999527,5.965594482421875,1.0576690673828126,7.598080444335938
1.3869999999999436,6.658096313476563,1.1964385986328123,7.307681274414063
1.3989999999999938,7.453628540039063,1.1991302490234377,6.914550781250001
1.407000000000039,7.201361083984375,0.623565673828125,5.9552764892578125
1.41700000000003,7.168014526367188,-0.0794036865234375,6.228329467773438
1.427000000000028,7.019973754882813,-0.6377716064453125,7.129583740234375
1.437000000000019,6.0236145019531255,-0.9606201171875,7.446899414062501
1.4470000000000027,6.893615722656251,-1.164736938476563,7.4361328125
1.4569999999999936,6.778622436523438,-1.088922119140625,6.861465454101563
1.4669999999999843,7.214669799804688,-0.184228515625,6.525756835937501
1.4769999999999754,6.443212890625,0.8659637451171875,6.880007934570313
1.4869999999999663,7.017282104492188,1.5059783935546875,6.920233154296875
1.4990000000000236,6.830062866210938,1.122866821289063,6.8774658203125005
1.5069999999999482,7.379159545898438,0.50543212890625,6.583477783203126
1.516999999999939,6.529644775390626,0.12620849609375,6.658694458007813
1.52699999999993,6.204403686523438,-0.4629638671875,7.488470458984375
1.5370000000000346,6.657797241210938,-1.0208831787109376,7.431646728515625
1.5459999999999354,7.731466674804688,-1.4982025146484377,7.021768188476563
1.55600000000004,6.966738891601563,-1.2149810791015625,5.538369750976563
1.5660000000000238,7.295867919921876,-0.3680084228515625,6.108999633789063
1.5760000000000218,6.743930053710938,0.3194091796875,6.967935180664063
1.5860000000000198,7.297811889648438,0.7259979248046875,7.294073486328125
1.5960000000000036,6.643740844726563,0.7600921630859375,6.802847290039063
1.606999999999978,6.652114868164063,0.7034179687500001,6.57420654296875
1.6159999999999854,6.4961486816406255,0.5982940673828125,7.398001098632813
1.6259999999999764,6.442913818359376,0.4882354736328125,8.350546264648438
1.6359999999999673,6.277377319335938,0.157012939453125,7.287942504882813
1.6459999999999582,6.614730834960938,-0.4406829833984375,6.361715698242188
1.655999999999949,7.9107604980468755,-1.0537811279296876,4.993011474609375
1.66599999999994,8.29925537109375,-1.454388427734375,5.875723266601563
1.6759999999999309,7.446899414062501,-1.4539398193359376,6.232815551757813
1.6860000000000357,6.634469604492188,-0.6670806884765625,7.501779174804688
1.6960000000000264,5.719607543945313,0.366363525390625,8.428753662109376
1.7060000000000173,5.840731811523438,1.3384979248046875,8.086465454101564
1.7160000000000082,6.425717163085938,1.7730499267578126,7.789187622070313
1.725999999999999,7.078890991210938,1.7464324951171877,6.031539916992188
1.73599999999999,7.813412475585938,1.2233551025390623,5.747122192382813
1.7459999999999738,7.774981689453125,0.126507568359375,6.319396972656251
1.755999999999979,7.082778930664063,-0.7647277832031251,6.641946411132813
1.7659999999999698,5.6524658203125,-1.2299346923828125,7.847805786132813
1.7759999999999536,6.191543579101563,-1.5681854248046876,7.556210327148438
1.7859999999999443,6.916046142578126,-1.5711761474609376,7.580883789062501
1.7959999999999354,7.444955444335938,-0.8990112304687501,6.548785400390625
1.80600000000004,7.092498779296876,0.4414306640625,5.817254638671876
1.816000000000024,6.8894287109375005,1.478314208984375,6.66153564453125
1.8260000000000216,6.6884521484375,1.6617950439453126,6.800454711914063
1.83600000000002,7.267156982421875,1.2432434082031252,7.557107543945313
1.846000000000004,6.502279663085938,0.5745178222656251,6.678582763671876
1.8559999999999943,6.259133911132813,0.088525390625,6.9387756347656255
1.8659999999999848,6.373080444335938,-0.7168762207031251,7.527050781250001
1.8759999999999764,7.458563232421875,-1.3211517333984375,7.541107177734376
1.885999999999968,6.983636474609376,-1.414910888671875,6.621459960937501
1.8959999999999584,7.166668701171876,-0.79373779296875,5.802001953125
1.905999999999949,6.553421020507813,-0.167779541015625,6.070867919921875
1.91599999999994,8.010650634765625,-0.0059814453125,6.826025390625
1.9259999999999309,7.666867065429688,0.19798583984375,6.4348388671875005
1.936000000000036,6.844567871093751,0.3348114013671875,6.149374389648438
1.9460000000000264,5.94256591796875,0.6706695556640625,7.141247558593751
1.9560000000000173,6.056063842773438,0.8800201416015626,8.925811767578125
1.966000000000008,5.963650512695313,0.7615875244140625,8.61746826171875
1.975999999999999,6.514691162109376,0.4652069091796875,7.113284301757813
1.9850000000000207,7.275082397460938,-0.03289794921875,5.426068115234376
1.9959999999999736,7.709036254882813,-0.4604217529296875,5.741140747070313
2.005999999999979,7.50133056640625,-0.938787841796875,5.96708984375
2.01599999999997,8.394659423828125,-1.3245910644531251,6.000735473632813
2.0249999999999773,6.702508544921876,-2.0440093994140627,5.4802001953125
2.034999999999968,6.341677856445313,-1.9110717773437504,7.250259399414063
2.044999999999959,6.257040405273438,-0.1248626708984375,9.83633728027344
2.05499999999995,5.789889526367188,1.869500732421875,8.968429565429688
2.064999999999948,5.92462158203125,2.8978607177734377,7.451235961914063
2.074999999999939,7.229324340820313,2.6091064453125004,5.011553955078125
2.0850000000000364,8.017080688476563,2.1415069580078128,5.3791137695312505
2.095000000000028,8.105755615234376,0.8632720947265625,6.806436157226563
2.105000000000018,7.05272216796875,-1.10238037109375,6.781314086914063
2.115000000000009,5.8680969238281255,-2.531048583984376,7.6849609375
2.125,5.176043701171875,-2.775390625,7.8374877929687505
2.134999999999991,6.624600219726563,-2.0004943847656254,8.4111083984375
2.144999999999982,7.425515747070313,-0.9446197509765626,6.936831665039063
2.15499999999998,7.920480346679688,0.4272247314453125,4.909271240234375
2.1649999999999707,7.540957641601563,1.9161560058593752,5.276382446289063
2.1749999999999545,6.712826538085938,2.9105712890625,6.758584594726563
2.184999999999945,6.357827758789063,2.5494415283203127,8.440866088867189
2.1949999999999363,6.1501220703125,1.1725128173828123,8.260974121093751
2.205000000000041,5.954229736328125,-0.3527557373046875,6.775332641601563
2.215000000000032,6.570767211914063,-1.6813842773437502,6.761425781250001
2.2250000000000227,7.719802856445313,-2.3070434570312504,7.135415649414063
2.2350000000000207,7.540359497070313,-2.198480224609375,6.705050659179688
2.2450000000000045,7.012945556640625,-1.3402923583984376,5.847760009765626
2.2549999999999955,7.061544799804688,-0.438739013671875,5.072265625
2.2649999999999864,8.037567138671875,0.254510498046875,6.0764007568359375
2.2749999999999773,8.070614624023438,0.69683837890625,6.57420654296875
2.284999999999968,6.551626586914063,1.0507904052734376,6.843521118164063
2.294999999999959,5.313467407226563,1.347320556640625,7.966537475585938
2.30499999999995,5.313616943359375,1.35001220703125,9.182415771484376
2.314999999999948,5.692990112304688,0.9423767089843752,9.10076904296875
2.324999999999939,7.079638671875,0.325689697265625,7.15799560546875
2.3350000000000364,7.2028564453125,-0.2857635498046875,5.205651855468751
2.345000000000028,7.163528442382813,-0.7714569091796876,4.972973632812501
2.355000000000018,8.094390869140625,-1.26986083984375,5.751309204101563
2.365000000000009,9.416738891601565,-1.8783233642578123,6.259283447265625
2.375,7.624697875976563,-2.2653228759765627,4.973272705078125
2.384999999999991,6.056512451171876,-1.1116516113281252,7.159191894531251
2.394999999999982,4.085775756835938,0.9873870849609376,9.741680908203126
2.40499999999998,5.145687866210938,2.3441284179687503,10.661029052734376
2.4149999999999707,6.590057373046876,2.547796630859376,8.328265380859376
2.4249999999999545,8.0294921875,1.6764495849609375,3.7653198242187504
2.434999999999945,9.105255126953123,1.070977783203125,3.9266693115234377
2.4449999999999363,6.969580078125,0.4592254638671875,6.40433349609375
2.455000000000041,6.4994384765625,-0.5740692138671876,8.154504394531251
2.465000000000032,5.867199707031251,-2.227191162109375,8.572009277343751
2.4750000000000227,6.766510009765626,-3.359329223632813,6.287844848632813
2.4850000000000207,6.899597167968751,-2.5069732666015625,6.58975830078125
2.4950000000000045,6.620861816406251,-0.2093505859375,7.691091918945313
2.5049999999999955,6.768753051757813,1.55697021484375,7.021469116210938
2.5149999999999864,7.39127197265625,2.109954833984375,6.722695922851563
2.523999999999994,7.562191772460938,1.844528198242188,4.632330322265625
2.533999999999992,7.480245971679688,1.725946044921875,6.231768798828125
2.5439999999999827,6.109896850585938,1.0996887207031252,8.100820922851563
2.5539999999999807,5.98802490234375,-0.2214630126953125,8.137606811523439
2.5639999999999645,6.361117553710938,-1.7290863037109376,8.261123657226562
2.5739999999999554,6.348706054687501,-2.094403076171876,6.608749389648438
2.5839999999999463,6.9447570800781255,-1.1692230224609377,6.837689208984376
2.593999999999937,6.987374877929688,-0.254510498046875,7.146780395507813
2.604000000000049,8.043099975585939,0.1517791748046875,5.3701416015625005
2.6140000000000327,8.359518432617188,0.277838134765625,5.122808837890625
2.624000000000024,7.609744262695313,0.27933349609375,4.7435852050781255
2.6340000000000146,6.952832031250001,0.4263275146484375,7.018478393554688
2.644000000000005,5.609100341796875,0.27933349609375,9.388177490234376
2.6539999999999964,5.21043701171875,0.1296478271484375,8.924615478515626
2.663999999999988,5.385394287109375,0.3249420166015625,8.587411499023439
2.673999999999978,6.608450317382813,0.3793731689453125,6.474914550781251
2.683999999999969,7.832852172851563,0.2618377685546875,5.882452392578125
2.69399999999996,8.722891235351563,0.04246826171875,4.943066406250001
2.703999999999944,7.935433959960938,-0.6398651123046876,4.487878417968751
2.713999999999942,7.379907226562499,-1.403994750976563,6.087765502929688
2.72399999999994,6.719406127929688,-1.5523345947265623,7.951882934570313
2.7340000000000373,5.49156494140625,-0.6316406250000001,9.482086181640623
2.744000000000028,4.935589599609376,0.7283905029296875,9.1384521484375
2.754000000000019,5.891424560546875,1.48280029296875,7.304690551757813
2.76400000000001,7.949789428710938,1.8375,5.8031982421875
2.773999999999994,8.799304199218751,1.5408203125000002,4.802203369140625
2.783999999999992,7.999435424804688,0.8697021484375,5.310028076171875
2.7939999999999827,6.820642089843751,-0.1221710205078125,6.909317016601563
2.8039999999999807,5.182772827148438,-1.1635406494140623,8.406024169921876
2.8139999999999645,6.06578369140625,-1.7883026123046877,8.79571533203125
2.8239999999999554,6.221600341796876,-1.8198547363281248,8.008258056640626
2.8339999999999463,7.060049438476563,-0.9063385009765624,6.1895996093750005
2.843999999999937,7.510751342773438,0.4533935546875,5.7544494628906255
2.854000000000049,7.394412231445313,1.5638488769531251,6.163131713867188
2.8640000000000327,7.213174438476563,1.82254638671875,6.470278930664063
2.874000000000024,7.226333618164063,1.2688140869140625,7.071115112304688
2.8840000000000146,6.52396240234375,0.360382080078125,6.384445190429688
2.894000000000005,6.321490478515625,-0.6754547119140626,7.223941040039063
2.9039999999999964,6.618917846679688,-1.511810302734375,7.654904174804688
2.913999999999988,7.186557006835938,-1.7530120849609376,7.716513061523438
2.923999999999978,6.400146484375001,-1.0996887207031252,6.731219482421875
2.933999999999969,6.623852539062501,-0.10467529296875,6.2030578613281255
2.94399999999996,7.490713500976563,0.6386688232421875,6.4228759765625005
2.953999999999944,7.862310791015625,0.9323577880859376,6.37442626953125
2.963999999999942,7.569818115234375,0.9248809814453126,5.805291748046876
2.97399999999994,6.5739074707031255,0.6293975830078126,6.526803588867188
2.9829999999999472,6.182870483398438,0.17645263671875,7.662380981445313
2.994000000000028,5.878115844726563,-0.127703857421875,9.187799072265626
3.004000000000019,5.865853881835938,-0.40733642578125,7.941864013671876
3.0130000000000337,6.5619445800781255,-0.493768310546875,6.647329711914063
3.023000000000025,7.375869750976563,-0.673809814453125,4.9683380126953125
3.0330000000000155,8.9326904296875,-0.6884643554687501,5.241091918945313
3.0430000000000064,8.146279907226564,-0.66334228515625,5.744729614257813
3.0529999999999973,7.454824829101563,-0.500946044921875,6.494802856445313
3.062999999999988,5.701812744140625,0.3081939697265625,8.145980834960938
3.072999999999979,4.708892822265625,0.953741455078125,9.062338256835938
3.08299999999997,5.79422607421875,1.2976745605468751,8.986672973632814
3.092999999999961,6.600823974609376,1.1659332275390626,7.281512451171875
3.102999999999952,8.191439819335939,0.5897705078125001,4.941720581054688
3.1129999999999427,8.5307373046875,0.221014404296875,5.176043701171875
3.1229999999999407,7.169210815429688,-0.221014404296875,5.781216430664063
3.133000000000038,6.491213989257813,-0.49287109375,7.743728637695313
3.143000000000029,5.877069091796876,-1.1853729248046876,8.076745605468751
3.15300000000002,6.525457763671875,-1.5921112060546876,7.625296020507813
3.163000000000011,6.853091430664063,-1.0442108154296876,7.155154418945313
3.173000000000002,6.5604492187500005,0.2237060546875,6.635964965820313
3.1829999999999927,6.993505859375,1.21363525390625,6.723144531250001
3.192999999999984,7.140948486328125,1.3678070068359376,6.688751220703126
3.2029999999999745,7.44749755859375,1.115838623046875,6.011053466796875
3.212999999999965,7.214669799804688,0.7239044189453125,6.528298950195313
3.2229999999999563,6.242086791992188,0.19559326171875,6.940719604492188
3.2329999999999472,6.509906005859375,-0.647491455078125,7.62694091796875
3.242999999999938,6.822735595703126,-1.3574890136718751,7.993753051757813
3.252999999999929,6.413604736328126,-1.4199951171875,6.791632080078125
3.2630000000000337,7.084423828125001,-0.5812469482421876,6.763967895507813
3.273000000000025,6.578692626953125,-0.115740966796875,6.174346923828126
3.2830000000000155,8.400790405273439,0.116339111328125,6.0405120849609375
3.2930000000000064,7.674343872070313,0.2821746826171875,6.012997436523438
3.3029999999999973,7.013394165039063,0.392083740234375,5.719757080078125
3.312999999999988,6.25718994140625,0.7315307617187501,7.728475952148438
3.322999999999979,5.756842041015625,0.46475830078125,8.71795654296875
3.33299999999997,6.087017822265626,0.401654052734375,8.477203369140625
3.342999999999961,5.9926605224609375,0.26737060546875,7.477554321289063
3.352999999999952,7.1071533203125,0.0315521240234375,5.825030517578125
3.3629999999999427,7.707540893554688,-0.3656158447265625,5.665325927734376
3.3729999999999407,8.959307861328126,-1.0826416015625,4.788446044921876
3.383000000000038,7.987472534179688,-1.5331939697265626,5.2225494384765625
3.393000000000029,6.2841064453125,-1.881463623046875,6.746472167968751
3.40300000000002,6.133523559570313,-0.8299255371093751,8.964691162109375
3.413000000000011,5.396759033203125,0.8094390869140625,9.944601440429688
3.423000000000002,5.369842529296875,2.089468383789063,8.351892089843751
3.4329999999999927,6.673797607421876,2.5802459716796875,6.0031280517578125
3.442999999999984,8.167364501953125,2.259939575195313,5.219708251953126
3.4529999999999745,8.682965087890626,1.37991943359375,5.31571044921875
3.462999999999965,7.526901245117188,-0.075665283203125,6.418988037109376
3.4729999999999563,6.273040771484376,-1.5747650146484375,7.30513916015625
3.481999999999978,4.930206298828125,-2.3747833251953128,8.345761108398438
3.492999999999938,6.247619628906251,-2.4559814453125,8.728274536132814
3.5019999999999527,6.886737060546875,-1.5657928466796875,7.543649291992188
3.511999999999944,7.514190673828126,-0.1757049560546875,5.598483276367188
3.5219999999999345,7.250857543945313,1.334161376953125,5.193389892578125
3.532000000000039,7.892517089843751,2.547796630859376,6.266909790039063
3.54200000000003,6.707742309570313,2.3251373291015627,7.275531005859375
3.552000000000028,6.833203125000001,1.5756622314453126,7.350149536132813
3.562000000000019,5.6991210937500005,0.14056396484375,7.089358520507813
3.5720000000000027,6.468634033203125,-1.335208129882813,7.437030029296875
3.5819999999999936,6.894363403320313,-2.0619537353515627,7.834197998046876
3.5919999999999845,7.104611206054688,-2.2171722412109376,7.134219360351563
3.6019999999999754,6.852792358398438,-1.2870574951171876,6.080438232421876
3.612999999999943,7.192687988281251,-0.5531341552734376,5.313916015625001
3.621999999999957,8.417538452148438,0.338250732421875,5.947949218750001
3.631999999999948,7.693484497070313,0.8563934326171876,6.093746948242188
3.641999999999939,7.2483154296875005,1.011163330078125,6.127392578125001
3.65199999999993,5.848806762695313,1.08204345703125,7.795318603515626
3.6620000000000346,5.390628051757813,0.7092498779296875,8.789434814453125
3.6720000000000255,5.44132080078125,0.7663726806640626,9.772036743164064
3.682000000000016,5.724093627929688,0.2920440673828125,7.485928344726563
3.6920000000000073,7.239492797851563,-0.3596343994140625,5.478405761718751
3.701999999999998,8.81605224609375,-1.1058197021484375,4.4744201660156255
3.711999999999989,9.213818359375,-1.7228057861328123,4.378866577148438
3.72199999999998,8.548532104492189,-1.3331146240234375,6.245077514648438
3.731999999999978,5.582333374023438,-0.739605712890625,7.374822998046875
3.741999999999969,4.634274291992188,0.179742431640625,9.194378662109376
3.7519999999999527,5.102621459960938,1.1279510498046876,9.815701293945311
3.761999999999944,6.169711303710938,1.7850128173828126,8.101568603515625
3.771999999999936,7.981341552734375,1.7995178222656252,5.60760498046875
3.782000000000039,8.567672729492188,1.1615966796875,4.5058227539062505
3.79200000000003,7.713671875,0.6880157470703125,4.991067504882813
3.802000000000028,6.7099853515625005,-0.1804901123046875,7.509854125976563
3.812000000000019,6.254946899414063,-1.4715850830078123,7.886535644531251
3.8220000000000014,6.273937988281251,-2.656658935546876,8.001080322265626
3.8319999999999936,6.551626586914063,-2.3484649658203125,7.075302124023438
3.841999999999985,6.103317260742188,-0.6293975830078126,7.237548828125001
3.852999999999952,6.709686279296876,0.9117218017578126,7.271343994140626
3.8619999999999663,7.441665649414063,1.6768981933593752,6.648974609375
3.871999999999957,8.148074340820314,1.7642272949218751,5.20445556640625
3.881999999999948,7.558154296875,1.61319580078125,5.199819946289063
3.891999999999939,6.584973144531251,0.9343017578125,6.592300415039063
3.90199999999993,6.597384643554688,-0.3279327392578125,8.474960327148438
3.9120000000000346,5.953631591796875,-1.5396240234375,8.84476318359375
3.9220000000000255,5.727383422851563,-1.7769378662109376,7.518377685546875
3.932000000000016,6.0849243164062505,-1.01505126953125,7.252951049804688
3.9420000000000073,7.40263671875,-0.59036865234375,6.085223388671875
3.951999999999998,8.856427001953126,0.121124267578125,6.0699707031250005
3.961999999999989,7.808029174804688,0.5105163574218751,4.455578613281251
3.97199999999998,7.817898559570313,0.8284301757812501,5.166323852539063
3.9809999999999945,6.312518310546875,0.7149322509765625,7.290335083007813
3.991999999999969,6.232366943359375,0.12860107421875,8.879306030273439
4.001999999999953,5.105612182617188,0.0877777099609375,9.519769287109376
4.011999999999944,5.406179809570313,-0.0490478515625,7.663577270507813
4.020999999999958,6.319845581054688,-0.07357177734375,6.7697998046875005
4.030999999999949,8.884689331054688,-0.459674072265625,5.20804443359375
4.04099999999994,8.647973632812501,-0.6720153808593751,4.724295043945313
4.050999999999931,8.010052490234376,-0.7991210937500001,5.142398071289063
4.061000000000036,6.895260620117188,-0.5914154052734375,6.804940795898438
4.071000000000026,5.873928833007813,0.1655364990234375,9.0834228515625
4.081000000000017,4.7186126708984375,0.7642791748046875,9.438720703125
4.091000000000008,5.509808349609376,1.3579376220703123,8.46793212890625
4.100999999999999,6.828268432617188,1.3214508056640626,6.260330200195313
4.11099999999999,8.997589111328125,0.6974365234375001,5.1477813720703125
4.120999999999974,8.450137329101564,0.08074951171875,5.025759887695313
4.130999999999979,7.255642700195313,-0.3410919189453125,6.0719146728515625
4.14099999999997,5.310177612304688,-0.7855133056640625,7.631726074218751
4.150999999999954,6.485232543945313,-1.501641845703125,8.57559814453125
4.1609999999999445,6.386688232421876,-1.5840362548828126,8.134616088867189
4.170999999999935,6.677685546875001,-0.552685546875,6.877914428710938
4.18100000000004,6.446054077148438,0.988134765625,6.324331665039063
4.191000000000024,6.922775268554688,1.8078918457031248,6.731817626953125
4.201000000000022,7.655801391601563,1.5768585205078127,6.8490539550781255
4.21100000000002,7.5617431640625,1.1189788818359376,6.415100097656251
4.221000000000004,6.560598754882813,0.2911468505859375,5.602670288085938
4.2309999999999945,6.681723022460938,-0.8840576171875001,6.860717773437501
4.2409999999999854,7.411758422851563,-2.042962646484375,7.647726440429688
4.250999999999976,6.973916625976563,-2.1320861816406254,7.718157958984375
4.260999999999967,5.8127685546875005,-1.31591796875,6.594244384765625
4.270999999999958,6.298611450195313,-0.0788055419921875,6.777127075195313
4.280999999999949,7.52286376953125,0.8224487304687501,7.096685791015625
4.29099999999994,8.164971923828126,1.2133361816406252,6.2458251953125
4.300999999999931,7.378262329101563,1.4228363037109375,5.424273681640625
4.311000000000036,6.6157775878906255,1.1695220947265623,6.20933837890625
4.321000000000026,5.858377075195313,0.674407958984375,8.49365234375
4.331000000000017,6.13157958984375,-0.1490875244140625,9.027944946289065
4.341000000000008,6.060848999023438,-0.8273834228515625,7.920330810546876
4.350999999999999,6.353192138671876,-1.2436920166015626,5.842376708984375
4.36099999999999,7.341625976562501,-1.24952392578125,5.2210540771484375
4.370999999999974,9.185107421875,-0.881964111328125,6.084625244140625
4.380999999999979,8.31719970703125,-0.9274230957031252,5.215670776367188
4.39099999999997,7.595687866210938,-0.3183624267578125,6.097634887695313
4.400999999999954,5.3521972656250005,0.7789337158203126,7.862011718750001
4.4109999999999445,4.4449615478515625,1.7731994628906251,9.6528564453125
4.420999999999935,5.730224609375,1.8992584228515623,9.78370056152344
4.43100000000004,6.630880737304688,1.120025634765625,7.000833129882813
4.439999999999948,8.513839721679688,0.2890533447265625,4.28929443359375
4.451000000000022,8.172299194335938,-0.1155914306640625,5.233166503906251
4.460000000000036,7.092947387695313,-0.329278564453125,6.31700439453125
4.471000000000004,6.5155883789062505,-0.8809173583984375,7.972219848632813
4.480000000000018,6.651516723632813,-1.864566040039063,7.082180786132813
4.4909999999999854,6.609646606445313,-2.0413177490234378,6.796566772460938
4.5,6.5951416015625,-0.7310821533203126,7.677932739257813
4.509999999999991,6.03587646484375,0.8557952880859375,7.47501220703125
4.519999999999982,7.013992309570313,1.7204132080078127,7.485031127929688
4.52999999999998,6.9327941894531255,1.4008544921875,5.846264648437501
4.539999999999971,8.243328857421876,1.320703125,5.536126708984376
4.5499999999999545,6.529644775390626,0.9745269775390626,6.595291137695313
4.559999999999945,6.906027221679688,0.190509033203125,7.271044921875
4.569999999999936,6.226235961914063,-1.056622314453125,7.988668823242188
4.580000000000041,6.822586059570313,-1.99541015625,7.379907226562499
4.591000000000008,6.097036743164063,-1.45887451171875,6.90079345703125
4.600000000000023,6.735556030273438,-0.6447998046875001,7.144686889648438
4.610000000000021,7.433441162109376,-0.0491973876953125,6.333004760742188
4.6200000000000045,8.347256469726563,0.1027313232421875,5.566033935546876
4.629999999999996,7.696923828125,0.4855438232421875,4.990020751953125
4.639999999999986,6.915896606445313,0.8794219970703125,6.21531982421875
4.649999999999977,6.2568908691406255,0.7838684082031251,8.500231933593751
4.659999999999968,5.687457275390625,0.442327880859375,9.039758300781251
4.669999999999959,5.523715209960938,0.1703216552734375,8.3465087890625
4.67999999999995,5.693289184570313,0.0442626953125,6.961355590820313
4.691000000000024,7.939770507812501,-0.4035980224609375,5.406927490234375
4.699999999999939,8.98353271484375,-1.0116119384765625,5.5065185546875
4.710000000000036,8.668908691406251,-1.5850830078125002,4.5077667236328125
4.720000000000027,6.876568603515626,-1.2537109375000002,6.004922485351563
4.730000000000018,6.111541748046875,-0.1969390869140625,8.74188232421875
4.740000000000009,4.6906494140625,1.0765106201171877,9.661529541015623
4.75,5.103817749023438,1.5651947021484376,9.207238769531251
4.759999999999991,7.0180297851562505,1.815667724609375,6.680676269531251
4.769999999999982,8.079287719726564,1.6614959716796875,5.104714965820313
4.77999999999998,8.675936889648439,0.9615173339843752,5.127294921875
4.79099999999994,7.517181396484376,-0.0177947998046875,5.5639404296875
4.7999999999999545,6.23087158203125,-1.205560302734375,7.624996948242188
4.809999999999945,5.784506225585938,-2.0272613525390626,8.025155639648439
4.819999999999936,6.343771362304688,-2.34652099609375,8.4422119140625
4.830000000000041,6.577197265625,-1.3767791748046876,7.314559936523438
4.840000000000032,6.428707885742188,0.07955322265625,6.42467041015625
4.850000000000023,7.313812255859376,1.7063568115234375,6.547738647460938
4.860000000000021,7.215267944335938,2.253509521484375,6.2302734375
4.8700000000000045,7.99539794921875,2.0437103271484376,6.123056030273438
4.879999999999996,6.863409423828125,1.1584564208984376,6.117672729492188
4.889999999999986,6.881652832031251,-0.2758941650390625,6.5831787109375
4.899999999999977,6.0764007568359375,-1.61917724609375,8.255889892578125
4.909999999999968,6.819296264648438,-2.25560302734375,8.059698486328125
4.919999999999959,5.7305236816406255,-1.90927734375,7.688400268554688
4.928999999999981,6.753500366210938,-1.1479888916015626,6.046643066406251
4.9389999999999645,7.703204345703125,-0.0231781005859375,6.290536499023438
4.949999999999939,8.54150390625,0.868206787109375,5.3073364257812505
4.960000000000036,7.803842163085938,1.4128173828125,5.468386840820313
4.970000000000027,7.0868164062500005,1.383059692382813,6.343621826171876
4.979000000000049,5.602670288085938,1.0475006103515625,7.987771606445313
4.9909999999999854,5.242886352539063,0.49945068359375,9.202752685546876
5.0,5.071368408203125,-0.347821044921875,8.800201416015625
5.009000000000015,7.179080200195313,-1.0730712890625,6.7339111328125005
5.0190000000000055,8.056259155273438,-1.5660919189453126,5.424273681640625
5.028999999999996,9.687548828125,-1.2251495361328126,4.476812744140625
5.038999999999987,7.761972045898438,-0.322698974609375,5.297467041015626
5.048999999999978,5.752655029296875,0.3686065673828125,7.3129150390625
5.058999999999969,5.457769775390625,0.9649566650390624,8.710928344726563
5.06899999999996,5.425619506835938,0.9830505371093752,9.543695068359376
5.078999999999944,6.651815795898438,0.8952728271484376,7.565182495117188
5.091000000000008,7.302297973632813,0.8828613281250001,6.4994384765625
5.09899999999994,7.025057983398438,0.90858154296875,5.4135070800781255
5.109000000000037,7.705596923828126,0.5061798095703125,6.048886108398438
5.119000000000028,7.670306396484375,-0.7846160888671876,6.28709716796875
5.129000000000019,7.54619140625,-1.8053497314453129,6.5724121093750005
5.13900000000001,6.378314208984375,-1.8617248535156248,6.890325927734375
5.148999999999994,5.120266723632813,-0.9052917480468752,8.428604125976562
5.158999999999992,5.934341430664063,0.055328369140625,8.285498046875
5.168999999999983,6.979748535156251,0.5718261718750001,7.958163452148438
5.178999999999981,8.008706665039064,1.202569580078125,4.8976074218750005
5.191000000000024,7.646530151367188,1.5912139892578123,4.750015258789063
5.198999999999955,7.347607421875001,1.340740966796875,5.950640869140625
5.208999999999946,7.472769165039063,0.371746826171875,7.654006958007813
5.218999999999937,6.040811157226563,-0.85654296875,8.217309570312501
5.229000000000049,5.815310668945313,-1.2676177978515626,7.480844116210938
5.239000000000033,5.128491210937501,-1.293487548828125,7.762570190429688
5.252999999999929,7.608398437500001,-0.9550872802734376,7.517330932617188
5.259999999999991,7.605258178710938,-0.4370941162109375,6.4482971191406255
5.269999999999982,8.271142578125001,0.2151824951171875,4.702313232421876
5.278999999999996,7.297512817382813,0.8943756103515625,4.877569580078125
5.29099999999994,7.521218872070313,0.9710876464843752,6.706246948242188
5.298999999999978,6.364257812500001,0.638519287109375,8.358920288085939
5.308999999999969,5.667269897460938,0.1831817626953125,8.213720703125
5.31899999999996,4.984039306640625,-0.36905517578125,7.709783935546875
5.328999999999944,7.117919921875001,-0.7031188964843751,6.756192016601563
5.338999999999942,7.553817749023438,-1.0588653564453123,6.778472900390626
5.34899999999994,8.664422607421876,-0.9559844970703124,5.501284790039063
5.359000000000037,7.615875244140626,-0.2441925048828125,5.54180908203125
5.369000000000028,6.756939697265626,0.6721649169921875,6.732266235351563
5.379000000000019,5.499490356445313,1.2867584228515625,8.097979736328126
5.389999999999986,5.8271240234375,1.2677673339843751,9.045889282226565
5.398999999999994,6.441717529296875,0.9281707763671876,7.576547241210938
5.408999999999992,7.343569946289063,0.2388092041015625,6.229077148437501
5.418999999999983,7.4325439453125,-0.1353302001953125,5.977108764648438
5.427999999999997,7.568023681640626,-0.3333160400390625,6.126495361328126
5.437999999999988,6.465792846679688,-0.7427459716796876,6.757089233398438
5.447999999999979,7.400393676757813,-1.272552490234375,6.755743408203125
5.458999999999946,7.046142578125001,-1.3684051513671875,6.947299194335938
5.468999999999937,6.323284912109376,-0.37742919921875,7.439422607421876
5.477999999999952,5.399899291992188,0.8511596679687501,7.608547973632813
5.490000000000009,6.447250366210938,1.5215301513671875,8.518325805664062
5.499000000000024,7.103713989257813,1.4102752685546875,6.570318603515625
5.508000000000038,7.632174682617188,1.1300445556640626,5.878863525390625
5.518000000000029,7.525555419921876,0.365167236328125,4.774240112304688
5.52800000000002,7.818048095703125,-0.7629333496093751,6.554617309570313
5.538000000000011,6.993356323242188,-1.6519256591796876,7.244427490234376
5.548000000000002,6.37681884765625,-1.8714447021484373,7.72384033203125
5.557999999999993,5.447750854492188,-1.586428833007813,7.008609008789063
5.567999999999984,6.976309204101563,-0.6899597167968751,7.466787719726563
5.577999999999975,7.348205566406251,0.2187713623046875,6.718508911132813
5.587999999999965,7.839581298828126,1.199578857421875,6.205749511718751
5.597999999999956,6.801351928710938,1.8609771728515627,5.6891021728515625
5.607999999999947,6.862811279296875,1.85006103515625,6.855184936523438
5.617999999999938,6.066082763671876,1.1331848144531251,7.933340454101563
5.627999999999929,6.816156005859376,0.0052337646484375,8.115625000000001
5.638000000000034,5.210287475585938,-1.0376312255859377,7.156649780273438
5.648000000000025,7.029843139648438,-1.7174224853515627,6.235357666015625
5.658000000000016,8.112783813476563,-1.9372406005859373,6.694583129882813
5.668000000000006,9.300399780273438,-1.816265869140625,5.277279663085938
5.677999999999997,7.352841186523438,-0.5176940917968751,5.5735107421875005
5.687999999999988,5.486480712890625,0.9846954345703126,7.182669067382813
5.697999999999979,5.353543090820313,2.032644653320313,8.64857177734375
5.70799999999997,6.087765502929688,2.065093994140625,9.678726196289062
5.717999999999961,7.007562255859376,1.236962890625,6.686956787109375
5.727999999999952,7.5402099609375,0.7270446777343751,5.653662109375
5.739000000000033,6.568972778320313,0.314923095703125,6.004025268554688
5.747999999999941,7.519873046875,-0.235968017578125,6.857727050781251
5.758000000000038,6.888082885742188,-1.469940185546875,7.630380249023438
5.768000000000029,7.796365356445313,-2.40035400390625,5.621960449218751
5.77800000000002,6.6071044921875,-2.083486938476563,6.111691284179688
5.788000000000011,6.3466125488281255,-0.670819091796875,7.839730834960938
5.798000000000002,5.799160766601563,0.731231689453125,8.006762695312501
5.807999999999993,6.864007568359376,1.367657470703125,8.329312133789063
5.817999999999984,7.329962158203125,1.4985015869140623,5.164828491210938
5.826999999999998,7.526602172851563,1.6620941162109375,5.379263305664063
5.837999999999965,7.065432739257813,1.2789825439453126,6.426315307617188
5.84699999999998,7.149920654296875,0.1614990234375,7.691390991210938
5.856999999999978,6.379211425781251,-1.036135864257813,8.166168212890625
5.866999999999969,5.7230468750000005,-1.5762603759765623,6.857577514648438
5.876999999999953,6.22728271484375,-1.3576385498046877,7.460357666015626
5.886999999999944,7.0524230957031255,-1.090118408203125,7.188949584960938
5.896999999999935,8.00855712890625,-0.40015869140625,6.37681884765625
5.907000000000039,7.776327514648438,0.16927490234375,4.972973632812501
5.91700000000003,7.74058837890625,0.6361267089843751,4.717715454101563
5.927000000000028,7.287792968750001,0.78895263671875,6.881503295898438
5.937000000000019,6.174795532226563,0.704315185546875,8.554812622070314
5.947000000000003,5.22598876953125,0.6304443359375,8.594439697265626
5.967999999999961,5.222848510742188,0.036785888671875,7.951284790039063
5.967999999999961,7.099227905273438,-0.6044250488281251,6.253152465820313
5.982999999999947,8.255142211914062,-0.9945648193359377,6.336593627929688
6.002999999999929,7.988967895507813,-0.6119018554687501,5.500985717773438
6.0190000000000055,6.513195800781251,0.0719268798828125,7.309475708007813
6.0190000000000055,5.050582885742188,1.09759521484375,8.446697998046876
6.033000000000016,5.3451690673828125,1.3329650878906252,9.170602416992187
6.037000000000035,6.807632446289063,1.308441162109375,7.929452514648438
6.048999999999978,7.477703857421876,0.7457366943359376,5.658895874023438
6.062000000000019,7.910012817382813,0.393878173828125,5.743084716796876
6.067000000000007,7.510003662109375,0.061907958984375,5.518930053710938
6.080000000000041,6.644338989257813,-0.7309326171875,7.063937377929688
6.086999999999989,6.710882568359375,-1.5053802490234376,7.500433349609375
6.097999999999956,6.812716674804688,-1.8532012939453129,7.545742797851563
6.106999999999978,6.258236694335938,-0.9081329345703124,7.342822265625
6.116999999999969,5.594894409179688,0.380718994140625,7.198669433593751
6.126999999999953,7.028945922851563,1.36556396484375,7.859469604492188
6.136999999999944,7.255941772460938,1.6060180664062502,6.598281860351563
6.146999999999935,7.606753540039063,1.552484130859375,5.563192749023438
6.157000000000039,7.370486450195313,0.907086181640625,5.292681884765625
6.16700000000003,7.419085693359375,-0.439935302734375,6.658096313476563
6.177000000000028,6.9327941894531255,-1.6007843017578127,7.559799194335938
6.187000000000019,6.373977661132813,-1.9774658203125,7.902536010742188
6.197000000000003,5.334103393554688,-1.8004150390625002,7.044198608398438
6.206999999999994,7.038665771484376,-1.0080230712890623,7.349102783203126
6.22199999999998,7.466787719726563,-0.05682373046875,6.636114501953125
6.226999999999975,8.025604248046875,1.01026611328125,5.7673095703125
6.2409999999999854,7.264016723632813,1.8060974121093751,5.4348907470703125
6.249000000000024,6.898550415039063,1.7589935302734376,6.5484863281250005
6.26400000000001,6.343322753906251,1.2780853271484376,8.178430175781251
6.266999999999939,5.832058715820313,0.29010009765625,8.457464599609375
6.27699999999993,5.676840209960938,-0.5265167236328125,7.816552734375
6.287000000000035,5.803646850585938,-1.5070251464843751,6.505419921875
6.2970000000000255,8.80767822265625,-1.77230224609375,6.380258178710938
6.322999999999979,9.047683715820312,-1.01923828125,4.9110656738281255
6.322999999999979,8.636907958984375,-1.7963775634765626,5.192642211914063
6.340000000000032,5.67100830078125,0.3623260498046875,6.1806274414062505
6.340000000000032,5.034283447265626,1.3986114501953126,8.805734252929689
6.346000000000004,5.614035034179688,1.9948120117187504,10.032827758789065
6.3559999999999945,6.124102783203125,1.5622039794921876,8.699563598632814
6.3659999999999854,7.667315673828125,0.972882080078125,5.304495239257813
6.375999999999976,7.2507080078125,0.631939697265625,5.672802734375001
6.385999999999967,7.307681274414063,0.2564544677734375,5.8356475830078125
6.395999999999958,7.398449707031251,-0.6476409912109375,7.4202819824218755
6.405999999999949,7.363009643554688,-2.129244995117188,6.333901977539063
6.41599999999994,7.070217895507813,-2.623162841796875,5.998941040039063
6.425999999999931,6.284255981445313,-1.5318481445312502,7.638754272460938
6.436000000000036,5.245877075195313,0.16568603515625,8.24542236328125
6.446000000000026,6.525607299804688,1.225,8.485128784179688
6.456999999999994,7.266857910156251,1.394873046875,6.408370971679688
6.466000000000008,8.321237182617189,1.6855712890625,4.231423950195313
6.475999999999999,7.085470581054688,1.634130859375,5.556912231445313
6.48599999999999,7.292877197265626,0.7720550537109375,7.247567749023438
6.495999999999974,6.307284545898438,-0.5172454833984376,8.82861328125
6.505999999999979,5.875573730468751,-1.6185791015625002,7.703054809570313
6.51599999999997,5.931649780273438,-1.6230651855468752,7.03477783203125
6.525999999999954,6.366500854492188,-1.35419921875,7.205548095703126
6.5359999999999445,7.922125244140625,-0.5763122558593751,6.958364868164063
6.545999999999935,7.964144897460938,0.1556671142578125,5.643942260742188
6.55600000000004,7.912255859375,0.6495849609375001,4.649078369140625
6.566000000000024,7.51927490234375,0.8776275634765626,5.16318359375
6.576000000000022,6.638058471679688,0.69803466796875,8.061492919921875
6.58600000000002,5.881405639648438,0.47313232421875,8.529690551757813
6.596000000000004,4.705303955078126,-0.1134979248046875,8.5857666015625
6.6059999999999945,6.413156127929688,-0.5402740478515625,7.303643798828125
6.6159999999999854,7.319644165039063,-0.99591064453125,6.600375366210938
6.625999999999976,8.848800659179688,-0.6615478515625001,6.090756225585938
6.635999999999967,8.336639404296875,0.0873291015625,5.177090454101563
6.645999999999958,5.99041748046875,0.72315673828125,6.002978515625
6.655999999999949,6.003726196289063,0.8498138427734375,7.481442260742188
6.66599999999994,6.318499755859375,0.6488372802734376,9.367840576171876
6.675999999999931,6.37442626953125,0.325689697265625,7.970425415039063
6.686000000000036,6.792977905273438,0.05443115234375,6.848455810546875
6.696000000000026,6.7602294921875,0.15013427734375,5.535977172851563
6.706000000000017,7.60062255859375,0.092413330078125,6.589459228515626
6.716000000000008,7.249661254882813,-0.37742919921875,6.553121948242188
6.725999999999999,8.1527099609375,-0.9021514892578124,6.485531616210938
6.73599999999999,6.546243286132813,-0.9972564697265626,5.822787475585938
6.745999999999974,5.728131103515626,-0.305950927734375,7.69991455078125
6.755999999999979,5.710784912109375,0.4945159912109375,8.884689331054688
6.76599999999997,6.455325317382813,0.73870849609375,8.7628173828125
6.775999999999954,6.929953002929688,0.8581878662109376,5.932696533203125
6.7859999999999445,7.771841430664063,0.739605712890625,4.9025421142578125
6.795999999999935,7.746270751953125,0.2835205078125,5.4673400878906255
6.80600000000004,7.823730468750001,-0.3072967529296875,7.064236450195313
6.816000000000024,6.786846923828126,-0.8508605957031251,7.0883117675781255
6.826000000000022,5.898452758789063,-1.3509094238281252,7.237399291992188
6.83600000000002,6.127093505859375,-1.374087524414063,6.795071411132813
6.846000000000004,6.8678955078125,-0.6271545410156251,8.360415649414064
6.8559999999999945,7.1526123046875005,0.2723052978515625,6.894662475585938
6.8659999999999854,6.9268127441406255,1.0319488525390623,6.36246337890625
6.875999999999976,7.56832275390625,1.3983123779296875,5.523565673828125
6.885999999999967,6.816006469726563,1.313226318359375,6.524411010742188
6.894999999999982,6.981991577148438,0.9416290283203126,7.628436279296875
6.905999999999949,5.6560546875,-0.00478515625,7.625744628906251
6.91599999999994,6.341229248046876,-1.149932861328125,6.710433959960938
6.9249999999999545,7.281512451171875,-1.8753326416015623,6.967785644531251
6.934999999999945,8.359817504882812,-1.9300628662109376,6.3295654296875
6.944999999999936,7.937527465820313,-0.8505615234375,6.424819946289063
6.955000000000041,6.091653442382813,0.43724365234375,6.390277099609375
6.965000000000032,5.790786743164063,1.2707580566406251,6.914251708984375
6.975000000000023,6.586019897460938,1.798321533203125,8.843716430664063
6.985000000000021,6.594992065429688,1.3390960693359375,7.114929199218751
6.9950000000000045,7.424169921875,0.892132568359375,7.095938110351563
7.004999999999996,6.454129028320313,0.429168701171875,6.246423339843751
7.014999999999986,6.586318969726563,0.145648193359375,6.7413879394531255
7.024999999999977,6.900045776367188,-0.6113037109375,7.82193603515625
7.034999999999968,7.792477416992188,-1.712039184570313,6.224591064453126
7.044999999999959,7.327120971679688,-1.8926788330078128,5.552276611328125
7.05499999999995,6.677835083007813,-1.12630615234375,6.688601684570313
7.064999999999948,5.591305541992188,0.0536834716796875,7.512695312500001
7.074999999999939,6.9659912109375,0.7035675048828125,8.96439208984375
7.085000000000036,7.159042358398438,0.9124694824218752,6.071615600585938
7.095000000000027,7.629782104492188,1.0593139648437502,5.029348754882813
7.105000000000018,7.109396362304688,0.9506011962890626,5.601324462890625
7.115000000000009,7.195828247070313,0.6054718017578126,7.723690795898438
7.125,6.442016601562501,0.02811279296875,8.697918701171876
7.134999999999991,5.399749755859375,-0.579901123046875,7.636212158203126
7.144999999999982,6.163131713867188,-0.9212921142578124,6.597384643554688
7.15499999999998,7.195230102539063,-1.0232757568359376,7.055264282226563
7.164999999999971,8.064932250976563,-0.533544921875,6.743780517578125
7.1749999999999545,7.322784423828126,-0.122021484375,5.698822021484375
7.184999999999945,7.514340209960938,0.1688262939453125,5.33365478515625
7.194999999999936,7.270446777343751,0.26737060546875,5.953930664062501
7.205000000000041,6.690695190429688,0.2746978759765625,8.027249145507813
7.215000000000032,6.064138793945313,0.437542724609375,7.875619506835938
7.225000000000023,5.4120117187500005,0.136676025390625,8.130578613281251
7.235000000000021,6.759780883789063,-0.3360076904296875,6.088214111328125
7.245000000000003,7.49534912109375,-0.6069671630859376,6.798809814453126
7.2549999999999955,8.387631225585938,-0.7064086914062501,6.111093139648438
7.264999999999986,7.508209228515626,-0.436944580078125,5.681924438476563
7.274999999999977,7.236502075195313,0.2603424072265625,7.250408935546876
7.284999999999968,4.6707611083984375,1.0636505126953126,7.729522705078126
7.294999999999959,5.774487304687501,1.2587951660156251,8.734555053710938
7.30499999999995,6.99051513671875,0.934002685546875,8.066278076171876
7.314999999999948,7.435684204101563,0.2681182861328125,5.794375610351563
7.324999999999939,7.55516357421875,0.02572021484375,5.819796752929688
7.335000000000036,7.231567382812501,0.0411224365234375,5.899050903320313
7.343999999999937,6.629086303710938,-0.48330078125,7.274484252929688
7.354000000000049,6.701162719726563,-1.07008056640625,7.666268920898438
7.365000000000009,7.204949951171876,-1.3603302001953126,6.715518188476563
7.375,6.339883422851563,-0.6113037109375,7.0473388671875
7.3840000000000146,5.569174194335938,0.4810577392578125,7.053768920898438
7.394000000000005,7.287045288085938,1.1384185791015626,8.245571899414063
7.40499999999998,6.962551879882813,1.0585662841796877,6.686358642578125
7.414999999999971,7.743878173828126,0.8320190429687501,5.110397338867188
7.423999999999978,7.422674560546875,0.351708984375,5.4562744140625
7.433999999999969,7.256390380859376,-0.6228179931640625,6.957467651367188
7.44399999999996,6.68486328125,-1.0913146972656251,7.819244384765626
7.453999999999944,6.157000732421875,-1.347320556640625,7.916442871093751
7.463999999999942,6.139355468750001,-1.2936370849609375,6.266162109375
7.47399999999994,6.877914428710938,-0.61429443359375,7.230072021484376
7.484000000000037,7.566229248046875,0.3464752197265625,6.998739624023438
7.494000000000028,7.022964477539063,1.2368133544921875,6.410015869140626
7.504000000000019,7.481143188476563,1.4356964111328123,6.013745117187501
7.51400000000001,6.752453613281251,1.0652954101562502,6.232516479492188
7.523999999999994,6.690246582031251,0.6314910888671875,7.754345703125001
7.533999999999992,5.8680969238281255,0.0011962890625,7.913003540039063
7.543999999999983,5.7783752441406255,-0.8363555908203125,7.443161010742188
7.553999999999981,7.7076904296875,-1.6924499511718751,6.139804077148438
7.5639999999999645,7.645782470703126,-1.9835968017578127,5.950939941406251
7.573999999999955,9.089404296875,-1.2682159423828123,5.812020874023438
7.583999999999946,6.726583862304688,0.1878173828125,6.561346435546875
7.593999999999937,5.2648681640625,1.2677673339843751,7.358523559570313
7.604000000000049,5.607754516601563,1.79921875,8.668460083007814
7.614000000000033,6.520822143554688,1.6878143310546876,8.550027465820314
7.624000000000024,7.342373657226563,1.19449462890625,6.692340087890625
7.6340000000000146,7.417739868164063,0.7108947753906251,6.172851562500001
7.644000000000005,6.423025512695313,0.161798095703125,5.513995361328125
7.653999999999996,7.557855224609375,-0.5522369384765625,7.312466430664063
7.663999999999987,6.808828735351563,-1.6914031982421875,6.968234252929688
7.673999999999978,7.6819702148437505,-2.147787475585938,6.855184936523438
7.683999999999969,6.4049316406250005,-1.642803955078125,6.282312011718751
7.69399999999996,5.8381896972656255,-0.3225494384765625,7.318298339843751
7.703999999999944,6.280667114257813,0.8291778564453126,8.224636840820313
7.713999999999942,7.430300903320313,1.305450439453125,7.6837646484375
7.72399999999994,7.641744995117188,1.5352874755859376,4.729678344726563
7.734000000000037,7.416543579101563,1.1931488037109377,5.1021728515625
7.744000000000028,7.26207275390625,0.6584075927734375,6.603515625000001
7.754000000000019,6.464447021484376,-0.126806640625,8.944204711914063
7.76400000000001,5.983688354492188,-0.80390625,8.084521484375001
7.773999999999994,5.391375732421875,-1.2897491455078125,7.529592895507813
7.783999999999992,6.953280639648438,-1.4485565185546876,6.124102783203125
7.793999999999983,7.809075927734375,-0.7774383544921876,7.036721801757813
7.803999999999981,8.022164916992189,-0.0342437744140625,5.669812011718751
7.8139999999999645,7.311270141601563,0.4768707275390625,5.501583862304688
7.823999999999955,7.7232421875,0.6717163085937501,5.533883666992188
7.83299999999997,6.3929687500000005,0.4966094970703125,7.130929565429688
7.843999999999937,6.349154663085938,0.578106689453125,8.530886840820314
7.852999999999952,4.844073486328125,0.14295654296875,8.378060913085939
7.864000000000033,6.8320068359375,-0.33974609375,7.102667236328125
7.872999999999941,6.880456542968751,-0.9437225341796877,6.192889404296875
7.883000000000038,8.678628540039064,-1.05572509765625,6.193637084960938
7.893000000000029,8.332452392578126,-0.4342529296875,5.640353393554688
7.903999999999996,6.797164916992188,0.466253662109375,6.7548461914062505
7.913999999999987,4.9219818115234375,1.1240631103515626,7.219006347656251
7.923000000000002,5.639904785156251,1.0706787109375,9.106301879882814
7.932999999999993,7.178781127929688,0.9852935791015626,8.310769653320314
7.942999999999984,6.977206420898438,0.453094482421875,6.492858886718751
7.9529999999999745,7.254595947265625,0.2178741455078125,5.516238403320313
7.962999999999965,7.265362548828126,-0.0216827392578125,5.7997589111328125
7.972999999999956,7.0712646484375,-0.5419189453125001,7.226931762695313
7.982999999999947,7.148574829101563,-1.10238037109375,7.048535156250001
7.992999999999938,7.0584045410156255,-1.454388427734375,6.762921142578126
8.002999999999929,6.115728759765625,-0.8845062255859376,6.721499633789063
8.013000000000034,5.73321533203125,0.26856689453125,7.746270751953125
8.023000000000025,6.831259155273438,1.2338226318359375,8.627038574218751
8.033000000000015,6.8798583984375,1.3568908691406252,6.788641357421875
8.043000000000006,7.420132446289063,1.0923614501953125,4.938580322265626
8.052999999999997,8.165270996093751,0.48270263671875,5.2206054687500005
8.062999999999988,7.274484252929688,-0.4341033935546875,6.832156372070313
8.072999999999979,6.830960083007813,-0.9377410888671877,7.872329711914063
8.08299999999997,5.685214233398438,-1.448406982421875,7.639352416992188
8.092999999999961,6.077597045898438,-1.6505798339843751,6.875970458984376
8.102999999999952,7.36734619140625,-1.0851837158203126,6.879559326171876
8.112999999999943,7.413552856445313,-0.040972900390625,7.076049804687501
8.12299999999994,7.15440673828125,1.1264556884765626,5.918191528320313
8.133000000000038,6.972271728515626,1.6558135986328126,6.340780639648438
8.143000000000029,7.283306884765626,1.4892303466796877,6.538766479492188
8.15300000000002,6.199468994140625,0.94088134765625,7.637258911132813
8.163000000000011,6.431997680664063,0.3303253173828125,7.7791687011718755
8.173000000000002,5.337393188476563,-0.4744781494140625,7.666268920898438
8.182999999999993,6.680227661132813,-1.5158477783203126,6.561645507812501
8.192999999999984,8.3632568359375,-1.879519653320313,6.505569458007813
8.202999999999975,9.025253295898438,-1.807443237304688,5.142098999023438
8.212999999999965,7.744476318359376,-0.6377716064453125,5.355337524414063
8.222999999999956,5.652316284179688,0.65018310546875,7.171005249023438
8.232999999999947,5.414404296875,1.5518859863281251,8.67249755859375
8.242999999999938,5.7768798828125005,1.9982513427734376,9.70594177246094
8.252999999999929,6.752005004882813,1.3603302001953126,6.853839111328125
8.263000000000034,7.671652221679688,0.7723541259765626,5.99041748046875
8.273000000000025,6.9103637695312505,0.4816558837890625,5.914154052734375
8.283000000000015,7.107901000976563,0.185723876953125,6.565682983398438
8.293000000000006,6.965243530273438,-1.0169952392578123,7.490863037109375
8.302999999999997,7.860516357421876,-2.3179595947265628,6.07176513671875
8.312999999999988,6.880456542968751,-2.2590423583984376,5.884396362304688
8.322999999999979,6.039315795898438,-0.9517974853515626,7.68974609375
8.33299999999997,5.3749267578125,0.4541412353515625,8.0043701171875
8.342999999999961,7.200164794921876,1.0413696289062502,8.701507568359375
8.352999999999952,7.6116882324218755,1.22918701171875,5.219857788085938
8.362999999999943,7.787542724609375,1.505828857421875,4.5287017822265625
8.37299999999994,7.145733642578126,1.3283294677734376,5.996548461914063
8.381999999999948,6.888531494140626,0.4568328857421875,8.157644653320313
8.391999999999939,6.244180297851563,-0.56763916015625,8.642440795898438
8.40199999999993,5.51549072265625,-1.2392059326171876,7.487124633789063
8.412000000000035,6.182870483398438,-1.4726318359375,6.606954956054688
8.422000000000025,7.103414916992188,-1.1325866699218752,7.42955322265625
8.432000000000016,8.020968627929689,-0.2699127197265625,6.578842163085938
8.442000000000007,7.549929809570313,0.2594451904296875,5.385842895507813
8.451999999999998,8.003771972656251,0.4984039306640625,4.606460571289063
8.461999999999989,7.297811889648438,0.4646087646484375,5.890078735351563
8.47199999999998,6.412258911132813,0.5363861083984376,8.495446777343751
8.481999999999978,5.5495849609375005,0.5045349121093751,8.585317993164063
8.491999999999969,5.346066284179688,0.0873291015625,8.635263061523439
8.501999999999953,6.119915771484376,-0.4625152587890625,6.378164672851563
8.511999999999944,7.972369384765625,-0.4988525390625,6.4491943359375
8.521999999999935,8.094091796875,-0.5537322998046875,5.508761596679688
8.532000000000039,8.142092895507814,-0.646893310546875,5.438330078125
8.54200000000003,7.876068115234376,-0.2645294189453125,6.6995178222656255
8.552000000000028,5.3571319580078125,0.5612091064453125,7.574005126953126
8.562000000000019,5.20206298828125,1.1759521484375002,8.769546508789062
8.572000000000003,5.745327758789063,1.1267547607421875,8.768798828125
8.581999999999994,7.354635620117188,0.4318603515625,6.638058471679688
8.591999999999985,8.213720703125,-0.0602630615234375,5.749066162109376
8.601999999999975,7.242782592773438,0.0958526611328125,5.212231445312501
8.611999999999966,6.8026977539062505,0.0758148193359375,6.810174560546876
8.621999999999957,6.569570922851563,-0.67530517578125,7.649221801757813
8.631999999999948,7.701858520507813,-1.4276214599609376,6.826922607421875
8.641999999999939,6.543701171875001,-1.2299346923828125,6.703854370117188
8.65199999999993,5.574856567382813,-0.0369354248046875,7.019226074218751
8.662000000000035,6.12559814453125,1.0489959716796875,8.500979614257814
8.672000000000025,7.093695068359375,1.104473876953125,7.932144165039063
8.682000000000016,7.657147216796876,0.92772216796875,5.459414672851563
8.692000000000007,7.598678588867188,0.5399749755859375,4.634124755859375
8.701999999999998,7.71427001953125,-0.0779083251953125,6.026904296875
8.711999999999989,6.847409057617188,-0.708502197265625,7.703652954101563
8.72199999999998,6.272442626953126,-1.161746215820313,8.340826416015625
8.731999999999978,5.804394531250001,-1.377227783203125,6.737051391601563
8.741999999999969,6.47252197265625,-1.000247192382813,7.066479492187501
8.751999999999953,7.58865966796875,-0.1580596923828125,6.9791503906250005
8.761999999999944,7.100125122070313,0.8608795166015626,6.991860961914063
8.771999999999935,7.374224853515625,1.5218292236328126,5.969033813476563
8.782000000000039,6.779370117187501,1.3319183349609376,5.86002197265625
8.79200000000003,7.156948852539063,0.6802398681640626,6.838287353515626
8.802000000000028,6.341976928710938,-0.0264678955078125,7.7761779785156255
8.812000000000019,5.644390869140626,-0.6616973876953125,7.658493041992188
8.822000000000003,6.890774536132813,-1.364068603515625,6.928009033203126
8.831999999999994,7.494003295898438,-1.9975036621093751,6.491812133789063
8.841000000000008,9.126638793945313,-1.2522155761718752,6.021371459960938
8.850999999999999,6.568524169921876,0.3530548095703125,6.379510498046876
8.86099999999999,5.674447631835938,1.320404052734375,6.555215454101563
8.870999999999974,6.286947631835938,1.6288970947265626,8.303890991210938
8.880999999999979,6.601422119140626,1.1653350830078126,7.948742675781251
8.89099999999997,7.102966308593751,0.8122802734375001,7.016384887695313
8.900999999999954,6.858773803710938,0.5390777587890625,7.0449462890625005
8.910999999999945,6.017782592773438,0.1535736083984375,6.116925048828126
8.920999999999935,7.4205810546875,-0.3363067626953125,7.582528686523438
8.93100000000004,7.4202819824218755,-1.3752838134765626,6.222946166992188
8.941000000000024,7.767803955078126,-1.6978332519531252,5.8680969238281255
8.951000000000022,6.681124877929688,-1.274346923828125,6.404483032226563
8.96100000000002,6.042007446289063,-0.310137939453125,7.246969604492188
8.971000000000004,6.406576538085938,0.4329071044921875,8.463595581054689
8.980999999999995,6.776379394531251,0.6705200195312501,7.335195922851563
8.990999999999985,7.482040405273438,1.0832397460937502,5.514443969726563
9.000999999999976,7.009805297851563,1.0830902099609376,5.744879150390625
9.010999999999967,7.391720581054688,0.8439819335937501,6.7721923828125
9.020999999999958,6.733612060546876,0.2588470458984375,8.290582275390626
9.030999999999947,6.089111328125,-0.3865509033203125,7.285250854492188
9.04099999999994,6.103018188476563,-0.7810272216796875,7.084124755859375
9.05099999999993,6.87926025390625,-1.22021484375,6.696228027343751
9.061000000000035,7.40084228515625,-0.871197509765625,7.294522094726563
9.071000000000026,7.303045654296875,-0.3572418212890625,6.076998901367188
9.081000000000016,7.368991088867188,0.045458984375,5.791085815429688
9.091000000000008,7.846160888671876,0.2014251708984375,5.589361572265625
9.101,6.628936767578126,0.337353515625,7.1095458984375
9.11099999999999,6.375772094726563,0.791943359375,7.821038818359375
9.120999999999974,5.375225830078126,0.6237152099609375,8.248562622070313
9.13099999999998,6.481045532226563,-0.1131988525390625,6.842175292968751
9.14099999999997,7.297064208984375,-0.6643890380859375,6.499139404296876
9.150999999999954,7.961303710937501,-0.8134765625000001,6.189151000976563
9.160999999999945,7.572958374023438,-0.705810546875,6.071615600585938
9.170999999999935,7.87218017578125,-0.17406005859375,7.033581542968751
9.18100000000004,5.303598022460938,0.587078857421875,7.053768920898438
9.191000000000024,5.637960815429688,1.1405120849609376,8.189794921875
9.201000000000022,6.329864501953126,1.122866821289063,8.219104003906251
9.21100000000002,7.597482299804688,0.5902191162109376,7.136611938476563
9.221000000000004,7.6454833984375,0.1658355712890625,5.63870849609375
9.230999999999996,6.674545288085938,0.1589569091796875,5.6636810302734375
9.240999999999984,6.971524047851563,-0.137872314453125,7.029843139648438
9.250999999999976,6.641497802734375,-0.9932189941406252,7.77169189453125
9.260999999999967,7.843618774414063,-1.5219787597656251,6.763369750976563
9.270999999999958,6.320443725585938,-1.0972961425781251,6.478802490234376
9.28200000000004,5.673849487304688,0.1997802734375,7.0832275390625
9.29099999999994,6.0584564208984375,1.092959594726563,8.562289428710939
9.30099999999993,7.613781738281251,1.2858612060546877,7.970126342773438
9.311000000000035,7.053469848632813,1.0741180419921876,5.196978759765625
9.321000000000026,7.776028442382813,0.702520751953125,4.7171173095703125
9.33000000000004,7.223941040039063,-0.1897613525390625,6.017782592773438
9.340000000000032,7.528097534179688,-1.059014892578125,8.106353759765625
9.350000000000025,6.319845581054688,-1.4765197753906252,7.713223266601563
9.36099999999999,5.725439453125,-1.5782043457031252,6.899447631835938
9.370999999999974,6.272293090820313,-1.125408935546875,6.588412475585938
9.379999999999995,7.904180908203125,-0.1565643310546875,7.569369506835938
9.39099999999997,7.274484252929688,0.864019775390625,6.567626953125001
9.400999999999954,7.278521728515625,1.5980926513671876,5.968435668945313
9.409999999999968,6.505718994140626,1.5840362548828126,5.726336669921875
9.41999999999996,7.134219360351563,1.185671997070313,7.689147949218751
9.42999999999995,6.158047485351563,0.4035980224609375,8.074203491210938
9.439999999999948,5.4483489990234375,-0.4385894775390625,7.859020996093751
9.44999999999994,6.907073974609376,-1.4132659912109375,6.0928497314453125
9.460000000000036,7.479199218750001,-2.150778198242188,6.428408813476563
9.470000000000027,9.401785278320313,-1.8916320800781248,5.7469726562500005
9.480000000000018,7.448843383789063,-0.5525360107421875,6.220703125000001
9.490999999999984,5.600128173828125,0.7539611816406251,6.529046630859376
9.5,5.481546020507813,1.5705780029296876,7.904330444335938
9.509999999999993,6.399996948242188,1.7679656982421876,9.250753784179688
9.519999999999982,6.800604248046875,1.412518310546875,7.280465698242188
9.52999999999998,7.480545043945313,1.102978515625,6.624600219726563
9.53999999999997,6.135467529296876,0.5333953857421876,5.478704833984375
9.549999999999956,7.679577636718751,-0.0299072265625,6.896008300781251
9.559999999999944,6.7123779296875,-1.1620452880859375,7.327270507812501
9.569999999999936,8.12579345703125,-2.1114501953125,6.516036987304688
9.58000000000004,6.4916625976562505,-2.153170776367188,5.6173248291015625
9.591000000000008,6.451287841796876,-1.0995391845703126,7.240390014648438
9.600000000000025,5.8322082519531255,0.1607513427734375,8.085568237304688
9.61000000000002,7.012796020507813,1.0014434814453126,8.636758422851564
9.620000000000005,7.277474975585938,1.3942749023437502,5.175445556640625
9.629999999999995,7.5488830566406255,1.463809204101563,5.387188720703126
9.639999999999986,7.267306518554688,1.280029296875,5.874676513671876
9.649999999999975,6.948944091796876,0.63343505859375,8.274581909179688
9.659999999999968,6.131878662109376,-0.3518585205078125,8.137457275390625
9.66999999999996,5.620465087890626,-1.0253692626953126,7.666268920898438
9.67999999999995,6.286349487304688,-1.4917724609375,6.489569091796875
9.691000000000024,7.579238891601563,-1.320703125,7.236502075195313
9.69999999999994,7.760626220703125,-0.6395660400390626,6.112887573242188
9.710000000000036,7.440170288085938,0.012261962890625,5.77030029296875
9.720000000000027,7.739093017578125,0.4768707275390625,4.9937591552734375
9.730000000000018,7.274484252929688,0.5037872314453126,6.356182861328126
9.740000000000007,6.600225830078125,0.6341827392578125,8.024258422851563
9.75,5.327523803710938,0.6791931152343751,8.443856811523439
9.759999999999993,5.517733764648438,0.3002685546875,8.051473999023438
9.769999999999982,6.691741943359376,-0.3696533203125,6.590057373046876
9.77999999999998,7.860665893554688,-0.8354583740234376,6.446652221679688
9.79099999999994,8.139102172851564,-0.9283203125,5.744131469726563
9.799999999999956,8.422473144531251,-0.4864410400390625,5.774038696289063
9.809999999999944,6.4408203125000005,0.24822998046875,6.716415405273438
9.81899999999996,4.8019042968750005,0.795233154296875,7.870236206054688
9.828999999999944,5.982791137695313,0.9975555419921877,9.039907836914065
9.838999999999942,6.958364868164063,0.8456268310546876,8.303292846679689
9.850000000000025,7.465591430664063,0.4678985595703125,5.749813842773438
9.86000000000002,6.887783813476563,0.3910369873046875,5.625698852539063
9.869000000000028,7.633969116210938,0.248529052734375,6.030044555664063
9.87900000000002,6.805838012695313,-0.491375732421875,7.224090576171876
9.89099999999997,7.681072998046876,-1.31531982421875,6.912008666992188
9.898999999999994,6.540411376953125,-1.64130859375,6.5275512695312505
9.908999999999992,6.1381591796875,-0.7484283447265625,7.308728027343751
9.918999999999984,5.377169799804688,0.4490570068359375,8.091848754882813
9.92899999999998,7.218109130859376,1.1236145019531252,8.355331420898438
9.938999999999965,6.899597167968751,1.152774047851563,6.346014404296875
9.948999999999955,8.0522216796875,1.2075042724609375,4.716220092773438
9.958999999999946,7.031637573242188,0.7397552490234376,5.3646087646484375
9.968999999999935,7.71187744140625,-0.2567535400390625,7.401290893554688
9.979000000000047,6.591253662109375,-1.1662322998046877,7.79202880859375
9.990999999999984,6.614880371093751,-1.6812347412109376,7.395758056640625
9.999000000000024,5.373431396484375,-1.7850128173828126,6.230422973632813
10.009000000000016,7.286746215820313,-0.8653656005859376,7.788290405273438
10.019000000000004,7.110293579101563,0.17705078125,7.294223022460938
10.028999999999996,7.600173950195313,1.127801513671875,6.365753173828126
10.038999999999987,7.120761108398438,1.4958099365234376,5.100079345703126
10.048999999999978,7.137210083007813,1.4895294189453123,6.303695678710938
10.058999999999967,6.4707275390625005,1.19449462890625,7.912554931640625
10.06899999999996,5.481396484375001,0.18243408203125,8.318096923828126
10.078999999999944,6.955972290039063,-0.9715362548828126,7.006964111328125
10.091000000000008,6.256442260742188,-2.112347412109376,6.689947509765625
10.09899999999994,9.102713012695313,-1.849313354492188,6.119915771484376
10.109000000000036,7.687802124023438,-0.6407623291015625,6.472372436523438
10.119000000000028,5.817105102539063,0.1404144287109375,5.997894287109375
10.12900000000002,6.506765747070313,0.8967681884765626,6.669012451171875
10.13900000000001,6.449343872070313,1.1769989013671875,8.840127563476564
10.148999999999994,7.260427856445313,1.2601409912109376,7.275082397460938
10.158999999999992,6.298162841796875,1.305450439453125,7.890274047851563
10.168999999999984,5.9323974609375005,0.9996490478515626,5.7937774658203125
10.17899999999998,7.204949951171876,0.4382904052734375,7.182968139648438
10.191000000000024,7.615127563476563,-0.8551971435546876,6.675143432617188
10.198999999999955,7.962350463867188,-1.791741943359375,6.153411865234376
10.208999999999946,6.893615722656251,-1.8209014892578128,5.87138671875
10.218999999999935,5.6141845703125,-1.0047332763671877,7.24532470703125
10.229000000000047,6.300704956054688,-0.22191162109375,8.157495117187501
10.239000000000033,6.842623901367188,0.24583740234375,8.62225341796875
10.249000000000024,7.854534912109376,0.8907867431640626,4.762725830078125
10.259000000000016,7.053469848632813,1.1692230224609377,5.25589599609375
10.269000000000004,7.646679687500001,1.29019775390625,6.029446411132813
10.278999999999996,6.590805053710938,0.7729522705078126,8.325274658203126
10.288999999999987,6.512149047851563,0.0934600830078125,8.343368530273438
10.298999999999978,5.353543090820313,-0.6081634521484376,6.969281005859376
10.308999999999967,6.416595458984376,-1.0850341796875,7.013992309570313
10.317999999999984,7.274484252929688,-1.1384185791015626,7.215716552734375
10.327999999999976,7.880105590820313,-0.5866302490234375,6.700265502929688
10.337999999999964,7.147976684570313,-0.1745086669921875,5.528201293945313
10.347999999999956,7.665521240234375,0.1547698974609375,5.153314208984376
10.357999999999947,7.309027099609375,0.3241943359375,6.382052612304688
10.369000000000028,6.817202758789063,0.44322509765625,7.9565185546875
10.37900000000002,5.756243896484375,0.46356201171875,7.6478759765625
10.388000000000034,5.428460693359376,0.0059814453125,7.602566528320313
10.398000000000025,7.298709106445313,-0.3760833740234375,6.783706665039063
10.408000000000015,7.178482055664063,-0.7379608154296875,6.930551147460938
10.418000000000006,8.280563354492188,-0.441729736328125,6.301303100585938
10.427999999999995,7.830758666992188,0.1792938232421875,6.178384399414063
10.437999999999988,5.232717895507813,0.7796813964843751,6.321789550781251
10.44799999999998,6.146981811523438,0.8589355468750001,7.786645507812499
10.45799999999997,6.836343383789063,0.655865478515625,9.04693603515625
10.46799999999996,6.998739624023438,0.2005279541015625,6.940719604492188
10.477999999999952,6.877316284179688,0.04306640625,6.320144653320313
10.487999999999944,6.567178344726563,0.158209228515625,5.796170043945313
10.49799999999994,7.217062377929688,0.005682373046875,7.231567382812501
10.508000000000038,7.426412963867188,-0.6563140869140626,7.103414916992188
10.518000000000027,7.742980957031251,-1.1455963134765623,6.13157958984375
10.52800000000002,6.579141235351563,-0.9194976806640626,5.7134765625
10.538000000000013,5.614633178710938,0.0160003662109375,7.831057739257813
10.548000000000002,6.319845581054688,0.7704101562500001,8.72991943359375
10.557999999999993,6.740341186523438,0.7627838134765625,8.377462768554688
10.567999999999984,7.308578491210938,0.7511199951171875,4.981497192382813
10.577999999999976,7.129583740234375,0.5710784912109376,5.20684814453125
10.587999999999964,7.815505981445313,0.2678192138671875,6.6920410156250005
10.597999999999956,6.927261352539063,-0.4029998779296875,7.719952392578126
10.607999999999947,7.139154052734376,-0.9428253173828126,7.010253906250001
10.617999999999938,5.365805053710938,-1.409527587890625,6.384146118164063
10.627999999999927,7.250259399414063,-1.1448486328125,6.714620971679688
10.638000000000034,6.784454345703126,-0.4511505126953125,8.149868774414063
10.648000000000025,7.428506469726563,0.443524169921875,6.825875854492188
10.658000000000015,6.4994384765625,0.941778564453125,5.8905273437500005
10.668000000000006,7.635763549804688,1.1249603271484376,6.09569091796875
10.677999999999995,6.691891479492188,1.1222686767578125,6.88883056640625
10.687999999999988,6.000286865234376,0.8928802490234375,8.282955932617188
10.69799999999998,6.279171752929688,-0.0267669677734375,6.650769042968751
10.70799999999997,7.042703247070313,-1.3465728759765625,7.245623779296875
10.71799999999996,7.951733398437501,-2.0129058837890628,5.768206787109375
10.727999999999952,8.249160766601562,-1.0830902099609376,7.001580810546876
10.737999999999944,6.102420043945313,-0.0653472900390625,6.564636230468751
10.74799999999994,5.62076416015625,0.3742889404296875,6.449044799804688
10.758000000000038,7.176089477539063,0.7856628417968751,8.182766723632813
10.768000000000027,6.746322631835938,0.8166168212890625,7.23814697265625
10.77800000000002,7.450936889648438,1.2535614013671876,7.141696166992188
10.788000000000013,5.732617187500001,1.0992401123046875,6.840829467773438
10.797000000000024,7.01085205078125,0.8807678222656251,6.463998413085938
10.807999999999993,6.706546020507813,-0.138470458984375,7.558901977539063
10.817999999999984,8.326470947265626,-1.188214111328125,6.348706054687501
10.826999999999998,6.514990234375,-1.6489349365234376,5.685214233398438
10.836999999999987,6.847857666015625,-1.239654541015625,7.486376953125
10.84699999999998,5.319897460937501,-0.5178436279296875,7.3006530761718755
10.856999999999978,7.434936523437501,0.0022430419921875,8.792276000976564
10.866999999999967,6.952383422851563,0.2708099365234375,5.4289093017578125
10.876999999999953,8.264862060546875,0.7427459716796876,5.202810668945313
10.886999999999944,6.703854370117188,0.9643585205078126,5.416647338867188
10.896999999999936,7.641296386718751,0.7865600585937501,7.5623413085937505
10.90700000000004,6.060400390625,0.3457275390625,8.617617797851564
10.91700000000003,5.692391967773438,-0.054730224609375,8.043548583984375
10.927000000000028,5.7065979003906255,-0.444122314453125,6.746920776367188
10.93700000000002,7.086367797851563,-0.7369140625,7.550228881835938
10.947000000000005,7.776028442382813,-0.5399749755859375,6.370239257812501
10.956999999999994,7.434637451171875,-0.2355194091796875,6.1686645507812505
10.966999999999985,7.497891235351563,-0.0459075927734375,5.039816284179688
10.976999999999975,7.519573974609376,-0.0557769775390625,5.93419189453125
10.986999999999966,6.714172363281251,-0.0225799560546875,7.646978759765625
10.996999999999955,6.180477905273438,0.1293487548828125,7.557257080078125
11.006999999999948,5.6816253662109375,-0.1356292724609375,7.50731201171875
11.01699999999994,7.0763488769531255,-0.42288818359375,6.702658081054688
11.02699999999993,6.969729614257813,-0.5585174560546875,6.887783813476563
11.037000000000036,7.961453247070313,-0.118731689453125,6.950888061523438
11.047000000000024,7.760028076171875,0.6657348632812501,6.512896728515625
11.057000000000016,5.5017333984375005,1.1355773925781252,6.384146118164063
11.067000000000007,6.042306518554688,1.044659423828125,7.288092041015625
11.076999999999998,6.906625366210938,0.6389678955078125,8.56961669921875
11.086999999999987,7.119564819335938,-0.0635528564453125,7.330859375
11.09699999999998,7.189248657226563,-0.4774688720703125,6.30264892578125
11.106999999999978,6.282760620117188,-0.39776611328125,5.933444213867188
11.116999999999967,7.1062561035156255,-0.215032958984375,7.212725830078125
11.126999999999953,6.78056640625,-0.4945159912109375,7.358673095703126
11.136999999999944,8.383593750000001,-0.81287841796875,6.374725341796876
11.146999999999936,6.686508178710938,-0.6569122314453125,5.333056640625
11.15700000000004,6.135916137695313,0.2726043701171875,7.230520629882813
11.16700000000003,5.70928955078125,1.0116119384765625,8.684011840820313
11.177000000000028,6.829165649414063,0.974676513671875,8.922372436523439
11.18700000000002,6.696826171875,0.6156402587890626,5.777178955078125
11.197000000000005,7.649371337890625,0.2286407470703125,5.1443420410156255
11.206999999999994,7.247418212890626,-0.155218505859375,5.9672393798828125
11.216999999999985,7.487274169921876,-0.5336944580078126,7.659091186523438
11.226,6.906326293945313,-0.8326171875,7.177285766601563
11.236999999999966,5.926715087890625,-1.2501220703125,6.586019897460938
11.245999999999974,7.123153686523438,-1.155615234375,5.90069580078125
11.256999999999948,6.9627014160156255,-0.4306640625,7.735354614257813
11.26599999999997,7.279418945312501,0.485394287109375,7.126293945312501
11.275999999999954,6.338687133789063,1.06649169921875,6.951486206054688
11.287000000000036,7.119863891601563,1.2092987060546876,6.04544677734375
11.295999999999935,6.468484497070313,1.117034912109375,6.871783447265625
11.307000000000016,6.883297729492188,0.8703002929687501,7.86978759765625
11.316000000000024,5.514593505859375,0.03828125,6.94864501953125
11.326000000000022,7.932891845703126,-1.0552764892578126,6.804641723632813
11.33600000000002,7.229025268554688,-2.166778564453125,5.636315917968751
11.346000000000004,9.231164550781251,-1.5550262451171877,6.603964233398438
11.356999999999978,5.841180419921876,-0.2729034423828125,6.924868774414063
11.366999999999967,5.24273681640625,0.481805419921875,7.228277587890625
11.375999999999976,6.727182006835938,1.0116119384765625,8.087512207031251
11.385999999999967,6.513195800781251,1.0149017333984376,7.844815063476563
11.395999999999958,7.945303344726563,1.2323272705078123,6.062344360351563
11.405999999999947,6.584225463867188,1.1940460205078125,7.087414550781251
11.41599999999994,6.510504150390625,0.8626739501953126,5.7877960205078125
11.42599999999993,6.806286621093751,0.0518890380859375,8.078240966796876
11.436000000000035,7.520172119140626,-1.2045135498046875,6.686358642578125
11.446000000000026,6.866549682617188,-1.9225860595703128,6.206796264648438
11.456000000000016,7.182369995117188,-1.5789520263671877,6.9462524414062505
11.466000000000008,5.486032104492188,-0.61309814453125,6.966439819335938
11.476,6.895858764648438,0.2495758056640625,8.16407470703125
11.48599999999999,6.58018798828125,0.5284606933593751,7.111788940429688
11.495999999999974,8.836389160156251,1.0923614501953125,5.058657836914063
11.50599999999998,6.259432983398438,0.9870880126953124,5.288345336914063
11.51599999999997,8.086764526367189,0.8553466796875001,6.5484863281250005
11.525999999999954,6.125448608398438,0.206060791015625,8.630029296875001
11.535999999999945,6.242984008789063,-0.4103271484375,8.359967041015626
11.545999999999935,5.346813964843751,-0.63642578125,7.046591186523438
11.55600000000004,6.458914184570313,-0.7657745361328125,7.359719848632813
11.566000000000024,7.519424438476563,-0.56943359375,6.674545288085938
11.576000000000022,8.268600463867188,-0.1655364990234375,6.430950927734376
11.58600000000002,7.326821899414063,-0.015252685546875,4.630685424804688
11.596000000000004,7.594790649414063,0.1855743408203125,5.677288818359376
11.605999999999996,6.868344116210938,0.1517791748046875,7.2408386230468755
11.615999999999984,6.271096801757813,0.0861328125,8.342620849609375
11.625999999999976,5.430703735351563,-0.14176025390625,7.602716064453125
11.635999999999967,6.406875610351563,-0.389990234375,6.938327026367188
11.645999999999958,7.283905029296876,-0.6012847900390625,6.48807373046875
11.655999999999947,8.12220458984375,-0.6578094482421876,6.8012023925781255
11.66599999999994,8.060745239257812,0.1978363037109375,6.1193176269531255
11.67599999999993,6.566729736328125,0.91097412109375,6.665423583984375
11.686000000000035,5.1178741455078125,1.4844451904296876,7.370486450195313
11.696000000000026,5.99041748046875,1.0005462646484375,8.36505126953125
11.706000000000016,7.292279052734376,0.440234375,8.214019775390625
11.715000000000032,7.373028564453126,-0.2486785888671875,5.992959594726563
11.726,6.792080688476563,-0.4725341796875,6.029446411132813
11.73599999999999,7.210482788085938,-0.336456298828125,6.217263793945313
11.745999999999974,6.484036254882813,-0.494964599609375,7.540509033203126
11.75599999999998,7.443759155273438,-0.7307830810546876,6.85234375
11.764999999999986,7.243380737304688,-0.92413330078125,6.479400634765626
11.774999999999975,6.749911499023438,-0.2564544677734375,6.165972900390625
11.784999999999968,5.420684814453125,0.703717041015625,7.571313476562499
11.79499999999996,7.057507324218751,1.2415985107421876,8.617767333984375
11.80600000000004,6.322537231445313,0.9589752197265624,7.427459716796876
11.814999999999948,7.597781372070313,0.581695556640625,5.289691162109375
11.82499999999994,7.194631958007813,-0.0638519287109375,5.298513793945313
11.83600000000002,8.143438720703125,-0.627752685546875,6.902737426757813
11.845000000000027,6.436483764648438,-0.9830505371093752,7.601818847656251
11.855999999999996,6.491213989257813,-1.0729217529296875,7.353588867187501
11.865000000000007,5.701513671875,-1.1991302490234377,6.340780639648438
11.875,8.042501831054688,-0.7011749267578126,6.944158935546875
11.884999999999993,6.8774658203125005,0.018841552734375,7.049581909179688
11.894999999999982,7.427459716796876,1.0205841064453125,6.658395385742188
11.90499999999998,6.0928497314453125,1.4569305419921876,6.295172119140625
11.91499999999997,7.217361450195313,1.244140625,7.200762939453125
11.924999999999956,6.453381347656251,0.727642822265625,7.34102783203125
11.934999999999944,6.663180541992188,0.2023223876953125,7.917788696289063
11.944999999999936,5.7110839843750005,-0.372943115234375,6.563140869140626
11.95500000000004,6.907821655273438,-1.3492645263671876,6.336743164062501
11.965000000000032,8.434436035156251,-1.7995178222656252,6.153860473632813
11.975000000000025,8.507409667968751,-2.0784027099609377,5.7433837890625
11.98500000000002,7.753598022460938,-0.7467834472656251,6.123056030273438
11.995000000000005,5.19010009765625,0.7820739746093751,7.555014038085938
12.004999999999995,5.541958618164063,1.783367919921875,8.746218872070314
12.014999999999986,5.721401977539063,2.1217681884765627,9.021365356445314
12.024999999999975,6.822286987304688,1.6097564697265627,6.738995361328126
12.034999999999968,8.177084350585938,0.9206939697265626,5.559603881835938
12.04499999999996,7.477554321289063,0.2020233154296875,6.1372619628906255
12.05499999999995,6.845315551757813,-0.2304351806640625,6.303396606445313
12.064999999999948,6.077896118164063,-0.97557373046875,8.100372314453125
12.07499999999994,6.89720458984375,-2.0318969726562504,6.721200561523438
12.085000000000036,7.448394775390626,-2.2073028564453128,6.980496215820313
12.095000000000027,6.925915527343751,-1.253411865234375,6.246124267578126
12.105000000000018,5.944061279296875,0.3385498046875,6.649722290039063
12.115000000000007,6.898699951171875,1.2481781005859376,7.998687744140626
12.125,7.253250122070313,1.3748352050781252,6.720303344726563
12.134999999999993,7.814459228515625,1.4778656005859376,5.6587463378906255
12.144999999999982,6.549383544921875,0.9401336669921876,5.634521484375
12.15499999999998,7.1286865234375005,0.32598876953125,7.3021484375
12.16499999999997,6.164926147460938,-0.44920654296875,9.0571044921875
12.174999999999956,6.136813354492188,-0.9284698486328126,7.727279663085938
12.184999999999944,5.68955078125,-1.1414093017578126,6.936981201171876
12.194999999999936,7.6119873046875,-1.020135498046875,6.191842651367188
12.20500000000004,7.593295288085938,-0.530853271484375,6.43065185546875
12.215000000000032,8.477203369140625,0.086431884765625,5.821591186523438
12.225000000000025,6.838287353515626,0.3327178955078125,5.229727172851563
12.234000000000036,7.576995849609376,0.3467742919921875,6.270199584960938
12.244000000000028,5.870339965820313,0.2776885986328125,7.797412109375
12.254999999999995,6.488970947265625,0.421990966796875,8.785995483398438
12.26400000000001,4.90538330078125,0.291595458984375,8.185159301757814
12.273999999999994,6.519476318359375,-0.053533935546875,6.562991333007813
12.284999999999968,7.932293701171876,-0.4628143310546875,5.798114013671875
12.293999999999984,8.486474609375001,-0.8237945556640626,5.453732299804688
12.30399999999998,7.813262939453126,-0.8369537353515626,5.778225708007813
12.313999999999965,7.266110229492188,-0.239556884765625,7.501181030273438
12.323999999999955,5.537322998046875,0.66513671875,7.802346801757813
12.333999999999946,4.5750579833984375,1.1901580810546877,8.781359863281251
12.343999999999935,6.4722229003906255,1.11553955078125,8.049530029296875
12.354000000000047,7.491760253906251,0.7916442871093751,6.758435058593751
12.364000000000033,8.476904296875,0.2980255126953125,5.271597290039063
12.374000000000024,7.099526977539063,0.1066192626953125,5.3103271484375005
12.384000000000016,7.037319946289063,-0.16807861328125,7.082479858398438
12.394000000000004,5.604165649414063,-0.8895904541015626,7.771243286132813
12.403999999999996,7.555612182617188,-1.4117706298828123,7.949340820312501
12.413999999999987,6.347808837890626,-1.3334136962890626,6.540859985351563
12.423999999999978,6.309976196289063,-0.2603424072265625,6.712826538085938
12.433999999999967,6.340780639648438,0.8780761718750001,7.352243041992188
12.44399999999996,7.701260375976563,1.415509033203125,7.73460693359375
12.453999999999944,6.816156005859376,1.19449462890625,5.639456176757813
12.463999999999942,8.001678466796875,0.7107452392578125,5.573660278320313
12.47399999999994,7.133172607421876,-0.230584716796875,5.693887329101563
12.484000000000036,7.068572998046876,-0.9214416503906252,7.8629089355468755
12.494000000000028,5.901593017578126,-1.1714660644531252,8.070315551757814
12.50400000000002,5.7481689453125,-1.2697113037109375,7.898348999023438
12.51400000000001,6.851147460937501,-0.9501525878906252,6.340032958984375
12.523999999999994,7.579837036132813,-0.3240447998046875,6.652264404296876
12.533999999999992,7.788739013671876,0.7599426269531251,6.034680175781251
12.543999999999984,6.880157470703126,1.454388427734375,6.341229248046876
12.55399999999998,7.301101684570313,1.3903869628906251,6.380108642578126
12.563999999999965,6.009408569335938,0.6616973876953125,7.155902099609375
12.573999999999955,6.243582153320313,-0.09031982421875,7.471124267578125
12.583999999999946,6.624151611328125,-0.651678466796875,7.9684814453125
12.593999999999935,6.778323364257813,-1.568035888671875,6.762921142578126
12.604000000000047,8.384042358398439,-1.478762817382813,6.421829223632813
12.614000000000033,7.3727294921875,-0.4457672119140625,6.242684936523438
12.624000000000024,5.9039855957031255,0.4167572021484375,6.012399291992188
12.634999999999993,6.798062133789063,1.107913208007813,7.879208374023438
12.644000000000004,6.43065185546875,0.86072998046875,7.472171020507813
12.653999999999996,7.070965576171876,0.77100830078125,7.232913208007813
12.663999999999987,7.0449462890625005,0.74588623046875,7.333700561523438
12.673999999999978,5.831610107421875,0.7614379882812501,6.642095947265625
12.683999999999967,6.981692504882813,0.490777587890625,7.461853027343751
12.69399999999996,6.825726318359376,-0.636724853515625,6.519027709960938
12.703999999999944,8.419781494140626,-1.4062377929687502,6.025558471679688
12.713999999999942,7.102966308593751,-1.5962982177734375,5.947052001953125
12.72399999999994,6.250012207031251,-0.7873077392578126,6.804342651367188
12.734000000000036,5.963949584960938,-0.11304931640625,8.330209350585939
12.744000000000028,6.376220703125001,0.1876678466796875,8.193234252929688
12.75400000000002,7.566229248046875,0.6201263427734376,5.9866790771484375
12.763000000000034,7.320391845703125,0.922039794921875,5.6739990234375
12.773000000000025,7.294372558593751,1.0054809570312502,5.422628784179688
12.783000000000015,7.3703369140625,0.7295867919921876,7.959210205078126
12.793000000000006,6.057559204101563,0.0494964599609375,7.726531982421876
12.802999999999995,6.163430786132813,-0.250921630859375,7.606753540039063
12.812999999999988,5.923425292968751,-0.87747802734375,6.893316650390625
12.82299999999998,7.559201049804688,-1.1156890869140623,7.034628295898438
12.83299999999997,7.288241577148438,-0.781475830078125,6.65196533203125
12.84299999999996,7.421627807617188,-0.1975372314453125,6.228030395507813
12.852999999999952,7.16397705078125,0.228790283203125,5.336495971679688
12.862999999999944,7.493106079101563,0.2612396240234375,6.684265136718751
12.87299999999994,6.864755249023438,0.46356201171875,7.069470214843751
12.883000000000038,5.826824951171876,0.5764617919921875,8.08212890625
12.893000000000027,5.8680969238281255,0.3704010009765625,7.306335449218751
12.90300000000002,6.725088500976563,-0.290399169921875,6.877914428710938
12.913000000000013,7.549032592773438,-0.8673095703125001,6.674694824218751
12.923000000000002,7.7029052734375005,-0.8689544677734375,6.23924560546875
12.932999999999993,7.763467407226563,-0.18662109375,6.679330444335938
12.942999999999984,6.519775390625001,0.426177978515625,6.702957153320313
12.952999999999976,5.938677978515625,0.8525054931640625,7.506265258789063
12.962999999999964,5.96768798828125,1.0084716796875002,7.783355712890626
12.972999999999956,6.761874389648438,0.7786346435546876,7.601071166992188
12.982999999999947,7.763616943359375,0.1338348388671875,6.452334594726563
12.992999999999938,6.9148498535156255,-0.2346221923828125,6.544448852539063
13.002999999999927,7.107452392578126,-0.084039306640625,6.055764770507813
13.013000000000034,5.908023071289063,-0.2860626220703125,7.345364379882813
13.023000000000025,7.775131225585938,-0.8931793212890625,6.728826904296875
13.033000000000015,7.423422241210938,-1.2728515625,6.882699584960938
13.043000000000006,7.004122924804688,-0.5070770263671875,6.06578369140625
13.052999999999995,4.985833740234376,0.6305938720703126,7.1071533203125
13.062999999999988,6.840530395507813,1.206607055664063,8.768798828125
13.07299999999998,6.722845458984375,0.947760009765625,7.745223999023438
13.08299999999997,7.639801025390626,0.7840179443359375,5.798712158203125
13.09299999999996,6.742584228515626,0.2767913818359375,4.736257934570313
13.102999999999952,8.088409423828125,-0.427972412109375,6.553421020507813
13.112999999999944,6.922775268554688,-1.021331787109375,7.866497802734376
13.12299999999994,6.766659545898438,-1.209149169921875,7.545294189453125
13.133000000000038,5.278176879882813,-1.212139892578125,6.347808837890626
13.143000000000027,7.403833007812499,-0.6986328125000001,7.014291381835938
13.15300000000002,7.187005615234376,-0.0752166748046875,7.164874267578125
13.163000000000013,7.734906005859376,0.8317199707031251,7.039862060546875
13.173000000000002,6.278274536132813,1.4114715576171877,5.679232788085938
13.182999999999993,6.864157104492188,1.3914337158203125,6.768154907226563
13.192999999999984,6.604861450195313,0.8390472412109375,7.414151000976563
13.202999999999976,6.1492248535156255,0.07835693359375,8.133868408203126
13.212999999999964,6.756790161132813,-0.557470703125,6.539065551757813
13.22199999999998,6.510803222656251,-1.586428833007813,6.577346801757813
13.231999999999978,9.1480224609375,-1.8413879394531247,5.943463134765626
13.241999999999967,7.555462646484376,-0.9111236572265624,6.874026489257813
13.252999999999927,5.9611083984375,0.1375732421875,6.277975463867188
13.261999999999944,5.970977783203125,0.9830505371093752,7.335794067382813
13.271999999999936,6.269601440429688,1.224551391601563,8.249908447265625
13.283000000000015,6.974066162109375,1.036285400390625,7.121359252929688
13.293000000000006,7.783355712890626,0.9691436767578124,7.342074584960938
13.302000000000028,6.012698364257813,0.8036071777343751,5.762973022460938
13.31200000000002,6.890176391601563,0.5670410156250001,7.099975585937501
13.322000000000005,6.451885986328126,-0.4460662841796875,7.476058959960938
13.331999999999994,8.148074340820314,-1.4122192382812502,6.856231689453126
13.341999999999985,6.952233886718751,-1.7886016845703123,5.734710693359375
13.351999999999975,6.612188720703125,-1.2060089111328125,6.436035156250001
13.361999999999966,5.984136962890625,-0.3105865478515625,7.3604675292968755
13.371999999999955,6.830361938476563,0.227593994140625,8.861959838867188
13.383000000000038,7.395907592773438,0.7553070068359375,5.889181518554688
13.393000000000027,7.380505371093751,0.8979644775390626,5.64349365234375
13.40199999999993,7.1301818847656255,0.9422271728515624,5.056564331054688
13.412000000000036,7.240390014648438,0.7671203613281251,7.934536743164063
13.422000000000024,6.4796997070312505,0.31282958984375,8.52296142578125
13.432000000000016,5.26427001953125,-0.1302459716796875,7.8153564453125
13.442000000000007,6.2568908691406255,-0.6255096435546875,6.783108520507813
13.451999999999998,7.015338134765625,-0.9821533203125,6.89720458984375
13.461999999999987,8.239590454101563,-0.6851745605468751,6.557907104492188
13.47199999999998,7.117919921875001,-0.3428863525390625,6.125
13.482999999999947,7.469329833984376,0.002093505859375,5.149725341796875
13.491999999999967,7.064834594726563,0.0306549072265625,6.29906005859375
13.501999999999953,7.419235229492188,0.016748046875,7.484732055664063
13.511999999999944,5.715121459960938,0.1454986572265625,7.597183227539063
13.521999999999936,5.9036865234375,0.103179931640625,7.272689819335938
13.53200000000004,6.8439697265625,-0.1939483642578125,6.941317749023438
13.54200000000003,7.297363281250001,-0.60113525390625,6.9193359375000005
13.552000000000028,7.735055541992188,-0.2920440673828125,6.898699951171875
13.56200000000002,7.520919799804688,0.5603118896484376,6.800454711914063
13.572000000000005,5.7892913818359375,1.193597412109375,6.219357299804688
13.58299999999997,6.068475341796876,0.9748260498046876,7.419384765625001
13.591999999999985,7.051376342773438,0.4557861328125,7.909863281250001
13.601999999999975,6.916046142578126,0.1218719482421875,7.490713500976563
13.611999999999966,7.125247192382813,-0.2835205078125,6.451885986328126
13.621999999999955,6.428109741210938,-0.3958221435546875,6.085821533203125
13.631999999999948,7.378411865234375,-0.3596343994140625,7.285848999023438
13.64199999999994,6.3570800781250005,-0.445318603515625,6.967785644531251
13.65199999999993,7.874423217773438,-0.538330078125,6.696078491210938
13.662000000000036,6.936831665039063,-0.5214324951171876,5.980996704101563
13.672000000000024,6.410614013671876,0.1040771484375,6.965542602539063
13.682999999999993,5.995053100585938,0.8064483642578125,7.973266601562501
13.692000000000007,6.695330810546875,0.91815185546875,8.362359619140626
13.701999999999998,6.629235839843751,0.612799072265625,6.263619995117188
13.71100000000002,7.663128662109376,0.2265472412109375,5.9413696289062505
13.721000000000004,7.296914672851563,-0.2699127197265625,5.636315917968751
13.731999999999978,7.4086181640625,-0.634930419921875,7.107601928710938
13.740999999999984,6.8954101562500005,-0.8003173828125001,7.125994873046875
13.751999999999953,6.031988525390625,-1.036285400390625,7.112835693359376
13.760999999999967,6.94266357421875,-0.9017028808593752,6.39835205078125
13.770999999999958,6.964196777343751,-0.3624755859375,7.394412231445313
13.783000000000015,7.214520263671876,0.3712982177734375,6.621459960937501
13.79099999999994,6.692340087890625,0.9820037841796876,7.077395629882813
13.80099999999993,7.169210815429688,1.1699707031250002,6.416595458984376
13.811000000000035,6.129635620117188,1.0084716796875002,7.0234130859375
13.821000000000026,7.039263916015625,0.727642822265625,7.651913452148438
13.831000000000016,5.6512695312500005,-0.00478515625,7.093246459960938
13.841000000000008,7.806982421875,-0.9634613037109376,6.3092285156250005
13.851,6.775332641601563,-1.8394439697265623,5.9866790771484375
13.86099999999999,8.776126098632814,-1.9189971923828129,6.334799194335938
13.870999999999974,7.258334350585938,-0.8021118164062501,6.986178588867188
13.883000000000038,5.743981933593751,0.3648681640625,7.308279418945313
13.89099999999997,5.885293579101563,1.1883636474609376,7.27762451171875
13.900999999999954,6.097335815429688,1.7202636718750002,8.520867919921876
13.910999999999945,7.156350708007813,1.5945037841796876,6.611740112304688
13.920999999999935,7.842721557617188,1.1385681152343752,7.099377441406251
13.93100000000004,6.648077392578125,0.5404235839843751,5.549884033203125
13.941000000000024,6.829763793945313,0.0820953369140625,6.768005371093751
13.951000000000022,6.362014770507813,-0.8697021484375,7.735653686523438
13.96100000000002,7.421328735351563,-1.8413879394531247,7.030590820312501
13.971000000000004,7.111788940429688,-2.0037841796875,6.673348999023438
13.981999999999978,6.501831054687501,-1.1444000244140626,6.284255981445313
13.990999999999984,6.048287963867188,0.110357666015625,6.988122558593751
14.000999999999976,6.977505493164063,0.7970275878906251,8.334844970703125
14.010999999999967,7.761972045898438,1.1817840576171876,6.042007446289063
14.020999999999958,7.432095336914063,1.1787933349609376,5.369244384765626
14.030999999999947,7.208688354492188,0.902001953125,5.236605834960938
14.04099999999994,6.625347900390626,0.3781768798828125,7.799655151367188
14.05099999999993,6.4423156738281255,-0.214434814453125,9.270492553710938
14.061000000000035,5.388833618164063,-0.6065185546875,7.92720947265625
14.071000000000026,6.121560668945313,-0.91695556640625,6.742733764648438
14.081000000000016,7.135714721679688,-0.9411804199218752,6.219207763671876
14.091000000000008,8.407968139648439,-0.4565338134765625,6.579290771484375
14.101,7.627838134765626,0.0357391357421875,5.776431274414063
14.11099999999999,7.396206665039063,0.2600433349609375,5.2913360595703125
14.120999999999974,6.935635375976563,0.16807861328125,6.034680175781251
14.13099999999998,6.709088134765626,0.0539825439453125,7.9349853515625
14.14099999999997,6.090606689453125,0.2050140380859375,8.3931640625
14.150999999999954,5.006021118164063,0.0877777099609375,8.2077392578125
14.160999999999945,7.263568115234375,-0.0705810546875,5.988772583007813
14.170999999999935,7.096386718750001,-0.542816162109375,6.3839965820312505
14.18100000000004,8.547186279296875,-0.6736602783203125,5.996697998046876
14.191000000000024,7.781860351562501,-0.20994873046875,6.265264892578125
14.201000000000022,6.810324096679688,0.419598388671875,7.102517700195313
14.210000000000036,4.975964355468751,0.9305633544921876,7.471273803710938
14.220000000000027,5.740692138671875,0.9244323730468752,8.6695068359375
14.230000000000018,7.003524780273438,0.7868591308593751,7.984182739257813
14.240000000000007,7.4445068359375,0.333465576171875,6.434988403320313
14.25,7.195230102539063,0.064599609375,5.4169464111328125
14.259999999999993,7.649819946289063,-0.0737213134765625,5.8905273437500005
14.269999999999982,6.392221069335938,-0.399261474609375,7.351644897460938
14.27999999999998,7.185211181640626,-0.8018127441406251,7.235604858398438
14.29099999999994,6.757388305664063,-1.2134857177734375,7.005020141601563
14.299999999999956,6.738247680664063,-0.8695526123046876,6.530392456054688
14.309999999999944,5.741888427734375,0.1167877197265625,7.101022338867188
14.319999999999936,7.0114501953125,1.0956512451171876,8.490362548828125
14.33000000000004,6.719107055664063,1.143951416015625,6.748117065429688
14.340000000000032,7.633670043945313,0.8957214355468751,5.7828613281250005
14.350000000000025,7.343869018554688,0.4586273193359375,5.155706787109375
14.36000000000002,7.231417846679688,-0.176153564453125,7.0569091796875005
14.370000000000005,6.779818725585938,-0.6572113037109375,7.790234375000001
14.379999999999995,6.316107177734375,-1.22440185546875,7.770645141601563
14.393000000000027,6.122158813476563,-1.4772674560546877,6.306686401367188
14.399999999999975,7.041506958007813,-0.91575927734375,6.989767456054688
14.409999999999968,7.483984375,-0.0264678955078125,7.048535156250001
14.41999999999996,7.003375244140625,0.7753448486328126,6.513943481445313
14.42999999999995,7.475460815429688,1.184326171875,5.934640502929688
14.439999999999948,6.6980224609375005,1.0681365966796876,6.312368774414063
14.44999999999994,6.462652587890625,0.8305236816406251,7.507760620117188
14.460000000000036,5.950042724609375,0.277239990234375,7.560098266601563
14.470000000000027,6.769052124023438,-0.6122009277343751,7.853787231445313
14.480000000000018,6.899896240234376,-1.6736083984375,6.113186645507813
14.490000000000007,8.620458984375,-1.4288177490234375,6.6322265625000005
14.5,7.345364379882813,-0.3395965576171875,6.378762817382813
14.509999999999993,5.438330078125,0.4024017333984375,6.148925781250001
14.519999999999982,6.740640258789063,0.8396453857421876,7.673895263671875
14.52999999999998,6.637161254882813,0.6933990478515626,8.132373046875001
14.53999999999997,7.413702392578125,0.9462646484375,7.101171875
14.549999999999956,5.873181152343751,1.0762115478515626,7.242932128906251
14.559999999999944,6.833203125000001,1.0099670410156252,6.1537109375000005
14.569999999999936,6.625198364257813,0.1801910400390625,7.404431152343751
14.58000000000004,8.41409912109375,-0.9304138183593752,6.257638549804688
14.590000000000032,6.893466186523438,-1.5726715087890626,6.025708007812501
14.600000000000025,6.900344848632813,-1.415509033203125,6.75963134765625
14.61000000000002,5.404385375976563,-0.74169921875,7.3574768066406255
14.620000000000005,7.191491699218751,-0.1948455810546875,8.56842041015625
14.629999999999995,6.456372070312501,0.1882659912109375,6.65555419921875
14.639999999999986,8.170504760742189,0.8680572509765626,5.404833984375
14.649999999999975,6.451287841796876,1.16578369140625,5.503079223632813
14.659999999999968,8.037118530273439,1.1189788818359376,6.999786376953126
14.66999999999996,6.160290527343751,0.478515625,8.189944458007814
14.67999999999995,6.651068115234375,-0.1111053466796875,7.587164306640625
14.689999999999948,5.328421020507813,-0.6467437744140625,6.8789611816406255
14.69999999999994,6.932943725585938,-1.0104156494140626,7.423422241210938
14.708999999999946,7.242184448242188,-0.969891357421875,7.043151855468751
14.718999999999935,7.769747924804688,-0.5881256103515625,6.450689697265625
14.729000000000047,6.992309570312501,-0.1341339111328125,4.950244140625
14.739000000000033,7.943508911132813,0.2092010498046875,6.039913940429688
14.75,6.7892395019531255,0.445318603515625,7.132424926757813
14.759000000000016,6.353640747070313,0.6717163085937501,8.045492553710938
14.769000000000004,5.738897705078125,0.500347900390625,7.4325439453125
14.778999999999996,6.243133544921876,-0.13458251953125,6.919036865234376
14.788999999999987,7.613632202148438,-0.5849853515625001,6.682620239257813
14.798999999999978,7.0030761718750005,-0.7856628417968751,6.698171997070313
14.808999999999967,8.02052001953125,-0.6930999755859375,6.39775390625
14.81899999999996,7.5880615234375,-0.157012939453125,6.766510009765626
14.83000000000004,5.541061401367188,0.6907073974609376,6.596936035156251
14.838999999999942,5.675942993164063,1.0896697998046876,7.842721557617188
14.84899999999994,6.987973022460938,1.09998779296875,8.494998168945314
14.859000000000036,7.038217163085938,0.6189300537109376,6.9985900878906255
14.869000000000028,7.196127319335938,0.2775390625,6.18302001953125
14.87900000000002,6.797164916992188,0.164788818359375,5.733514404296876
14.88900000000001,6.91514892578125,-0.1565643310546875,7.279867553710938
14.898999999999994,6.911260986328125,-0.91396484375,7.212576293945313
14.908999999999992,7.734756469726563,-1.4463134765625,6.877166748046876
14.918999999999984,6.581683349609375,-1.1659332275390626,5.79302978515625
14.92899999999998,5.987875366210938,-0.177349853515625,7.157696533203126
14.938999999999965,6.413903808593751,0.7928405761718751,8.390023803710939
14.948999999999955,7.0270019531250005,1.0229766845703123,8.018276977539063
14.958999999999946,7.039562988281251,1.0219299316406252,5.525360107421875
14.968999999999935,7.412506103515626,0.8418884277343751,5.364907836914063
14.979000000000047,7.269400024414063,0.2452392578125,6.601123046875
14.989000000000033,6.971524047851563,-0.4487579345703125,7.930648803710938
14.999000000000024,6.857128906250001,-0.9621154785156252,7.2871948242187505
15.009000000000016,5.63751220703125,-1.469790649414063,6.614581298828125
15.019000000000004,7.235006713867188,-1.3171142578125,6.399398803710938
15.028999999999996,7.067077636718751,-0.5603118896484376,7.725634765625
15.038999999999987,7.509405517578125,0.40135498046875,6.507662963867188
15.048999999999978,6.680676269531251,0.9462646484375,6.129336547851563
15.058999999999967,7.526602172851563,1.126904296875,6.103018188476563
15.06899999999996,6.221450805664063,1.107913208007813,6.984085083007813
15.078999999999944,6.249563598632813,0.8694030761718751,8.179476928710939
15.088999999999942,6.523214721679688,0.0103179931640625,7.192687988281251
15.09899999999994,6.306536865234375,-1.2861602783203123,6.916494750976563
15.109000000000036,8.184710693359376,-1.7619842529296876,6.182720947265626
15.119000000000028,8.521914672851564,-0.908880615234375,6.873876953125
15.12900000000002,5.8905273437500005,-0.19918212890625,5.831460571289063
15.13900000000001,6.199468994140625,0.3300262451171875,6.544598388671876
15.148999999999994,6.658395385742188,0.6603515625,8.219403076171876
15.158999999999992,6.900344848632813,0.8551971435546876,7.831057739257813
15.168999999999984,7.03477783203125,1.17056884765625,7.52286376953125
15.17899999999998,5.697625732421876,1.1482879638671877,6.288592529296875
15.188999999999965,7.330410766601563,0.916357421875,6.615179443359375
15.198999999999955,6.914700317382813,-0.112750244140625,7.210034179687501
15.20799999999997,8.276077270507812,-1.0905670166015626,6.262423706054688
15.21799999999996,6.578244018554688,-1.6199249267578126,6.117373657226563
15.227999999999952,6.327770996093751,-1.3187591552734377,6.9701782226562505
15.237999999999944,5.983239746093751,-0.6619964599609376,7.904928588867188
15.24799999999994,7.016085815429688,-0.225201416015625,8.402734375000001
15.258000000000038,7.201062011718751,0.3695037841796875,5.624951171875001
15.268000000000027,7.87218017578125,0.8934783935546876,5.378665161132813
15.27800000000002,6.879409790039063,1.158306884765625,5.5032287597656255
15.288000000000013,7.446151733398438,1.015350341796875,7.939770507812501
15.298000000000002,6.060549926757813,0.481207275390625,8.299105834960939
15.307999999999993,6.1182708740234375,-0.0423187255859375,7.467834472656251
15.317999999999984,5.618670654296875,-0.7883544921875001,6.890026855468751
15.327999999999976,7.569967651367188,-1.0026397705078125,7.3488037109375
15.337999999999964,6.9985900878906255,-0.7358673095703125,6.873129272460938
15.347999999999956,7.778121948242188,-0.308343505859375,6.198571777343751
15.357999999999947,7.104611206054688,-0.133984375,4.93887939453125
15.367999999999938,7.945004272460938,0.017645263671875,6.22130126953125
15.377999999999927,6.575103759765626,0.2763427734375,7.163229370117188
15.388000000000034,6.053372192382813,0.319708251953125,7.878460693359376
15.398000000000025,6.469680786132813,0.0539825439453125,6.765463256835938
15.408000000000015,6.05740966796875,-0.5467041015625,7.485180664062501
15.418000000000006,7.432843017578126,-0.6844268798828126,7.128836059570313
15.427999999999995,7.828515625,0.110357666015625,7.380804443359375
15.437999999999988,7.11253662109375,0.875982666015625,6.305191040039063
15.44799999999998,5.404684448242188,0.9224884033203126,5.737850952148438
15.45799999999997,7.245025634765626,0.69324951171875,7.449591064453125
15.46799999999996,7.141845703125001,0.4009063720703125,7.992108154296876
15.477999999999952,6.972271728515626,-0.023028564453125,7.239492797851563
15.487999999999944,5.934490966796876,-0.296978759765625,6.560748291015625
15.49799999999994,6.967636108398438,-0.3372039794921875,6.746472167968751
15.508000000000038,6.578094482421876,-0.349615478515625,7.274185180664063
15.518000000000027,8.041156005859376,-0.468048095703125,6.7219482421875005
15.52800000000002,7.275830078125001,-0.6153411865234375,5.730075073242188
15.538000000000013,7.025207519531251,-0.316119384765625,5.932995605468751
15.548000000000002,5.713177490234376,0.3524566650390625,7.239941406250001
15.557999999999993,6.865652465820313,0.8030090332031251,9.10675048828125
15.567999999999984,5.952734375,0.6216217041015626,7.4923583984375
15.577999999999976,7.455572509765625,0.4475616455078125,6.1046630859375
15.587999999999964,6.918438720703126,0.0183929443359375,5.327972412109375
15.597999999999956,7.7268310546875005,-0.212939453125,6.964196777343751
15.607999999999947,7.121209716796876,-0.3201568603515625,7.235006713867188
15.617999999999938,6.671255493164063,-0.7792327880859375,7.1496215820312505
15.627999999999927,6.474166870117188,-1.1985321044921875,5.4647979736328125
15.638000000000034,7.155154418945313,-0.8559448242187501,7.312017822265625
15.648000000000025,7.047637939453126,-0.13817138671875,7.446301269531251
15.65700000000004,6.568673706054688,0.570928955078125,7.47261962890625
15.66700000000003,6.86131591796875,0.9308624267578126,6.393267822265625
15.677999999999995,6.597534179687501,1.0071258544921875,6.5365234375000005
15.687999999999988,6.883148193359376,1.1674285888671876,7.252352905273438
15.69799999999998,6.060699462890625,0.6627441406250001,7.308578491210938
15.706999999999994,7.497741699218751,-0.29727783203125,6.736602783203126
15.716999999999985,6.392520141601563,-1.6254577636718752,6.102868652343751
15.726999999999975,9.132919311523438,-1.6812347412109376,6.564486694335938
15.736999999999966,6.724041748046876,-0.871197509765625,7.162332153320313
15.746999999999955,5.88992919921875,-0.233575439453125,6.704901123046875
15.756999999999948,6.5748046875,0.4900299072265625,7.189547729492188
15.76699999999994,6.185263061523438,0.8795715332031251,8.002874755859375
15.77699999999993,7.4744140625,1.1544189453125,6.422427368164063
15.787000000000036,7.21123046875,1.155615234375,7.7029052734375005
15.797000000000024,6.384295654296875,1.05452880859375,5.618222045898438
15.807000000000016,6.648077392578125,0.724951171875,7.50791015625
15.817000000000007,6.942962646484376,-0.42049560546875,7.037170410156251
15.826999999999998,7.418338012695313,-1.3675079345703125,6.874026489257813
15.836999999999987,6.870736694335938,-1.6378692626953126,6.5918518066406255
15.84699999999998,5.90787353515625,-0.9677978515625,6.787295532226563
15.856999999999978,6.401791381835938,-0.3895416259765625,7.5521728515625
15.866999999999967,7.235305786132813,-0.0426177978515625,7.647128295898438
15.876999999999953,8.47510986328125,0.5040863037109375,5.059405517578125
15.886999999999944,7.177734375000001,0.5310028076171875,4.9945068359375
15.896999999999936,7.514340209960938,0.7620361328125,5.927163696289063
15.90700000000004,6.016885375976563,0.6705200195312501,8.607150268554689
15.91700000000003,6.299658203125,0.4188507080078125,9.049478149414064
15.927000000000028,5.015591430664063,-0.1777984619140625,7.515087890625001
15.93700000000002,6.706246948242188,-0.412420654296875,7.112985229492188
15.947000000000005,6.966888427734376,-0.32718505859375,6.661087036132813
15.956999999999994,8.146728515625,-0.051739501953125,6.608898925781251
15.966999999999985,7.54619140625,-0.1543212890625,5.46524658203125
15.976999999999975,7.708737182617188,-0.3395965576171875,5.2340637207031255
15.986999999999966,6.534729003906251,-0.43006591796875,6.176889038085938
15.996999999999955,7.173846435546875,-0.286810302734375,8.114279174804688
16.006999999999948,5.6901489257812505,-0.367559814453125,7.717111206054688
16.01699999999994,6.389230346679688,-0.4083831787109375,7.041357421875
16.02699999999993,6.604861450195313,-0.3040069580078125,6.463400268554688
16.037000000000035,7.472918701171875,-0.1200775146484375,7.027749633789063
16.047000000000025,8.186953735351564,0.6702209472656251,7.206893920898438
16.057000000000016,7.00845947265625,1.2828704833984377,6.784902954101563
16.067000000000007,5.29656982421875,1.4455657958984376,6.1063079833984375
16.076999999999998,6.239544677734376,0.973779296875,7.659988403320313
16.08699999999999,7.284802246093751,0.0569732666015625,8.191439819335939
16.09699999999998,7.433291625976563,-0.8668609619140626,6.887484741210938
16.106999999999978,6.635665893554688,-1.1632415771484377,6.346762084960938
16.11699999999997,6.312518310546875,-0.6711181640625,5.946902465820313
16.126999999999953,6.952084350585938,-0.30206298828125,7.729971313476563
16.136999999999944,7.613333129882813,-0.3617279052734375,6.919784545898438
16.146999999999935,7.785897827148438,-0.3300262451171875,5.908322143554688
16.15599999999995,6.709686279296876,0.2406036376953125,5.576351928710938
16.16599999999994,5.451339721679688,1.1034271240234377,7.45108642578125
16.17599999999993,6.458316040039063,1.2894500732421876,9.55520935058594
16.18700000000002,6.479550170898438,0.6750061035156251,8.206842041015626
16.196000000000026,6.9492431640625005,0.1016845703125,5.283560180664063
16.206000000000017,7.547238159179688,-0.474627685546875,5.056414794921875
16.216000000000008,7.676437377929688,-0.8867492675781251,6.601272583007813
16.226,7.445703125,-0.8288787841796875,7.711578369140626
16.23599999999999,6.441567993164063,-0.9422271728515624,6.830810546875001
16.245999999999974,6.292630004882813,-1.0029388427734376,5.672653198242188
16.25599999999998,7.33983154296875,-0.5999389648437501,6.64000244140625
16.26599999999997,7.345214843750001,0.1463958740234375,7.8990966796875
16.275999999999954,6.579589843750001,0.9869384765625,7.212875366210938
16.285999999999945,6.0449981689453125,1.3051513671875,7.000982666015625
16.295999999999935,6.947000122070313,1.2089996337890625,6.447100830078125
16.30600000000004,6.523214721679688,0.80570068359375,7.584173583984375
16.316000000000024,7.389028930664063,0.3180633544921875,7.284802246093751
16.326000000000022,5.915051269531251,-0.2938385009765625,6.913204956054688
16.33600000000002,6.895858764648438,-1.1213714599609377,5.514743041992188
16.346000000000004,7.624697875976563,-1.7063568115234375,6.557458496093751
16.355999999999995,8.330508422851564,-2.011260986328125,6.1381591796875
16.365999999999985,7.6221557617187505,-1.2170745849609377,6.539065551757813
16.375999999999976,6.4767089843750005,0.30146484375,7.402487182617188
16.385999999999967,5.0007873535156255,1.399957275390625,7.542303466796875
16.395999999999958,6.285153198242188,2.255303955078125,8.758929443359376
16.40599999999995,6.325677490234376,1.981204223632813,7.267904663085938
16.41599999999994,7.864105224609376,1.2230560302734377,6.143093872070313
16.42599999999993,7.6595397949218755,0.209649658203125,5.956622314453125
16.436000000000035,6.789389038085938,-0.2648284912109375,6.273040771484376
16.446000000000026,6.209637451171876,-0.7675689697265625,7.764364624023438
16.456000000000017,6.5125976562500005,-1.648785400390625,7.585519409179688
16.466000000000008,7.395758056640625,-2.0794494628906253,6.587066650390626
16.476,7.3589721679687505,-1.4940155029296875,6.389080810546876
16.48599999999999,5.957220458984375,0.052337646484375,6.2643676757812505
16.495999999999974,6.779071044921875,1.117034912109375,7.830609130859376
16.50599999999998,7.203454589843751,1.17535400390625,7.052871704101563
