time,ax,ay,az
0.0,6.9659912109375,-0.1849761962890625,6.625048828125
0.0099999999999944,6.973916625976563,-0.4797119140625,6.522467041015625
0.0199999999999818,6.87626953125,-0.5646484375,6.827670288085938
0.0300000000000331,6.870736694335938,-0.532049560546875,6.688900756835938
0.0400000000000204,7.059750366210938,-0.3696533203125,6.938327026367188
0.0500000000000078,6.415249633789063,-0.067291259765625,7.184164428710938
0.0600000000000022,6.656002807617188,0.2260986328125,7.550827026367188
0.0699999999999931,6.814959716796875,0.5108154296875,7.551275634765625
0.079999999999984,6.249563598632813,0.8136260986328125,6.586917114257813
0.0899999999999785,7.062142944335938,0.9114227294921876,6.475961303710938
0.1000000000000227,7.575350952148438,0.7076049804687501,6.559103393554688
0.1100000000000136,7.458114624023438,0.4544403076171875,6.875671386718751
0.1190000000000282,6.542953491210938,0.22669677734375,7.134368896484376
0.1299999999999919,5.750711059570313,-0.106170654296875,7.384094238281251
0.1399999999999899,6.3481079101562505,-0.8077941894531251,7.57310791015625
0.1490000000000009,7.2028564453125,-1.3340118408203123,7.305587768554688
0.1589999999999918,7.455273437500001,-1.24832763671875,6.0988311767578125
0.1689999999999827,7.180126953125001,-0.5588165283203126,6.013894653320313
0.179000000000034,6.9540283203125,0.407635498046875,6.450241088867188
0.1890000000000213,6.961355590820313,0.9123199462890624,7.085919189453126
0.1990000000000122,7.430899047851563,0.7961303710937501,6.929354858398438
0.2090000000000031,6.714471435546876,0.397467041015625,6.426464843750001
0.2189999999999941,6.329415893554688,0.23746337890625,7.109246826171876
0.228999999999985,6.198571777343751,0.4055419921875,8.1718505859375
0.2389999999999759,6.231170654296876,0.3243438720703125,7.994201660156251
0.2490000000000236,6.763070678710938,0.020037841796875,6.841427612304688
0.2590000000000145,7.308728027343751,-0.321502685546875,5.9652954101562505
0.2690000000000019,7.53243408203125,-0.3805694580078125,6.12021484375
0.2789999999999963,7.107601928710938,-0.4318603515625,7.008609008789063
0.2889999999999908,6.664077758789063,-0.6343322753906251,7.009506225585938
0.2989999999999781,6.868792724609375,-0.7101470947265626,6.561495971679688
0.3090000000000295,7.375271606445313,-0.6343322753906251,5.984884643554688
0.3190000000000168,7.783505249023438,-0.5938079833984375,5.894116210937501
0.3290000000000042,7.132275390625001,-0.51739501953125,6.627890014648438
0.3389999999999986,6.44859619140625,0.210546875,7.517929077148438
0.3489999999999931,5.681774902343751,1.069033813476563,8.5977294921875
0.3589999999999804,5.70330810546875,1.343731689453125,8.077642822265625
0.3690000000000282,6.749911499023438,1.1174835205078126,7.279119873046875
0.3790000000000155,7.212127685546876,0.7138854980468751,6.35289306640625
0.38900000000001,7.431945800781251,0.190509033203125,6.0185302734375
0.3990000000000009,7.352691650390626,-0.5323486328125,6.405828857421875
0.4089999999999918,7.175790405273438,-1.2587951660156251,6.595291137695313
0.4189999999999827,6.829464721679688,-1.45050048828125,6.937130737304688
0.429000000000034,6.9926086425781255,-1.3127777099609377,6.652264404296876
0.4390000000000214,7.1855102539062505,-0.9017028808593752,6.745425415039063
0.4490000000000123,6.8595214843750005,-0.2017242431640625,6.701760864257813
0.4590000000000032,6.683816528320313,0.57840576171875,7.13406982421875
0.4689999999999941,6.5843750000000005,1.09639892578125,7.320242309570313
0.478999999999985,6.699368286132813,1.1900085449218751,7.039562988281251
0.4889999999999759,7.068423461914063,0.8927307128906251,6.899148559570313
0.4990000000000236,6.907223510742188,0.3937286376953125,6.550729370117188
0.5090000000000146,6.66990966796875,-0.0155517578125,7.1227050781250005
0.5190000000000019,6.562094116210938,-0.59515380859375,7.305288696289063
0.5289999999999964,6.698919677734375,-1.0522857666015626,7.263418579101563
0.5389999999999908,6.934887695312501,-1.15860595703125,6.593048095703126
0.5489999999999782,7.2411376953125,-0.9168060302734377,6.2817138671875
0.5590000000000295,7.4684326171875,-0.439935302734375,6.170907592773438
0.5690000000000168,7.308578491210938,-0.035589599609375,6.338687133789063
0.5790000000000042,7.171453857421875,0.3958221435546875,6.457717895507813
0.5889999999999986,7.036721801757813,0.7098480224609376,6.773837280273438
0.5980000000000132,6.724789428710938,0.6748565673828125,6.902587890625001
0.6089999999999804,6.637310791015626,0.48629150390625,7.288839721679688
0.6179999999999914,6.325228881835938,0.18004150390625,7.689147949218751
0.6279999999999895,6.19498291015625,-0.0157012939453125,7.64847412109375
0.63900000000001,6.432446289062501,-0.2537628173828125,7.495947265625
0.6480000000000246,6.711331176757813,-0.2516693115234375,6.9746643066406255
0.6580000000000155,7.056161499023438,0.0091217041015625,6.779071044921875
0.6680000000000064,7.152163696289063,0.1496856689453125,6.355136108398438
0.6779999999999973,7.238446044921876,0.0997406005859375,6.1122894287109375
0.6890000000000214,7.3440185546875005,-0.3638214111328125,6.1405517578125
0.6979999999999755,7.246371459960938,-0.8197570800781251,6.507662963867188
0.7080000000000304,7.293624877929688,-0.7668212890625,7.1541076660156255
0.7180000000000177,6.062344360351563,-0.26856689453125,7.742382812500001
0.7280000000000051,6.055166625976563,0.235369873046875,7.120611572265625
0.7379999999999995,6.574057006835938,0.4499542236328125,7.658493041992188
0.747999999999994,7.142892456054688,0.672314453125,6.833203125000001
0.7579999999999814,7.441964721679688,0.8013641357421876,6.221600341796876
0.7680000000000327,7.444058227539063,0.6907073974609376,6.078793334960938
0.77800000000002,6.838436889648438,0.4756744384765625,6.400146484375001
0.7880000000000109,6.681423950195313,0.2917449951171875,7.823281860351563
0.7980000000000018,6.138757324218751,-0.0716278076171875,7.730419921875001
0.8079999999999927,6.743032836914063,-0.657958984375,7.247119140625
0.8179999999999836,6.967486572265625,-0.9845458984375,6.369790649414063
0.8280000000000349,7.206744384765625,-0.721661376953125,6.664227294921876
0.8380000000000223,6.833950805664063,-0.3381011962890625,6.732565307617188
0.8480000000000132,7.323980712890625,-0.098394775390625,6.579141235351563
0.8580000000000041,7.582080078125,-0.2842681884765625,5.917294311523438
0.8679999999999914,7.346560668945313,-0.3195587158203125,5.941967773437501
0.8779999999999895,6.760379028320313,-0.06639404296875,6.7745849609375
0.8879999999999768,6.524859619140625,0.2824737548828125,7.910610961914063
0.8980000000000246,5.87796630859375,0.421990966796875,8.018875122070312
0.9080000000000156,6.130981445312501,0.35828857421875,7.529592895507813
0.9180000000000064,6.7159667968750005,0.3348114013671875,7.193136596679688
0.9279999999999972,7.033282470703125,0.3757843017578125,6.758883666992188
0.9379999999999882,7.3230834960937505,0.413616943359375,6.5619445800781255
0.9479999999999756,7.048535156250001,0.167181396484375,6.245974731445313
0.9580000000000304,6.984085083007813,-0.0970489501953125,6.576599121093751
0.9680000000000176,6.923822021484376,-0.4308135986328125,6.995748901367188
0.9780000000000052,6.943859863281251,-0.755157470703125,7.025357055664063
0.9879999999999995,6.750958251953126,-0.8710479736328126,7.076199340820313
0.997999999999994,6.560598754882813,-0.7011749267578126,6.957467651367188
1.0079999999999814,6.676638793945313,-0.201275634765625,7.080386352539063
1.0180000000000329,6.905877685546876,0.224603271484375,6.869091796875001
1.02800000000002,7.1780334472656255,0.5169464111328126,6.331658935546876
1.038000000000011,7.165472412109375,0.385504150390625,6.104214477539063
1.0480000000000018,7.149771118164063,0.1682281494140625,6.634918212890626
1.0579999999999927,6.485382080078126,-0.043365478515625,7.654605102539063
1.0679999999999836,7.022067260742188,0.1036285400390625,8.055361938476564
1.078000000000035,5.908172607421875,0.354998779296875,7.771542358398438
1.0880000000000225,5.666970825195313,0.4397857666015625,6.424969482421876
1.09699999999998,7.409066772460938,0.20994873046875,6.938177490234375
1.108000000000004,8.139102172851564,-0.4628143310546875,6.164328002929688
1.1179999999999914,8.1239990234375,-0.6784454345703126,5.728729248046875
1.1279999999999897,6.503924560546875,-0.468048095703125,6.301452636718751
1.1379999999999768,6.063241577148438,-0.117535400390625,7.191192626953126
1.146999999999995,6.5514770507812505,-0.16329345703125,8.41708984375
1.1569999999999825,7.060647583007813,-0.30684814453125,7.245773315429688
1.1670000000000336,6.737649536132813,-0.054132080078125,6.412258911132813
1.177000000000021,6.74527587890625,0.6099578857421876,6.407025146484376
1.1870000000000118,6.975411987304688,1.029107666015625,7.063937377929688
1.1970000000000027,7.395907592773438,0.9015533447265626,7.305438232421875
1.2069999999999936,6.886886596679688,0.465057373046875,6.262573242187501
1.2169999999999843,6.527252197265626,0.007476806640625,6.5448974609375
1.2269999999999754,6.565533447265626,-0.446514892578125,7.233511352539063
1.2370000000000232,6.637908935546876,-0.7194183349609375,8.099176025390626
1.247000000000014,6.3825012207031255,-0.6930999755859375,7.548434448242188
1.2570000000000014,6.4731201171875,-0.52576904296875,6.731518554687501
1.266999999999996,6.993057250976563,-0.2397064208984375,6.2912841796875005
1.2769999999999904,7.833001708984375,0.12261962890625,6.282461547851563
1.2869999999999775,7.765261840820313,0.252716064453125,6.163580322265625
1.2970000000000257,7.31351318359375,0.23507080078125,5.887835693359375
1.3070000000000164,6.466989135742188,0.0849365234375,6.930252075195313
1.3170000000000035,6.232516479492188,-0.1155914306640625,7.822235107421876
1.3269999999999982,6.183468627929688,-0.1688262939453125,8.428305053710938
1.3369999999999926,6.432147216796875,-0.308343505859375,7.284054565429688
1.34699999999998,7.000982666015625,-0.197686767578125,6.44560546875
1.3570000000000275,7.053021240234376,0.2133880615234375,6.243283081054688
1.3670000000000186,7.249661254882813,0.49346923828125,6.539663696289063
1.3770000000000095,7.057806396484375,0.3156707763671875,6.632077026367188
1.3870000000000005,6.931597900390625,-0.126507568359375,6.183468627929688
1.396999999999995,7.4651428222656255,-0.7070068359375,6.583926391601563
1.4069999999999825,7.078890991210938,-1.182681274414063,6.9181396484375
1.4170000000000336,7.141397094726563,-0.90738525390625,7.552322387695313
1.427000000000021,5.681475830078125,-0.283221435546875,7.780813598632813
1.4370000000000118,5.460610961914063,0.322100830078125,7.114031982421875
1.4470000000000027,7.131378173828126,0.8230468750000001,7.64249267578125
1.4569999999999936,7.658343505859375,0.7134368896484375,6.359024047851563
1.4669999999999843,7.791580200195313,0.62027587890625,5.877218627929688
1.4769999999999754,6.666769409179688,0.7741485595703126,6.4079223632812505
1.4870000000000232,6.4198852539062505,0.5326477050781251,7.077096557617188
1.497000000000014,6.9396728515625,-0.198284912109375,7.870535278320313
1.5070000000000014,7.20943603515625,-0.9893310546875,6.630880737304688
1.516999999999996,6.782809448242188,-1.2463836669921875,6.444708251953125
1.5269999999999904,6.628787231445313,-1.021182250976563,6.63701171875
1.5369999999999775,7.00546875,-0.497955322265625,7.349700927734376
1.5470000000000257,7.379458618164063,-0.0076263427734375,7.141098022460938
1.5559999999999832,7.036422729492188,0.2998199462890625,5.7888427734375005
1.5670000000000035,6.634768676757813,0.6733612060546875,6.391921997070313
1.5760000000000218,6.830212402343751,0.9112731933593752,7.28599853515625
1.5860000000000127,6.483139038085938,0.9117218017578126,8.40333251953125
1.5960000000000036,6.143841552734376,0.6189300537109376,7.467984008789063
1.6070000000000275,6.229824829101563,0.088525390625,6.952383422851563
1.6170000000000186,6.8140625,-0.414813232421875,6.712078857421876
1.6259999999999764,7.389627075195313,-0.7439422607421875,7.007562255859376
1.6370000000000005,7.348355102539063,-0.9197967529296877,6.499887084960938
1.6460000000000186,7.22139892578125,-1.021331787109375,5.5929504394531255
1.656000000000006,7.4172912597656255,-0.8734405517578125,6.105111694335938
1.6659999999999968,7.070516967773438,-0.4562347412109375,6.9312988281250005
1.6759999999999875,6.334799194335938,0.2513702392578125,7.936929321289063
1.6859999999999786,5.984884643554688,0.8365051269531251,7.719204711914063
1.69600000000003,6.266012573242188,1.0039855957031252,7.133172607421876
1.7060000000000173,6.967785644531251,0.91934814453125,6.917990112304688
1.7169999999999843,6.747817993164063,0.56524658203125,6.857128906250001
1.7260000000000026,6.969729614257813,-0.075665283203125,6.731518554687501
1.7359999999999935,7.30693359375,-0.7651763916015626,6.459213256835938
1.745999999999981,7.514041137695313,-1.1650360107421875,6.205749511718751
1.7560000000000286,8.114727783203126,-0.8534027099609376,6.667367553710938
1.766000000000016,5.724093627929688,-0.0548797607421875,7.099377441406251
1.7760000000000105,5.283560180664063,0.5239746093750001,7.334597778320313
1.7860000000000014,6.765762329101563,0.4714874267578125,8.3082275390625
1.7959999999999925,7.339682006835938,0.50662841796875,7.232464599609376
1.8059999999999832,7.336242675781251,0.94925537109375,6.394613647460938
1.817000000000004,6.866101074218751,1.038677978515625,5.6022216796875
1.8260000000000216,7.4651428222656255,0.5461059570312501,6.009857177734375
1.8360000000000127,7.575051879882813,-0.3865509033203125,7.017282104492188
1.846000000000004,6.752902221679688,-0.9407318115234377,7.079937744140626
1.8559999999999943,5.996099853515625,-1.0406219482421877,7.499087524414063
1.8659999999999848,5.836544799804688,-0.8779266357421875,7.859020996093751
1.8759999999999764,6.868643188476563,-0.500946044921875,7.643240356445313
1.886000000000024,7.341775512695313,-0.0370849609375,6.7832580566406255
1.8960000000000183,7.361663818359376,0.4652069091796875,5.311373901367188
1.906000000000006,7.1813232421875,0.7487274169921876,5.91864013671875
1.9170000000000336,7.306185913085938,0.5879760742187501,6.853689575195313
1.925999999999988,6.773239135742188,0.353802490234375,7.878012084960938
1.9359999999999784,5.8366943359375005,-0.0001495361328125,7.589556884765625
1.94600000000003,5.923574829101563,-0.33017578125,7.360317993164063
1.9560000000000173,6.596636962890625,-0.494366455078125,7.502676391601563
1.9660000000000049,7.326373291015625,-0.3922332763671875,7.01085205078125
1.9760000000000024,7.259979248046876,-0.0372344970703125,6.388333129882813
1.985999999999993,7.112985229492188,0.0755157470703125,5.4628540039062505
1.995999999999981,7.639501953125,0.023626708984375,6.176889038085938
2.0060000000000286,7.392767333984375,-0.191705322265625,6.8385864257812505
2.016999999999996,6.488970947265625,-0.2543609619140625,7.320989990234375
2.0260000000000105,6.163430786132813,-0.2980255126953125,7.2746337890625
2.0360000000000014,6.317453002929688,-0.4239349365234375,7.251754760742188
2.0459999999999923,7.0748535156250005,-0.248529052734375,7.289886474609376
2.055000000000007,6.553121948242188,0.169873046875,7.074554443359376
2.0649999999999977,6.218310546875,0.509619140625,6.612936401367188
2.076000000000022,7.722195434570313,0.3090911865234375,6.4916625976562505
2.084999999999976,7.879058837890626,-0.13458251953125,6.222946166992188
2.095000000000031,7.670306396484375,-0.145050048828125,6.2841064453125
2.105000000000018,6.253152465820313,0.0261688232421875,7.196875
2.117000000000018,5.205950927734375,0.1069183349609375,7.666268920898438
2.125,6.41031494140625,-0.107366943359375,8.382696533203125
2.1349999999999945,7.073358154296876,-0.3792236328125,7.447198486328125
2.144999999999982,7.412506103515626,-0.19439697265625,5.897854614257813
2.155000000000033,7.293325805664063,0.246435546875,5.953930664062501
2.1650000000000205,7.315307617187501,0.375634765625,6.076998901367188
2.175000000000008,7.111938476562501,0.2289398193359375,7.229324340820313
2.1850000000000023,6.778173828125,-0.161798095703125,6.983038330078125
2.194999999999993,6.175543212890625,-0.3608306884765625,7.086666870117188
2.204999999999984,6.337341308593751,-0.1736114501953125,7.798757934570313
2.2169999999999845,6.600375366210938,0.1105072021484375,7.584622192382813
2.2250000000000227,6.882101440429688,0.2190704345703125,7.070217895507813
2.2350000000000136,7.553369140625,0.0602630615234375,5.433544921875001
2.2450000000000045,7.490264892578126,-0.03409423828125,5.946005249023438
2.254999999999992,7.028048706054688,-0.0587677001953125,6.657348632812501
2.26499999999999,6.648825073242188,-0.0832916259765625,7.9110595703125
2.2749999999999773,6.144140625,-0.1341339111328125,7.72384033203125
2.285000000000025,6.042755126953125,-0.1466949462890625,7.174893188476563
2.295000000000016,6.725985717773438,0.04246826171875,7.159042358398438
2.305000000000007,7.101919555664063,0.250323486328125,6.98453369140625
2.317000000000004,7.275680541992188,0.35828857421875,6.628787231445313
2.3249999999999886,7.0090576171875005,0.2213134765625,6.020474243164063
2.334999999999976,6.9994873046875,-0.08912353515625,6.275283813476563
2.345000000000031,7.352691650390626,-0.4673004150390625,6.875521850585938
2.355000000000018,7.040161132812501,-0.7315307617187501,7.22020263671875
2.365000000000009,6.531588745117188,-0.734222412109375,6.909017944335938
2.375,6.27513427734375,-0.435748291015625,7.097882080078126
2.3849999999999945,6.546392822265625,0.0324493408203125,7.296914672851563
2.394999999999982,7.1735473632812505,0.483001708984375,7.400393676757813
2.405000000000033,6.995150756835938,0.6748565673828125,6.435586547851563
2.4170000000000336,6.859222412109376,0.7364654541015625,6.20694580078125
2.425000000000008,6.746472167968751,0.3865509033203125,6.511102294921876
2.4350000000000023,6.987673950195313,-0.3289794921875,6.999935913085938
2.444999999999993,7.219006347656251,-0.9036468505859376,7.260128784179688
2.454999999999984,6.4722229003906255,-1.254458618164063,6.720303344726563
2.4649999999999785,7.371084594726563,-0.6616973876953125,7.253399658203126
2.4750000000000227,6.701910400390625,0.169573974609375,7.19627685546875
2.4850000000000136,5.960958862304688,0.7738494873046876,6.828567504882813
2.4950000000000045,6.984683227539063,0.9120208740234376,6.852792358398438
2.504999999999992,7.370635986328126,0.530853271484375,6.654208374023438
2.51499999999999,7.499536132812499,0.3718963623046875,6.925765991210938
2.5249999999999773,6.280368041992188,0.21593017578125,6.994403076171875
2.535000000000025,6.20335693359375,-0.029010009765625,7.134817504882813
2.545000000000016,6.821838378906251,-0.710296630859375,7.192239379882813
2.555000000000007,7.5856689453125,-1.0787536621093752,6.756640625
2.5640000000000214,7.077694702148438,-0.6839782714843751,6.518429565429688
2.5740000000000123,6.311322021484376,0.05802001953125,6.757537841796876
2.584000000000003,6.606356811523438,0.5516387939453126,7.210034179687501
2.593999999999994,7.200164794921876,0.552685546875,7.350747680664063
2.603999999999985,7.077993774414063,0.5731719970703125,6.55028076171875
2.613999999999976,6.477157592773438,0.5333953857421876,6.610992431640626
2.624000000000024,6.749911499023438,0.142059326171875,6.887634277343751
2.6340000000000146,7.1825195312500005,-0.3712982177734375,7.530639648437501
2.644000000000002,6.714321899414063,-0.6184814453125,7.077545166015626
2.6539999999999964,6.1644775390625,-0.5314514160156251,6.816305541992188
2.663999999999991,6.505120849609376,-0.3955230712890625,7.014291381835938
2.673999999999978,7.310223388671876,-0.12381591796875,7.241586303710938
2.684000000000029,7.296914672851563,0.184228515625,6.550579833984376
2.694000000000017,7.082928466796876,0.265277099609375,5.616278076171875
2.704000000000004,7.528396606445313,0.174359130859375,6.113934326171876
2.713999999999998,7.0509277343750005,-0.088226318359375,6.996945190429688
2.723999999999993,6.394613647460938,-0.0823944091796875,7.973266601562501
2.7339999999999804,5.843572998046875,-0.1293487548828125,7.630230712890626
2.744000000000028,6.386688232421876,-0.363671875,7.101620483398438
2.7540000000000155,7.231716918945313,-0.2687164306640625,6.794772338867188
2.76400000000001,7.281063842773438,0.031402587890625,6.5125976562500005
2.774000000000001,6.868045043945313,0.43724365234375,6.574505615234376
2.783999999999992,6.286947631835938,0.2740997314453125,6.3798095703125
2.7939999999999827,7.628286743164063,-0.1840789794921875,6.822885131835938
2.804000000000034,7.563388061523438,-0.459375,6.948196411132813
2.8140000000000214,6.789089965820313,-0.288006591796875,6.750360107421876
2.8240000000000123,6.2254882812500005,0.0503936767578125,7.391421508789063
2.834000000000003,5.9612579345703125,0.1380218505859375,7.226483154296876
2.843999999999994,6.868194580078126,0.193499755859375,7.757934570312501
2.853999999999985,7.024908447265625,0.0662445068359375,6.781912231445313
2.863999999999976,7.358822631835938,0.043365478515625,5.972622680664063
2.874000000000024,7.320690917968751,0.159405517578125,6.570617675781251
2.8840000000000146,6.840530395507813,0.211444091796875,6.757687377929688
2.894000000000002,6.521121215820313,0.236566162109375,7.677334594726563
2.9039999999999964,6.674246215820313,-0.162396240234375,6.829165649414063
2.913999999999991,6.902438354492188,-0.58438720703125,6.790585327148438
2.923999999999978,7.137808227539063,-0.40494384765625,6.904830932617188
2.934000000000029,6.432147216796875,-0.017047119140625,7.251455688476563
2.944000000000017,6.651068115234375,0.2089019775390625,7.198519897460938
2.954000000000004,7.234109497070313,-0.038580322265625,6.268255615234375
2.963999999999998,7.54918212890625,-0.2011260986328125,6.208441162109375
2.973999999999993,6.795071411132813,-0.02691650390625,6.476260375976563
2.9839999999999804,6.464895629882813,0.199481201171875,7.778121948242188
2.994000000000028,6.412857055664063,0.29010009765625,7.742980957031251
3.0040000000000155,6.34093017578125,0.165985107421875,7.369140625000001
3.01400000000001,6.688900756835938,0.1686767578125,6.660189819335938
3.024000000000001,6.997842407226563,0.1410125732421875,6.721649169921876
3.033999999999992,7.203753662109375,0.060711669921875,6.889578247070313
3.0430000000000064,7.131677246093751,-0.1957427978515625,6.522766113281251
3.0529999999999973,6.871783447265625,-0.4825531005859375,6.352444458007813
3.062999999999988,7.196575927734376,-0.6838287353515625,6.335397338867188
3.0729999999999755,7.190594482421876,-0.6823333740234375,7.130331420898438
3.0830000000000304,6.75125732421875,-0.4222900390625,7.0030761718750005
3.0930000000000177,6.285751342773438,0.0883758544921875,7.3787109375
3.103999999999985,6.259732055664063,0.5235260009765625,7.147677612304688
3.1129999999999995,7.0150390625000005,0.71478271484375,7.246072387695313
3.122999999999994,7.207791137695313,0.653173828125,6.720452880859376
3.1329999999999814,6.9851318359375005,0.4000091552734375,6.2389465332031255
3.1430000000000327,6.419436645507813,-0.0808990478515625,6.5081115722656255
3.15300000000002,7.335644531250001,-0.808392333984375,6.676190185546876
3.163000000000011,7.151116943359376,-1.2810760498046876,7.44869384765625
3.173000000000002,6.898251342773438,-1.23038330078125,6.590057373046876
3.1829999999999927,7.245474243164063,-0.3542510986328125,7.223193359375
3.192999999999984,5.93778076171875,0.6787445068359376,7.033731079101563
3.203000000000035,6.0998779296875005,1.1566619873046875,7.081881713867188
3.2130000000000223,7.323532104492188,1.1345306396484376,7.527798461914063
3.223000000000013,7.246072387695313,0.7022216796875,6.328070068359375
3.233000000000004,7.061395263671876,0.487786865234375,6.911859130859376
3.2429999999999914,6.580337524414063,-0.026617431640625,6.464297485351563
3.252999999999989,6.848455810546875,-0.5967987060546875,7.3679443359375005
3.262999999999977,6.9755615234375,-1.1711669921875,6.943112182617188
3.273000000000025,6.873876953125,-1.2252990722656252,6.728527832031251
3.2830000000000155,6.814810180664063,-0.6338836669921876,6.829165649414063
3.2930000000000064,6.594692993164063,0.080450439453125,6.983187866210938
3.3029999999999973,6.919784545898438,0.78895263671875,7.3248779296875
3.312999999999988,6.990365600585938,1.036135864257813,6.7339111328125005
3.3229999999999755,6.815109252929688,1.0279113769531252,6.587963867187501
3.3330000000000304,6.8774658203125005,0.6895111083984375,6.689648437500001
3.3430000000000177,6.891970825195313,0.048748779296875,7.300054931640625
3.353000000000005,6.640750122070313,-0.5100677490234375,7.30693359375
3.3629999999999995,6.4372314453125,-0.8821136474609376,7.135714721679688
3.372999999999994,6.530990600585938,-0.892132568359375,6.989169311523438
3.3829999999999814,6.829763793945313,-0.716278076171875,6.937728881835938
3.3930000000000327,7.370037841796876,-0.2247528076171875,6.828268432617188
3.40300000000002,7.250259399414063,0.266473388671875,6.235507202148438
3.413999999999991,7.040011596679688,0.493170166015625,5.883200073242188
3.423000000000002,7.426861572265626,0.4421783447265625,6.565383911132813
3.4329999999999927,7.078890991210938,0.1248626708984375,7.064086914062501
3.442999999999984,6.184963989257813,0.0136077880859375,7.755392456054688
3.453000000000035,5.7960205078125,-0.0474029541015625,7.664175415039063
3.4630000000000223,6.385342407226563,-0.2534637451171875,7.526901245117188
3.473000000000013,7.350897216796875,-0.3354095458984375,6.737649536132813
3.483000000000004,7.372280883789063,-0.20037841796875,6.190795898437501
3.492000000000018,7.117919921875001,0.096600341796875,6.001782226562501
3.502999999999989,6.558056640625001,0.1697235107421875,6.720004272460938
3.5120000000000005,6.823184204101563,-0.1018341064453125,7.099227905273438
3.523000000000025,7.531985473632813,-0.49227294921875,7.114031982421875
3.5319999999999823,6.787445068359376,-0.5203857421875,6.594244384765625
3.5420000000000336,7.016085815429688,-0.111553955078125,6.888531494140626
3.552000000000021,6.237002563476563,0.3883453369140625,7.605856323242188
3.562000000000012,6.0749053955078125,0.5594146728515625,7.203903198242188
3.5729999999999755,6.995300292968751,0.4044952392578125,7.412506103515626
3.5819999999999936,7.252651977539063,0.0179443359375,6.0304931640625
3.5919999999999845,7.408468627929688,-0.042169189453125,6.6645263671875
3.6019999999999754,6.796716308593751,0.1712188720703125,6.9103637695312505
3.612000000000023,6.392819213867188,0.11424560546875,7.298110961914063
3.622000000000014,6.786248779296876,-0.210247802734375,7.130929565429688
3.6320000000000014,7.250408935546876,-0.6524261474609375,6.338388061523438
3.641999999999996,7.133322143554688,-0.5333953857421876,6.712228393554688
3.6519999999999904,6.643142700195313,-0.129498291015625,6.932196044921875
3.6619999999999777,6.447998046875001,0.1526763916015625,7.443310546875001
3.6720000000000255,6.941317749023438,0.1795928955078125,7.0987792968750005
3.682000000000016,7.258035278320313,0.0773101806640625,6.285601806640625
3.692000000000004,6.720751953125,0.1906585693359375,6.628787231445313
3.701999999999998,6.862811279296875,0.2594451904296875,6.897952270507813
3.7119999999999926,6.809426879882813,0.258697509765625,7.806683349609376
3.72199999999998,6.4482971191406255,0.1523773193359375,7.046890258789063
3.732000000000028,6.381454467773438,0.02572021484375,7.02281494140625
3.742000000000018,6.8439697265625,-0.0710296630859375,6.878063964843751
3.7520000000000095,6.989767456054688,-0.188714599609375,7.131677246093751
3.762000000000001,7.1406494140625005,-0.275445556640625,6.69742431640625
3.771999999999995,7.032534790039063,-0.386700439453125,5.976959228515625
3.7819999999999823,7.380355834960938,-0.572125244140625,6.2389465332031255
3.7920000000000336,7.64847412109375,-0.5773590087890625,6.489419555664063
3.802000000000021,6.476409912109376,-0.284716796875,7.416543579101563
3.812000000000012,6.114682006835938,0.1780975341796875,7.312765502929688
3.8220000000000014,6.1312805175781255,0.43604736328125,7.688699340820313
3.8319999999999936,7.032086181640626,0.428570556640625,7.012945556640625
3.841999999999985,7.250259399414063,0.5597137451171875,6.999935913085938
3.851999999999976,6.689050292968751,0.61549072265625,6.354687500000001
3.862000000000023,6.564486694335938,0.4517486572265625,6.762921142578126
3.872000000000014,6.778173828125,-0.4155609130859375,6.679031372070313
3.8820000000000014,7.682867431640625,-1.19210205078125,6.602618408203125
3.891999999999996,7.138406372070313,-1.434051513671875,6.662731933593751
3.9019999999999904,6.862811279296875,-0.9666015625,6.593347167968751
3.9119999999999777,7.274484252929688,-0.0043365478515625,7.759130859375
3.9220000000000255,5.82891845703125,0.7360168457031251,7.039712524414063
3.932000000000016,6.1552062988281255,1.289300537109375,7.077993774414063
3.942000000000004,6.881652832031251,1.160699462890625,7.211080932617188
3.951999999999998,7.720999145507813,0.5072265625000001,6.534729003906251
3.9619999999999926,7.358673095703126,0.1200775146484375,7.003375244140625
3.97199999999998,6.206646728515626,-0.126507568359375,6.310424804687501
3.982000000000028,6.380856323242188,-0.5411712646484376,7.486227416992188
3.992000000000018,7.444357299804688,-1.2296356201171876,6.869839477539063
4.0020000000000095,7.336093139648438,-1.2812255859375,6.860119628906251
4.011000000000024,6.710733032226563,-0.4613189697265625,6.437680053710938
4.021999999999995,6.014193725585938,0.4879364013671875,7.145883178710938
4.031999999999982,7.11253662109375,0.9245819091796876,7.651763916015626
4.040999999999997,7.255642700195313,0.8380004882812501,6.845166015625001
4.050999999999988,7.035824584960938,0.7644287109375001,6.210534667968751
4.060999999999979,6.361117553710938,0.5040863037109375,6.320742797851563
4.07100000000003,6.970327758789063,-0.1386199951171875,7.609893798828126
4.081000000000017,7.021917724609375,-0.6836791992187501,7.689447021484375
4.091000000000005,6.324780273437501,-0.8676086425781251,7.077545166015626
4.101000000000003,6.064587402343751,-0.6745574951171875,6.547589111328126
4.1109999999999935,6.942214965820313,-0.414215087890625,7.142742919921876
4.120999999999981,7.63052978515625,0.0490478515625,7.096685791015625
4.131000000000029,7.243380737304688,0.360980224609375,6.064288330078125
4.141000000000016,7.276876831054688,0.37144775390625,5.366253662109376
4.1510000000000105,7.377813720703125,0.1016845703125,6.294274902343751
4.161000000000001,6.941766357421876,-0.11424560546875,7.67598876953125
4.170999999999992,5.8247314453125005,-0.01256103515625,8.3034423828125
4.180999999999983,5.706298828125,-0.09031982421875,7.662979125976563
4.1910000000000345,6.558206176757813,-0.319110107421875,6.988122558593751
4.201000000000022,7.641595458984375,-0.134283447265625,6.624450683593751
4.211000000000013,7.268801879882813,0.3150726318359375,6.503924560546875
4.221000000000004,6.902737426757813,0.5298065185546875,6.166870117187501
4.2309999999999945,6.748416137695313,0.1475921630859375,6.392221069335938
4.2409999999999854,7.069918823242188,-0.5236755371093751,6.692190551757813
4.250999999999976,7.514190673828126,-0.8016632080078125,7.311569213867188
4.261000000000024,6.402389526367188,-0.6587066650390625,7.112985229492188
4.271000000000019,6.9821411132812505,-0.3046051025390625,7.092498779296876
4.281000000000006,6.399548339843751,0.0994415283203125,7.158294677734376
4.290999999999997,6.241787719726563,0.6162384033203125,6.904083251953126
4.300999999999988,6.944906616210938,0.8719451904296875,7.537069702148438
4.310999999999979,7.060049438476563,0.4222900390625,6.301303100585938
4.32100000000003,7.608847045898438,0.088226318359375,6.664675903320313
4.331000000000017,6.739743041992188,0.1299468994140625,6.755444335937501
4.341000000000005,6.182122802734376,0.170172119140625,7.363009643554688
4.351000000000003,6.680377197265625,-0.289501953125,7.4442077636718755
4.3609999999999935,7.551425170898438,-0.9778167724609376,6.334799194335938
4.370999999999981,7.2991577148437505,-0.9003570556640625,6.234310913085938
4.381000000000029,6.5918518066406255,-0.316717529296875,6.680227661132813
4.391000000000016,6.364108276367188,0.2385101318359375,7.614529418945313
4.4010000000000105,6.93309326171875,0.3061004638671875,7.569818115234375
4.411000000000001,7.334747314453126,0.232977294921875,6.182720947265626
4.420999999999992,6.6711059570312505,0.3659149169921875,6.323583984375
4.430999999999983,6.692489624023438,0.524273681640625,6.820642089843751
4.4410000000000345,6.794921875000001,0.3754852294921875,8.124447631835938
4.451000000000022,6.681723022460938,0.0590667724609375,7.285400390625001
4.461000000000013,6.356182861328126,-0.187518310546875,6.6023193359375005
4.471000000000004,6.829165649414063,-0.37384033203125,6.497494506835938
4.4809999999999945,7.248165893554688,-0.4726837158203125,7.096536254882813
4.4909999999999854,7.316354370117188,-0.4765716552734375,7.041656494140626
4.500999999999976,6.759780883789063,-0.4131683349609375,6.160589599609375
4.511000000000024,6.860717773437501,-0.29847412109375,6.257489013671876
4.521000000000019,7.2387451171875,-0.127703857421875,6.821240234375001
4.531000000000006,7.097134399414063,0.109759521484375,7.612286376953126
4.540999999999997,6.350350952148438,0.421990966796875,7.13646240234375
4.550000000000008,5.967538452148438,0.6041259765625,7.088012695312501
4.560000000000002,6.7339111328125005,0.4909271240234375,7.12509765625
4.569999999999993,7.340130615234376,0.2388092041015625,7.307830810546876
4.579999999999984,7.147079467773438,-0.029608154296875,6.449792480468751
4.5899999999999785,6.600524902343751,-0.3237457275390625,6.223095703125001
4.600000000000023,6.556561279296876,-0.7859619140625,6.315359497070313
4.610000000000014,7.872479248046876,-1.136773681640625,7.094143676757813
4.6200000000000045,7.071563720703126,-1.239654541015625,6.959262084960938
4.629999999999992,6.912905883789063,-0.5378814697265626,6.568374633789063
4.63999999999999,6.775930786132813,0.576611328125,7.483535766601563
4.649999999999977,5.6381103515625,1.3956207275390626,7.370187377929688
4.660000000000025,6.4755126953125,1.5239227294921875,7.478152465820313
4.670000000000016,7.194781494140625,0.925030517578125,7.028945922851563
4.680000000000007,7.433590698242188,0.3013153076171875,6.097784423828125
4.689999999999998,7.100723266601563,-0.1495361328125,6.951187133789063
4.699999999999989,6.786248779296876,-0.6029296875000001,6.6406005859375
4.70999999999998,6.667965698242188,-1.0513885498046875,7.281362915039063
4.720000000000027,6.965093994140625,-1.3506103515625,6.632376098632813
4.730000000000018,6.959262084960938,-0.9555358886718752,6.826773071289063
4.740000000000009,6.741088867187501,-0.1715179443359375,7.037918090820313
4.75,6.5927490234375,0.7255493164062501,7.171603393554688
4.759999999999991,6.781314086914063,1.2293365478515623,7.211529541015626
4.769999999999982,7.028347778320313,1.2589447021484377,6.587515258789063
4.780000000000037,6.995300292968751,0.9790130615234376,6.676638793945313
4.7900000000000205,6.783856201171876,0.3216522216796875,6.709237670898438
4.800000000000011,6.813613891601563,-0.4565338134765625,7.3709350585937505
4.810000000000002,6.602169799804688,-1.0113128662109376,7.332803344726563
4.819999999999993,6.459213256835938,-1.1749053955078126,7.150668334960938
4.829999999999984,6.683816528320313,-0.9734802246093752,6.889129638671876
4.839999999999975,6.936981201171876,-0.5597137451171875,6.706246948242188
4.850000000000023,7.699017333984376,0.04725341796875,6.402090454101563
4.860000000000014,7.193136596679688,0.47073974609375,6.030792236328125
4.8700000000000045,7.162182617187501,0.672613525390625,6.023016357421875
4.879999999999996,7.027151489257813,0.5136566162109375,7.046591186523438
4.889999999999986,6.549084472656251,0.240155029296875,7.662680053710938
4.899999999999977,5.819348144531251,0.152227783203125,8.148373413085938
4.910000000000025,5.987875366210938,-0.0599639892578125,7.553219604492188
4.920000000000016,6.791482543945313,-0.2986236572265625,7.030291748046875
4.930000000000007,7.6849609375,-0.413018798828125,6.274237060546875
4.939999999999998,7.484732055664063,-0.2763427734375,5.919985961914063
4.949000000000012,6.736602783203126,-0.042767333984375,6.26915283203125
4.95999999999998,6.478353881835938,-0.2284912109375,6.718209838867188
4.968999999999994,7.796664428710938,-0.5582183837890625,7.245025634765626
4.978999999999985,6.8834472656250005,-0.6373229980468751,6.800903320312501
4.988999999999976,6.920980834960938,0.0095703125,7.043899536132813
5.0,5.979351806640626,0.6661834716796875,7.579537963867188
5.009999999999991,5.9507904052734375,0.90379638671875,7.408917236328126
5.0190000000000055,7.162481689453125,0.6838287353515625,7.409664916992188
5.028999999999996,7.215716552734375,0.101983642578125,6.151617431640625
5.038999999999987,7.598529052734375,-0.11424560546875,6.202310180664063
5.048999999999978,6.866400146484375,-0.1876678466796875,6.941168212890625
5.059000000000026,6.40672607421875,-0.2361175537109375,7.222744750976563
5.069000000000017,6.530093383789063,-0.4438232421875,7.575949096679688
5.079000000000008,7.2291748046875,-0.737213134765625,6.408520507812501
5.088999999999999,7.045693969726563,-0.533544921875,6.534130859375001
5.098999999999997,6.9899169921875,0.0916656494140625,6.892718505859375
5.1089999999999804,6.384445190429688,0.5683868408203125,7.240390014648438
5.119000000000028,6.893466186523438,0.5490966796875001,7.21781005859375
5.129000000000019,7.268801879882813,0.176751708984375,6.193487548828125
5.13900000000001,6.899896240234376,-0.00538330078125,6.690246582031251
5.149000000000001,6.501382446289063,0.0375335693359375,6.958963012695313
5.158999999999992,6.760827636718751,-0.039178466796875,7.99539794921875
5.168999999999983,6.552673339843751,-0.1353302001953125,7.1466308593750005
5.179000000000031,6.491961669921875,-0.139068603515625,6.72374267578125
5.189000000000021,6.740490722656251,0.072674560546875,6.769351196289063
5.199000000000012,7.156948852539063,0.10228271484375,7.064834594726563
5.209000000000003,7.232913208007813,0.0758148193359375,6.865951538085938
5.218999999999994,6.896755981445313,-0.1733123779296875,5.928958129882813
5.228999999999985,7.263717651367188,-0.4655059814453125,6.238796997070313
5.238999999999976,7.2770263671875,-0.5917144775390626,6.796566772460938
5.249000000000024,6.787295532226563,-0.5151519775390625,7.455722045898438
5.259000000000015,6.2568908691406255,-0.130694580078125,7.348654174804688
5.2690000000000055,6.171954345703125,0.181536865234375,7.137808227539063
5.278999999999996,6.817950439453125,0.4702911376953125,7.230969238281251
5.288999999999987,7.227828979492188,0.679791259765625,7.0509277343750005
5.298999999999978,6.938177490234375,0.701025390625,6.499737548828126
5.309000000000026,6.878363037109375,0.3599334716796875,6.284405517578126
5.319000000000017,6.604562377929688,-0.4535430908203125,6.347210693359376
5.329000000000008,7.747915649414063,-1.07366943359375,6.997393798828125
5.338999999999999,6.7219482421875005,-1.418499755859375,7.148724365234376
5.348999999999997,6.824230957031251,-1.074566650390625,6.915298461914063
5.3589999999999804,7.34342041015625,-0.136376953125,7.299755859375001
5.369000000000028,5.841778564453126,0.7902984619140626,6.98692626953125
5.379000000000019,6.219805908203125,1.403546142578125,6.997991943359375
5.38900000000001,7.192837524414063,1.208551025390625,7.377664184570313
5.399000000000001,7.505218505859376,0.738409423828125,6.573608398437501
5.408999999999992,6.999337768554688,0.3928314208984375,6.982739257812501
5.418999999999983,6.420632934570313,-0.094207763671875,6.444857788085938
5.429000000000031,6.636563110351563,-0.7056610107421876,7.2647644042968755
5.439000000000021,7.1932861328125,-1.415957641601563,6.928308105468751
5.449000000000012,7.228427124023438,-1.3399932861328123,6.772790527343751
5.458000000000027,6.62205810546875,-0.6799407958984376,6.716714477539063
5.468000000000018,6.352444458007813,0.280230712890625,7.054965209960938
5.478999999999985,7.042105102539063,0.892132568359375,7.403982543945313
5.488,7.114031982421875,1.093109130859375,6.818847656250001
5.499000000000024,6.866699218750001,1.1129974365234376,6.4013427734375
5.509000000000015,6.564486694335938,0.7349700927734375,6.6471801757812505
5.518000000000036,7.020870971679688,0.0515899658203125,7.45706787109375
5.52800000000002,6.733761596679688,-0.5825927734375,7.553369140625
5.538000000000011,6.276779174804688,-0.9832000732421876,6.973767089843751
5.548000000000002,6.521270751953126,-0.9830505371093752,6.773538208007813
5.557999999999993,7.013543701171876,-0.8345611572265625,6.902737426757813
5.567999999999984,7.652362060546875,-0.29847412109375,6.72972412109375
5.578000000000031,7.095339965820313,0.188116455078125,6.119168090820313
5.588000000000022,7.097283935546876,0.4750762939453125,5.759533691406251
5.598000000000013,7.320541381835938,0.4741790771484375,6.847409057617188
5.6089999999999804,6.796865844726563,0.2687164306640625,7.3918701171875005
5.617999999999995,6.072512817382813,0.3055023193359375,8.070166015625
5.627999999999986,5.768206787109375,0.0964508056640625,7.471273803710938
5.637999999999977,6.5006347656250005,-0.168377685546875,7.30394287109375
5.648000000000025,7.655801391601563,-0.3425872802734375,6.575552368164063
5.658000000000016,6.987973022460938,-0.3672607421875,6.164328002929688
5.668000000000006,6.8415771484375005,-0.2588470458984375,5.9874267578125
5.677999999999997,7.742831420898438,-0.4725341796875,6.572711181640625
5.687999999999988,7.563537597656251,-0.551190185546875,6.78355712890625
5.697999999999979,7.078591918945313,-0.22430419921875,6.886138916015626
5.708000000000027,5.73082275390625,0.4104766845703125,7.613034057617188
5.718000000000018,5.272793579101563,0.8142242431640626,7.622006225585938
5.728000000000009,6.85234375,0.67889404296875,8.4039306640625
5.738,7.43673095703125,0.2594451904296875,6.469979858398438
5.747999999999991,7.660885620117188,0.0650482177734375,5.75714111328125
5.757999999999981,7.078591918945313,0.1117034912109375,5.950939941406251
5.768000000000036,6.950289916992188,-0.1320404052734375,6.8056884765625005
5.77800000000002,6.892269897460938,-0.5404235839843751,7.775131225585938
5.788000000000011,6.650918579101563,-0.8860015869140626,6.895709228515625
5.798000000000002,6.377865600585938,-0.7541107177734375,6.880606079101563
5.809000000000026,6.623403930664063,-0.1245635986328125,7.351644897460938
5.817999999999984,6.863858032226563,0.4390380859375,7.341476440429688
5.828000000000031,7.21123046875,0.6341827392578125,6.772491455078126
5.838000000000022,7.505966186523438,0.4260284423828125,5.3511505126953125
5.848000000000013,6.901989746093751,0.26856689453125,6.449942016601563
5.858000000000004,6.748864746093751,0.1532745361328125,7.375271606445313
5.867999999999995,6.388183593750001,-0.053533935546875,8.393463134765625
5.877999999999986,6.161038208007813,-0.249725341796875,7.3933654785156255
5.887999999999977,6.357678222656251,-0.37802734375,6.66392822265625
5.898000000000025,7.061096191406251,-0.17406005859375,6.87327880859375
5.908999999999992,7.258782958984375,0.0895721435546875,6.964346313476563
5.918000000000006,7.151565551757813,0.1595550537109375,6.704751586914063
5.927999999999997,6.990814208984376,-0.016748046875,5.769552612304688
5.937999999999988,7.288540649414063,-0.280230712890625,6.220852661132813
5.947000000000003,7.359271240234375,-0.5570220947265625,6.7243408203125
5.958000000000027,6.841278076171876,-0.5356384277343751,7.577294921875
5.9669999999999845,6.007763671875001,-0.2504730224609375,7.36734619140625
5.976999999999975,5.957070922851563,0.152227783203125,7.601220703125
5.987000000000023,6.668713378906251,0.5179931640625001,7.40323486328125
5.997000000000014,7.415347290039063,0.6575103759765626,6.9103637695312505
6.009000000000015,7.3814025878906255,0.62745361328125,6.030343627929688
6.016999999999996,6.888980102539063,0.3751861572265625,5.914303588867188
6.026999999999987,6.61607666015625,-0.155816650390625,6.8236328125000005
6.036999999999978,7.143191528320313,-0.9302642822265624,7.138107299804688
6.0470000000000255,6.9851318359375005,-1.4808563232421876,7.237698364257813
6.057000000000016,6.59873046875,-1.3758819580078123,6.636114501953125
6.067000000000007,7.3470092773437505,-0.2954833984375,7.34342041015625
6.076999999999998,6.461605834960938,0.8375518798828125,7.45347900390625
6.086999999999996,6.176141357421876,1.4060882568359376,6.507363891601563
6.09699999999998,7.113882446289063,1.3254882812500002,6.907223510742188
6.108000000000004,7.46065673828125,0.6733612060546875,6.277975463867188
6.117000000000019,7.385440063476563,0.1954437255859375,7.330111694335938
6.1270000000000095,5.917593383789063,-0.17645263671875,7.089956665039063
6.1370000000000005,6.180776977539063,-0.666632080078125,7.320391845703125
6.146999999999991,7.104611206054688,-1.2697113037109375,7.138256835937501
6.156999999999982,7.626492309570313,-1.2764404296875,6.439923095703126
6.16700000000003,7.010403442382813,-0.398065185546875,6.540411376953125
6.177000000000021,6.342126464843751,0.492572021484375,6.567327880859375
6.187000000000012,6.9061767578125,0.905889892578125,7.339532470703125
6.197000000000003,7.136761474609376,0.910076904296875,7.355233764648438
6.209000000000003,6.749163818359375,0.8359069824218751,6.70579833984375
6.2169999999999845,6.274087524414063,0.5250213623046875,6.885540771484376
6.226999999999975,6.9103637695312505,-0.1825836181640625,6.898101806640626
6.237000000000023,7.138555908203125,-0.8046539306640625,7.46962890625
6.247000000000014,6.909017944335938,-0.9645080566406252,6.730172729492188
6.257000000000005,6.3810058593750005,-0.7841674804687501,6.6112915039062505
6.266999999999996,6.818099975585938,-0.5313018798828125,6.717013549804688
6.276999999999987,7.4780029296875,-0.1505828857421875,6.981094360351563
6.286999999999978,7.26805419921875,0.2740997314453125,6.7578369140625005
6.2970000000000255,6.634170532226563,0.590069580078125,6.0270538330078125
6.309000000000026,6.811370849609376,0.6232666015625,7.023712158203126
6.317000000000007,6.882101440429688,0.3680084228515625,7.315606689453125
6.326999999999998,6.521420288085938,0.188714599609375,7.996594238281251
6.336999999999996,6.10107421875,-0.07835693359375,6.824380493164063
6.34699999999998,6.909466552734376,-0.404046630859375,6.764715576171875
6.357000000000028,7.298858642578126,-0.60113525390625,6.482540893554688
6.367000000000019,6.5634399414062505,-0.43843994140625,6.997543334960938
6.3770000000000095,6.935934448242188,-0.2833709716796875,6.686956787109375
6.3870000000000005,7.567874145507813,-0.2726043701171875,6.694732666015626
6.396999999999991,7.829412841796875,-0.0659454345703125,6.106756591796875
6.408999999999992,6.838436889648438,0.21353759765625,6.690545654296876
6.41700000000003,5.6741485595703125,0.7745971679687501,7.398748779296875
6.427000000000021,5.677288818359376,0.749176025390625,8.1766357421875
6.435999999999979,6.94864501953125,0.0922637939453125,8.154205322265625
6.446000000000026,7.630679321289063,-0.4373931884765625,5.9099670410156255
6.456000000000017,7.412356567382813,-0.23028564453125,6.277377319335938
6.466000000000008,6.36246337890625,0.208154296875,6.16507568359375
6.475999999999999,6.8822509765625,0.07476806640625,7.571911621093751
6.48599999999999,7.810272216796876,-0.4466644287109375,6.79552001953125
6.495999999999981,7.049880981445313,-0.9471618652343752,5.863610839843751
6.506000000000029,6.449942016601563,-0.3751861572265625,6.720751953125
6.51600000000002,5.942416381835938,0.2358184814453125,8.169906616210938
6.5260000000000105,6.657498168945313,0.4526458740234375,8.481689453125
6.536000000000001,7.189846801757813,0.2763427734375,6.472970581054688
6.545999999999992,7.395608520507813,0.1048248291015625,5.0879669189453125
6.555999999999983,7.036721801757813,0.22191162109375,6.081036376953126
6.566000000000031,7.1855102539062505,0.2247528076171875,7.6954284667968755
6.576000000000022,6.514840698242188,-0.0545806884765625,8.1718505859375
6.586000000000013,6.182122802734376,-0.3090911865234375,6.815109252929688
6.596000000000004,6.141598510742188,-0.3596343994140625,6.588861083984376
6.6059999999999945,7.05272216796875,-0.1499847412109375,7.364505004882813
6.6159999999999854,7.288540649414063,0.0542816162109375,7.409814453125
6.625999999999976,7.0225158691406255,0.1248626708984375,6.477606201171875
6.636000000000024,6.923223876953125,0.0198883056640625,5.407077026367188
6.646000000000015,7.249511718750001,-0.2100982666015625,6.386688232421876
6.656000000000006,7.412057495117188,-0.243743896484375,7.440917968750001
6.665999999999997,6.64000244140625,-0.26138916015625,7.543798828125
6.675999999999988,5.887835693359375,-0.174957275390625,6.949392700195313
6.685999999999979,6.271096801757813,0.0095703125,7.037469482421876
6.696000000000026,7.171902465820313,0.179443359375,7.385888671875
6.706000000000017,7.283755493164063,0.367559814453125,7.080685424804688
6.716000000000008,6.562393188476563,0.1888641357421875,5.870040893554688
6.725999999999999,7.29317626953125,-0.1380218505859375,5.908770751953125
6.73599999999999,7.3470092773437505,-0.6133972167968751,6.912307739257813
6.745999999999981,7.28001708984375,-0.8522064208984376,7.278372192382813
6.756000000000029,7.3485046386718755,-0.36845703125,7.413552856445313
6.76600000000002,5.045947265625,0.2074066162109375,6.820492553710938
6.7760000000000105,5.675494384765625,0.5224792480468751,7.2985595703125
6.786000000000001,7.6819702148437505,0.484796142578125,8.093194580078126
6.795999999999992,7.631576538085938,0.51260986328125,6.741836547851563
6.805999999999983,6.913504028320313,0.5809478759765625,5.786749267578125
6.816000000000031,6.8490539550781255,0.3599334716796875,5.848956298828125
6.826000000000022,7.081134033203125,-0.0336456298828125,7.347158813476563
6.836000000000013,6.89122314453125,-0.5822937011718751,7.9146484375
6.846000000000004,6.337341308593751,-0.8010650634765626,7.081283569335938
6.8559999999999945,6.311322021484376,-0.7778869628906251,6.598431396484376
6.8659999999999854,6.948794555664063,-0.371148681640625,7.027749633789063
6.875999999999976,7.407122802734375,0.289202880859375,7.301998901367188
6.886000000000024,6.986477661132813,0.6902587890625,6.643441772460938
6.896000000000015,6.751705932617188,0.753363037109375,5.8775177001953125
6.906000000000006,6.997543334960938,0.5082733154296876,6.670657348632813
6.915999999999997,7.210183715820313,0.22430419921875,7.545294189453125
6.925999999999988,6.29666748046875,-0.069085693359375,7.806982421875
6.935000000000002,5.949444580078126,-0.4077850341796875,6.997842407226563
6.944999999999993,6.862063598632813,-0.6613983154296875,6.838436889648438
6.954999999999984,7.171154785156251,-0.7044647216796875,6.770397949218751
6.964999999999975,7.341476440429688,-0.344830322265625,6.677685546875001
6.975000000000023,7.054067993164063,-0.0357391357421875,6.283657836914063
6.985000000000014,7.057806396484375,0.0438140869140625,6.07176513671875
6.9950000000000045,7.182369995117188,0.184228515625,6.970327758789063
7.004999999999996,6.723294067382813,0.2056121826171875,7.283905029296876
7.014999999999986,6.322537231445313,0.3581390380859375,7.733111572265625
7.024999999999977,6.110494995117188,0.183929443359375,7.150518798828125
7.035000000000025,6.862661743164063,-0.0106170654296875,7.108648681640625
7.045000000000016,7.282858276367188,-0.1075164794921875,6.609945678710938
7.055000000000007,7.150518798828125,-0.2187713623046875,6.424221801757813
7.064999999999998,6.681274414062501,-0.273651123046875,6.400296020507813
7.074999999999989,6.647628784179688,-0.512908935546875,6.689199829101563
7.08499999999998,7.581481933593751,-0.55328369140625,7.326223754882813
7.095000000000027,6.93070068359375,-0.49346923828125,6.69742431640625
7.105000000000018,7.395010375976563,0.05921630859375,6.894512939453126
7.115000000000009,6.013446044921875,0.6539215087890625,6.917092895507813
7.125,5.881256103515625,0.97677001953125,7.354934692382813
7.134999999999991,6.867446899414063,0.759344482421875,7.989566040039063
7.144999999999982,7.29556884765625,-0.025421142578125,6.512896728515625
7.155000000000037,7.371234130859375,-0.2361175537109375,6.458615112304688
7.1650000000000205,6.645086669921875,-0.12860107421875,6.372482299804688
7.175000000000011,6.652264404296876,-0.167181396484375,7.262820434570313
7.185000000000002,7.157247924804688,-0.5408721923828126,7.193435668945313
7.194999999999993,7.233212280273438,-0.8237945556640626,6.356930541992188
7.204999999999984,6.8191467285156255,-0.4732818603515625,6.469232177734376
7.214999999999975,6.495849609375001,0.1224700927734375,7.249362182617188
7.225000000000023,6.655703735351563,0.6006866455078126,7.819094848632813
7.235000000000014,6.751556396484376,0.5929107666015625,7.219454956054688
7.245000000000003,7.192388916015625,0.3692047119140625,5.8749755859375
7.2549999999999955,6.965542602539063,0.1870697021484375,6.380856323242188
7.264999999999986,7.013693237304688,-0.0183929443359375,6.929205322265625
7.274999999999977,6.761126708984375,-0.2068084716796875,7.897152709960938
7.285000000000025,6.432296752929688,-0.34512939453125,7.121957397460938
7.295000000000016,6.227581787109376,-0.3665130615234375,6.84097900390625
7.305000000000007,7.032086181640626,-0.2450897216796875,6.740490722656251
7.314999999999998,7.36495361328125,-0.0761138916015625,7.001580810546876
7.324999999999989,7.1406494140625005,0.0740203857421875,6.558953857421876
7.3349999999999795,6.81705322265625,0.1332366943359375,6.226235961914063
7.345000000000027,6.6875549316406255,0.133685302734375,6.852493286132813
7.355000000000018,6.967037963867188,-0.0390289306640625,7.219754028320313
7.365000000000009,7.060198974609375,-0.158807373046875,7.505816650390625
7.375,6.501382446289063,-0.2232574462890625,6.495999145507813
7.3840000000000146,6.557757568359375,-0.0988433837890625,6.876568603515626
7.394999999999982,6.763967895507813,0.0871795654296875,7.087863159179688
7.405000000000037,7.111041259765625,0.2026214599609375,7.47261962890625
7.413999999999987,6.968533325195313,0.14295654296875,6.490765380859376
7.423999999999978,6.890325927734375,0.03529052734375,6.220852661132813
7.434000000000026,6.836492919921875,-0.0659454345703125,6.638806152343751
7.444000000000017,6.743481445312501,-0.4272247314453125,7.037918090820313
7.454000000000008,7.27822265625,-0.6398651123046876,7.120013427734375
7.463999999999999,6.528149414062501,-0.8402435302734376,6.577197265625
7.473999999999997,7.009954833984375,-0.4487579345703125,6.88883056640625
7.4839999999999804,7.578042602539063,0.3772796630859375,7.503125000000001
7.494000000000028,5.944509887695313,1.014154052734375,7.118368530273438
7.504000000000019,6.049633789062501,1.0756134033203126,6.485382080078126
7.51400000000001,7.164874267578125,0.5396759033203126,7.144387817382813
7.524000000000001,7.635165405273438,0.0043365478515625,6.933242797851563
7.533999999999992,6.9181396484375,-0.167181396484375,7.336242675781251
7.543999999999983,6.158645629882813,-0.2824737548828125,6.371884155273438
7.5540000000000305,6.68187255859375,-0.6500335693359376,6.888531494140626
7.564000000000021,7.562191772460938,-0.9473114013671876,6.858773803710938
7.574000000000012,7.313363647460938,-0.5896209716796875,6.9133544921875005
7.584000000000003,6.4318481445312505,0.0402252197265625,6.682769775390626
7.595000000000027,6.2404418945312505,0.5692840576171876,6.985729980468751
7.603999999999985,7.016683959960938,0.7460357666015626,7.546640014648438
7.613999999999976,7.090255737304688,0.787457275390625,7.216165161132813
7.624000000000024,6.620413208007813,0.6854736328125001,6.503326416015626
7.6340000000000146,6.6696105957031255,0.1766021728515625,6.401193237304688
7.644000000000005,7.266409301757813,-0.39896240234375,7.131976318359375
7.653999999999996,6.879708862304688,-0.701025390625,7.467834472656251
7.663999999999987,6.4079223632812505,-0.69324951171875,7.080984497070313
7.673999999999978,6.53233642578125,-0.70281982421875,6.4731201171875
7.684000000000026,7.205099487304688,-0.67889404296875,6.557308959960938
7.694000000000017,7.688549804687501,-0.2486785888671875,6.680975341796875
7.704000000000008,6.916793823242188,0.289801025390625,6.633871459960938
7.713999999999999,6.470278930664063,0.6584075927734375,6.545645141601563
7.723999999999997,6.853240966796876,0.5465545654296875,7.141696166992188
7.7339999999999804,6.962252807617188,0.3686065673828125,7.437329101562501
7.744000000000028,6.3391357421875005,0.364569091796875,7.545593261718751
7.754000000000019,6.198123168945313,0.128302001953125,6.979598999023438
7.76400000000001,6.856530761718751,-0.2271453857421875,6.936532592773438
7.774000000000001,7.518377685546875,-0.59635009765625,6.497494506835938
7.783999999999992,7.284951782226563,-0.6027801513671875,6.48209228515625
7.793999999999983,6.252703857421875,-0.5381805419921876,6.241339111328125
7.8040000000000305,7.193435668945313,-0.5745178222656251,6.765164184570313
7.814000000000021,7.54080810546875,-0.5259185791015626,7.313662719726563
7.824000000000012,7.2139221191406255,-0.054730224609375,6.682919311523438
7.834000000000003,6.387435913085938,0.780279541015625,7.322036743164063
7.843999999999994,5.539715576171876,1.134381103515625,6.810174560546876
7.853999999999985,6.658993530273438,0.9852935791015626,8.024856567382812
7.863999999999976,7.256988525390626,0.2543609619140625,7.273287963867188
7.8729999999999905,7.345663452148438,-0.26318359375,6.099578857421875
7.882999999999981,6.9540283203125,-0.349615478515625,6.484634399414063
7.894000000000005,6.764266967773438,-0.4957122802734375,6.488821411132813
7.90300000000002,6.997244262695313,-0.5169464111328126,7.755841064453126
7.913000000000011,7.027450561523438,-0.6135467529296875,6.567776489257813
7.923000000000002,6.763967895507813,-0.533843994140625,6.454129028320313
7.932999999999993,6.961505126953125,-0.0946563720703125,6.669012451171875
7.942999999999984,6.5155883789062505,0.496160888671875,7.697521972656251
7.953000000000031,6.725836181640625,0.8409912109375001,7.6206604003906255
7.963000000000022,6.797613525390625,0.5299560546875001,6.405679321289063
7.973000000000013,7.329812622070313,0.1260589599609375,6.081484985351563
7.983000000000004,6.949841308593751,-0.0767120361328125,6.6262451171875005
7.992999999999995,6.766061401367188,-0.17645263671875,7.767953491210938
8.002999999999986,6.425866699218751,-0.240753173828125,7.527200317382813
8.012999999999977,6.408221435546875,-0.4260284423828125,6.892120361328126
8.023000000000025,6.929205322265625,-0.3518585205078125,6.479251098632813
8.033000000000015,7.189697265625001,-0.1365264892578125,6.869091796875001
8.043000000000006,7.0105529785156255,0.1281524658203125,6.92412109375
8.052999999999997,7.015637207031251,0.139068603515625,6.551925659179688
8.062999999999988,6.856381225585938,-0.0148040771484375,6.3750244140625005
8.072999999999979,7.176239013671876,-0.16329345703125,6.673797607421876
8.083000000000027,6.912905883789063,-0.1816864013671875,7.343869018554688
8.093000000000018,6.4288574218750005,-0.079254150390625,7.316055297851563
8.103000000000009,6.341079711914063,0.027813720703125,7.210931396484375
8.113,6.588412475585938,0.1248626708984375,7.024758911132813
8.12299999999999,7.28360595703125,0.2009765625,6.812866210937501
8.132999999999981,7.175341796875,0.192901611328125,6.596188354492188
8.143000000000036,7.045993041992188,0.0614593505859375,6.196029663085938
8.15300000000002,6.374874877929688,-0.3279327392578125,6.565383911132813
8.163000000000011,7.210931396484375,-0.7775878906250001,6.739593505859376
8.173000000000002,6.973318481445313,-0.9999481201171876,7.623501586914063
8.182999999999993,6.834698486328126,-0.7505218505859376,6.905429077148438
8.192999999999984,7.5847717285156255,0.1242645263671875,7.112686157226563
8.203000000000031,6.093447875976563,1.017742919921875,6.824230957031251
8.213000000000022,5.8909759521484375,1.301861572265625,6.638507080078125
8.223000000000013,7.199267578125,0.9543395996093752,7.732363891601563
8.233000000000004,7.2886901855468755,0.2732025146484375,6.845764160156251
8.242999999999995,7.1095458984375,-0.067889404296875,7.051525878906251
8.252999999999986,6.404782104492188,-0.3638214111328125,6.357379150390625
8.262999999999977,6.750509643554688,-0.610107421875,7.00487060546875
8.273000000000025,7.265960693359376,-0.9884338378906252,6.960159301757813
8.283000000000015,7.281661987304688,-0.9654052734375,6.614132690429688
8.293000000000006,6.740191650390625,-0.3270355224609375,6.652114868164063
8.302999999999997,6.298312377929688,0.4361968994140625,7.082479858398438
8.312999999999988,6.639105224609375,0.980657958984375,7.694680786132813
8.322999999999979,7.0270019531250005,0.9709381103515624,7.157247924804688
8.333000000000027,6.95701904296875,0.7606903076171876,6.361566162109376
8.343000000000018,6.7234436035156255,0.4269256591796875,6.396856689453125
8.351999999999975,7.023114013671876,-0.164788818359375,7.068572998046876
8.362000000000023,6.965243530273438,-0.7117919921875,7.48936767578125
8.372000000000014,6.4348388671875005,-0.9993499755859376,7.029095458984376
8.382000000000005,6.250759887695313,-0.8257385253906251,6.962103271484375
8.391999999999996,6.754098510742188,-0.5342926025390625,7.074404907226563
8.401999999999987,7.489666748046876,0.00478515625,7.045843505859375
8.411999999999978,7.181173706054688,0.46475830078125,6.212777709960938
8.422000000000025,7.064834594726563,0.56644287109375,5.539266967773438
8.432000000000016,7.536172485351563,0.455487060546875,6.470278930664063
8.442000000000007,6.988571166992188,0.0483001708984375,7.189398193359375
8.451999999999998,6.103167724609375,-0.048150634765625,8.143887329101563
8.461999999999996,5.653512573242188,-0.1902099609375,7.616622924804688
8.47199999999998,6.44859619140625,-0.402850341796875,7.447647094726563
8.482000000000028,7.550527954101563,-0.44202880859375,6.516784667968751
8.492000000000019,7.595837402343751,-0.227593994140625,6.162683105468751
8.50200000000001,6.99649658203125,0.22430419921875,5.9996887207031255
8.512,6.845166015625001,0.2787353515625,6.498840332031251
8.521999999999991,6.648226928710938,0.0435150146484375,7.316204833984376
8.531999999999982,6.709686279296876,-0.3898406982421875,6.954327392578126
8.54200000000003,6.984683227539063,-0.495562744140625,7.423422241210938
8.552000000000021,6.633123779296875,-0.2738006591796875,6.712078857421876
8.562000000000012,7.370486450195313,0.0970489501953125,7.354336547851563
8.572000000000003,6.625946044921876,0.432757568359375,6.750210571289063
8.581999999999994,6.250012207031251,0.5172454833984376,6.47252197265625
8.591999999999985,6.903634643554688,0.4104766845703125,7.392916870117188
8.601999999999975,7.239941406250001,-0.148040771484375,6.537271118164063
8.612000000000023,7.335494995117188,-0.2334259033203125,7.50731201171875
8.622000000000014,6.404034423828126,-0.02213134765625,6.548635864257813
8.632000000000005,6.148178100585938,0.1951446533203125,7.268502807617188
8.641999999999996,7.149771118164063,-0.02452392578125,6.989617919921876
8.651999999999987,7.766009521484375,-0.5417694091796875,6.362911987304688
8.661999999999978,7.287643432617188,-0.457879638671875,6.218759155273438
8.672000000000025,6.2254882812500005,-0.0207855224609375,6.672302246093751
8.682000000000016,6.198123168945313,0.2397064208984375,8.065829467773439
8.692000000000007,7.037020874023438,0.01854248046875,7.534078979492188
8.701999999999998,7.162930297851563,-0.117236328125,6.483288574218751
8.711999999999996,6.524411010742188,0.073870849609375,5.9877258300781255
8.72199999999998,7.010253906250001,0.2636322021484375,6.806735229492188
8.732000000000035,7.243530273437501,0.2941375732421875,7.804440307617188
8.742000000000019,6.551925659179688,0.195294189453125,7.045843505859375
8.752999999999986,6.139654541015625,0.0488983154296875,6.692340087890625
8.762,6.675741577148438,-0.025421142578125,6.944158935546875
8.771999999999991,7.092947387695313,-0.1434051513671875,7.643838500976563
8.781999999999982,7.021768188476563,-0.2379119873046875,6.9731689453125005
8.79200000000003,6.830212402343751,-0.322100830078125,5.8446197509765625
8.802000000000021,7.22977294921875,-0.452197265625,6.027203369140626
8.812000000000012,7.678829956054688,-0.490179443359375,6.588861083984376
8.822000000000003,6.984832763671876,-0.2337249755859375,7.479797363281251
8.83100000000001,6.1764404296875,0.0967498779296875,7.02042236328125
8.841000000000008,5.987576293945313,0.2349212646484375,7.197622680664063
8.850999999999999,6.9806457519531255,0.2954833984375,7.26805419921875
8.86099999999999,7.186407470703125,0.385504150390625,7.381552124023438
8.870999999999981,6.723593139648438,0.506329345703125,6.553570556640626
8.881000000000036,6.429455566406251,0.3542510986328125,6.375622558593751
8.89100000000002,6.9148498535156255,-0.3874481201171875,6.3917724609375
8.901999999999994,8.118316650390625,-0.939984130859375,6.932943725585938
8.911000000000001,6.860418701171875,-1.16817626953125,6.677386474609375
8.920999999999992,6.928009033203126,-0.6425567626953126,6.726583862304688
8.930999999999983,6.513494873046875,0.145050048828125,7.643389892578125
8.941000000000031,5.762374877929688,0.6928009033203125,7.324130249023438
8.951000000000022,6.784603881835938,1.0304534912109375,7.523162841796876
8.961000000000013,7.030590820312501,0.7463348388671875,6.650320434570313
8.971000000000004,7.671652221679688,0.4305145263671875,6.138009643554688
8.980999999999995,7.087414550781251,0.15731201171875,6.82841796875
8.990999999999985,6.513195800781251,-0.125311279296875,6.77757568359375
9.000999999999976,6.560598754882813,-0.6433044433593751,7.4666381835937505
9.011000000000024,7.0389648437500005,-1.1988311767578126,6.7952209472656255
9.021000000000017,7.0464416503906255,-0.9604705810546876,6.929055786132813
9.031000000000006,6.610543823242188,-0.19320068359375,7.013095092773438
9.04099999999999,6.417642211914063,0.593060302734375,7.123452758789063
9.050999999999997,7.133920288085938,0.8297760009765626,7.061395263671876
9.060999999999986,7.37572021484375,0.7582977294921875,6.276928710937501
9.071000000000026,6.9037841796875,0.6416595458984375,6.573309326171875
9.08100000000001,6.567327880859375,0.28890380859375,6.820941162109375
9.091000000000008,6.698770141601563,-0.27275390625,7.785299682617188
9.101,6.67947998046875,-0.7449890136718751,7.337139892578126
9.11099999999999,6.495251464843751,-0.8270843505859375,6.962551879882813
9.12099999999998,6.7772766113281255,-0.6467437744140625,6.4755126953125
9.131000000000036,7.223342895507813,-0.38460693359375,6.688751220703126
9.14100000000002,7.476507568359375,0.0183929443359375,6.654507446289063
9.15100000000001,6.955673217773438,0.34632568359375,6.3929687500000005
9.161,6.605908203125001,0.6099578857421876,6.744079589843751
9.170999999999992,6.799856567382813,0.46416015625,7.126892089843751
9.180999999999983,6.923223876953125,0.18004150390625,7.591650390625
9.191000000000033,6.45218505859375,-0.0121124267578125,7.115975952148438
9.201000000000022,6.344668579101563,-0.161798095703125,7.000982666015625
9.211000000000013,6.791781616210938,-0.2992218017578125,6.834249877929688
9.221000000000004,7.441815185546876,-0.4472625732421875,6.8200439453125
9.230999999999996,6.922027587890626,-0.4472625732421875,6.406277465820313
9.240999999999984,6.798809814453126,-0.432159423828125,6.05621337890625
9.250999999999976,7.6116882324218755,-0.337652587890625,7.027749633789063
9.261000000000024,6.993655395507813,-0.2172760009765625,6.896157836914063
9.271000000000017,7.011300659179688,0.350213623046875,7.577444458007813
9.281000000000006,5.651867675781251,0.8185607910156251,7.100424194335938
9.29099999999999,6.03228759765625,0.7867095947265625,7.153509521484375
9.300999999999997,7.207342529296875,0.3730926513671875,7.633969116210938
9.310999999999986,7.550527954101563,-0.2133880615234375,6.367697143554688
9.321000000000026,7.238894653320313,-0.226995849609375,6.662582397460938
9.33100000000001,6.505120849609376,-0.3004180908203125,6.072512817382813
9.341000000000008,6.883596801757813,-0.34512939453125,7.325326538085938
9.350000000000025,7.031188964843751,-0.49227294921875,7.29197998046875
9.36099999999999,6.901989746093751,-0.468646240234375,6.800305175781251
9.37099999999998,6.645834350585938,-0.058319091796875,6.681274414062501
9.381000000000036,6.673348999023438,0.341839599609375,7.031338500976563
9.39100000000002,6.838885498046875,0.666632080078125,7.544995117187501
9.40100000000001,6.973767089843751,0.5166473388671875,6.755145263671875
9.410000000000023,7.063040161132813,0.117535400390625,6.140252685546876
9.420000000000016,7.018777465820313,-0.2121917724609375,6.467138671875
9.430000000000009,6.913204956054688,-0.35888671875,7.218856811523438
9.439999999999998,6.509158325195313,-0.3659149169921875,7.853787231445313
9.449999999999996,6.354238891601563,-0.353204345703125,6.986029052734375
9.459999999999988,6.710134887695313,-0.1806396484375,6.9181396484375
9.470000000000027,7.066329956054688,0.039776611328125,6.434091186523438
9.480000000000018,7.380355834960938,0.25540771484375,6.838885498046875
9.490000000000007,7.183715820312501,0.288604736328125,6.478652954101563
9.500999999999976,6.721200561523438,0.092413330078125,6.492559814453125
9.509999999999993,6.511251831054688,0.0405242919921875,7.305288696289063
9.519999999999982,6.405828857421875,-0.1160400390625,7.584921264648438
9.530000000000037,6.846810913085938,-0.187518310546875,7.590753173828125
9.54000000000002,6.995001220703125,-0.35589599609375,6.289190673828125
9.550000000000011,7.1735473632812505,-0.2929412841796875,6.242684936523438
9.560000000000002,6.994403076171875,0.0847869873046875,6.689648437500001
9.569999999999991,6.63402099609375,0.333465576171875,7.403085327148438
9.579999999999984,6.858624267578126,0.20396728515625,7.027301025390625
9.589999999999977,7.057357788085938,-0.2232574462890625,6.305789184570313
9.601,6.771145629882813,-0.3850555419921875,6.577944946289063
9.610000000000014,6.555065917968751,-0.3584381103515625,6.942214965820313
9.620000000000005,7.036273193359375,-0.3159698486328125,7.702008056640626
9.629999999999995,6.660638427734376,-0.5031890869140625,6.753799438476563
9.639999999999986,7.750009155273438,-0.23507080078125,6.507662963867188
9.649999999999975,7.352691650390626,0.61728515625,6.8343994140625
9.660000000000023,5.336196899414063,1.122418212890625,6.721649169921876
9.670000000000016,6.6262451171875005,0.7500732421875,7.552621459960938
9.680000000000009,7.275531005859375,-0.072076416015625,7.313363647460938
9.689999999999998,7.178631591796876,-0.3428863525390625,6.943859863281251
9.701000000000022,6.441567993164063,-0.0883758544921875,6.930551147460938
9.709999999999988,6.601870727539063,-0.2086029052734375,6.430801391601563
9.720000000000027,7.412506103515626,-0.5374328613281251,6.9791503906250005
9.730000000000018,7.577593994140625,-0.6945953369140625,6.242236328125
9.740000000000007,6.669760131835938,-0.1757049560546875,6.904830932617188
9.75,6.245974731445313,0.27574462890625,7.174893188476563
9.759999999999993,6.550729370117188,0.4625152587890625,7.72384033203125
9.769999999999982,7.004421997070313,0.564947509765625,7.437628173828125
9.780000000000037,6.722247314453125,0.5474517822265625,6.39835205078125
9.79000000000002,6.9432617187500005,0.4466644287109375,6.5365234375000005
9.800000000000011,7.199118041992188,-0.00897216796875,6.47611083984375
9.810000000000002,7.081433105468751,-0.426177978515625,7.4053283691406255
9.819999999999991,6.557608032226563,-0.5818450927734375,6.92412109375
9.829000000000008,6.342874145507813,-0.5775085449218751,7.146481323242188
9.839,6.777127075195313,-0.5748168945312501,6.868643188476563
9.848999999999997,7.338037109375,-0.4640106201171875,6.814511108398438
9.860000000000014,7.188351440429688,-0.0506927490234375,6.564935302734376
9.869000000000035,6.692340087890625,0.2749969482421875,6.283059692382813
9.87900000000002,6.812716674804688,0.539825439453125,7.106106567382813
9.88900000000001,6.855484008789063,0.4696929931640625,7.154855346679688
9.90100000000001,6.967337036132813,0.2968292236328125,7.363607788085938
9.908999999999992,6.384295654296875,0.16209716796875,6.809127807617188
9.918999999999984,6.464895629882813,-0.0339447021484375,7.030142211914063
9.92900000000003,6.9420654296875,-0.2540618896484375,7.183267211914063
9.93900000000002,7.238296508789063,-0.4936187744140625,6.7772766113281255
9.949000000000012,7.0975830078125,-0.5321990966796876,6.384594726562501
9.959000000000003,6.9447570800781255,-0.5531341552734376,6.0472412109375
9.968999999999994,6.592449951171876,-0.3964202880859375,6.917092895507813
9.978999999999983,7.532733154296875,-0.324493408203125,7.078442382812501
9.988999999999976,6.602468872070313,-0.2447906494140625,7.216464233398438
10.000999999999976,6.9372802734375005,0.2471832275390625,6.729125976562501
10.009000000000016,6.8044921875,0.8658142089843751,7.560247802734375
10.019000000000004,5.890826416015625,1.2013732910156252,7.128985595703125
10.028999999999996,6.513793945312501,0.7879058837890626,7.065283203125
10.038999999999994,7.419085693359375,0.0007476806640625,6.897055053710938
10.048999999999984,7.324130249023438,-0.5465545654296875,6.292330932617188
10.059000000000026,6.888232421875,-0.563751220703125,7.205996704101563
10.06900000000001,6.574954223632813,-0.5465545654296875,6.665423583984375
10.079000000000008,6.721649169921876,-0.5942565917968751,7.297512817382813
10.089,7.228277587890625,-0.4912261962890625,6.502279663085938
10.101,6.992459106445313,-0.08912353515625,6.756042480468751
10.10899999999998,6.814511108398438,0.4463653564453125,6.8969055175781255
10.119000000000035,6.595291137695313,0.7382598876953126,7.12509765625
10.12900000000002,6.675292968750001,0.7768402099609376,7.484133911132813
10.13900000000001,6.830212402343751,0.4868896484375,6.693984985351563
10.149,6.962402343750001,0.0647491455078125,6.860717773437501
10.158999999999992,6.875372314453125,-0.3389984130859375,6.449343872070313
10.168999999999984,6.968084716796875,-0.6485382080078126,7.239193725585938
10.17900000000003,6.765014648437501,-0.557470703125,7.208538818359376
10.18900000000002,6.457717895507813,-0.354400634765625,7.051376342773438
10.201000000000022,6.8026977539062505,-0.1350311279296875,6.746023559570313
10.209000000000003,7.281512451171875,-0.0315521240234375,6.464596557617188
10.218999999999994,7.341476440429688,0.0940582275390625,6.534130859375001
10.228999999999983,6.927859497070313,0.2447906494140625,6.596786499023438
10.238999999999976,6.384295654296875,0.316119384765625,7.187005615234376
10.249000000000024,6.551626586914063,0.1664337158203125,7.4412170410156255
10.259000000000016,6.777874755859376,-0.057122802734375,7.378860473632813
10.269000000000004,6.880456542968751,-0.171966552734375,6.797164916992188
10.278999999999996,6.92711181640625,-0.1831817626953125,6.4826904296875005
10.288999999999994,6.830062866210938,-0.142059326171875,6.673348999023438
10.300000000000011,7.168911743164063,-0.1134979248046875,6.868493652343751
10.309000000000026,7.049133300781251,-0.217724609375,6.773986816406251
10.31900000000001,6.692190551757813,-0.3698028564453125,6.372930908203125
10.329000000000008,6.752005004882813,-0.3841583251953125,6.680227661132813
10.338000000000022,6.9420654296875,-0.319708251953125,7.386636352539063
10.348000000000011,6.554019165039063,-0.160601806640625,7.454376220703126
10.358000000000004,7.520770263671875,0.1721160888671875,6.959860229492188
10.367999999999997,6.807034301757813,0.7256988525390625,6.678433227539063
10.377999999999986,5.733514404296876,0.9048431396484377,6.316406250000001
10.387999999999977,7.14842529296875,0.483001708984375,7.462451171875
10.398000000000025,7.381103515625001,-0.1003387451171875,7.348654174804688
10.408000000000015,6.760528564453126,-0.364569091796875,6.906326293945313
10.418000000000006,6.567028808593751,-0.3289794921875,6.708938598632813
10.42799999999999,6.738546752929688,-0.3240447998046875,6.641796875000001
10.437999999999995,7.197024536132813,-0.370550537109375,7.249511718750001
10.447999999999986,7.251605224609375,-0.323895263671875,6.4542785644531255
10.458000000000029,6.778921508789063,-0.09271240234375,6.628488159179688
10.468000000000018,6.61368408203125,0.25540771484375,6.926513671875001
10.478000000000009,6.625048828125,0.5565734863281251,7.698867797851563
10.488,6.696527099609376,0.628948974609375,7.532882690429688
10.49799999999999,6.682321166992188,0.378326416015625,6.432446289062501
10.50799999999998,7.00487060546875,0.1460968017578125,6.54429931640625
10.518000000000036,7.276129150390625,-0.147442626953125,6.577944946289063
10.52800000000002,6.863858032226563,-0.327484130859375,7.461404418945313
10.538000000000013,6.524261474609376,-0.465057373046875,6.894064331054688
10.548000000000002,6.6591430664062505,-0.5333953857421876,6.953878784179688
10.557999999999993,6.868344116210938,-0.5728729248046875,6.626843261718751
10.567999999999984,7.231716918945313,-0.33675537109375,6.781314086914063
10.578000000000031,7.12210693359375,0.0046356201171875,6.764715576171875
10.588000000000022,6.784902954101563,0.2092010498046875,6.401043701171876
10.598000000000011,6.773687744140625,0.428570556640625,7.078442382812501
10.608000000000004,6.865353393554688,0.41092529296875,7.090853881835938
10.617999999999997,6.664077758789063,0.387298583984375,7.565481567382813
10.627999999999986,6.397903442382813,0.1712188720703125,6.904681396484375
10.637999999999977,6.792678833007813,-0.05263671875,6.979748535156251
10.648000000000025,7.000833129882813,-0.3194091796875,6.708489990234376
10.658000000000015,7.228427124023438,-0.4562347412109375,6.673648071289063
10.668000000000006,6.832455444335938,-0.5193389892578125,6.498989868164063
10.67799999999999,6.511700439453126,-0.6449493408203125,6.381903076171875
10.687999999999995,7.437478637695313,-0.498553466796875,7.083078002929688
10.697999999999986,7.022665405273438,-0.3428863525390625,6.9958984375
10.708000000000029,7.252502441406251,0.2782867431640625,6.90079345703125
10.718000000000018,6.607254028320313,0.8052520751953126,7.044198608398438
10.728000000000009,5.741738891601563,1.1240631103515626,6.978253173828126
10.738,6.56822509765625,0.9003570556640625,7.748364257812501
10.74799999999999,7.12210693359375,0.120526123046875,7.359121704101563
10.75799999999998,7.52884521484375,-0.4103271484375,6.302499389648438
10.768000000000036,6.863708496093751,-0.5745178222656251,6.441567993164063
10.776999999999994,6.664077758789063,-0.4538421630859375,6.502578735351563
10.788000000000013,6.87327880859375,-0.5618072509765626,7.553668212890625
10.797000000000024,7.483535766601563,-0.6582580566406251,6.6645263671875
10.807999999999993,6.808529663085938,-0.471636962890625,6.40433349609375
10.817999999999984,6.596786499023438,0.2086029052734375,6.851296997070313
10.826999999999998,6.329714965820313,0.835308837890625,7.679129028320313
10.836999999999996,6.844418334960938,0.8387481689453126,7.675540161132813
10.84699999999998,7.114779663085938,0.4308135986328125,6.317752075195313
10.857000000000037,7.006216430664063,0.03828125,6.04425048828125
10.86700000000002,6.875671386718751,-0.121124267578125,6.733462524414063
10.87700000000001,6.896755981445313,-0.338250732421875,7.864703369140625
10.887,6.549234008789063,-0.4906280517578125,7.4442077636718755
10.896999999999991,6.373678588867188,-0.4765716552734375,6.691592407226563
10.906999999999982,6.6740966796875005,-0.2812774658203125,6.54130859375
10.91700000000003,7.293026733398438,0.0100189208984375,7.1481262207031255
10.92700000000002,7.399945068359376,0.2899505615234375,6.9312988281250005
10.937000000000012,6.6935363769531255,0.2687164306640625,6.221600341796876
10.947000000000005,6.933990478515626,0.084637451171875,6.143692016601563
10.956999999999994,7.224090576171876,-0.1966400146484375,7.037170410156251
10.966999999999985,6.9387756347656255,-0.3342132568359375,7.5282470703125
10.976999999999975,6.317153930664063,-0.2211639404296875,7.314559936523438
10.987000000000023,6.068026733398438,-0.122021484375,6.990963745117188
10.997000000000014,6.818249511718751,0.0566741943359375,7.111190795898438
11.007000000000003,7.316055297851563,0.2525665283203125,7.106704711914063
11.016999999999996,7.2513061523437505,0.346624755859375,6.321490478515625
11.026999999999994,6.985430908203125,0.1553680419921875,6.013745117187501
11.036999999999985,6.513793945312501,-0.28651123046875,6.303396606445313
11.047000000000024,7.326672363281251,-0.5953033447265625,7.370187377929688
11.057000000000016,6.708938598632813,-0.895123291015625,7.635464477539063
11.067000000000007,6.641049194335938,-0.69803466796875,6.897952270507813
11.076999999999998,7.4771057128906255,-0.0258697509765625,6.981094360351563
11.086999999999996,6.209487915039063,0.7660736083984375,6.810025024414063
11.09699999999998,6.238198852539063,1.1484375,6.816455078125
11.107000000000037,7.260427856445313,0.7931396484375001,7.452880859375001
11.11700000000002,7.271493530273438,0.2500244140625,6.606057739257813
11.12700000000001,6.930999755859376,0.0366363525390625,7.160238647460938
11.137,6.429156494140625,-0.10706787109375,6.679330444335938
11.146999999999991,6.600674438476563,-0.4385894775390625,7.201361083984375
11.156999999999982,7.288391113281251,-0.9272735595703124,6.770248413085938
11.16700000000003,7.315008544921875,-0.9174041748046876,6.529046630859376
11.17700000000002,6.7386962890625,-0.340045166015625,6.760528564453126
11.187000000000012,6.396856689453125,0.349017333984375,7.094741821289063
11.197000000000005,6.765463256835938,0.6826324462890625,7.524359130859375
11.206999999999994,6.9755615234375,0.7390075683593751,6.959561157226563
11.216999999999985,6.847857666015625,0.7310821533203126,6.57420654296875
11.226999999999975,6.596636962890625,0.496160888671875,6.691293334960938
11.237000000000023,7.135415649414063,-0.0586181640625,7.1286865234375005
11.247000000000014,6.930252075195313,-0.5281616210937501,7.261474609375001
11.257000000000003,6.425866699218751,-0.7511199951171875,6.820791625976563
11.266999999999996,6.51798095703125,-0.733624267578125,6.888681030273438
11.27600000000001,6.949392700195313,-0.6512298583984375,7.024459838867188
11.286,7.4205810546875,-0.294287109375,6.817950439453125
11.295999999999992,7.048385620117188,0.1626953125,6.387884521484375
11.305999999999983,6.867745971679688,0.4565338134765625,5.98802490234375
11.316000000000033,7.201809692382813,0.4780670166015625,6.983337402343751
11.326000000000022,7.008609008789063,0.2881561279296875,7.211679077148438
11.336000000000013,6.237002563476563,0.2528656005859375,7.689297485351563
11.346000000000004,6.0091094970703125,0.09031982421875,7.189099121093751
11.355999999999996,6.488970947265625,-0.178546142578125,7.250408935546876
11.365999999999984,7.599575805664063,-0.4409820556640625,6.727481079101563
11.375999999999976,7.294223022460938,-0.4861419677734375,6.226235961914063
11.386000000000024,6.488372802734376,-0.284716796875,6.205300903320313
11.396000000000017,6.899447631835938,-0.2654266357421875,6.629235839843751
11.406000000000006,7.6954284667968755,-0.4161590576171875,7.368392944335938
11.41599999999999,7.184164428710938,-0.3052032470703125,6.50601806640625
11.425999999999997,6.666619873046876,0.2008270263671875,7.013244628906251
11.435999999999986,5.762973022460938,0.7388580322265625,7.207492065429688
11.446000000000026,6.1133361816406255,0.8318695068359375,7.969229125976563
11.45600000000001,7.176687622070313,0.4281219482421875,7.715914916992188
11.466000000000008,7.28001708984375,-0.058917236328125,5.881405639648438
11.476,7.226632690429688,-0.19439697265625,6.178683471679688
11.48599999999999,7.038665771484376,-0.1625457763671875,6.493008422851563
11.49599999999998,6.810174560546876,-0.27215576171875,7.60660400390625
11.506000000000036,6.862063598632813,-0.467449951171875,7.077395629882813
11.51600000000002,6.676339721679688,-0.6724639892578126,6.480895996093751
11.52600000000001,6.882998657226563,-0.326287841796875,6.808380126953126
11.536,6.814959716796875,0.2340240478515625,7.427011108398438
11.545999999999992,6.621908569335938,0.5662933349609376,7.383645629882813
11.555999999999983,6.8864379882812505,0.4879364013671875,6.533084106445313
11.566000000000033,7.317999267578125,0.1999298095703125,6.082232666015625
11.576000000000022,6.931896972656251,0.05921630859375,6.700564575195313
11.586000000000013,6.768453979492188,-0.024822998046875,7.464245605468751
11.596000000000004,6.415997314453126,-0.13876953125,7.674343872070313
11.605999999999996,6.417343139648438,-0.2531646728515625,7.039562988281251
11.615999999999984,6.619815063476563,-0.2118927001953125,6.839035034179688
11.625999999999976,7.135415649414063,-0.08433837890625,6.8266235351562505
11.636000000000024,7.209286499023438,0.0124114990234375,6.765762329101563
11.646000000000017,7.103564453125,-0.0252716064453125,6.402688598632813
11.656000000000006,6.986328125000001,-0.12022705078125,6.228778076171875
11.66599999999999,6.978402709960938,-0.2845672607421875,6.764117431640625
11.675999999999997,7.009506225585938,-0.2920440673828125,7.248016357421876
11.685999999999986,6.5425048828125005,-0.21473388671875,7.3948608398437505
11.696000000000026,6.252853393554688,0.0584686279296875,7.135864257812501
11.70600000000001,6.4243713378906255,0.38759765625,7.216464233398438
11.716000000000008,7.0808349609375005,0.403448486328125,6.8942138671875
11.726,7.467684936523438,0.3144744873046875,6.646432495117188
11.735000000000014,6.837689208984376,0.0142059326171875,6.077297973632813
11.74599999999998,6.632824707031251,-0.32359619140625,6.476858520507813
11.756000000000036,7.360317993164063,-0.68607177734375,7.191641235351563
11.764999999999986,6.689947509765625,-1.068585205078125,7.263568115234375
11.774999999999975,7.455572509765625,-0.7079040527343751,6.95701904296875
11.785000000000023,6.658245849609376,0.1670318603515625,7.007711791992188
11.795000000000016,5.470330810546876,0.9446197509765626,6.873129272460938
11.805000000000009,6.938476562500001,1.00906982421875,7.367794799804688
11.816000000000033,7.484432983398438,0.6165374755859375,7.260726928710938
11.824999999999996,7.1974731445312505,0.383709716796875,6.25718994140625
11.834999999999988,6.6352172851562505,0.1828826904296875,6.807034301757813
11.845000000000027,6.68486328125,-0.18243408203125,6.730621337890626
11.855000000000018,7.00845947265625,-0.7795318603515625,7.4744140625
11.865000000000007,7.063339233398438,-1.0522857666015626,6.693685913085938
11.875,6.679779052734376,-0.820355224609375,6.538616943359376
11.884999999999993,6.749761962890625,-0.2684173583984375,7.0593017578125
11.894999999999982,6.8849426269531255,0.3862518310546875,7.217660522460938
11.905000000000037,6.821389770507813,0.8375518798828125,7.370635986328126
11.91500000000002,6.745574951171876,0.9479095458984376,6.3439208984375
11.925000000000011,6.909317016601563,0.7370635986328126,6.7413879394531255
11.935000000000002,7.037319946289063,0.3336151123046875,6.856231689453126
11.944999999999991,6.827371215820313,-0.22191162109375,7.410711669921875
11.954999999999984,6.442913818359376,-0.6166870117187501,7.126892089843751
11.964999999999977,6.5783935546875005,-0.84757080078125,6.870587158203126
11.975000000000025,6.917391967773438,-0.8750854492187501,6.902438354492188
11.985000000000014,7.2288757324218755,-0.6346313476562501,6.637908935546876
11.995000000000005,7.218856811523438,-0.1242645263671875,6.623104858398438
12.004999999999995,6.808978271484375,0.28411865234375,6.2643676757812505
12.014999999999986,6.892419433593751,0.6341827392578125,6.9432617187500005
12.024999999999975,6.791333007812501,0.6519775390625,7.2028564453125
12.035000000000023,6.807931518554688,0.488385009765625,7.36435546875
12.045000000000016,6.2601806640625,0.24822998046875,7.123153686523438
12.055000000000009,6.649273681640626,-0.1317413330078125,6.93309326171875
12.064999999999998,6.979898071289063,-0.39298095703125,7.067526245117188
12.074999999999996,7.206893920898438,-0.6612487792968751,6.534130859375001
12.084999999999988,7.11851806640625,-0.6041259765625,6.509606933593751
12.095000000000027,6.559552001953126,-0.460870361328125,6.386090087890626
12.105000000000018,6.4946533203125005,-0.170172119140625,7.176837158203125
12.115000000000007,7.4786010742187505,-0.1236663818359375,7.148724365234376
12.125,7.194183349609376,-0.009271240234375,6.681723022460938
12.134999999999993,7.246520996093751,0.4605712890625,6.52396240234375
12.144999999999982,6.27513427734375,0.69803466796875,7.028945922851563
12.155000000000037,5.941818237304688,0.872991943359375,7.6715026855468755
12.16500000000002,6.678283691406251,0.37742919921875,7.73221435546875
12.175000000000011,7.167565917968751,-0.43724365234375,6.661236572265626
12.185000000000002,7.466937255859375,-0.761138916015625,6.050830078125
12.194999999999991,6.9432617187500005,-0.41571044921875,6.815856933593751
12.204999999999984,6.487326049804688,-0.011663818359375,7.2626708984375
12.214999999999977,6.83140869140625,-0.0895721435546875,7.249212646484375
12.225000000000025,7.547238159179688,-0.289801025390625,6.197674560546876
12.23399999999998,6.984683227539063,-0.265277099609375,6.048736572265625
12.244000000000035,6.676040649414063,0.279034423828125,7.347457885742188
12.25400000000002,6.233114624023438,0.5839385986328125,7.888629150390625
12.26400000000001,6.421231079101563,0.34512939453125,7.800701904296876
12.274,7.303494262695313,-0.0019439697265625,6.058306884765625
12.283999999999992,7.043899536132813,-0.2256500244140625,6.16806640625
12.293999999999984,7.009356689453125,-0.1015350341796875,6.582879638671876
12.30400000000003,6.977655029296876,-0.1275543212890625,7.643090820312499
12.31400000000002,6.659442138671875,-0.18721923828125,7.2408386230468755
12.324000000000012,6.353042602539063,-0.1541717529296875,6.654208374023438
12.334000000000003,6.701611328125001,-0.08673095703125,6.864755249023438
12.343999999999994,7.143341064453126,0.0524871826171875,7.156201171875001
12.353999999999983,7.180126953125001,0.018243408203125,6.958514404296875
12.363999999999976,6.805538940429688,-0.0001495361328125,6.267657470703125
12.374000000000024,6.751406860351563,-0.0243743896484375,6.493905639648438
12.384000000000016,6.966888427734376,-0.0964508056640625,7.150369262695313
12.394000000000004,7.012646484375001,-0.0931610107421875,7.515087890625001
12.403999999999996,6.633871459960938,-0.106170654296875,6.877017211914063
12.413999999999994,6.483139038085938,-0.020037841796875,6.6262451171875005
12.423999999999984,6.830661010742188,0.1404144287109375,6.980047607421875
12.434000000000026,7.114630126953125,0.1822845458984375,7.362261962890625
12.44400000000001,6.974066162109375,0.106768798828125,6.719555664062501
12.454000000000008,6.5559631347656255,-0.1030303955078125,6.3286682128906255
12.464,6.833651733398438,-0.428271484375,6.301303100585938
12.473999999999997,7.615576171875,-0.60950927734375,7.164126586914063
12.48399999999998,6.813613891601563,-0.6871185302734375,7.0105529785156255
12.494000000000035,7.150967407226563,-0.3153717041015625,6.866101074218751
12.50400000000002,6.515289306640626,0.3853546142578125,7.220950317382813
12.51400000000001,5.640203857421875,0.8994598388671876,7.182070922851563
12.524,6.8550354003906255,0.921142578125,7.654754638671876
12.533999999999992,7.259979248046876,0.3608306884765625,6.863409423828125
12.543999999999984,7.433740234375,0.013458251953125,6.139953613281251
12.55400000000003,6.967785644531251,-0.12381591796875,6.662881469726563
12.56400000000002,6.563140869140626,-0.2498748779296875,6.80150146484375
12.574000000000012,6.904083251953126,-0.6759033203125,7.406375122070313
12.584000000000003,7.015338134765625,-0.96241455078125,6.696377563476563
12.593999999999994,6.744976806640626,-0.5740692138671876,6.754248046875
12.603999999999983,6.61368408203125,0.0961517333984375,7.206594848632813
12.613999999999976,6.643142700195313,0.7031188964843751,7.329513549804688
12.624000000000024,6.984683227539063,0.877178955078125,7.098629760742188
12.634000000000016,7.075601196289063,0.75306396484375,6.179580688476563
12.644000000000004,6.893615722656251,0.4864410400390625,6.615478515625001
12.653999999999996,6.864755249023438,0.021234130859375,6.920083618164063
12.663999999999994,6.835446166992188,-0.486590576171875,7.6595397949218755
12.673999999999984,6.405230712890625,-0.820654296875,7.070965576171876
12.684000000000026,6.649124145507813,-0.839794921875,6.848306274414063
12.69400000000001,6.94505615234375,-0.6386688232421875,6.666619873046876
12.704000000000008,7.282708740234375,-0.3404937744140625,6.593048095703126
12.714,7.361514282226563,0.1160400390625,6.548187255859376
12.723000000000011,6.772491455078126,0.433953857421875,6.359921264648438
12.733000000000004,6.654357910156251,0.7011749267578126,7.136013793945313
12.742999999999997,6.671554565429688,0.6184814453125,7.449740600585938
12.75400000000002,6.632376098632813,0.3401947021484375,7.530340576171875
12.762999999999977,6.532186889648438,0.0309539794921875,6.971224975585938
12.773000000000025,6.703256225585938,-0.2953338623046875,6.695928955078125
12.783000000000015,7.151565551757813,-0.456085205078125,6.810324096679688
12.793999999999984,7.255792236328125,-0.5636016845703126,6.648226928710938
12.80299999999999,6.809725952148438,-0.4888336181640625,6.572561645507813
12.812999999999995,6.413604736328126,-0.454290771484375,6.399847412109375
12.822999999999986,7.503125000000001,-0.336456298828125,7.141696166992188
12.833000000000029,7.149472045898438,-0.0922637939453125,7.009655761718751
12.843000000000018,7.133920288085938,0.370849609375,6.857278442382813
12.853000000000009,6.175991821289063,0.8107849121093751,7.01982421875
12.863,5.938079833984375,0.8554962158203125,7.032684326171876
12.87299999999999,6.928009033203126,0.5818450927734375,8.046240234375
12.88299999999998,6.969729614257813,-0.1662841796875,6.7653137207031255
12.893000000000036,7.398150634765625,-0.575115966796875,6.3295654296875
12.90300000000002,6.9994873046875,-0.5474517822265625,6.375473022460938
12.913000000000013,6.7189575195312505,-0.3497650146484375,6.956121826171875
12.923000000000002,6.947897338867188,-0.1960418701171875,7.477255249023438
12.932999999999993,7.078591918945313,-0.3306243896484375,6.367398071289063
12.942999999999984,7.012796020507813,-0.2062103271484375,6.351696777343751
12.953000000000031,6.845614624023438,0.1849761962890625,6.906027221679688
12.963000000000022,6.363809204101563,0.626556396484375,7.853338623046875
12.973000000000011,6.5200744628906255,0.6491363525390625,7.646530151367188
12.983000000000004,7.043002319335938,0.1454986572265625,6.27513427734375
12.992999999999997,7.287344360351563,-0.207257080078125,6.208441162109375
13.002999999999986,7.138256835937501,-0.2938385009765625,6.417492675781251
13.012999999999977,6.748715209960938,-0.1999298095703125,7.763168334960938
13.023000000000025,6.357827758789063,-0.2202667236328125,7.245623779296875
13.033000000000015,6.506317138671876,-0.2594451904296875,7.077096557617188
13.043000000000006,6.915447998046876,-0.1490875244140625,6.501083374023438
13.05299999999999,7.140798950195313,0.0346923828125,6.828866577148438
13.062999999999995,7.071713256835938,0.178546142578125,6.848007202148438
13.072999999999986,6.916345214843751,0.101983642578125,6.538168334960938
13.083000000000029,6.679928588867188,0.0079254150390625,6.829165649414063
13.093000000000018,6.884793090820313,-0.143853759765625,6.847857666015625
13.103000000000009,7.050479125976563,-0.177947998046875,7.472470092773438
13.113,6.657049560546875,-0.1399658203125,6.854138183593751
13.12299999999999,6.45218505859375,0.04306640625,7.030291748046875
13.13299999999998,6.68187255859375,0.19320068359375,6.916793823242188
13.143000000000036,7.184912109375,0.18961181640625,7.123452758789063
13.15300000000002,7.199716186523438,0.0874786376953125,6.620413208007813
13.163000000000013,6.932644653320313,-0.069085693359375,6.2697509765625
13.173000000000002,6.435586547851563,-0.21951904296875,6.7428833007812505
13.182999999999993,6.8942138671875,-0.6051727294921876,6.815258789062501
13.192999999999984,7.431646728515625,-0.8031585693359375,7.3694396972656255
13.203000000000031,6.625198364257813,-0.8169158935546875,6.416445922851563
13.213000000000022,7.23575439453125,-0.03050537109375,7.152163696289063
13.22199999999998,6.731668090820313,0.8424865722656251,7.35777587890625
13.232000000000037,5.699270629882813,1.20645751953125,7.074404907226563
13.24200000000002,6.9268127441406255,1.011163330078125,7.117321777343751
13.25200000000001,7.201510620117188,0.289501953125,6.595440673828126
13.262,7.495797729492188,-0.1146942138671875,6.836941528320313
13.271999999999991,6.611141967773438,-0.3865509033203125,6.908270263671875
13.281999999999982,6.417492675781251,-0.5848358154296875,6.890625000000001
13.293000000000006,6.903485107421876,-0.92532958984375,7.047039794921876
13.30200000000002,7.309027099609375,-0.950750732421875,6.703704833984376
13.312000000000012,6.941616821289063,-0.2761932373046875,6.867745971679688
13.322000000000005,6.457717895507813,0.430364990234375,6.850997924804688
13.331999999999994,6.616824340820313,0.9453674316406252,7.236352539062499
13.341999999999985,6.979449462890625,0.9631622314453124,7.154855346679688
13.351999999999975,6.935784912109376,0.8070465087890626,6.813763427734376
13.362000000000023,6.691592407226563,0.4622161865234375,6.704901123046875
13.372000000000014,6.801651000976563,-0.20037841796875,6.744976806640626
13.382000000000003,7.023712158203126,-0.76383056640625,7.290335083007813
13.391999999999996,6.7745849609375,-0.9843963623046876,7.052572631835938
13.401999999999994,6.597683715820313,-0.8372528076171876,6.8822509765625
13.411999999999985,6.868344116210938,-0.6631927490234375,6.459362792968751
13.422000000000024,7.388131713867188,-0.3476715087890625,6.5233642578125
13.432000000000016,7.365402221679688,0.1574615478515625,6.5807861328125
13.442000000000007,6.65196533203125,0.561956787109375,6.669012451171875
13.451999999999998,6.514990234375,0.8568420410156251,7.333401489257813
13.461999999999996,6.546990966796876,0.6352294921875,7.392767333984375
13.47199999999998,6.735556030273438,0.403448486328125,7.606753540039063
13.482000000000037,6.499887084960938,0.107666015625,6.841128540039063
13.492999999999997,6.826174926757813,-0.2848663330078125,6.741537475585938
13.50200000000001,7.243081665039063,-0.5884246826171875,6.517532348632813
13.512,7.268353271484376,-0.817364501953125,6.572561645507813
13.521999999999991,6.628787231445313,-0.6747070312500001,6.639852905273438
13.531999999999982,6.686657714843751,-0.6074157714843751,6.50601806640625
13.54200000000003,7.499386596679688,-0.378326416015625,7.282260131835938
13.55200000000002,7.110293579101563,-0.064599609375,6.581982421875001
13.562000000000012,7.194781494140625,0.6503326416015626,7.30992431640625
13.572000000000005,5.6816253662109375,1.2285888671875,6.906326293945313
13.581999999999994,5.9627532958984375,1.073968505859375,7.406076049804688
13.591999999999985,7.189099121093751,0.46416015625,7.859469604492188
13.601999999999975,7.400094604492188,-0.3775787353515625,6.318499755859375
13.612000000000023,7.064984130859376,-0.518890380859375,6.755892944335938
13.622000000000014,6.690246582031251,-0.5163482666015625,6.170907592773438
13.632000000000003,6.945953369140626,-0.5535827636718751,7.354187011718751
13.641999999999996,7.183566284179688,-0.5565734863281251,6.912307739257813
13.651999999999994,6.94505615234375,-0.4629638671875,6.49405517578125
13.661999999999985,6.764865112304688,-0.0052337646484375,6.674694824218751
13.670999999999992,6.625048828125,0.4463653564453125,7.258184814453125
13.682000000000016,6.64598388671875,0.823345947265625,7.899395751953126
13.692000000000007,6.6441894531250005,0.6886138916015625,6.818399047851563
13.701999999999998,7.073507690429688,0.2612396240234375,6.255694580078125
13.711999999999996,7.151864624023438,-0.11185302734375,6.338238525390626
13.721000000000004,7.000982666015625,-0.3494659423828125,7.061843872070313
13.730999999999996,6.557757568359375,-0.3744384765625,7.692587280273438
13.74200000000002,6.3585754394531255,-0.4248321533203125,7.079638671875
13.75200000000001,6.590057373046876,-0.3431854248046875,6.938177490234375
13.761000000000024,7.1454345703125,-0.1392181396484375,6.545196533203126
13.771000000000017,7.237399291992188,0.05921630859375,6.809576416015625
13.781000000000006,7.254296875,0.172265625,6.4318481445312505
13.793000000000006,6.712078857421876,0.145947265625,6.529046630859376
13.800999999999997,6.714022827148438,0.0521881103515625,7.047039794921876
13.810999999999986,6.84696044921875,-0.0931610107421875,7.3200927734375005
13.821000000000026,6.726135253906251,-0.1179840087890625,7.432843017578126
13.83100000000001,6.569720458984375,-0.0662445068359375,6.735256958007813
13.841000000000008,6.615328979492188,0.0506927490234375,6.928158569335938
13.851,7.012347412109375,0.1888641357421875,6.882400512695313
13.86099999999999,7.191790771484375,0.1287506103515625,7.016384887695313
13.87099999999998,7.0353759765625,-0.0157012939453125,6.365753173828126
13.881000000000036,6.919186401367188,-0.1568634033203125,6.410614013671876
13.893000000000036,6.492709350585938,-0.5145538330078125,6.724490356445313
13.90100000000001,7.141845703125001,-0.6805389404296875,7.071563720703126
13.911,6.840829467773438,-0.7841674804687501,7.28001708984375
13.920999999999992,6.629833984375001,-0.5226287841796875,6.675741577148438
13.930999999999983,7.4445068359375,0.3407928466796875,7.298260498046876
13.941000000000033,6.590655517578125,1.0328460693359376,7.063189697265625
13.951000000000022,6.063839721679688,1.2432434082031252,6.599478149414063
13.961000000000013,6.934887695312501,0.8094390869140625,7.124050903320313
13.971000000000004,7.319793701171876,0.1136474609375,6.914251708984375
13.980999999999996,7.144537353515625,-0.3174652099609375,7.281811523437501
13.99200000000002,6.461007690429688,-0.5266662597656251,6.730172729492188
14.000999999999976,6.602020263671876,-0.6936981201171876,6.694134521484376
14.011000000000024,7.039114379882813,-0.9356475830078126,6.856530761718751
14.021000000000017,7.507760620117188,-0.6500335693359376,6.83739013671875
14.031000000000006,6.788641357421875,-0.0970489501953125,6.754995727539063
14.04099999999999,6.322088623046875,0.6450988769531251,6.972720336914063
14.050999999999997,6.625198364257813,1.01983642578125,7.377963256835938
14.060999999999986,6.937130737304688,0.9770690917968752,7.470526123046875
14.071000000000026,6.910662841796875,0.7277923583984376,6.651367187500001
14.08100000000001,6.728378295898438,0.2201171875,6.531140136718751
14.093000000000018,7.039413452148438,-0.3850555419921875,6.650918579101563
14.101,6.88524169921875,-0.87269287109375,7.386038208007813
14.11099999999999,6.765164184570313,-0.9948638916015624,7.137509155273438
14.12099999999998,6.637908935546876,-0.9124694824218752,6.673648071289063
14.131000000000036,6.763070678710938,-0.6491363525390625,6.472821044921876
14.14100000000002,7.489517211914063,-0.1114044189453125,6.683816528320313
14.15100000000001,7.242782592773438,0.37264404296875,6.834249877929688
14.160000000000023,6.700265502929688,0.7973266601562501,6.487176513671876
14.170999999999992,6.728976440429688,0.7674194335937501,6.967337036132813
14.180999999999983,6.728527832031251,0.5235260009765625,7.29197998046875
14.192999999999984,6.315359497070313,0.3518585205078125,7.919583129882813
14.201000000000022,6.374276733398438,-0.0333465576171875,7.232015991210938
14.209999999999988,6.78056640625,-0.447412109375,6.778024291992188
14.221000000000004,7.441366577148438,-0.8314208984375001,6.1193176269531255
14.230000000000018,7.463946533203125,-0.76263427734375,6.434689331054688
14.240999999999984,6.447250366210938,-0.5130584716796875,6.537420654296875
14.25,6.786099243164063,-0.3578399658203125,6.871783447265625
14.259999999999993,7.5503784179687505,-0.3159698486328125,7.107751464843751
14.269999999999982,7.115228271484376,-0.0322998046875,6.53233642578125
14.280000000000037,7.054965209960938,0.7594940185546876,7.352542114257813
14.29000000000002,5.502780151367188,1.2158782958984375,7.051226806640625
14.300000000000011,5.910116577148438,1.0358367919921876,7.682867431640625
14.310000000000002,7.334149169921876,0.1975372314453125,7.599874877929688
14.319999999999991,7.490115356445313,-0.5262176513671876,6.156552124023438
14.329999999999984,7.176239013671876,-0.530853271484375,6.528298950195313
14.339999999999977,6.647927856445313,-0.4972076416015625,6.274984741210938
14.350000000000025,6.882699584960938,-0.4637115478515625,7.392169189453125
14.360000000000014,7.248764038085938,-0.5435638427734375,6.863558959960938
14.370000000000005,6.882101440429688,-0.4314117431640625,6.554318237304688
14.379999999999995,6.644638061523438,0.11903076171875,6.700115966796876
14.389999999999986,6.546243286132813,0.6171356201171876,7.528994750976563
14.399999999999975,6.680526733398438,0.8338134765625,7.662231445312501
14.410000000000023,6.840530395507813,0.536236572265625,6.694134521484376
14.420000000000016,7.230072021484376,0.1460968017578125,6.090756225585938
14.430000000000009,6.894064331054688,-0.1640411376953125,6.513793945312501
14.439999999999998,6.935336303710938,-0.361279296875,7.402935791015626
14.449999999999996,6.689797973632813,-0.4559356689453125,7.553070068359376
14.459999999999988,6.325827026367188,-0.4553375244140625,6.966738891601563
14.470000000000027,6.551626586914063,-0.275146484375,6.664974975585938
14.480000000000018,7.163528442382813,-0.05323486328125,6.928457641601563
14.490000000000007,7.326971435546875,0.188116455078125,6.8894287109375005
14.5,7.012945556640625,0.2935394287109375,6.471325683593751
14.509999999999993,6.608450317382813,0.1819854736328125,6.224740600585938
14.519999999999982,7.006216430664063,-0.0303558349609375,6.995150756835938
14.530000000000037,7.025207519531251,-0.226397705078125,7.387832641601563
14.54000000000002,6.6788818359375,-0.281427001953125,7.326223754882813
14.550000000000011,6.275732421875,-0.1613494873046875,6.8655029296875005
14.560000000000002,6.487026977539063,0.0291595458984375,7.041058349609376
14.569999999999991,7.221099853515626,0.168975830078125,7.1047607421875005
14.579999999999984,7.370635986328126,0.146844482421875,6.728378295898438
14.589999999999977,7.033132934570313,0.099591064453125,6.1432434082031255
14.600000000000025,6.601422119140626,0.01016845703125,6.4468017578125005
14.610000000000014,6.548785400390625,-0.265277099609375,7.173995971679688
14.620000000000005,7.132275390625001,-0.6443511962890626,7.246969604492188
14.629999999999995,7.0329833984375005,-0.94267578125,6.794921875000001
14.639999999999986,6.689050292968751,-0.5807983398437501,6.491513061523438
14.649999999999975,7.510302734375,0.2417999267578125,7.339233398437501
14.660000000000023,6.519027709960938,1.0017425537109377,7.356878662109375
14.668999999999984,5.775982666015626,1.1118011474609375,6.624151611328125
14.680000000000009,6.965692138671876,0.6989318847656251,7.095489501953126
14.68900000000002,7.453329467773438,0.055926513671875,6.821389770507813
14.699999999999996,7.290634155273438,-0.2175750732421875,7.366897583007813
14.709000000000003,6.375323486328125,-0.3117828369140625,6.593795776367188
14.718999999999994,6.41270751953125,-0.5830413818359376,6.593048095703126
14.728999999999983,7.32547607421875,-0.865216064453125,6.907821655273438
14.738999999999976,7.473965454101563,-0.7596435546875,6.8266235351562505
14.749000000000024,6.759033203125001,-0.087628173828125,6.944458007812501
14.759000000000016,6.085971069335938,0.5908172607421875,6.862960815429688
14.769000000000004,6.652264404296876,0.8574401855468751,7.47261962890625
14.778999999999996,7.217361450195313,0.8258880615234375,7.290783691406251
14.788999999999994,6.965243530273438,0.630743408203125,6.541757202148438
14.798999999999984,6.543701171875001,0.261090087890625,6.36844482421875
14.809000000000026,7.002777099609376,-0.404644775390625,6.714620971679688
14.81900000000001,7.180575561523438,-0.7796813964843751,7.666268920898438
14.829000000000008,6.5036254882812505,-0.8339630126953126,7.120462036132813
14.839,6.318200683593751,-0.6536224365234375,6.7817626953125005
14.848999999999997,6.884344482421875,-0.463262939453125,6.620861816406251
14.85899999999998,7.542303466796875,-0.1263580322265625,6.762023925781251
14.869000000000035,7.235604858398438,0.4080841064453125,6.758883666992188
14.87900000000002,6.582580566406251,0.6645385742187501,6.164028930664063
14.88900000000001,6.917691040039063,0.5455078125,6.912606811523438
14.899,7.012347412109375,0.225799560546875,7.232913208007813
14.908999999999992,6.3893798828125,0.034991455078125,7.794271850585938
14.918999999999984,6.286199951171875,-0.1149932861328125,7.128836059570313
14.92900000000003,6.530691528320313,-0.4007568359375,6.930252075195313
14.93900000000002,7.452880859375001,-0.5662933349609376,6.605459594726563
14.949000000000012,7.33385009765625,-0.368756103515625,6.575552368164063
14.959000000000003,6.770996093750001,-0.1140960693359375,6.353192138671876
14.968999999999994,6.553271484375,-0.1375732421875,6.49345703125
14.978999999999983,7.495797729492188,-0.352606201171875,6.852792358398438
14.988999999999976,7.048535156250001,-0.3285308837890625,7.242483520507813
14.999000000000024,6.830960083007813,0.1351806640625,7.015338134765625
15.009000000000016,6.556710815429688,0.5567230224609375,7.446749877929688
15.019000000000004,5.947500610351563,0.7376617431640625,6.945654296875
15.028999999999996,6.810772705078126,0.49107666015625,7.139004516601563
15.038999999999994,7.2052490234375,0.13697509765625,7.152761840820313
15.048999999999984,7.327719116210938,-0.276641845703125,6.1925903320312505
15.059000000000026,7.028048706054688,-0.2723052978515625,6.988720703125001
15.06900000000001,6.561495971679688,-0.1972381591796875,6.495401000976563
15.079000000000008,6.585122680664063,-0.2014251708984375,7.691241455078125
15.089,7.206295776367188,-0.317913818359375,6.722546386718751
15.098999999999997,6.948046875,-0.38101806640625,6.656600952148438
15.10899999999998,7.002029418945313,0.0453094482421875,6.728228759765625
15.119000000000035,6.42825927734375,0.38460693359375,7.036123657226563
15.12900000000002,6.752902221679688,0.45518798828125,7.597183227539063
15.13900000000001,7.15201416015625,0.12381591796875,6.470278930664063
15.149,6.9312988281250005,-0.105572509765625,6.636413574218751
15.158000000000015,6.6609375,-0.0477020263671875,6.562094116210938
15.168000000000006,6.929953002929688,-0.1081146240234375,7.679577636718751
15.17900000000003,6.689797973632813,-0.0375335693359375,7.372280883789063
15.187999999999995,6.428109741210938,-0.0013458251953125,6.803295898437501
15.197999999999986,6.615179443359375,0.0227294921875,6.7473693847656255
15.208000000000029,7.306484985351563,-0.0192901611328125,6.744528198242188
15.218000000000018,7.273886108398438,-0.08194580078125,7.041058349609376
15.228000000000009,6.919784545898438,-0.200677490234375,6.223992919921876
15.238,6.736004638671876,-0.2818756103515625,6.534878540039063
15.24799999999999,7.008309936523438,-0.3991119384765625,6.911709594726563
15.25799999999998,7.136911010742188,-0.3541015625,7.354037475585938
15.268000000000036,6.518280029296876,-0.07357177734375,7.150668334960938
15.27800000000002,6.298461914062501,0.232080078125,6.816604614257813
15.288000000000013,6.561196899414063,0.46475830078125,7.225585937500001
15.298000000000002,7.211380004882813,0.4942169189453125,7.060198974609375
15.307999999999993,7.2028564453125,0.2800811767578125,6.697723388671876
15.317999999999984,6.899746704101563,-0.088525390625,6.024661254882813
15.328000000000031,6.507812500000001,-0.4725341796875,6.46953125
15.338000000000022,7.512396240234375,-0.87149658203125,7.136013793945313
15.348000000000011,6.726882934570313,-1.1058197021484375,7.359869384765625
15.358000000000004,6.931149291992188,-0.76383056640625,6.815258789062501
15.367999999999997,6.9941040039062505,0.2337249755859375,7.123153686523438
15.377999999999986,5.743533325195313,1.0443603515625002,7.074105834960938
15.387999999999977,6.708340454101563,1.1913543701171876,7.0975830078125
15.398000000000025,7.506115722656251,0.8531036376953126,7.150967407226563
15.408000000000015,7.036273193359375,0.47313232421875,6.360968017578125
15.418000000000006,6.881204223632813,0.1508819580078125,6.985580444335938
15.42799999999999,6.724041748046876,-0.3635223388671875,6.754397583007813
15.437999999999995,6.754248046875,-0.8664123535156251,7.35179443359375
15.447999999999986,6.83739013671875,-1.0969970703125,6.8140625
15.458000000000029,6.917242431640625,-0.859234619140625,6.790286254882813
15.468000000000018,6.889129638671876,-0.3213531494140625,6.8864379882812505
15.478000000000009,6.913653564453125,0.39417724609375,6.897952270507813
15.488,6.81705322265625,0.9960601806640624,7.179678344726563
15.49799999999999,6.658395385742188,1.1505310058593752,6.711929321289063
15.50799999999998,6.903933715820313,0.8839080810546875,6.995150756835938
15.518000000000036,6.956121826171875,0.3653167724609375,6.836343383789063
15.52800000000002,6.8822509765625,-0.2507720947265625,7.0951904296875
15.538000000000013,6.3839965820312505,-0.7125396728515625,7.075900268554688
15.548000000000002,6.7626220703125,-0.9712371826171876,7.056460571289063
15.557999999999993,6.875372314453125,-0.9311614990234376,7.07066650390625
15.567999999999984,6.985879516601563,-0.7071563720703126,6.344070434570313
15.578000000000031,7.3727294921875,-0.2086029052734375,6.459811401367188
15.588000000000022,7.216015625000001,0.1529754638671875,6.196478271484375
15.598000000000011,7.028347778320313,0.5426666259765626,6.820791625976563
15.608000000000004,6.706695556640626,0.7150817871093751,7.235903930664063
15.617999999999997,6.308181762695313,0.5641998291015625,7.391421508789063
15.62700000000001,6.343173217773438,0.3816162109375,7.647128295898438
15.637,6.578543090820313,-0.00299072265625,7.084872436523438
15.648000000000025,6.971673583984376,-0.2835205078125,6.894512939453126
15.658000000000015,7.190145874023438,-0.551190185546875,6.202758789062501
15.66700000000003,6.467138671875,-0.643902587890625,6.593496704101563
15.67700000000002,7.575500488281251,-0.6473419189453126,6.535476684570313
15.687999999999995,7.436282348632813,-0.5804992675781251,6.963150024414063
15.697000000000005,7.34102783203125,-0.240753173828125,6.226535034179688
15.706999999999994,6.654058837890625,0.3638214111328125,7.120013427734375
15.716999999999985,5.456124877929688,1.0132568359375,7.515087890625001
15.726999999999975,6.0360260009765625,1.06170654296875,8.10784912109375
15.737000000000023,7.031488037109376,0.4095794677734375,7.725784301757813
15.747000000000014,7.568472290039063,-0.1520782470703125,5.7421875
15.757000000000003,7.503274536132813,-0.158807373046875,6.385491943359376
15.766999999999996,6.722546386718751,-0.1404144287109375,6.168515014648438
15.776999999999994,6.770397949218751,-0.3721954345703125,7.486376953125
15.786999999999985,7.263717651367188,-0.8046539306640625,6.853240966796876
15.797000000000024,6.7279296875000005,-0.8860015869140626,6.548934936523438
15.807000000000016,6.598880004882813,-0.2986236572265625,7.051226806640625
15.817000000000007,6.3720336914062505,0.389093017578125,7.686306762695313
15.826999999999998,6.728826904296875,0.7986724853515625,7.666867065429688
15.836999999999996,7.207641601562501,0.6616973876953125,6.233712768554688
15.84699999999998,7.471722412109376,0.3258392333984375,5.670858764648438
15.857000000000037,6.977505493164063,0.08433837890625,6.346163940429688
15.86700000000002,6.845315551757813,-0.133685302734375,7.700512695312501
15.87700000000001,6.188104248046876,-0.419000244140625,7.938873291015626
15.887,6.279769897460938,-0.5404235839843751,7.2752319335937505
15.896999999999991,6.536822509765625,-0.421392822265625,6.731668090820313
15.906999999999982,7.165921020507813,-0.145648193359375,6.682919311523438
15.91700000000003,7.4546752929687505,0.17166748046875,6.749612426757813
15.92700000000002,7.144686889648438,0.236566162109375,6.335546875
15.937000000000012,6.823184204101563,0.192303466796875,6.205599975585938
15.947000000000005,6.850997924804688,0.036187744140625,7.007562255859376
15.956999999999994,6.830960083007813,-0.19798583984375,7.469778442382813
15.966999999999985,6.663031005859375,-0.2259490966796875,7.55576171875
15.976999999999975,6.255096435546876,-0.195294189453125,6.792828369140626
15.987000000000023,6.727780151367188,0.00179443359375,6.927859497070313
15.997000000000014,7.235604858398438,0.14654541015625,6.892568969726563
16.007000000000005,7.137359619140626,0.293389892578125,6.941018676757813
16.016999999999996,6.943710327148438,0.2624359130859375,6.326425170898438
16.026999999999994,6.696826171875,-0.0210845947265625,6.380557250976563
16.036999999999985,6.760079956054688,-0.5239746093750001,6.770547485351563
16.047000000000025,7.411758422851563,-0.9180023193359376,6.937130737304688
16.057000000000016,6.611441040039063,-0.92174072265625,7.312017822265625
16.067000000000007,6.5679260253906255,-0.46475830078125,6.785202026367188
16.076999999999998,7.55516357421875,0.326287841796875,7.562042236328126
16.086999999999996,6.234460449218751,1.0848846435546875,6.8595214843750005
16.09699999999998,6.1238037109375005,1.2617858886718751,6.522167968750001
16.107000000000035,7.117321777343751,0.8647674560546875,7.289736938476563
16.11700000000002,7.501181030273438,0.1057220458984375,6.739144897460938
16.125999999999976,7.087265014648438,-0.241650390625,7.484881591796875
16.136000000000024,6.176889038085938,-0.4643096923828125,6.266909790039063
16.146000000000015,6.566131591796876,-0.755157470703125,7.134368896484376
16.156000000000006,7.478152465820313,-1.0969970703125,6.722396850585938
16.16599999999999,7.408468627929688,-0.8593841552734376,6.824829101562501
16.17700000000002,6.605010986328126,0.0055328369140625,6.716415405273438
16.185999999999986,6.083578491210938,0.752166748046875,6.9779541015625
16.196000000000026,6.910064697265626,1.0902679443359375,7.766009521484375
16.20600000000001,7.204800415039063,0.949853515625,6.958963012695313
16.216000000000008,6.7578369140625005,0.71478271484375,6.573608398437501
16.226,6.572711181640625,0.2477813720703125,6.308331298828126
16.23599999999999,7.130331420898438,-0.5075256347656251,7.245025634765626
16.24599999999998,7.011300659179688,-0.9565826416015626,7.534527587890626
16.256000000000036,6.417642211914063,-1.0388275146484376,6.899447631835938
16.26600000000002,6.392669677734376,-0.7885040283203125,6.684564208984376
16.27600000000001,7.091452026367188,-0.51978759765625,6.665573120117188
16.286,7.657296752929688,0.0485992431640625,6.94266357421875
16.295999999999992,7.09459228515625,0.5646484375,6.309826660156251
16.305999999999983,6.700863647460938,0.7493255615234375,6.100476074218751
16.31600000000003,6.940420532226563,0.6252105712890625,7.063787841796875
16.326000000000022,6.670956420898438,0.291595458984375,7.708737182617188
16.336000000000013,6.253302001953125,0.126507568359375,7.994949340820313
16.346000000000004,6.160140991210938,-0.201275634765625,6.930401611328126
16.355999999999995,6.923373413085938,-0.603826904296875,6.656301879882813
16.365999999999985,7.641146850585938,-0.6536224365234375,6.3534912109375
16.375999999999976,7.244427490234376,-0.4175048828125,6.491961669921875
16.386000000000024,6.438128662109375,-0.24822998046875,6.350201416015626
16.396000000000015,7.131826782226563,-0.3001190185546875,6.544448852539063
16.406000000000006,7.437329101562501,-0.3808685302734375,7.25010986328125
16.41599999999999,7.0234130859375,0.0593658447265625,6.929803466796876
16.425999999999995,6.609048461914063,0.7086517333984376,7.637557983398438
16.435999999999986,5.465396118164063,1.0056304931640625,6.918289184570313
16.446000000000026,6.516485595703125,0.6733612060546875,7.344317626953125
16.45600000000001,7.379608154296876,0.1317413330078125,7.482638549804688
16.466000000000008,7.505068969726563,-0.3576904296875,5.992062377929688
16.476,7.013394165039063,-0.4215423583984375,6.774285888671876
16.48599999999999,6.72972412109375,-0.3943267822265625,6.229974365234376
16.49599999999998,6.79312744140625,-0.3889434814453125,7.676437377929688
16.506000000000036,7.011898803710938,-0.32957763671875,6.984384155273438
16.51600000000002,6.721200561523438,-0.30325927734375,6.6681152343750005
