time,ax,ay,az,timestamp
0.0,-6.878662109375001,0.4463653564453125,6.408520507812501,1713569392380.0
0.0099999999999624,-6.921878051757813,0.6210235595703125,7.046292114257813,1713569392390.0
0.0199999999999533,-6.946701049804688,0.322698974609375,7.352542114257813,1713569392400.0
0.0299999999999442,-7.340130615234376,-0.2597442626953125,7.143789672851563,1713569392410.0
0.0399999999999352,-5.660540771484375,-0.504833984375,6.802249145507813,1713569392420.0
0.0499999999999261,-6.436035156250001,-0.523077392578125,6.480447387695313,1713569392430.0
0.0609999999998933,-6.727630615234376,-0.375634765625,8.569766235351564,1713569392441.0
0.0699999999999079,-6.9447570800781255,-0.1185821533203125,7.053619384765626,1713569392450.0
0.0809999999998751,-6.722994995117188,0.03170166015625,7.1630798339843755,1713569392461.0
0.0919999999999561,-6.409567260742188,0.193798828125,5.5530242919921875,1713569392472.0
0.1009999999999706,-7.1855102539062505,0.3081939697265625,7.286895751953126,1713569392481.0
0.1109999999999615,-6.973767089843751,0.5719757080078125,7.329214477539063,1713569392491.0
0.1209999999999524,-6.572711181640625,0.545806884765625,7.022366333007813,1713569392501.0
0.1309999999999433,-6.2613769531250005,0.17286376953125,6.860717773437501,1713569392511.0
0.1409999999999343,-6.430950927734376,-0.2349212646484375,7.2028564453125,1713569392521.0
0.1509999999999252,-7.0916015625,-0.496160888671875,7.913003540039063,1713569392531.0
0.1609999999999161,-6.643292236328126,-0.41810302734375,6.4722229003906255,1713569392541.0
0.170999999999907,-6.8729797363281255,-0.3584381103515625,6.220852661132813,1713569392551.0
0.1809999999998979,-6.8146606445312505,0.04127197265625,6.649273681640626,1713569392561.0
0.1919999999998651,-7.039712524414063,0.3805694580078125,7.54678955078125,1713569392572.0
0.2009999999998797,-6.422576904296876,0.611004638671875,7.400244140625,1713569392581.0
0.2119999999999322,-6.126644897460938,0.649884033203125,6.914401245117188,1713569392592.0
0.2219999999999515,-6.332705688476563,0.403448486328125,7.314111328125,1713569392602.0
0.2319999999999424,-7.006365966796875,0.119927978515625,7.360018920898438,1713569392612.0
0.2419999999999333,-7.109844970703126,-0.285614013671875,6.651815795898438,1713569392622.0
0.2519999999999243,-6.9342895507812505,-0.2860626220703125,5.614035034179688,1713569392632.0
0.2619999999999152,-6.9477478027343755,-0.1152923583984375,6.385342407226563,1713569392642.0
0.2719999999999061,-6.928756713867188,0.138470458984375,7.489666748046876,1713569392652.0
0.281999999999897,-6.325527954101563,0.201275634765625,7.9346862792968755,1713569392662.0
0.2919999999998879,-6.325378417968751,0.229986572265625,7.5967346191406255,1713569392672.0
0.3019999999998788,-6.3869873046875005,0.261688232421875,7.033581542968751,1713569392682.0
0.3119999999998697,-6.727481079101563,-0.0444122314453125,6.817950439453125,1713569392692.0
0.3219999999998606,-7.106405639648438,-0.2758941650390625,6.561495971679688,1713569392702.0
0.3319999999999652,-6.995449829101563,-0.23507080078125,6.802249145507813,1713569392712.0
0.3419999999999561,-6.833502197265625,0.0686370849609375,6.693087768554688,1713569392722.0
0.351999999999947,-6.431549072265626,0.0133087158203125,7.458563232421875,1713569392732.0
0.3619999999999379,-6.3406311035156255,-0.1280029296875,7.575949096679688,1713569392742.0
0.3729999999999052,-6.688601684570313,0.0506927490234375,7.393963623046876,1713569392753.0
0.3829999999998961,-6.80150146484375,0.4906280517578125,6.638806152343751,1713569392763.0
0.392999999999887,-7.075302124023438,0.45399169921875,6.406277465820313,1713569392773.0
0.4029999999998779,-6.836791992187501,0.079254150390625,6.689797973632813,1713569392783.0
0.4129999999998688,-6.761276245117188,-0.0468048095703125,7.139602661132813,1713569392793.0
0.4229999999998597,-6.655255126953126,-0.0079254150390625,7.462451171875,1713569392803.0
0.4329999999999643,-6.513494873046875,-0.02093505859375,7.049282836914063,1713569392813.0
0.4429999999999552,-6.416146850585938,-0.2920440673828125,7.090405273437501,1713569392823.0
0.4529999999999461,-6.775033569335938,-0.347821044921875,7.079638671875,1713569392833.0
0.462999999999937,-6.795819091796876,-0.0653472900390625,7.379608154296876,1713569392843.0
0.4729999999999279,-6.855633544921876,0.1700225830078125,6.598880004882813,1713569392853.0
0.4829999999999188,-6.713574218750001,0.2053131103515625,6.646731567382813,1713569392863.0
0.4939999999998861,-6.689349365234375,0.3931304931640625,6.695779418945313,1713569392874.0
0.5029999999999006,-6.8026977539062505,0.5299560546875001,7.590005493164063,1713569392883.0
0.5139999999998679,-6.690994262695313,0.4795623779296875,7.0045715332031255,1713569392894.0
0.5239999999998588,-6.489868164062501,0.1763031005859375,6.841128540039063,1713569392904.0
0.5339999999999634,-6.749014282226563,-0.0982452392578125,6.8056884765625005,1713569392914.0
0.5439999999999543,-7.084573364257813,-0.3120819091796875,7.258483886718751,1713569392924.0
0.5539999999999452,-6.630880737304688,-0.3671112060546875,7.141845703125001,1713569392934.0
0.5639999999999361,-6.495849609375001,-0.3895416259765625,6.5559631347656255,1713569392944.0
0.573999999999927,-6.505569458007813,-0.0729736328125,6.904232788085938,1713569392954.0
0.5839999999999179,-6.656451416015625,0.5779571533203125,6.933541870117188,1713569392964.0
0.5939999999999088,-6.807333374023438,0.9550872802734376,7.212127685546876,1713569392974.0
0.6039999999998997,-7.249960327148438,0.9414794921875,6.752902221679688,1713569392984.0
0.6139999999998906,-6.977505493164063,0.745587158203125,6.696826171875,1713569392994.0
0.6239999999998815,-6.9941040039062505,0.0207855224609375,6.862960815429688,1713569393004.0
0.6339999999998724,-6.504373168945313,-0.8146728515625,7.486227416992188,1713569393014.0
0.6439999999998633,-5.905630493164063,-1.403546142578125,7.448693847656251,1713569393024.0
0.6539999999999679,-6.088214111328125,-1.2073547363281252,7.570266723632813,1713569393034.0
0.6649999999999352,-6.937130737304688,-0.4041961669921875,7.178781127929688,1713569393045.0
0.6749999999999261,-7.374224853515625,0.393280029296875,6.983187866210938,1713569393055.0
0.684999999999917,-7.090405273437501,0.5884246826171875,6.4994384765625,1713569393065.0
0.6949999999999079,-6.550729370117188,0.6724639892578126,6.01793212890625,1713569393075.0
0.7049999999998988,-6.478054809570313,1.04794921875,7.029244995117188,1713569393085.0
0.7149999999998897,-7.090554809570313,1.1460449218750002,7.841076660156251,1713569393095.0
0.7249999999998522,-6.349304199218751,0.4631134033203125,7.765560913085938,1713569393105.0
0.7349999999998715,-6.181524658203125,-0.7221099853515626,6.603366088867188,1713569393115.0
0.7449999999998624,-6.862811279296875,-1.22799072265625,6.939822387695313,1713569393125.0
0.754999999999967,-7.029693603515626,-1.0217803955078126,7.019674682617188,1713569393135.0
0.7649999999999579,-6.886587524414063,-0.7472320556640626,6.910214233398438,1713569393145.0
0.7749999999999488,-6.696826171875,-0.4083831787109375,6.825277709960938,1713569393155.0
0.7849999999999397,-6.365603637695313,0.299371337890625,7.0138427734375,1713569393165.0
0.7949999999999307,-6.391024780273438,1.1301940917968751,7.751205444335938,1713569393175.0
0.8049999999999216,-6.601123046875,1.3585357666015625,7.660885620117188,1713569393185.0
0.8159999999998888,-6.3436218261718755,0.8429351806640626,7.184762573242188,1713569393196.0
0.8259999999998797,-6.209786987304688,0.09869384765625,6.642395019531251,1713569393206.0
0.8359999999998706,-7.362561035156251,-0.445916748046875,6.7369018554687505,1713569393216.0
0.8459999999998615,-7.753598022460938,-0.43843994140625,6.151766967773438,1713569393226.0
0.8559999999999661,-7.974612426757813,-0.2537628173828125,5.069424438476563,1713569393236.0
0.865999999999957,-7.248165893554688,-0.0538330078125,5.917294311523438,1713569393246.0
0.8759999999999479,-5.3152618408203125,0.222808837890625,7.966687011718751,1713569393256.0
0.8859999999999388,-5.17215576171875,0.0562255859375,9.692633056640624,1713569393266.0
0.8959999999999297,-5.395413208007813,0.2883056640625,9.10076904296875,1713569393276.0
0.9059999999998922,-7.0180297851562505,0.7478302001953125,6.625048828125,1713569393286.0
0.9159999999999116,-8.476156616210938,0.566741943359375,4.9005981445312505,1713569393296.0
0.9259999999999023,-8.3106201171875,-0.18721923828125,4.2685089111328125,1713569393306.0
0.9359999999998934,-7.268951416015626,-0.7077545166015625,6.589608764648438,1713569393316.0
0.9469999999998606,-5.887237548828125,-0.5012451171875001,8.3273681640625,1713569393327.0
0.9569999999999652,-5.33604736328125,-0.2779876708984375,8.876165771484375,1713569393337.0
0.966999999999956,-5.314215087890625,0.1173858642578125,7.98343505859375,1713569393347.0
0.976999999999947,-6.9866271972656255,0.452496337890625,7.544546508789063,1713569393357.0
0.986999999999938,-7.697970581054688,0.406439208984375,6.733612060546876,1713569393367.0
0.9969999999999288,-6.818997192382813,-0.048150634765625,5.4588165283203125,1713569393377.0
1.0089999999998724,-7.086965942382813,-0.5779571533203125,5.839236450195313,1713569393389.0
1.0169999999999106,-7.491760253906251,0.1105072021484375,6.806735229492188,1713569393397.0
1.0269999999999015,-7.2273803710937505,0.9366943359375,7.315158081054688,1713569393407.0
1.0369999999998925,-5.8755737304687505,0.8414398193359376,7.038665771484376,1713569393417.0
1.0469999999998834,-5.610296630859375,0.095703125,7.790084838867188,1713569393427.0
1.0569999999998745,-6.264218139648438,-0.29249267578125,8.607748413085938,1713569393437.0
1.0669999999998652,-7.160836791992188,-0.1568634033203125,7.46304931640625,1713569393447.0
1.0769999999999698,-7.154705810546876,-0.222808837890625,5.630484008789063,1713569393457.0
1.087999999999937,-7.063040161132813,-0.6479400634765625,5.099630737304688,1713569393468.0
1.097999999999928,-6.756192016601563,-0.6796417236328125,7.269100952148438,1713569393478.0
1.1099999999998715,-6.733013916015626,-0.1039276123046875,8.577841186523438,1713569393490.0
1.1179999999999095,-5.77269287109375,0.390887451171875,8.1431396484375,1713569393498.0
1.1279999999999006,-5.9054809570312505,0.4557861328125,6.3765197753906255,1713569393508.0
1.13799999999992,-6.670208740234376,0.5641998291015625,6.9516357421875,1713569393518.0
1.1479999999998824,-7.970275878906251,0.658856201171875,7.056759643554688,1713569393528.0
1.1579999999998734,-7.76212158203125,0.48270263671875,6.3241821289062505,1713569393538.0
1.1679999999998645,-6.3899780273437505,0.176153564453125,5.1488281250000005,1713569393548.0
1.1779999999999688,-6.509756469726563,-0.2214630126953125,6.500186157226563,1713569393558.0
1.1879999999999598,-6.951336669921876,-0.0764129638671875,8.537316894531251,1713569393568.0
1.1979999999999509,-6.4013427734375,0.2307342529296875,7.927658081054688,1713569393578.0
1.208999999999918,-5.569772338867188,0.1176849365234375,6.694583129882813,1713569393589.0
1.2179999999999325,-6.2841064453125,-0.1278533935546875,6.687106323242188,1713569393598.0
1.2289999999998995,-7.688699340820313,-0.151031494140625,7.934835815429688,1713569393609.0
1.2379999999999145,-7.88115234375,0.0249725341796875,6.724191284179688,1713569393618.0
1.2489999999998815,-6.79312744140625,-0.110357666015625,5.571865844726563,1713569393629.0
1.2589999999998724,-6.043652343750001,-0.2966796875,6.129336547851563,1713569393639.0
1.2689999999998631,-6.250311279296875,-0.2468841552734375,8.408865356445313,1713569393649.0
1.278999999999968,-6.570617675781251,0.183929443359375,9.100320434570314,1713569393659.0
1.2889999999999588,-6.329714965820313,0.62745361328125,7.009954833984375,1713569393669.0
1.2989999999999498,-6.707742309570313,0.433953857421875,5.969183349609375,1713569393679.0
1.3089999999999409,-7.354037475585938,-0.114544677734375,6.200814819335938,1713569393689.0
1.31899999999996,-7.445553588867188,-0.3736907958984375,6.928158569335938,1713569393699.0
1.3289999999999225,-6.9417663574218755,-0.0306549072265625,6.691143798828126,1713569393709.0
1.3389999999999134,-6.180776977539063,0.3122314453125,6.814810180664063,1713569393719.0
1.3489999999999045,-5.935238647460938,-0.0370849609375,8.007659912109375,1713569393729.0
1.3589999999998952,-6.391323852539063,-0.429766845703125,8.464492797851562,1713569393739.0
1.368999999999886,-6.71177978515625,-0.231182861328125,7.429403686523438,1713569393749.0
1.378999999999877,-6.916494750976563,0.206060791015625,5.616726684570313,1713569393759.0
1.388999999999868,-7.180725097656251,0.2160797119140625,5.892620849609376,1713569393769.0
1.3999999999999488,-7.238446044921876,0.0506927490234375,6.954776000976563,1713569393780.0
1.4099999999999395,-6.688153076171876,0.125909423828125,7.756588745117188,1713569393790.0
1.4199999999999309,-6.120065307617188,0.4414306640625,7.377514648437501,1713569393800.0
1.4299999999999216,-6.03348388671875,0.52935791015625,7.108050537109375,1713569393810.0
1.4399999999999125,-6.497943115234375,0.0683380126953125,7.633819580078126,1713569393820.0
1.4499999999999034,-6.788940429687501,-0.4463653564453125,7.495648193359376,1713569393830.0
1.4599999999998945,-7.078591918945313,-0.448309326171875,6.361865234375,1713569393840.0
1.4699999999998852,-7.533929443359376,-0.066094970703125,5.423675537109375,1713569393850.0
1.479999999999876,-7.3105224609375,0.267071533203125,6.085223388671875,1713569393860.0
1.489999999999867,-6.612637329101563,0.2905487060546875,7.5518737792968755,1713569393870.0
1.5,-5.847760009765626,0.14774169921875,8.221347045898439,1713569393880.0
1.5109999999999388,-5.795870971679688,0.367559814453125,7.865600585937501,1713569393891.0
1.5209999999999295,-6.169561767578125,0.6890625,7.110592651367188,1713569393901.0
1.5309999999998922,-7.093246459960938,0.5568725585937501,6.470877075195313,1713569393911.0
1.5409999999999116,-8.155401611328125,0.0593658447265625,6.163131713867188,1713569393921.0
1.5509999999999025,-7.7627197265625005,-0.401953125,5.811422729492188,1713569393931.0
1.5609999999998934,-6.61009521484375,-0.38580322265625,6.3959594726562505,1713569393941.0
1.5709999999998845,-5.8760223388671875,-0.39298095703125,8.097830200195313,1713569393951.0
1.5809999999998752,-5.858227539062501,-0.5956024169921875,8.859417724609376,1713569393961.0
1.590999999999866,-5.8621154785156255,-0.3901397705078125,8.045642089843751,1713569393971.0
1.600999999999971,-6.9875244140625,0.5061798095703125,6.393716430664063,1713569393981.0
1.6109999999999616,-7.720401000976563,0.9123199462890624,6.03587646484375,1713569393991.0
1.6209999999999525,-7.19986572265625,0.303857421875,6.054119873046876,1713569394001.0
1.6309999999999434,-6.449343872070313,-0.30325927734375,6.926663208007813,1713569394011.0
1.6409999999999343,-7.0554138183593755,0.04486083984375,7.172201538085938,1713569394021.0
1.6509999999999252,-6.752752685546875,0.93011474609375,7.348355102539063,1713569394031.0
1.660999999999916,-6.062344360351563,0.5117126464843751,7.094741821289063,1713569394041.0
1.670999999999907,-6.16507568359375,-0.6412109375,7.603912353515626,1713569394051.0
1.680999999999898,-6.730172729492188,-0.7766906738281251,7.796514892578125,1713569394061.0
1.6909999999998888,-6.974066162109375,-0.12620849609375,6.883148193359376,1713569394071.0
1.7019999999999698,-7.224539184570313,0.2373138427734375,5.852694702148438,1713569394082.0
1.7119999999999322,-6.914550781250001,-0.1466949462890625,5.867648315429688,1713569394092.0
1.7219999999999516,-6.367248535156251,-0.231781005859375,7.742532348632813,1713569394102.0
1.7319999999999425,-6.361416625976563,0.3237457275390625,8.441763305664063,1713569394112.0
1.7419999999999334,-6.270797729492188,0.5882751464843751,7.918984985351563,1713569394122.0
1.7519999999999245,-5.933294677734375,0.126806640625,6.291433715820313,1713569394132.0
1.7619999999999152,-6.742135620117188,-0.276043701171875,6.754248046875,1713569394142.0
1.771999999999906,-8.121755981445313,0.0216827392578125,6.794622802734375,1713569394152.0
1.781999999999897,-8.076596069335938,0.45518798828125,5.969482421875,1713569394162.0
1.791999999999888,-6.570169067382813,0.4945159912109375,5.157052612304688,1713569394172.0
1.8019999999998788,-5.918789672851563,0.1769012451171875,6.750808715820313,1713569394182.0
1.81299999999996,-6.4019409179687505,0.1126007080078125,9.428701782226565,1713569394193.0
1.8219999999998608,-6.395361328125,0.4269256591796875,8.764312744140625,1713569394202.0
1.8329999999999416,-5.982492065429688,0.2459869384765625,6.401791381835938,1713569394213.0
1.8429999999999325,-6.10526123046875,-0.33077392578125,5.4084228515625,1713569394223.0
1.8529999999999232,-7.937078857421875,-0.576611328125,6.946102905273438,1713569394233.0
1.8629999999999145,-8.314956665039062,-0.106768798828125,7.3365417480468755,1713569394243.0
1.8729999999999052,-6.926364135742188,0.4350006103515625,5.76611328125,1713569394253.0
1.882999999999896,-5.64169921875,0.1828826904296875,6.241189575195313,1713569394263.0
1.892999999999887,-6.019876098632813,-0.160302734375,8.767752075195313,1713569394273.0
1.902999999999878,-6.376370239257813,-0.2026214599609375,9.690390014648438,1713569394283.0
1.9129999999998688,-6.204254150390626,0.0497955322265625,7.153210449218751,1713569394293.0
1.9229999999998597,-6.705349731445313,0.2714080810546875,4.4729248046875005,1713569394303.0
1.9329999999999643,-7.980743408203126,0.120526123046875,6.08970947265625,1713569394313.0
1.9429999999999552,-7.999584960937501,-0.153424072265625,7.468582153320313,1713569394323.0
1.952999999999946,-6.4228759765625005,-0.2803802490234375,7.0479370117187505,1713569394333.0
1.962999999999937,-5.398403930664063,0.1973876953125,6.415847778320313,1713569394343.0
1.9739999999999045,-6.031240844726563,0.40494384765625,8.306582641601564,1713569394354.0
1.9839999999998952,-6.81705322265625,0.13577880859375,8.941812133789064,1713569394364.0
1.993999999999886,-7.005169677734376,-0.31163330078125,7.086965942382813,1713569394374.0
2.003999999999877,-6.734060668945313,-0.303558349609375,5.050283813476563,1713569394384.0
2.013999999999868,-6.8939147949218755,-0.01734619140625,5.530743408203126,1713569394394.0
2.023999999999859,-7.426712036132813,-0.0348419189453125,7.824777221679688,1713569394404.0
2.0339999999999634,-6.652413940429688,-0.05323486328125,8.251553344726563,1713569394414.0
2.0439999999999543,-5.874826049804688,0.188116455078125,6.985580444335938,1713569394424.0
2.053999999999945,-5.8749755859375,0.6663330078125,6.690097045898438,1713569394434.0
2.063999999999936,-6.850250244140626,0.5923126220703125,7.783953857421875,1713569394444.0
2.073999999999927,-6.888082885742188,-0.194696044921875,8.11622314453125,1713569394454.0
2.083999999999918,-6.420632934570313,-0.51141357421875,6.123654174804688,1713569394464.0
2.093999999999909,-7.411758422851563,-0.258697509765625,5.317953491210938,1713569394474.0
2.1039999999998997,-8.024407958984376,0.413616943359375,5.863461303710938,1713569394484.0
2.11399999999989,-7.394412231445313,0.4996002197265625,6.7892395019531255,1713569394494.0
2.125,-5.7409912109375005,0.113348388671875,7.883694458007813,1713569394505.0
2.1349999999999625,-5.2494659423828125,0.0503936767578125,7.895059204101563,1713569394515.0
2.1449999999999534,-6.330911254882813,0.3479705810546875,8.660833740234375,1713569394525.0
2.1549999999999443,-7.115826416015626,0.5133575439453125,7.023712158203126,1713569394535.0
2.164999999999935,-7.221548461914063,-0.1024322509765625,5.824432373046875,1713569394545.0
2.174999999999926,-6.580935668945313,-0.7535125732421876,5.7608795166015625,1713569394555.0
2.184999999999917,-6.754547119140626,-0.6416595458984375,6.913204956054688,1713569394565.0
2.194999999999908,-7.295419311523438,0.050543212890625,7.780215454101563,1713569394575.0
2.204999999999899,-7.02640380859375,0.7971771240234375,6.276629638671875,1713569394585.0
2.2149999999998897,-6.47012939453125,0.8062988281250001,6.716116333007813,1713569394595.0
2.224999999999852,-6.496746826171876,0.4690948486328125,7.383047485351563,1713569394605.0
2.2349999999998715,-6.526953125,0.019439697265625,8.671151733398439,1713569394615.0
2.2449999999998624,-6.292031860351563,-0.2821746826171875,7.290335083007813,1713569394625.0
2.254999999999967,-6.540411376953125,-0.512908935546875,5.8127685546875005,1713569394635.0
2.26699999999991,-7.388729858398438,-0.29189453125,5.995352172851563,1713569394647.0
2.275999999999925,-7.577145385742188,-0.0904693603515625,7.449740600585938,1713569394656.0
2.285999999999916,-6.359622192382813,-0.289202880859375,7.565481567382813,1713569394666.0
2.295999999999907,-5.809030151367188,-0.307147216796875,6.831707763671876,1713569394676.0
2.305999999999898,-6.4213806152343755,0.3234466552734375,7.2483154296875005,1713569394686.0
2.315999999999889,-7.220950317382813,1.0232757568359376,7.567724609375,1713569394696.0
2.3259999999998797,-7.006216430664063,0.6865203857421875,6.941616821289063,1713569394706.0
2.33599999999987,-6.479400634765626,-0.012860107421875,5.9986419677734375,1713569394716.0
2.3459999999998615,-6.659741210937501,-0.0312530517578125,6.637908935546876,1713569394726.0
2.355999999999966,-7.456021118164063,0.238958740234375,7.471124267578125,1713569394736.0
2.365999999999957,-6.749163818359375,0.1472930908203125,7.072161865234375,1713569394746.0
2.375999999999948,-6.138009643554688,-0.4257293701171875,6.543252563476563,1713569394756.0
2.385999999999939,-6.3510986328125005,-0.61907958984375,7.380505371093751,1713569394766.0
2.3959999999999297,-6.648974609375,-0.2860626220703125,8.123550415039062,1713569394776.0
2.405999999999892,-6.39476318359375,-0.1758544921875,7.7776733398437505,1713569394786.0
2.416999999999888,-6.2180114746093755,-0.299072265625,6.615628051757813,1713569394797.0
2.426999999999879,-6.592300415039063,-0.29727783203125,6.7721923828125,1713569394807.0
2.4369999999998697,-7.131228637695313,0.3602325439453125,6.867596435546876,1713569394817.0
2.4469999999998606,-8.112783813476563,0.96600341796875,6.338687133789063,1713569394827.0
2.456999999999965,-7.361962890625,1.30933837890625,5.310626220703125,1713569394837.0
2.466999999999956,-6.353790283203126,1.0513885498046875,6.09329833984375,1713569394847.0
2.476999999999947,-6.2688537597656255,0.4230377197265625,8.0869140625,1713569394857.0
2.486999999999938,-6.387136840820313,-0.0073272705078125,8.918783569335938,1713569394867.0
2.496999999999929,-6.289340209960938,-0.4311126708984375,7.514639282226563,1713569394877.0
2.5099999999999625,-6.064288330078125,-0.7391571044921875,5.8770690917968755,1713569394890.0
2.51699999999991,-6.616973876953126,-1.091015625,6.444110107421875,1713569394897.0
2.5269999999999015,-7.878012084960938,-0.8828613281250001,7.530938720703125,1713569394907.0
2.5369999999998925,-7.282858276367188,0.1975372314453125,7.090554809570313,1713569394917.0
2.5469999999998834,-6.934140014648438,0.9443206787109376,5.744281005859375,1713569394927.0
2.5579999999999643,-6.336294555664063,0.8058502197265626,6.891372680664063,1713569394938.0
2.567999999999955,-6.120663452148438,0.4723846435546875,8.228225708007812,1713569394948.0
2.577999999999946,-6.434689331054688,0.2648284912109375,8.491708374023439,1713569394958.0
2.587999999999937,-6.15909423828125,0.2800811767578125,6.654357910156251,1713569394968.0
2.597999999999928,-7.075451660156251,-0.037982177734375,5.9792022705078125,1713569394978.0
2.6099999999998715,-7.626342773437501,-0.6491363525390625,6.939523315429688,1713569394990.0
2.6179999999999097,-7.258483886718751,-1.113446044921875,6.7294250488281255,1713569394998.0
2.6279999999999006,-6.275732421875,-0.720166015625,6.811520385742188,1713569395008.0
2.63799999999992,-6.244180297851563,0.2495758056640625,6.624002075195313,1713569395018.0
2.6479999999998824,-6.527850341796875,0.6782958984375,8.548980712890625,1713569395028.0
2.657999999999874,-6.414053344726563,0.497955322265625,8.032333374023438,1713569395038.0
2.6679999999998643,-6.586767578125,0.3375030517578125,6.758883666992188,1713569395048.0
2.677999999999969,-6.88883056640625,0.4966094970703125,5.9638000488281255,1713569395058.0
2.68799999999996,-7.033282470703125,0.3007171630859375,6.261676025390625,1713569395068.0
2.6979999999999507,-7.321737670898438,-0.3025115966796875,7.338037109375,1713569395078.0
2.7099999999998943,-6.660488891601563,-0.4705902099609375,6.9941040039062505,1713569395090.0
2.718999999999909,-6.293377685546876,-0.155517578125,7.091003417968751,1713569395099.0
2.7289999999998997,-6.324032592773438,0.1697235107421875,7.0643859863281255,1713569395109.0
2.73899999999989,-6.443960571289063,0.07117919921875,8.013043212890626,1713569395119.0
2.7489999999998815,-6.490914916992188,-0.1404144287109375,7.631875610351563,1713569395129.0
2.7589999999998724,-6.616525268554688,-0.0207855224609375,6.777725219726563,1713569395139.0
2.7689999999998633,-7.111639404296875,0.2388092041015625,5.968585205078125,1713569395149.0
2.778999999999968,-7.413253784179688,0.359185791015625,6.1137847900390625,1713569395159.0
2.788999999999959,-7.323532104492188,0.1942474365234375,6.837240600585938,1713569395169.0
2.7989999999999498,-6.416146850585938,0.2983245849609375,7.062442016601563,1713569395179.0
2.8089999999999407,-6.204403686523438,0.25780029296875,7.590454101562501,1713569395189.0
2.81899999999996,-6.222796630859375,0.227294921875,7.368542480468751,1713569395199.0
2.8289999999999225,-6.75963134765625,0.1544708251953125,7.5258544921875,1713569395209.0
2.838999999999914,-6.759930419921876,-0.1523773193359375,6.786697387695313,1713569395219.0
2.8489999999999043,-6.2697509765625,-0.2660247802734375,6.430203247070313,1713569395229.0
2.858999999999895,-6.90079345703125,-0.348419189453125,6.792828369140626,1713569395239.0
2.868999999999886,-7.395309448242188,0.11962890625,6.88524169921875,1713569395249.0
2.878999999999877,-7.4053283691406255,0.366064453125,6.916494750976563,1713569395259.0
2.888999999999868,-6.853839111328125,0.3515594482421875,6.525906372070313,1713569395269.0
2.899999999999949,-5.775982666015626,0.0372344970703125,7.369290161132813,1713569395280.0
2.9099999999999397,-6.374575805664063,-0.13218994140625,7.773336791992188,1713569395290.0
2.9199999999999307,-6.377716064453126,-0.0847869873046875,8.171551513671876,1713569395300.0
2.9299999999999216,-7.13048095703125,0.2325286865234375,6.0834289550781255,1713569395310.0
2.9399999999999125,-7.187603759765626,0.2400054931640625,6.509457397460938,1713569395320.0
2.9499999999999034,-6.7234436035156255,-0.3231475830078125,6.420932006835938,1713569395330.0
2.9599999999998943,-6.731967163085938,-0.6929504394531251,7.604959106445313,1713569395340.0
2.969999999999885,-6.645236206054688,-0.1057220458984375,7.150518798828125,1713569395350.0
2.979999999999876,-6.6908447265625,0.7406524658203125,6.830212402343751,1713569395360.0
2.989999999999867,-6.415100097656251,0.6032287597656251,7.18431396484375,1713569395370.0
3.0,-6.470877075195313,-0.039178466796875,7.257736206054688,1713569395380.0
3.0099999999999625,-6.789837646484376,0.00538330078125,7.640847778320313,1713569395390.0
3.0209999999999297,-7.073956298828126,0.423785400390625,6.424819946289063,1713569395401.0
3.030999999999892,-6.911560058593751,0.4176544189453125,6.112438964843751,1713569395411.0
3.0409999999999116,-6.865951538085938,-0.1583587646484375,6.3654541015625,1713569395421.0
3.0509999999999025,-6.741836547851563,-0.538031005859375,7.83629150390625,1713569395431.0
3.060999999999894,-6.1252990722656255,-0.241949462890625,7.954873657226563,1713569395441.0
3.0709999999998843,-6.10526123046875,-0.145050048828125,7.506564331054688,1713569395451.0
3.080999999999875,-6.082681274414063,-0.4332061767578125,7.3694396972656255,1713569395461.0
3.090999999999866,-6.557757568359375,-0.5643493652343751,7.121957397460938,1713569395471.0
3.1009999999999707,-7.473666381835938,0.0076263427734375,6.827819824218751,1713569395481.0
3.1109999999999616,-8.107998657226563,0.90738525390625,5.508013916015625,1713569395491.0
3.1209999999999525,-7.23037109375,1.2948333740234377,5.3294677734375,1713569395501.0
3.1309999999999434,-6.244628906250001,0.90140380859375,6.554916381835938,1713569395511.0
3.1409999999999343,-6.337191772460938,0.4490570068359375,8.614926147460938,1713569395521.0
3.150999999999925,-6.504672241210938,0.413018798828125,8.4637451171875,1713569395531.0
3.1619999999998925,-6.3585754394531255,0.1990325927734375,6.673348999023438,1713569395542.0
3.1719999999998834,-6.40672607421875,-0.6821838378906251,6.295022583007813,1713569395552.0
3.1819999999998743,-6.472073364257813,-1.56953125,7.1167236328125005,1713569395562.0
3.191999999999865,-6.963449096679688,-1.4053405761718751,7.605557250976563,1713569395572.0
3.2019999999999698,-7.450637817382813,-0.1472930908203125,6.779071044921875,1713569395582.0
3.211999999999932,-6.659741210937501,1.0786041259765626,5.602072143554688,1713569395592.0
3.2219999999999516,-7.198669433593751,1.1082122802734375,6.727182006835938,1713569395602.0
3.2319999999999425,-6.786099243164063,0.7786346435546876,8.080783081054689,1713569395612.0
3.2419999999999334,-5.9672393798828125,0.7928405761718751,8.013491821289064,1713569395622.0
3.2519999999999243,-6.026156616210938,0.4101776123046875,6.838885498046875,1713569395632.0
3.26299999999992,-6.494354248046876,-0.224603271484375,6.429754638671875,1713569395643.0
3.271999999999906,-7.676736450195313,-0.7367645263671876,7.313214111328126,1713569395652.0
3.281999999999897,-7.466339111328126,-0.93968505859375,7.1735473632812505,1713569395662.0
3.291999999999888,-6.429904174804688,-1.0323974609375002,6.139804077148438,1713569395672.0
3.301999999999879,-6.118869018554688,-0.6313415527343751,6.3406311035156255,1713569395682.0
3.31299999999996,-6.789987182617188,0.350811767578125,8.010949707031251,1713569395693.0
3.3229999999999507,-6.767556762695313,1.0255187988281251,8.465240478515625,1713569395703.0
3.3329999999999416,-6.201113891601563,0.9667510986328126,6.923971557617188,1713569395713.0
3.3429999999999325,-6.391622924804688,0.605322265625,6.067727661132813,1713569395723.0
3.3529999999999234,-7.183117675781251,0.381915283203125,6.818997192382813,1713569395733.0
3.3629999999999143,-7.3727294921875,0.0312530517578125,7.186407470703125,1713569395743.0
3.372999999999905,-6.907223510742188,-0.440533447265625,6.545645141601563,1713569395753.0
3.382999999999896,-6.503176879882813,-0.602032470703125,6.226684570312501,1713569395763.0
3.392999999999887,-6.537570190429688,-0.3372039794921875,7.369589233398438,1713569395773.0
3.402999999999878,-6.47012939453125,-0.08553466796875,8.257534790039063,1713569395783.0
3.412999999999869,-6.23984375,-0.0273651123046875,7.857525634765626,1713569395793.0
3.4229999999998597,-6.0484375,0.0743194580078125,6.845315551757813,1713569395803.0
3.4329999999999643,-6.861764526367188,0.2788848876953125,6.727182006835938,1713569395813.0
3.442999999999955,-7.376318359375,0.3360076904296875,6.69742431640625,1713569395823.0
3.4539999999999225,-7.441665649414063,0.3237457275390625,6.115429687500001,1713569395834.0
3.463999999999914,-7.159042358398438,0.335260009765625,6.1740478515625,1713569395844.0
3.4739999999999043,-6.329714965820313,0.414813232421875,6.848156738281251,1713569395854.0
3.483999999999895,-6.361865234375,0.1454986572265625,8.009753417968751,1713569395864.0
3.493999999999886,-6.293228149414063,-0.05443115234375,7.909564208984375,1713569395874.0
3.503999999999877,-6.5873657226562505,-0.0130096435546875,7.087564086914063,1713569395884.0
3.513999999999868,-6.2658630371093755,-0.085235595703125,6.617123413085938,1713569395894.0
3.523999999999859,-6.4303527832031255,-0.3665130615234375,6.830361938476563,1713569395904.0
3.5339999999999634,-7.234109497070313,-0.430364990234375,7.378262329101563,1713569395914.0
3.5439999999999543,-7.757336425781251,0.030206298828125,6.5619445800781255,1713569395924.0
3.553999999999945,-7.314260864257813,0.4332061767578125,6.064288330078125,1713569395934.0
3.563999999999936,-6.267208862304688,0.4376922607421875,6.242385864257813,1713569395944.0
3.573999999999927,-5.911013793945313,0.02930908203125,8.253048706054688,1713569395954.0
3.583999999999918,-6.239395141601563,-0.092413330078125,8.76221923828125,1713569395964.0
3.594999999999885,-6.896157836914063,0.3889434814453125,6.997692871093751,1713569395975.0
3.604999999999876,-7.174295043945313,0.7227081298828125,5.953033447265625,1713569395985.0
3.614999999999867,-6.906326293945313,-0.0165985107421875,5.650820922851563,1713569395995.0
3.6279999999999006,-6.664675903320313,-1.0240234375,7.752700805664063,1713569396008.0
3.6349999999999625,-7.035675048828126,-0.7843170166015626,7.576248168945313,1713569396015.0
3.6449999999999534,-6.8104736328125,0.3847564697265625,6.850100708007813,1713569396025.0
3.654999999999944,-6.288592529296875,0.8486175537109376,5.943014526367188,1713569396035.0
3.664999999999935,-6.23924560546875,0.0686370849609375,7.661483764648438,1713569396045.0
3.674999999999926,-6.650619506835938,-0.2699127197265625,8.597579956054688,1713569396055.0
3.684999999999917,-6.730471801757813,0.3913360595703125,7.50133056640625,1713569396065.0
3.694999999999908,-7.171304321289063,0.6963897705078126,5.311373901367188,1713569396075.0
3.704999999999899,-6.787295532226563,0.301165771484375,5.4049835205078125,1713569396085.0
3.7149999999998897,-7.246820068359376,-0.4486083984375,7.303195190429688,1713569396095.0
3.726999999999947,-6.758883666992188,-0.3724945068359375,8.476754760742189,1713569396107.0
3.7359999999999616,-5.940023803710938,0.0889739990234375,7.335195922851563,1713569396116.0
3.745999999999953,-5.722897338867188,-0.140863037109375,7.020272827148438,1713569396126.0
3.7559999999999434,-6.3002563476562505,-0.60233154296875,7.469180297851563,1713569396136.0
3.7659999999999343,-7.057357788085938,-0.5707794189453126,7.822982788085938,1713569396146.0
3.775999999999925,-7.8973022460937505,0.303558349609375,6.339285278320313,1713569396156.0
3.785999999999916,-7.4771057128906255,0.9782653808593752,4.573712158203126,1713569396166.0
3.795999999999907,-6.539364624023438,0.8194580078125001,5.9428649902343755,1713569396176.0
3.805999999999898,-6.268405151367188,0.35828857421875,8.253198242187501,1713569396186.0
3.815999999999889,-6.571514892578126,0.2624359130859375,9.129031372070314,1713569396196.0
3.8269999999999698,-6.418539428710938,0.645697021484375,6.925616455078125,1713569396207.0
3.83599999999987,-6.381604003906251,0.2842681884765625,5.5829315185546875,1713569396216.0
3.8459999999998615,-6.652862548828126,-0.7170257568359375,6.577645874023438,1713569396226.0
3.855999999999966,-7.027600097656251,-1.242495727539063,7.880404663085938,1713569396236.0
3.865999999999957,-7.294821166992188,-0.5761627197265625,7.591650390625,1713569396246.0
3.875999999999948,-6.501980590820313,0.5520874023437501,5.635568237304688,1713569396256.0
3.885999999999939,-7.082928466796876,0.5127593994140626,6.477606201171875,1713569396266.0
3.896999999999906,-6.691891479492188,0.090020751953125,7.757934570312501,1713569396277.0
3.906999999999897,-6.320294189453126,0.2480804443359375,8.135064697265626,1713569396287.0
3.916999999999888,-6.081484985351563,0.5688354492187501,7.31949462890625,1713569396297.0
3.926999999999879,-6.338687133789063,0.4335052490234375,6.174197387695313,1713569396307.0
3.9369999999998697,-7.450637817382813,-0.1580596923828125,7.120162963867188,1713569396317.0
3.9469999999998606,-7.400393676757813,-0.484197998046875,7.188052368164063,1713569396327.0
3.956999999999965,-6.722845458984375,-0.58857421875,6.521719360351563,1713569396337.0
3.966999999999956,-6.252255249023438,-0.3608306884765625,6.063839721679688,1713569396347.0
3.976999999999947,-6.6202636718750005,0.0261688232421875,7.5503784179687505,1713569396357.0
3.986999999999938,-6.795370483398438,0.241351318359375,8.56064453125,1713569396367.0
3.996999999999929,-6.308480834960938,0.331072998046875,7.322186279296876,1713569396377.0
4.00699999999992,-6.349453735351563,0.341241455078125,6.220104980468751,1713569396387.0
4.016999999999911,-6.971224975585938,0.3721954345703125,6.510952758789063,1713569396397.0
4.0269999999999015,-7.401141357421875,0.1697235107421875,7.166220092773438,1713569396407.0
4.037999999999869,-6.93309326171875,-0.0743194580078125,6.893615722656251,1713569396418.0
4.04799999999986,-6.41031494140625,-0.149237060546875,6.472073364257813,1713569396428.0
4.057999999999964,-6.454876708984376,0.0139068603515625,7.0613952636718755,1713569396438.0
4.067999999999955,-6.533233642578126,0.030804443359375,7.94395751953125,1713569396448.0
4.077999999999946,-6.4856811523437505,-0.15611572265625,7.744326782226563,1713569396458.0
4.087999999999937,-6.346313476562501,-0.11424560546875,6.859222412109376,1713569396468.0
4.097999999999928,-6.75364990234375,0.085235595703125,6.471475219726563,1713569396478.0
4.107999999999919,-7.264166259765625,0.148040771484375,6.748416137695313,1713569396488.0
4.11799999999991,-7.1361633300781255,0.139666748046875,6.668414306640625,1713569396498.0
4.127999999999901,-6.954776000976563,0.1912567138671875,6.553570556640626,1713569396508.0
4.13799999999992,-6.397604370117188,0.4670013427734375,6.946551513671875,1713569396518.0
4.1479999999998824,-6.50302734375,0.362774658203125,7.542153930664063,1713569396528.0
4.157999999999873,-6.30205078125,0.0264678955078125,7.823580932617188,1713569396538.0
4.167999999999864,-6.7458740234375005,-0.0826934814453125,6.911560058593751,1713569396548.0
4.177999999999969,-6.699966430664063,-0.0240753173828125,6.685311889648438,1713569396558.0
4.188999999999936,-6.420333862304688,-0.0825439453125,6.430950927734376,1713569396569.0
4.198999999999927,-6.7847534179687505,-0.259893798828125,7.229623413085938,1713569396579.0
4.208999999999918,-7.343270874023438,0.0240753173828125,7.151416015625,1713569396589.0
4.218999999999909,-7.309027099609375,0.2883056640625,6.786398315429688,1713569396599.0
4.2289999999999,-6.68486328125,0.4074859619140625,6.348406982421875,1713569396609.0
4.238999999999891,-5.946005249023438,-0.0180938720703125,7.179379272460938,1713569396619.0
4.2489999999998815,-6.494802856445313,-0.313726806640625,8.033679199218751,1713569396629.0
4.258999999999872,-6.533831787109375,0.0157012939453125,7.713073730468751,1713569396639.0
4.268999999999863,-7.227230834960938,0.5326477050781251,6.310275268554688,1713569396649.0
4.278999999999968,-6.771444702148438,0.3318206787109375,6.292929077148438,1713569396659.0
4.288999999999959,-6.562094116210938,-0.533843994140625,6.821240234375001,1713569396669.0
4.29899999999995,-6.726135253906251,-0.7046142578125001,7.9541259765625005,1713569396679.0
4.308999999999941,-7.217062377929688,0.11544189453125,6.920980834960938,1713569396689.0
4.31899999999996,-6.489718627929688,0.7989715576171875,6.3137145996093755,1713569396699.0
4.329999999999899,-6.465792846679688,0.2465850830078125,6.533831787109375,1713569396710.0
4.33999999999989,-6.455026245117188,-0.2684173583984375,8.173345947265625,1713569396720.0
4.349999999999852,-6.7832580566406255,0.1724151611328125,8.006912231445312,1713569396730.0
4.3599999999998715,-6.95103759765625,0.6135467529296875,6.3271728515625005,1713569396740.0
4.369999999999862,-6.650469970703125,0.3958221435546875,5.621063232421875,1713569396750.0
4.379999999999967,-6.958514404296875,-0.224005126953125,6.570468139648438,1713569396760.0
4.389999999999958,-7.115975952148438,-0.4472625732421875,8.286245727539063,1713569396770.0
4.399999999999949,-6.220104980468751,-0.103778076171875,7.555911254882813,1713569396780.0
4.40999999999994,-5.876919555664063,-0.1634429931640625,6.857427978515625,1713569396790.0
4.419999999999931,-6.161636352539063,-0.5277130126953126,7.350448608398438,1713569396800.0
4.429999999999922,-6.664376831054688,-0.5722747802734376,7.910910034179688,1713569396810.0
4.4399999999999125,-7.558901977539063,0.0871795654296875,6.9402709960937505,1713569396820.0
4.449999999999903,-7.7196533203125,0.9126190185546876,5.023965454101563,1713569396830.0
4.460999999999871,-7.0240112304687505,1.146942138671875,5.343823242187501,1713569396841.0
4.4709999999998615,-6.420184326171875,0.7026702880859376,7.17294921875,1713569396851.0
4.480999999999966,-6.4811950683593755,0.3050537109375,8.896203613281251,1713569396861.0
4.490999999999957,-6.396856689453125,0.3862518310546875,7.972668457031251,1713569396871.0
4.500999999999948,-6.293826293945313,0.2334259033203125,6.060549926757813,1713569396881.0
4.510999999999939,-6.515139770507813,-0.5752655029296876,6.319247436523438,1713569396891.0
4.52099999999993,-6.841876220703125,-1.218121337890625,7.290933227539063,1713569396901.0
4.530999999999892,-7.510751342773438,-0.9350494384765624,7.583575439453125,1713569396911.0
4.540999999999912,-6.538616943359376,0.2417999267578125,6.450839233398438,1713569396921.0
4.5509999999999025,-6.974813842773438,0.7303344726562501,6.206646728515626,1713569396931.0
4.560999999999893,-6.891970825195313,0.3712982177734375,7.341625976562501,1713569396941.0
4.570999999999884,-6.207693481445313,0.2978759765625,7.79202880859375,1713569396951.0
4.580999999999875,-6.198422241210938,0.569732666015625,7.709036254882813,1713569396961.0
4.590999999999866,-6.331060791015625,0.5881256103515625,6.597534179687501,1713569396971.0
4.600999999999971,-7.150219726562501,-0.0480010986328125,6.868045043945313,1713569396981.0
4.610999999999962,-7.286297607421876,-0.6412109375,7.232913208007813,1713569396991.0
4.6209999999999525,-6.983786010742188,-0.8254394531250001,6.485531616210938,1713569397001.0
4.63199999999992,-6.432595825195313,-0.5401245117187501,6.334051513671875,1713569397012.0
4.641999999999911,-6.4976440429687505,-0.0566741943359375,7.0464416503906255,1713569397022.0
4.6519999999999015,-6.770098876953125,0.287109375,8.330657958984375,1713569397032.0
4.6619999999998925,-6.347061157226563,0.4687957763671875,7.672698974609376,1713569397042.0
4.671999999999883,-6.317752075195313,0.5176940917968751,6.6307312011718755,1713569397052.0
4.681999999999874,-6.842922973632813,0.5408721923828126,6.403286743164063,1713569397062.0
4.691999999999865,-7.2961669921875005,0.2896514892578125,6.813912963867188,1713569397072.0
4.70199999999997,-7.1256958007812505,-0.0985443115234375,6.905429077148438,1713569397082.0
4.711999999999932,-6.611889648437501,-0.2591461181640625,6.621609497070313,1713569397092.0
4.721999999999952,-6.445007324218751,-0.1973876953125,6.963299560546876,1713569397102.0
4.7319999999999425,-6.410763549804688,-0.1751068115234375,7.761972045898438,1713569397112.0
4.741999999999933,-6.40672607421875,-0.2166778564453125,7.816403198242188,1713569397122.0
4.751999999999924,-6.446054077148438,-0.0605621337890625,7.1693603515625,1713569397132.0
4.76299999999992,-6.7309204101562505,0.2023223876953125,6.5739074707031255,1713569397143.0
4.7729999999998824,-7.06767578125,0.37264404296875,6.5170837402343755,1713569397153.0
4.782999999999873,-7.108499145507813,0.266473388671875,6.792529296875,1713569397163.0
4.792999999999864,-6.916943359375001,0.1715179443359375,6.638507080078125,1713569397173.0
4.802999999999969,-6.750958251953126,0.3696533203125,6.8894287109375005,1713569397183.0
4.81299999999996,-6.540859985351563,0.361578369140625,7.107302856445313,1713569397193.0
4.822999999999951,-6.408221435546875,0.0497955322265625,7.5997253417968755,1713569397203.0
4.832999999999942,-6.461605834960938,-0.228192138671875,7.305139160156251,1713569397213.0
4.8429999999999325,-6.434539794921876,-0.1700225830078125,6.980346679687501,1713569397223.0
4.852999999999923,-6.7865478515625,0.1051239013671875,6.440521240234376,1713569397233.0
4.862999999999914,-7.173397827148438,0.2284912109375,6.872830200195313,1713569397243.0
4.872999999999905,-7.052871704101563,0.1520782470703125,6.785949707031251,1713569397253.0
4.882999999999896,-7.24771728515625,0.062506103515625,7.095639038085938,1713569397263.0
4.892999999999887,-6.6202636718750005,0.1128997802734375,7.014141845703126,1713569397273.0
4.902999999999878,-5.805889892578126,-0.084039306640625,6.911410522460938,1713569397283.0
4.912999999999869,-6.376220703125001,-0.34931640625,7.924816894531251,1713569397293.0
4.92399999999995,-6.778921508789063,-0.1045257568359375,7.398150634765625,1713569397304.0
4.933999999999941,-7.1693603515625,0.29727783203125,7.1914916992187505,1713569397314.0
4.94399999999996,-6.746023559570313,0.1519287109375,5.981295776367188,1713569397324.0
4.9539999999999225,-6.69981689453125,-0.3409423828125,6.451885986328126,1713569397334.0
4.963999999999913,-6.990365600585938,-0.209649658203125,7.270895385742188,1713569397344.0
4.973999999999904,-7.024908447265625,0.557470703125,7.421627807617188,1713569397354.0
4.983999999999895,-6.359771728515626,0.6658843994140625,6.918588256835938,1713569397364.0
4.993999999999886,-6.105410766601563,0.0037384033203125,6.91514892578125,1713569397374.0
5.003999999999877,-6.640899658203126,-0.2968292236328125,7.8033935546875,1713569397384.0
5.013999999999868,-7.096087646484375,0.052935791015625,7.317550659179688,1713569397394.0
5.023999999999859,-7.01444091796875,0.25301513671875,6.225039672851563,1713569397404.0
5.033999999999963,-6.658993530273438,-0.043963623046875,5.836544799804688,1713569397414.0
5.043999999999954,-6.877017211914063,-0.26796875,7.1197143554687505,1713569397424.0
5.053999999999945,-6.727481079101563,-0.0073272705078125,8.116372680664064,1713569397434.0
5.063999999999936,-6.1644775390625,0.1949951171875,7.694680786132813,1713569397444.0
5.074999999999903,-5.786151123046875,-0.03648681640625,7.0138427734375,1713569397455.0
5.084999999999894,-6.507214355468751,-0.31103515625,7.263867187500001,1713569397465.0
5.094999999999885,-7.022366333007813,-0.297576904296875,7.535574340820313,1713569397475.0
5.104999999999876,-7.614230346679688,0.1006378173828125,5.987576293945313,1713569397485.0
5.114999999999867,-7.579238891601563,0.6679779052734376,5.1219116210937505,1713569397495.0
5.125,-7.100872802734376,0.8703002929687501,5.839834594726563,1713569397505.0
5.1349999999999625,-6.206646728515626,0.605621337890625,7.99539794921875,1713569397515.0
5.144999999999953,-6.03228759765625,0.2056121826171875,8.745919799804689,1713569397525.0
5.154999999999944,-6.142346191406251,0.1640411376953125,7.724887084960938,1713569397535.0
5.164999999999935,-6.568972778320313,0.119329833984375,6.50003662109375,1713569397545.0
5.174999999999926,-6.791781616210938,-0.4308135986328125,6.441717529296875,1713569397555.0
5.184999999999917,-6.942962646484376,-1.03299560546875,6.705947875976563,1713569397565.0
5.194999999999908,-7.552471923828126,-0.68128662109375,6.6127868652343755,1713569397575.0
5.204999999999899,-6.804043579101563,0.570928955078125,6.620114135742188,1713569397585.0
5.21499999999989,-6.804791259765626,1.1213714599609377,6.886737060546875,1713569397595.0
5.227999999999923,-6.670657348632813,0.40614013671875,7.858572387695313,1713569397608.0
5.235999999999962,-5.8042449951171875,-0.1039276123046875,7.729522705078126,1713569397616.0
5.2459999999999525,-6.053073120117188,0.11903076171875,7.55875244140625,1713569397626.0
5.255999999999943,-6.805389404296876,0.1843780517578125,6.660040283203125,1713569397636.0
5.265999999999934,-7.346261596679688,-0.3093902587890625,6.503775024414063,1713569397646.0
5.275999999999925,-7.417739868164063,-0.7941864013671875,6.824679565429688,1713569397656.0
5.285999999999916,-6.757537841796876,-0.46595458984375,6.479400634765626,1713569397666.0
5.295999999999907,-6.308331298828126,-0.0539825439453125,6.991711425781251,1713569397676.0
5.305999999999898,-6.303994750976563,0.2791839599609375,7.401440429687501,1713569397686.0
5.315999999999889,-6.6486755371093755,0.520086669921875,8.215365600585939,1713569397696.0
5.327999999999946,-6.625946044921876,0.6477905273437501,7.224090576171876,1713569397708.0
5.335999999999871,-6.589459228515626,0.440533447265625,6.310275268554688,1713569397716.0
5.3459999999998615,-7.023861694335938,0.07177734375,6.313864135742188,1713569397726.0
5.355999999999966,-7.243679809570313,-0.1984344482421875,6.901242065429688,1713569397736.0
5.365999999999957,-6.824829101562501,-0.372943115234375,7.218258666992188,1713569397746.0
5.376999999999924,-6.367996215820313,-0.32718505859375,6.888232421875,1713569397757.0
5.386999999999915,-6.233114624023438,-0.246435546875,7.390374755859376,1713569397767.0
5.396999999999906,-6.555065917968751,-0.101983642578125,7.688848876953125,1713569397777.0
5.406999999999897,-6.5679260253906255,0.08194580078125,7.580136108398438,1713569397787.0
5.416999999999888,-6.619216918945313,0.23865966796875,6.620114135742188,1713569397797.0
5.427999999999969,-6.895260620117188,0.35111083984375,6.450988769531251,1713569397808.0
5.43699999999987,-7.079040527343751,0.402252197265625,6.641796875000001,1713569397817.0
5.446999999999861,-7.052871704101563,0.356793212890625,6.912307739257813,1713569397827.0
5.456999999999965,-6.812268066406251,0.204864501953125,6.705200195312501,1713569397837.0
5.466999999999956,-6.574954223632813,0.201873779296875,6.648077392578125,1713569397847.0
5.476999999999947,-6.6561523437500005,0.1164886474609375,7.356430053710938,1713569397857.0
5.486999999999938,-6.596038818359376,-0.098095703125,7.625744628906251,1713569397867.0
5.496999999999929,-6.420782470703125,-0.2842681884765625,7.310372924804688,1713569397877.0
5.507999999999896,-6.5484863281250005,-0.3019134521484375,6.73929443359375,1713569397888.0
5.517999999999887,-6.716714477539063,-0.057720947265625,6.759033203125001,1713569397898.0
5.527999999999878,-6.666171264648438,0.141162109375,6.831857299804688,1713569397908.0
5.537999999999869,-6.964495849609375,0.2842681884765625,6.8789611816406255,1713569397918.0
5.54799999999986,-6.929953002929688,0.6232666015625,6.870587158203126,1713569397928.0
5.557999999999964,-7.209136962890626,0.6119018554687501,6.928457641601563,1713569397938.0
5.567999999999955,-6.835147094726563,0.244342041015625,7.0712646484375,1713569397948.0
5.577999999999946,-6.147280883789063,-0.324493408203125,6.994851684570313,1713569397958.0
5.587999999999937,-6.316555786132813,-0.5583679199218751,7.435983276367188,1713569397968.0
5.597999999999928,-6.625198364257813,-0.433355712890625,7.542901611328125,1713569397978.0
5.607999999999919,-7.125546264648438,-0.040972900390625,6.871185302734376,1713569397988.0
5.61799999999991,-6.835296630859376,-0.011663818359375,6.753948974609376,1713569397998.0
5.627999999999901,-6.562991333007813,-0.170172119140625,6.563140869140626,1713569398008.0
5.63799999999992,-6.692639160156251,-0.0112152099609375,7.420132446289063,1713569398018.0
5.648999999999859,-6.966439819335938,0.496160888671875,6.9163452148437505,1713569398029.0
5.658999999999963,-6.691143798828126,0.8454772949218751,7.087265014648438,1713569398039.0
5.668999999999954,-6.522317504882813,0.3820648193359375,6.755145263671875,1713569398049.0
5.678999999999945,-6.489569091796875,-0.0979461669921875,7.2770263671875,1713569398059.0
5.688999999999936,-6.920980834960938,-0.1206756591796875,7.440917968750001,1713569398069.0
5.698999999999927,-6.8879333496093755,0.0333465576171875,6.704751586914063,1713569398079.0
5.708999999999918,-6.657348632812501,-0.10108642578125,6.375622558593751,1713569398089.0
5.718999999999909,-6.776528930664063,-0.335260009765625,6.712078857421876,1713569398099.0
5.7289999999999,-6.7578369140625005,-0.20875244140625,7.830758666992188,1713569398109.0
5.738999999999891,-6.45517578125,-0.0276641845703125,7.429702758789063,1713569398119.0
5.7489999999998815,-5.99998779296875,-0.00299072265625,7.302896118164063,1713569398129.0
5.758999999999872,-6.232366943359375,-0.1619476318359375,7.271493530273438,1713569398139.0
5.768999999999863,-6.801800537109376,-0.2265472412109375,7.69034423828125,1713569398149.0
5.778999999999968,-7.126892089843751,0.1457977294921875,6.372332763671875,1713569398159.0
5.788999999999959,-7.8374877929687505,0.618780517578125,5.443115234375,1713569398169.0
5.799999999999926,-7.458264160156251,0.9845458984375,5.5077148437500005,1713569398180.0
5.809999999999917,-6.586618041992188,0.8315704345703125,6.822286987304688,1713569398190.0
5.819999999999908,-6.135317993164063,0.2878570556640625,8.396304321289064,1713569398200.0
5.829999999999899,-6.06339111328125,0.09151611328125,8.109643554687501,1713569398210.0
5.83999999999989,-6.279171752929688,0.0740203857421875,7.249661254882813,1713569398220.0
5.849999999999852,-6.348406982421875,-0.329278564453125,6.383697509765626,1713569398230.0
5.8599999999998715,-7.270297241210938,-0.9078338623046877,6.6456848144531255,1713569398240.0
5.869999999999862,-7.582977294921876,-0.7894012451171876,6.995150756835938,1713569398250.0
5.879999999999967,-7.077993774414063,0.1777984619140625,6.382202148437501,1713569398260.0
5.889999999999958,-6.863259887695313,0.557470703125,6.719406127929688,1713569398270.0
5.899999999999949,-6.091204833984375,0.167181396484375,7.374224853515625,1713569398280.0
5.90999999999994,-5.72244873046875,0.07955322265625,8.332302856445313,1713569398290.0
5.919999999999931,-6.577197265625,0.4822540283203125,8.074502563476564,1713569398300.0
5.929999999999922,-6.74766845703125,0.6533233642578126,6.366201782226563,1713569398310.0
5.9399999999999125,-7.372280883789063,-0.033197021484375,6.140701293945313,1713569398320.0
5.95099999999988,-7.320391845703125,-0.6851745605468751,6.303546142578125,1713569398331.0
5.960999999999871,-6.925167846679688,-0.6476409912109375,6.842474365234375,1713569398341.0
5.9709999999998615,-6.398052978515626,-0.1460968017578125,7.278521728515625,1713569398351.0
5.980999999999966,-6.182421875,0.17406005859375,7.713223266601563,1713569398361.0
5.990999999999957,-6.341378784179688,0.0662445068359375,7.866348266601563,1713569398371.0
6.000999999999948,-6.512896728515625,0.14176025390625,7.393963623046876,1713569398381.0
6.010999999999939,-6.9955993652343755,0.394775390625,6.550131225585938,1713569398391.0
6.02099999999993,-7.160986328125,0.4218414306640625,6.0001373291015625,1713569398401.0
6.030999999999892,-7.069021606445313,0.0677398681640625,6.433642578125,1713569398411.0
6.040999999999912,-6.768753051757813,-0.151031494140625,7.235455322265626,1713569398421.0
6.0509999999999025,-6.3720336914062505,-0.0183929443359375,7.6116882324218755,1713569398431.0
6.060999999999893,-6.265264892578125,0.03529052734375,7.484732055664063,1713569398441.0
6.070999999999884,-6.274237060546875,-0.0919647216796875,7.336242675781251,1713569398451.0
6.081999999999965,-6.604412841796876,-0.257501220703125,7.219305419921875,1713569398462.0
6.091999999999956,-6.903485107421876,-0.0657958984375,6.976757812500001,1713569398472.0
6.101999999999947,-7.126742553710938,0.1523773193359375,6.4348388671875005,1713569398482.0
6.111999999999938,-7.055264282226563,0.229388427734375,6.198123168945313,1713569398492.0
6.121999999999929,-6.839184570312501,0.3265869140625,6.441867065429688,1713569398502.0
6.13199999999992,-6.974514770507813,0.4628143310546875,7.277325439453126,1713569398512.0
6.141999999999911,-6.419137573242188,0.5866302490234375,7.540509033203126,1713569398522.0
6.1519999999999015,-6.241488647460938,0.223406982421875,7.374523925781251,1713569398532.0
6.1619999999998925,-6.258685302734375,-0.247332763671875,7.214370727539063,1713569398542.0
6.171999999999883,-6.964794921875001,-0.3512603759765625,7.0240112304687505,1713569398552.0
6.181999999999874,-7.254296875,-0.1891632080078125,6.76322021484375,1713569398562.0
6.191999999999865,-6.648376464843751,-0.1592559814453125,6.152066040039063,1713569398572.0
6.20199999999997,-6.127841186523438,-0.1688262939453125,6.634170532226563,1713569398582.0
6.211999999999932,-6.983935546875,0.27095947265625,7.7627197265625005,1713569398592.0
6.221999999999952,-6.93070068359375,0.7750457763671875,7.83330078125,1713569398602.0
6.2319999999999425,-7.234558105468751,0.6077148437500001,6.705947875976563,1713569398612.0
6.244999999999862,-6.501382446289063,0.03170166015625,6.11602783203125,1713569398625.0
6.252999999999901,-6.251058959960938,-0.4308135986328125,6.702209472656251,1713569398633.0
6.26299999999992,-6.944158935546875,-0.480609130859375,8.150167846679688,1713569398643.0
6.2729999999998824,-6.682620239257813,-0.1293487548828125,7.105209350585938,1713569398653.0
6.282999999999873,-6.7054992675781255,0.172265625,6.778921508789063,1713569398663.0
6.292999999999864,-6.46414794921875,-0.029608154296875,6.763369750976563,1713569398673.0
6.302999999999969,-6.63760986328125,-0.317913818359375,7.508358764648438,1713569398683.0
6.31299999999996,-6.935186767578125,-0.110357666015625,7.329364013671875,1713569398693.0
6.322999999999951,-7.0000854492187505,0.5994903564453126,6.184365844726563,1713569398703.0
6.332999999999942,-6.753948974609376,0.7274932861328125,6.468334960937501,1713569398713.0
6.344999999999885,-6.628936767578126,0.141461181640625,7.04375,1713569398725.0
6.352999999999923,-6.513494873046875,-0.1435546875,8.058502197265625,1713569398733.0
6.362999999999914,-6.625198364257813,0.1066192626953125,7.278073120117188,1713569398743.0
6.372999999999905,-6.64658203125,0.302960205078125,6.405828857421875,1713569398753.0
6.382999999999896,-6.740341186523438,-0.0638519287109375,6.434689331054688,1713569398763.0
6.393999999999863,-7.0853210449218755,-0.4320098876953125,7.261026000976563,1713569398774.0
6.403999999999968,-6.8370910644531255,-0.2827728271484375,7.406674194335938,1713569398784.0
6.413999999999959,-6.285452270507813,-0.0095703125,6.904681396484375,1713569398794.0
6.42399999999995,-5.926715087890625,-0.0946563720703125,7.359420776367188,1713569398804.0
6.433999999999941,-6.424221801757813,-0.3147735595703125,7.898947143554688,1713569398814.0
6.444999999999908,-6.648526000976563,-0.2211639404296875,7.769299316406251,1713569398825.0
6.4539999999999225,-7.316952514648438,0.322100830078125,5.821591186523438,1713569398834.0
6.463999999999913,-7.833151245117188,0.9343017578125,5.224343872070313,1713569398844.0
6.473999999999904,-7.357028198242188,1.045257568359375,5.771646118164063,1713569398854.0
6.483999999999895,-6.358126831054688,0.5363861083984376,7.658193969726563,1713569398864.0
6.493999999999886,-6.108102416992188,0.12740478515625,8.268002319335938,1713569398874.0
6.503999999999877,-6.266311645507813,0.1927520751953125,7.63651123046875,1713569398884.0
6.513999999999868,-6.490017700195313,0.1580596923828125,6.760379028320313,1713569398894.0
6.523999999999859,-6.339285278320313,-0.4631134033203125,6.5514770507812505,1713569398904.0
6.533999999999963,-7.188949584960938,-1.111053466796875,7.026702880859376,1713569398914.0
6.544999999999931,-7.2889892578125,-0.59814453125,7.071115112304688,1713569398925.0
6.554999999999922,-7.053469848632813,0.5552276611328125,6.497943115234375,1713569398935.0
6.5649999999999125,-7.0494323730468755,0.5730224609375001,6.630432128906251,1713569398945.0
6.574999999999903,-6.211880493164063,0.01016845703125,7.1573974609375,1713569398955.0
6.584999999999894,-5.938229370117188,0.0850860595703125,8.079885864257813,1713569398965.0
6.594999999999885,-6.3989501953125005,0.547003173828125,8.0952880859375,1713569398975.0
6.604999999999876,-6.668563842773438,0.523077392578125,6.546542358398438,1713569398985.0
6.614999999999867,-7.268801879882813,-0.230584716796875,6.449493408203126,1713569398995.0
6.625,-7.323382568359375,-0.6936981201171876,6.466390991210938,1713569399005.0
6.6349999999999625,-6.97257080078125,-0.5480499267578125,6.660339355468751,1713569399015.0
6.64599999999993,-6.404782104492188,-0.09630126953125,6.782958984375001,1713569399026.0
6.654999999999944,-6.376370239257813,0.1158905029296875,7.78604736328125,1713569399035.0
6.664999999999935,-6.367098999023438,0.2226593017578125,8.009005737304689,1713569399045.0
6.674999999999926,-6.405380249023438,0.29488525390625,7.432095336914063,1713569399055.0
6.685999999999893,-6.8894287109375005,0.379522705078125,6.472671508789063,1713569399066.0
6.695999999999884,-7.027151489257813,0.299371337890625,6.198272705078126,1713569399076.0
6.705999999999875,-7.211380004882813,-0.0483001708984375,6.53233642578125,1713569399086.0
6.715999999999866,-6.869689941406251,-0.169573974609375,7.1669677734375,1713569399096.0
6.725999999999971,-6.405978393554688,-0.0623565673828125,7.249661254882813,1713569399106.0
6.735999999999962,-6.14952392578125,-0.0354400634765625,7.412655639648438,1713569399116.0
6.7459999999999525,-6.36246337890625,-0.1057220458984375,7.664624023437501,1713569399126.0
6.755999999999943,-6.530392456054688,-0.1320404052734375,7.448394775390626,1713569399136.0
6.765999999999934,-6.779818725585938,0.027215576171875,6.820343017578126,1713569399146.0
6.775999999999925,-7.154556274414063,0.2059112548828125,6.232067871093751,1713569399156.0
6.785999999999916,-7.049282836914063,0.2860626220703125,6.301303100585938,1713569399166.0
6.795999999999907,-7.005767822265626,0.273651123046875,6.554019165039063,1713569399176.0
6.805999999999898,-6.956121826171875,0.4257293701171875,7.183566284179688,1713569399186.0
6.815999999999889,-6.432894897460938,0.5627044677734375,7.161135864257813,1713569399196.0
6.82699999999997,-6.257339477539063,0.2095001220703125,7.53482666015625,1713569399207.0
6.836999999999932,-6.260031127929688,-0.2092010498046875,7.441067504882813,1713569399217.0
6.846999999999952,-6.767257690429688,-0.4221405029296875,7.290185546875,1713569399227.0
6.8569999999999425,-7.165472412109375,-0.2465850830078125,6.576300048828125,1713569399237.0
6.866999999999933,-6.782211303710938,-0.14056396484375,6.217562866210938,1713569399247.0
6.876999999999924,-6.292181396484375,-0.1864715576171875,6.705050659179688,1713569399257.0
6.886999999999915,-6.645236206054688,0.0859832763671875,7.486526489257813,1713569399267.0
6.896999999999906,-7.087863159179688,0.7765411376953125,7.724139404296875,1713569399277.0
6.906999999999897,-7.199716186523438,0.8842071533203125,6.716864013671875,1713569399287.0
6.916999999999888,-6.838137817382813,0.3724945068359375,6.291732788085938,1713569399297.0
6.926999999999879,-6.222348022460938,-0.333465576171875,6.715219116210938,1713569399307.0
6.93699999999987,-6.712078857421876,-0.5935089111328126,7.796215820312501,1713569399317.0
6.946999999999861,-6.538766479492188,-0.3201568603515625,7.586117553710938,1713569399327.0
6.956999999999965,-6.888232421875,0.074169921875,6.593048095703126,1713569399337.0
6.9679999999999325,-6.545346069335938,-0.0610107421875,6.962103271484375,1713569399348.0
6.977999999999923,-6.567776489257813,-0.4523468017578125,7.178482055664063,1713569399358.0
6.987999999999914,-6.722695922851563,-0.273651123046875,7.581332397460938,1713569399368.0
6.997999999999905,-7.173846435546875,0.45877685546875,6.317453002929688,1713569399378.0
7.007999999999896,-6.791781616210938,0.9740783691406252,6.384594726562501,1713569399388.0
7.017999999999887,-6.733761596679688,0.497357177734375,6.700265502929688,1713569399398.0
7.027999999999878,-6.473419189453126,0.03529052734375,7.817150878906251,1713569399408.0
7.037999999999869,-6.61368408203125,0.1269561767578125,7.691390991210938,1713569399418.0
7.04799999999986,-6.67947998046875,0.3158203125,6.5353271484375,1713569399428.0
7.057999999999964,-6.62265625,-0.0207855224609375,6.479251098632813,1713569399438.0
7.067999999999955,-7.036871337890625,-0.5656951904296875,6.758883666992188,1713569399448.0
7.077999999999946,-6.900643920898438,-0.5519378662109375,7.755841064453126,1713569399458.0
7.087999999999937,-6.514840698242188,-0.2619873046875,6.999636840820313,1713569399468.0
7.097999999999928,-5.880807495117188,-0.114544677734375,7.192687988281251,1713569399478.0
7.107999999999919,-6.226086425781251,-0.2295379638671875,7.721896362304688,1713569399488.0
7.118999999999886,-6.663180541992188,-0.162994384765625,8.071511840820314,1713569399499.0
7.128999999999877,-7.083676147460938,0.3976165771484375,6.387286376953125,1713569399509.0
7.138999999999868,-7.789785766601563,0.9631622314453124,5.151370239257813,1713569399519.0
7.148999999999859,-7.4307495117187505,1.1602508544921877,5.5663330078125,1713569399529.0
7.158999999999963,-6.795370483398438,0.7092498779296875,6.900942993164063,1713569399539.0
7.168999999999954,-6.238796997070313,0.1326385498046875,8.362658691406251,1713569399549.0
7.178999999999945,-6.172253417968751,0.083740234375,7.674642944335938,1713569399559.0
7.188999999999936,-6.297415161132813,-0.0898712158203125,7.331307983398438,1713569399569.0
7.198999999999927,-6.399249267578125,-0.6727630615234376,6.7683044433593755,1713569399579.0
7.208999999999918,-6.435137939453125,-1.2317291259765626,7.224090576171876,1713569399589.0
7.218999999999909,-7.37392578125,-0.8898895263671875,6.810025024414063,1713569399599.0
7.2289999999999,-7.002926635742188,0.3321197509765625,6.686956787109375,1713569399609.0
7.238999999999891,-7.409963989257813,1.047052001953125,6.084475708007813,1713569399619.0
7.2489999999998815,-7.105657958984375,0.7224090576171875,7.021768188476563,1713569399629.0
7.258999999999872,-5.661138916015625,0.441131591796875,7.448394775390626,1713569399639.0
7.269999999999953,-6.1327758789062505,0.5659942626953125,7.914498901367188,1713569399650.0
7.279999999999944,-6.360668945312501,0.3766815185546875,7.8033935546875,1713569399660.0
7.289999999999935,-6.9994873046875,-0.2462860107421875,6.524111938476563,1713569399670.0
7.299999999999926,-7.222445678710938,-0.92772216796875,6.896606445312501,1713569399680.0
7.309999999999917,-7.116873168945313,-1.02701416015625,5.807833862304688,1713569399690.0
7.319999999999908,-6.89122314453125,-0.6600524902343751,6.949392700195313,1713569399700.0
7.329999999999899,-6.527401733398438,0.0614593505859375,6.876568603515626,1713569399710.0
7.33999999999989,-6.392520141601563,0.5827423095703126,8.195327758789062,1713569399720.0
7.349999999999852,-6.1740478515625,0.7991210937500001,7.6565490722656255,1713569399730.0
7.359999999999872,-6.303546142578125,0.7382598876953126,7.1929870605468755,1713569399740.0
7.369999999999862,-7.1310791015625,0.552685546875,6.694732666015626,1713569399750.0
7.379999999999967,-7.121957397460938,0.14893798828125,6.166870117187501,1713569399760.0
7.389999999999958,-7.175341796875,-0.3970184326171875,6.475961303710938,1713569399770.0
7.399999999999949,-6.871035766601563,-0.5902191162109376,6.716864013671875,1713569399780.0
7.410999999999916,-6.461605834960938,-0.41331787109375,7.503573608398438,1713569399791.0
7.419999999999931,-6.24283447265625,-0.2201171875,7.643389892578125,1713569399800.0
7.430999999999898,-6.1182708740234375,-0.0324493408203125,7.709634399414063,1713569399811.0
7.440999999999889,-6.461456298828126,0.2056121826171875,7.313961791992188,1713569399821.0
7.45099999999988,-6.888531494140626,0.440234375,6.905728149414063,1713569399831.0
7.460999999999871,-7.0838256835937505,0.496160888671875,6.356781005859376,1713569399841.0
7.470999999999861,-7.152163696289063,0.3874481201171875,6.191693115234376,1713569399851.0
7.480999999999966,-7.106704711914063,0.165087890625,6.530841064453125,1713569399861.0
7.490999999999957,-6.865353393554688,0.2008270263671875,6.9133544921875005,1713569399871.0
7.500999999999948,-6.509457397460938,0.134881591796875,7.48697509765625,1713569399881.0
7.510999999999939,-6.0894104003906255,-0.1577606201171875,7.473666381835938,1713569399891.0
7.52099999999993,-6.2601806640625,-0.3288299560546875,7.655203247070313,1713569399901.0
7.530999999999892,-6.731069946289063,-0.284716796875,7.196725463867188,1713569399911.0
7.540999999999912,-7.098928833007813,-0.087628173828125,6.632525634765625,1713569399921.0
7.5509999999999025,-6.537121582031251,-0.0423187255859375,6.338238525390626,1713569399931.0
7.56199999999987,-6.141299438476563,0.044561767578125,6.779220581054688,1713569399942.0
7.571999999999861,-7.351644897460938,0.369354248046875,7.625146484375,1713569399952.0
7.581999999999965,-7.5114990234375005,0.74468994140625,7.037619018554688,1713569399962.0
7.591999999999956,-7.117471313476563,0.5719757080078125,6.239096069335938,1713569399972.0
7.601999999999947,-6.041409301757813,0.0886749267578125,6.1979736328125,1713569399982.0
7.611999999999938,-6.303396606445313,-0.4406829833984375,7.921676635742188,1713569399992.0
7.621999999999929,-6.365753173828126,-0.6183319091796875,8.609542846679688,1713569400002.0
7.63199999999992,-7.241436767578126,-0.0776092529296875,6.605609130859375,1713569400012.0
7.641999999999911,-6.797463989257813,0.3736907958984375,6.2509094238281255,1713569400022.0
7.651999999999901,-6.542205810546876,-0.0399261474609375,6.0180816650390625,1713569400032.0
7.6619999999998925,-6.624600219726563,-0.6563140869140626,8.320339965820313,1713569400042.0
7.671999999999883,-7.003674316406251,-0.1036285400390625,7.390075683593751,1713569400052.0
7.681999999999874,-6.976309204101563,0.9915740966796877,6.595291137695313,1713569400062.0
7.691999999999865,-6.46654052734375,0.9834991455078126,5.6038665771484375,1713569400072.0
7.70199999999997,-6.421231079101563,-0.0432159423828125,7.4322448730468755,1713569400082.0
7.712999999999937,-6.8774658203125005,-0.377130126953125,8.502923583984376,1713569400093.0
7.722999999999928,-6.6711059570312505,0.24224853515625,7.303344726562501,1713569400103.0
7.732999999999919,-6.943859863281251,0.38699951171875,5.55496826171875,1713569400113.0
7.74299999999991,-6.442016601562501,-0.04844970703125,5.872134399414063,1713569400123.0
7.752999999999901,-7.144387817382813,-0.6587066650390625,7.94395751953125,1713569400133.0
7.76299999999992,-6.794024658203125,-0.346624755859375,8.297012329101562,1713569400143.0
7.772999999999882,-5.969033813476563,0.162396240234375,6.902587890625001,1713569400153.0
7.782999999999873,-5.8864898681640625,0.0192901611328125,6.6705078125,1713569400163.0
7.792999999999864,-6.599478149414063,-0.3880462646484375,7.695877075195313,1713569400173.0
7.802999999999969,-7.093695068359375,-0.27813720703125,7.754644775390625,1713569400183.0
7.81299999999996,-7.725784301757813,0.5504425048828125,6.075204467773438,1713569400193.0
7.822999999999951,-7.35777587890625,1.08563232421875,4.607208251953125,1713569400203.0
7.832999999999942,-6.585720825195313,0.8572906494140625,6.093597412109375,1713569400213.0
7.845999999999861,-6.413006591796876,0.116339111328125,8.631823730468751,1713569400226.0
7.8539999999999,-6.462951660156251,0.0336456298828125,8.79571533203125,1713569400234.0
7.863999999999891,-6.281564331054688,0.3707000732421875,6.8744750976562505,1713569400244.0
7.8739999999998815,-6.260330200195313,-0.02572021484375,5.7429351806640625,1713569400254.0
7.883999999999872,-6.483737182617188,-0.7828216552734376,6.704901123046875,1713569400264.0
7.893999999999863,-7.846011352539063,-1.023126220703125,8.027249145507813,1713569400274.0
7.903999999999968,-6.965393066406251,-0.0506927490234375,7.145584106445313,1713569400284.0
7.913999999999959,-7.003225708007813,0.63822021484375,5.461508178710938,1713569400294.0
7.92399999999995,-6.588113403320313,0.2830718994140625,6.598580932617188,1713569400304.0
7.933999999999941,-6.15909423828125,0.000897216796875,8.03427734375,1713569400314.0
7.945999999999884,-6.564486694335938,0.2929412841796875,8.655749511718751,1713569400326.0
7.953999999999923,-6.117074584960938,0.7840179443359375,6.944158935546875,1713569400334.0
7.963999999999913,-6.770996093750001,0.3237457275390625,6.023464965820313,1713569400344.0
7.973999999999904,-7.383645629882813,-0.44501953125,7.012646484375001,1713569400354.0
7.983999999999895,-7.396206665039063,-0.8194580078125001,6.815707397460938,1713569400364.0
7.993999999999886,-6.680825805664063,-0.4837493896484375,6.771145629882813,1713569400374.0
8.004999999999967,-6.279769897460938,0.0931610107421875,6.225039672851563,1713569400385.0
8.014999999999958,-6.486877441406251,0.1724151611328125,8.016033935546876,1713569400395.0
8.024999999999949,-6.499288940429688,0.106768798828125,8.509353637695312,1713569400405.0
8.03499999999994,-6.3690429687500005,0.247930908203125,7.133621215820313,1713569400415.0
8.045999999999907,-6.727780151367188,0.5154510498046876,6.040661621093751,1713569400426.0
8.054999999999922,-7.156799316406251,0.394476318359375,6.099728393554688,1713569400435.0
8.064999999999912,-7.328018188476563,-0.0394775390625,7.149920654296875,1713569400445.0
8.074999999999903,-6.793576049804688,-0.235968017578125,7.080386352539063,1713569400455.0
8.084999999999894,-6.298162841796875,-0.0632537841796875,7.1017700195312505,1713569400465.0
8.094999999999885,-6.091653442382813,0.0462066650390625,7.236651611328125,1713569400475.0
8.104999999999876,-6.45457763671875,-0.1715179443359375,7.905078125,1713569400485.0
8.114999999999867,-6.584225463867188,-0.2543609619140625,7.701409912109376,1713569400495.0
8.125,-6.804791259765626,0.0387298583984375,6.490765380859376,1713569400505.0
8.135999999999939,-7.1908935546875,0.2642303466796875,5.907275390625,1713569400516.0
8.14599999999993,-7.142742919921876,0.41451416015625,6.141299438476563,1713569400526.0
8.155999999999892,-7.1615844726562505,0.3252410888671875,7.083377075195313,1713569400536.0
8.165999999999912,-6.584524536132813,0.3754852294921875,7.427609252929688,1713569400546.0
8.175999999999902,-6.0550170898437505,0.4083831787109375,7.267156982421875,1713569400556.0
8.185999999999893,-6.270498657226563,0.061907958984375,7.482788085937501,1713569400566.0
8.195999999999884,-6.676040649414063,-0.2308837890625,7.279568481445313,1713569400576.0
8.205999999999875,-7.078143310546875,-0.3437835693359375,7.095339965820313,1713569400586.0
8.215999999999866,-6.962402343750001,-0.2537628173828125,6.183917236328125,1713569400596.0
8.22599999999997,-6.554617309570313,-0.3063995361328125,6.474914550781251,1713569400606.0
8.235999999999962,-6.0435028076171875,-0.0638519287109375,7.073507690429688,1713569400616.0
8.245999999999952,-6.975860595703126,0.427374267578125,7.934237670898438,1713569400626.0
8.255999999999943,-7.214370727539063,0.9712371826171876,7.214071655273438,1713569400636.0
8.265999999999934,-7.125994873046875,0.7517181396484376,6.1884033203125,1713569400646.0
8.275999999999925,-6.757687377929688,0.0895721435546875,6.353042602539063,1713569400656.0
8.285999999999916,-6.428408813476563,-0.3270355224609375,7.167864990234375,1713569400666.0
8.296999999999883,-6.618319702148438,-0.6196777343750001,8.101718139648439,1713569400677.0
8.306999999999874,-6.253451538085938,-0.40374755859375,6.861166381835938,1713569400687.0
8.316999999999865,-6.9061767578125,-0.0059814453125,7.033132934570313,1713569400697.0
8.32699999999997,-6.838735961914063,-0.063104248046875,7.212277221679688,1713569400707.0
8.336999999999932,-6.550430297851563,-0.40853271484375,7.1215087890625,1713569400717.0
8.346999999999952,-6.644039916992188,-0.24942626953125,6.826174926757813,1713569400727.0
8.356999999999942,-7.167117309570313,0.6757537841796876,6.3241821289062505,1713569400737.0
8.366999999999933,-7.021469116210938,1.1056701660156252,7.024758911132813,1713569400747.0
8.376999999999924,-6.528897094726563,0.444122314453125,6.962402343750001,1713569400757.0
8.386999999999915,-6.1152801513671875,-0.1016845703125,7.539163208007813,1713569400767.0
8.396999999999906,-6.707891845703125,0.104974365234375,7.421478271484376,1713569400777.0
8.406999999999897,-6.915447998046876,0.301763916015625,6.923971557617188,1713569400787.0
8.416999999999888,-6.853839111328125,-0.2223602294921875,6.370089721679688,1713569400797.0
8.426999999999879,-6.833651733398438,-0.8282806396484376,6.599029541015626,1713569400807.0
8.43799999999996,-6.721649169921876,-0.5519378662109375,7.3607666015625,1713569400818.0
8.44799999999995,-6.519476318359375,-0.0514404296875,7.772439575195313,1713569400828.0
8.457999999999942,-5.959613037109375,0.0131591796875,7.499386596679688,1713569400838.0
8.467999999999932,-6.03826904296875,-0.223406982421875,7.514788818359375,1713569400848.0
8.477999999999923,-6.492260742187501,-0.075067138671875,7.440469360351563,1713569400858.0
8.487999999999914,-7.56533203125,0.5668914794921875,6.438278198242188,1713569400868.0
8.497999999999905,-8.047286987304688,1.064697265625,5.3182525634765625,1713569400878.0
8.507999999999896,-7.380654907226563,0.9869384765625,5.154959106445313,1713569400888.0
8.517999999999887,-6.396408081054688,0.5067779541015626,6.8984008789062505,1713569400898.0
8.527999999999878,-6.360668945312501,0.195294189453125,8.397799682617189,1713569400908.0
8.537999999999869,-6.283209228515625,0.114544677734375,8.372677612304688,1713569400918.0
8.54799999999986,-6.129635620117188,-0.11005859375,6.946551513671875,1713569400928.0
8.557999999999964,-6.174346923828126,-0.863720703125,6.97496337890625,1713569400938.0
8.567999999999955,-6.731219482421875,-1.4825012207031252,7.420431518554688,1713569400948.0
8.578999999999922,-6.806137084960938,-0.9619659423828124,6.834249877929688,1713569400959.0
8.588999999999913,-7.783804321289063,0.224005126953125,5.94974365234375,1713569400969.0
8.598999999999904,-6.926364135742188,1.3690032958984375,5.713327026367188,1713569400979.0
8.608999999999895,-7.211529541015626,1.562054443359375,6.8969055175781255,1713569400989.0
8.618999999999886,-6.8939147949218755,0.9506011962890626,8.413650512695312,1713569400999.0
8.628999999999877,-5.445956420898438,0.497357177734375,7.819992065429688,1713569401009.0
8.638999999999868,-5.701364135742188,-0.18841552734375,7.164276123046876,1713569401019.0
8.648999999999859,-6.630432128906251,-0.9006561279296875,6.997842407226563,1713569401029.0
8.658999999999963,-7.80458984375,-1.2475799560546876,7.1212097167968755,1713569401039.0
8.668999999999954,-7.5997253417968755,-1.107464599609375,6.572262573242188,1713569401049.0
8.678999999999945,-6.5783935546875005,-0.7482788085937501,5.482891845703126,1713569401059.0
8.688999999999936,-6.238647460937501,-0.189013671875,6.911560058593751,1713569401069.0
8.698999999999927,-6.512747192382813,0.9292175292968752,8.254544067382813,1713569401079.0
8.708999999999918,-6.6352172851562505,1.5707275390625002,8.708087158203126,1713569401089.0
8.718999999999909,-6.172702026367188,1.390985107421875,6.6621337890625005,1713569401099.0
8.7289999999999,-6.476409912109376,0.52576904296875,5.949893188476563,1713569401109.0
8.739999999999867,-7.596286010742188,-0.1577606201171875,6.646282958984376,1713569401120.0
8.75,-7.469479370117188,-0.587078857421875,6.948944091796876,1713569401130.0
8.759999999999962,-6.716564941406251,-0.9840972900390624,6.3974548339843755,1713569401140.0
8.769999999999953,-6.1163269042968755,-1.0075744628906251,6.7025085449218755,1713569401150.0
8.779999999999944,-6.35289306640625,-0.5310028076171875,8.086016845703126,1713569401160.0
8.789999999999935,-6.462503051757813,0.11005859375,8.564682006835938,1713569401170.0
8.799999999999926,-6.258984375000001,0.52337646484375,7.240090942382813,1713569401180.0
8.810999999999893,-6.412857055664063,0.7110443115234375,6.12021484375,1713569401191.0
8.819999999999908,-7.003823852539063,0.8091400146484375,6.683816528320313,1713569401200.0
8.829999999999899,-7.639501953125,0.593060302734375,6.95462646484375,1713569401210.0
8.83999999999989,-7.192239379882813,0.296380615234375,6.216067504882813,1713569401220.0
8.849999999999852,-7.053021240234376,0.0689361572265625,5.500088500976563,1713569401230.0
8.862999999999914,-6.655255126953126,0.103778076171875,6.9402709960937505,1713569401243.0
8.870999999999952,-6.489419555664063,-0.09271240234375,8.181271362304688,1713569401251.0
8.880999999999943,-5.8830505371093755,-0.5778076171875001,8.632272338867189,1713569401261.0
8.890999999999934,-5.9587158203125,-0.524871826171875,7.152911376953125,1713569401271.0
8.900999999999925,-6.762921142578126,-0.148040771484375,6.765762329101563,1713569401281.0
8.910999999999916,-6.9955993652343755,0.072076416015625,6.514691162109376,1713569401291.0
8.920999999999907,-6.643740844726563,0.0408233642578125,6.5320373535156255,1713569401301.0
8.930999999999898,-7.307830810546876,0.35828857421875,6.803445434570313,1713569401311.0
8.940999999999889,-7.476956176757813,0.9283203125,6.457867431640626,1713569401321.0
8.95099999999988,-7.295718383789063,0.96719970703125,6.842324829101563,1713569401331.0
8.962999999999937,-6.077297973632813,0.2394073486328125,7.069769287109375,1713569401343.0
8.970999999999862,-5.807684326171875,-0.6066680908203126,7.673745727539063,1713569401351.0
8.980999999999966,-6.291732788085938,-0.718670654296875,8.322134399414063,1713569401361.0
8.990999999999957,-6.884194946289063,-0.2812774658203125,6.871932983398438,1713569401371.0
9.000999999999948,-7.338186645507813,-0.0234771728515625,6.593945312500001,1713569401381.0
9.01099999999994,-6.834848022460938,-0.3985137939453125,5.976361083984376,1713569401391.0
9.02099999999993,-6.496597290039063,-0.53773193359375,7.218707275390625,1713569401401.0
9.031999999999895,-6.967785644531251,0.1830322265625,7.468582153320313,1713569401412.0
9.041999999999888,-6.8834472656250005,1.2088500976562502,7.008758544921876,1713569401422.0
9.05199999999988,-6.3540893554687505,1.1426055908203123,6.647628784179688,1713569401432.0
9.06299999999996,-6.26676025390625,0.1921539306640625,7.22020263671875,1713569401443.0
9.07199999999986,-6.691143798828126,-0.2237060546875,7.943807983398438,1713569401452.0
9.081999999999963,-7.123901367187501,-0.011962890625,7.0856201171875,1713569401462.0
9.091999999999956,-7.107003784179688,0.0432159423828125,5.698822021484375,1713569401472.0
9.101999999999949,-6.682769775390626,-0.3590362548828125,5.8401336669921875,1713569401482.0
9.111999999999938,-6.918438720703126,-0.670819091796875,7.665521240234376,1713569401492.0
9.121999999999929,-6.51798095703125,-0.225201416015625,8.283554077148438,1713569401502.0
9.13199999999992,-5.964996337890625,0.1867706298828125,7.619912719726563,1713569401512.0
9.14199999999991,-5.797366333007813,0.0946563720703125,7.010403442382813,1713569401522.0
9.151999999999902,-6.545645141601563,-0.1407135009765625,7.477853393554688,1713569401532.0
9.162999999999869,-7.130331420898438,-0.1375732421875,7.322036743164063,1713569401543.0
9.17299999999986,-7.720849609375,0.411822509765625,5.82293701171875,1713569401553.0
9.182999999999964,-7.703353881835938,0.8716461181640626,4.8561859130859375,1713569401563.0
9.192999999999955,-7.026553344726563,0.919049072265625,5.911013793945313,1713569401573.0
9.202999999999946,-6.241787719726563,0.49466552734375,8.031137084960939,1713569401583.0
9.212999999999935,-6.155654907226563,0.1567138671875,8.809921264648438,1713569401593.0
9.222999999999928,-5.98802490234375,0.1244140625,7.751205444335938,1713569401603.0
9.23299999999992,-6.135916137695313,-0.158807373046875,6.658096313476563,1713569401613.0
9.24299999999991,-6.512448120117188,-0.8903381347656251,6.644638061523438,1713569401623.0
9.2529999999999,-7.3828979492187505,-1.203616333007813,6.9791503906250005,1713569401633.0
9.26299999999992,-7.785748291015626,-0.3608306884765625,6.749911499023438,1713569401643.0
9.272999999999882,-7.135714721679688,0.756353759765625,5.716616821289063,1713569401653.0
9.282999999999872,-6.858624267578126,0.6727630615234376,6.766958618164063,1713569401663.0
9.292999999999864,-5.834002685546875,0.273052978515625,7.922573852539063,1713569401673.0
9.302999999999969,-5.921331787109375,0.326885986328125,8.459857177734376,1713569401683.0
9.31299999999996,-6.217263793945313,0.6914550781250001,7.799057006835938,1713569401693.0
9.323999999999929,-6.867446899414063,0.5036376953125,6.104214477539063,1713569401704.0
9.333999999999918,-7.706643676757813,-0.418402099609375,6.374127197265626,1713569401714.0
9.343999999999909,-7.429104614257813,-0.9808074951171876,6.361865234375,1713569401724.0
9.3539999999999,-6.721200561523438,-0.816168212890625,6.6609375,1713569401734.0
9.36399999999989,-6.223693847656251,-0.2023223876953125,6.817202758789063,1713569401744.0
9.373999999999882,-6.268554687500001,0.2678192138671875,8.137008666992188,1713569401754.0
9.383999999999872,-6.395211791992188,0.3994110107421875,8.504718017578126,1713569401764.0
9.393999999999863,-6.375622558593751,0.3563446044921875,7.130032348632813,1713569401774.0
9.403999999999968,-6.845614624023438,0.4366455078125,6.062643432617188,1713569401784.0
9.41399999999996,-7.261624145507813,0.488385009765625,5.878115844726563,1713569401794.0
9.42399999999995,-7.552920532226563,0.1927520751953125,6.747967529296876,1713569401804.0
9.43399999999994,-6.84097900390625,-0.1105072021484375,6.996945190429688,1713569401814.0
9.44399999999996,-6.0310913085937505,-0.182733154296875,7.25010986328125,1713569401824.0
9.453999999999922,-6.016287231445313,-0.216827392578125,7.811767578125001,1713569401834.0
9.46499999999989,-6.339434814453125,-0.2537628173828125,8.092745971679689,1713569401845.0
9.474999999999852,-6.607403564453126,-0.4018035888671875,7.448992919921875,1713569401855.0
9.484999999999872,-6.755743408203125,-0.182135009765625,6.21591796875,1713569401865.0
9.494999999999862,-7.275830078125001,0.1454986572265625,6.147579956054688,1713569401875.0
9.504999999999969,-7.288540649414063,0.407635498046875,6.297116088867188,1713569401885.0
9.514999999999958,-7.006814575195313,0.5139556884765626,6.926513671875001,1713569401895.0
9.524999999999949,-6.594393920898438,0.681884765625,6.921279907226563,1713569401905.0
9.53499999999994,-6.418988037109376,0.7454376220703125,7.366748046875,1713569401915.0
9.54499999999993,-6.386837768554688,0.3757843017578125,7.4786010742187505,1713569401925.0
9.554999999999922,-6.511700439453126,-0.18721923828125,7.466339111328126,1713569401935.0
9.564999999999912,-6.854287719726563,-0.5873779296875,6.8161560058593755,1713569401945.0
9.574999999999903,-6.973019409179688,-0.5227783203125,6.471475219726563,1713569401955.0
9.584999999999894,-6.826473999023438,-0.509320068359375,6.668713378906251,1713569401965.0
9.595999999999862,-6.082681274414063,-0.407037353515625,7.092498779296876,1713569401976.0
9.605999999999966,-6.477755737304688,0.0530853271484375,7.569519042968751,1713569401986.0
9.615999999999955,-7.055114746093751,0.8611785888671876,7.464096069335938,1713569401996.0
9.625999999999948,-7.3948608398437505,1.0165466308593751,6.593795776367188,1713569402006.0
9.63599999999994,-6.9420654296875,0.5793029785156251,6.136514282226563,1713569402016.0
9.64599999999993,-6.341229248046876,0.0198883056640625,6.797015380859375,1713569402026.0
9.655999999999892,-6.693087768554688,-0.35111083984375,7.534378051757813,1713569402036.0
9.665999999999912,-6.529644775390626,-0.3022125244140625,7.522265625,1713569402046.0
9.675999999999902,-6.764117431640625,-0.04486083984375,6.716116333007813,1713569402056.0
9.685999999999892,-6.656900024414063,-0.2142852783203125,7.309475708007813,1713569402066.0
9.695999999999884,-6.399249267578125,-0.6527252197265625,7.145883178710938,1713569402076.0
9.705999999999875,-6.689199829101563,-0.6398651123046876,7.432843017578126,1713569402086.0
9.715999999999866,-7.257586669921875,0.23267822265625,6.323583984375,1713569402096.0
9.72599999999997,-7.021917724609375,1.117034912109375,6.332705688476563,1713569402106.0
9.735999999999962,-6.670059204101563,0.759344482421875,6.7503601074218755,1713569402116.0
9.746999999999929,-6.235507202148438,0.1933502197265625,7.7890380859375,1713569402127.0
9.755999999999943,-6.466091918945313,0.26617431640625,7.900143432617188,1713569402136.0
9.76699999999991,-6.893017578125001,0.4693939208984375,6.779071044921875,1713569402147.0
9.776999999999902,-6.773837280273438,0.1541717529296875,6.228927612304688,1713569402157.0
9.786999999999892,-7.03238525390625,-0.640911865234375,6.160140991210938,1713569402167.0
9.796999999999883,-6.902737426757813,-0.8864501953125,7.690194702148438,1713569402177.0
9.806999999999874,-6.586767578125,-0.43963623046875,7.434487915039063,1713569402187.0
9.816999999999863,-5.819348144531251,-0.10347900390625,7.536471557617188,1713569402197.0
9.82699999999997,-6.118121337890625,-0.1978363037109375,7.343121337890626,1713569402207.0
9.836999999999932,-6.482989501953125,-0.163592529296875,7.9690795898437505,1713569402217.0
9.846999999999952,-7.050030517578126,0.4342529296875,6.670208740234376,1713569402227.0
9.856999999999942,-7.994949340820313,1.0160980224609375,5.624053955078125,1713569402237.0
9.866999999999932,-7.275979614257813,1.1909057617187502,5.261727905273438,1713569402247.0
9.8779999999999,-6.734359741210938,0.5939575195312501,6.443063354492188,1713569402258.0
9.88799999999992,-6.358126831054688,0.0581695556640625,8.300900268554688,1713569402268.0
9.897999999999882,-6.528448486328125,0.1042266845703125,7.8990966796875,1713569402278.0
9.907999999999872,-6.231170654296876,0.0219818115234375,7.316802978515626,1713569402288.0
9.917999999999864,-6.109896850585938,-0.5804992675781251,6.5425048828125005,1713569402298.0
9.927999999999969,-6.3301635742187505,-1.236663818359375,7.395458984375001,1713569402308.0
9.93799999999996,-7.3440185546875005,-0.84278564453125,7.1032653808593755,1713569402318.0
9.94799999999995,-7.421029663085938,0.364569091796875,6.759780883789063,1713569402328.0
9.957999999999942,-7.054516601562501,1.1660827636718751,5.5111541748046875,1713569402338.0
9.967999999999932,-7.153808593750001,0.7582977294921875,6.781463623046876,1713569402348.0
9.977999999999923,-6.360369873046875,0.2663238525390625,8.017977905273439,1713569402358.0
9.987999999999914,-5.775982666015626,0.368157958984375,8.044296264648438,1713569402368.0
9.997999999999903,-5.916696166992188,0.1882659912109375,7.495050048828125,1713569402378.0
10.007999999999896,-6.766360473632813,-0.325091552734375,6.6525634765625,1713569402388.0
10.017999999999889,-7.757186889648438,-0.8421875000000001,7.266708374023438,1713569402398.0
10.027999999999878,-7.343719482421876,-0.8943756103515625,6.144290161132813,1713569402408.0
10.037999999999869,-6.605908203125001,-0.611602783203125,5.962005615234375,1713569402418.0
10.04899999999995,-6.2987609863281255,-0.012261962890625,6.659591674804688,1713569402429.0
10.05899999999994,-6.708340454101563,0.7370635986328126,8.626290893554689,1713569402439.0
10.06899999999996,-6.361865234375,1.026715087890625,8.398547363281251,1713569402449.0
10.078999999999922,-5.955874633789063,0.7358673095703125,6.681274414062501,1713569402459.0
10.088999999999912,-6.841726684570313,0.3228485107421875,6.159542846679688,1713569402469.0
10.098999999999904,-7.471722412109376,0.064599609375,6.577346801757813,1713569402479.0
10.108999999999895,-7.473516845703125,-0.3739898681640625,6.9061767578125,1713569402489.0
10.118999999999886,-6.655105590820313,-0.683380126953125,6.3615661621093755,1713569402499.0
10.128999999999875,-6.0973358154296875,-0.545208740234375,6.990664672851563,1713569402509.0
10.138999999999868,-6.2987609863281255,-0.2477813720703125,8.194430541992189,1713569402519.0
10.14899999999986,-6.3929687500000005,0.111553955078125,8.366098022460939,1713569402529.0
10.158999999999963,-6.312368774414063,0.2181732177734375,7.0972839355468755,1713569402539.0
10.168999999999954,-6.563739013671875,0.3781768798828125,6.081185913085938,1713569402549.0
10.179999999999922,-7.332803344726563,0.5232269287109376,6.565682983398438,1713569402560.0
10.188999999999936,-7.519424438476563,0.4714874267578125,6.714022827148438,1713569402569.0
10.199999999999903,-7.093545532226563,0.228790283203125,6.1884033203125,1713569402580.0
10.209999999999894,-6.632974243164063,0.245538330078125,6.276480102539063,1713569402590.0
10.219999999999883,-6.592599487304688,0.3153717041015625,7.371533203125001,1713569402600.0
10.229999999999876,-6.2284790039062505,-0.0345428466796875,8.380603027343751,1713569402610.0
10.239999999999869,-6.242535400390626,-0.3515594482421875,7.687203979492188,1713569402620.0
10.25,-6.391921997070313,-0.419000244140625,6.913055419921876,1713569402630.0
10.259999999999962,-6.785501098632813,-0.2053131103515625,6.405081176757813,1713569402640.0
10.269999999999952,-6.700115966796876,-0.083441162109375,6.776080322265625,1713569402650.0
10.279999999999944,-7.247866821289063,0.04306640625,6.74228515625,1713569402660.0
10.289999999999935,-7.150369262695313,0.547003173828125,6.782211303710938,1713569402670.0
10.299999999999926,-7.322784423828126,0.7880554199218751,6.617721557617188,1713569402680.0
10.309999999999915,-6.565533447265626,0.5004974365234376,7.0913024902343755,1713569402690.0
10.320999999999884,-5.775234985351563,-0.1481903076171875,7.425067138671875,1713569402701.0
10.3299999999999,-6.3301635742187505,-0.51141357421875,8.054464721679688,1713569402710.0
10.340999999999866,-6.575103759765626,-0.3194091796875,7.144686889648438,1713569402721.0
10.35099999999997,-7.38828125,0.11484375,6.532635498046876,1713569402731.0
10.360999999999962,-7.013244628906251,-0.1604522705078125,6.534429931640625,1713569402741.0
10.370999999999952,-6.590954589843751,-0.6006866455078126,6.5425048828125005,1713569402751.0
10.380999999999943,-6.516934204101563,-0.33555908203125,7.590603637695313,1713569402761.0
10.390999999999934,-7.093395996093751,0.6264068603515626,6.992309570312501,1713569402771.0
10.400999999999923,-6.553570556640626,1.167727661132813,7.093994140625001,1713569402781.0
10.410999999999916,-6.280966186523438,0.4888336181640625,6.785949707031251,1713569402791.0
10.420999999999909,-6.44022216796875,-0.2166778564453125,7.663278198242188,1713569402801.0
10.430999999999898,-6.996197509765626,-0.0677398681640625,7.460357666015626,1713569402811.0
10.440999999999889,-7.155154418945313,0.20875244140625,6.266012573242188,1713569402821.0
10.45099999999988,-6.846511840820313,-0.0091217041015625,5.8371429443359375,1713569402831.0
10.46499999999989,-6.8879333496093755,-0.474627685546875,6.622805786132813,1713569402845.0
10.470999999999862,-6.607553100585938,-0.3389984130859375,8.140447998046875,1713569402851.0
10.481999999999942,-6.285900878906251,0.0249725341796875,7.969528198242188,1713569402862.0
10.491999999999932,-5.747570800781251,0.0539825439453125,7.368542480468751,1713569402872.0
10.501999999999924,-6.214273071289063,-0.2190704345703125,7.173397827148438,1713569402882.0
10.511999999999915,-6.961654663085938,-0.3566436767578125,7.533929443359376,1713569402892.0
10.521999999999906,-7.452880859375001,0.1326385498046875,6.299957275390626,1713569402902.0
10.531999999999895,-7.888479614257813,0.7119415283203125,5.201763916015626,1713569402912.0
10.541999999999888,-7.2273803710937505,0.9989013671875,5.58726806640625,1713569402922.0
10.55199999999988,-6.2359558105468755,0.7200164794921875,7.222296142578125,1713569402932.0
10.563999999999936,-6.179580688476563,0.2651275634765625,8.88184814453125,1713569402944.0
10.57199999999986,-6.171356201171876,0.203668212890625,8.011697387695314,1713569402952.0
10.581999999999963,-6.433193969726563,0.149237060546875,6.824679565429688,1713569402962.0
10.591999999999956,-6.58616943359375,-0.5564239501953125,6.282611083984375,1713569402972.0
10.601999999999949,-6.604263305664063,-1.2900482177734376,6.8640075683593755,1713569402982.0
10.612999999999914,-7.522564697265626,-0.9655548095703126,6.873876953125,1713569402993.0
10.622999999999903,-7.233212280273438,0.3218017578125,6.841726684570313,1713569403003.0
10.632999999999896,-6.803445434570313,1.1614471435546876,6.087167358398438,1713569403013.0
10.642999999999889,-6.797763061523438,0.6563140869140626,7.36435546875,1713569403023.0
10.652999999999878,-6.094046020507813,0.1900604248046875,8.061642456054688,1713569403033.0
10.66399999999996,-6.096588134765625,0.3964202880859375,7.831207275390626,1713569403044.0
10.67299999999986,-6.379660034179688,0.2920440673828125,6.842025756835938,1713569403053.0
10.682999999999964,-6.903933715820313,-0.2495758056640625,6.118420410156251,1713569403063.0
10.692999999999955,-7.75255126953125,-0.7490264892578126,7.326672363281251,1713569403073.0
10.702999999999946,-6.99888916015625,-0.7361663818359375,6.617572021484375,1713569403083.0
10.712999999999935,-6.415847778320313,-0.5295074462890625,6.566281127929688,1713569403093.0
10.722999999999928,-6.1142333984375,-0.0275146484375,6.745574951171876,1713569403103.0
10.73299999999992,-6.788491821289063,0.5988922119140625,8.297311401367189,1713569403113.0
10.74299999999991,-6.6788818359375,0.8097381591796876,8.0641845703125,1713569403123.0
10.7529999999999,-6.301452636718751,0.5988922119140625,6.4393249511718755,1713569403133.0
10.763999999999868,-6.805389404296876,0.210247802734375,6.121112060546875,1713569403144.0
10.77399999999986,-7.22020263671875,0.0729736328125,6.655703735351563,1713569403154.0
10.783999999999963,-7.178781127929688,-0.2166778564453125,7.3828979492187505,1713569403164.0
10.793999999999954,-6.625497436523438,-0.4448699951171875,6.717312622070313,1713569403174.0
10.803999999999943,-6.091952514648438,-0.4206451416015625,6.972720336914063,1713569403184.0
10.813999999999936,-6.459362792968751,-0.1745086669921875,7.66103515625,1713569403194.0
10.823999999999929,-6.59573974609375,0.01854248046875,8.138354492187501,1713569403204.0
10.833999999999918,-6.4755126953125,0.060113525390625,7.090853881835938,1713569403214.0
10.843999999999909,-6.5200744628906255,0.2480804443359375,6.239544677734376,1713569403224.0
10.8539999999999,-7.313214111328126,0.4379913330078125,6.384744262695313,1713569403234.0
10.864999999999869,-7.352841186523438,0.5408721923828126,6.687405395507813,1713569403245.0
10.873999999999882,-6.947897338867188,0.3868499755859375,6.564187622070313,1713569403254.0
10.883999999999872,-6.645236206054688,0.240155029296875,6.664227294921876,1713569403264.0
10.893999999999863,-6.269601440429688,0.2337249755859375,7.448843383789063,1713569403274.0
10.903999999999968,-6.566281127929688,-0.097198486328125,7.971920776367188,1713569403284.0
10.91399999999996,-6.391323852539063,-0.335858154296875,7.366000366210938,1713569403294.0
10.92399999999995,-6.700863647460938,-0.36307373046875,6.634768676757813,1713569403304.0
10.93399999999994,-6.828717041015626,-0.2444915771484375,6.514840698242188,1713569403314.0
10.944999999999908,-6.303396606445313,-0.1777984619140625,7.088162231445313,1713569403325.0
10.9549999999999,-6.580636596679688,-0.0225799560546875,7.210183715820313,1713569403335.0
10.96499999999989,-7.245623779296875,0.5296569824218751,7.275082397460938,1713569403345.0
10.974999999999852,-7.532882690429688,0.769512939453125,6.28111572265625,1713569403355.0
10.984999999999872,-7.001730346679688,0.54132080078125,6.411212158203125,1713569403365.0
10.994999999999862,-6.0165863037109375,-0.08433837890625,6.948196411132813,1713569403375.0
11.004999999999969,-6.22130126953125,-0.4270751953125,8.031884765625001,1713569403385.0
11.014999999999958,-6.379360961914063,-0.3409423828125,8.025903320312501,1713569403395.0
11.024999999999949,-7.178482055664063,0.1780975341796875,6.232815551757813,1713569403405.0
11.03499999999994,-7.176986694335938,0.3590362548828125,6.6788818359375,1713569403415.0
11.04499999999993,-6.557159423828126,-0.27454833984375,6.3182006835937505,1713569403425.0
11.054999999999922,-6.408670043945313,-0.6410614013671876,7.918386840820313,1713569403435.0
11.064999999999912,-7.034628295898438,-0.0509918212890625,7.006515502929688,1713569403445.0
11.07599999999988,-6.9477478027343755,0.9873870849609376,6.763519287109376,1713569403456.0
11.08599999999987,-6.515438842773438,0.7318298339843751,6.480297851562501,1713569403466.0
11.095999999999862,-6.234609985351563,-0.2083038330078125,7.362710571289063,1713569403476.0
11.105999999999966,-6.596188354492188,-0.41092529296875,8.330508422851564,1713569403486.0
11.115999999999955,-7.1107421875000005,0.234173583984375,6.840679931640626,1713569403496.0
11.125999999999948,-6.9881225585937505,0.5519378662109375,5.7912353515625,1713569403506.0
11.13599999999994,-6.864157104492188,0.0456085205078125,5.5002380371093755,1713569403516.0
11.14599999999993,-6.8311096191406255,-0.36546630859375,8.073455810546875,1713569403526.0
11.155999999999892,-6.681423950195313,-0.0620574951171875,8.070614624023438,1713569403536.0
11.165999999999912,-6.070269775390625,0.173760986328125,7.382150268554688,1713569403546.0
11.175999999999902,-5.76910400390625,-0.154620361328125,6.738845825195313,1713569403556.0
11.185999999999892,-6.5329345703125,-0.539227294921875,7.688699340820313,1713569403566.0
11.195999999999884,-7.285101318359375,-0.5090209960937501,7.8494506835937505,1713569403576.0
11.205999999999875,-7.286297607421876,0.145947265625,5.7873474121093755,1713569403586.0
11.215999999999866,-7.402038574218751,0.7319793701171875,4.8502044677734375,1713569403596.0
11.22599999999997,-7.069619750976563,0.9305633544921876,6.184066772460938,1713569403606.0
11.236999999999938,-6.442016601562501,0.6794921875000001,8.36744384765625,1713569403617.0
11.246999999999929,-6.185562133789063,0.329876708984375,8.5235595703125,1713569403627.0
11.25699999999992,-6.093447875976563,0.3330169677734375,6.922177124023438,1713569403637.0
11.26699999999991,-6.590954589843751,0.1327880859375,6.462652587890625,1713569403647.0
11.276999999999902,-6.6884521484375,-0.5917144775390626,6.87327880859375,1713569403657.0
11.286999999999892,-7.0479370117187505,-1.21064453125,7.042254638671875,1713569403667.0
11.296999999999883,-7.346859741210938,-0.6338836669921876,6.842324829101563,1713569403677.0
11.306999999999874,-6.799407958984376,0.554779052734375,6.0479888916015625,1713569403687.0
11.316999999999863,-7.234707641601563,0.696539306640625,7.184762573242188,1713569403697.0
11.32699999999997,-6.366949462890625,0.1449005126953125,7.658493041992188,1713569403707.0
11.336999999999932,-5.720803833007813,0.081646728515625,7.667913818359375,1713569403717.0
11.346999999999952,-6.242086791992188,0.4909271240234375,7.549481201171876,1713569403727.0
11.35799999999992,-6.723593139648438,0.544012451171875,6.794921875000001,1713569403738.0
11.36799999999991,-7.580734252929688,-0.1547698974609375,6.772491455078126,1713569403748.0
11.3779999999999,-7.178781127929688,-0.7304840087890625,6.549383544921875,1713569403758.0
11.38799999999992,-6.6860595703125005,-0.7164276123046875,6.2703491210937505,1713569403768.0
11.397999999999882,-6.426315307617188,-0.2409027099609375,6.882400512695313,1713569403778.0
11.407999999999872,-6.6130859375,0.1625457763671875,7.732513427734376,1713569403788.0
11.417999999999864,-6.564337158203125,0.3778778076171875,8.105905151367189,1713569403798.0
11.427999999999969,-6.2374511718750005,0.432159423828125,7.181622314453126,1713569403808.0
11.43799999999996,-6.606356811523438,0.3563446044921875,6.4396240234375,1713569403818.0
11.44799999999995,-7.092349243164063,0.2954833984375,6.563888549804688,1713569403828.0
11.457999999999942,-7.3245788574218755,0.0826934814453125,6.824081420898438,1713569403838.0
11.467999999999932,-6.877914428710938,-0.1131988525390625,6.664376831054688,1713569403848.0
11.480999999999966,-6.414801025390625,-0.210247802734375,6.896157836914063,1713569403861.0
11.48899999999989,-6.374127197265626,-0.178546142578125,7.525555419921876,1713569403869.0
11.498999999999882,-6.360968017578125,-0.171368408203125,8.074652099609375,1713569403879.0
11.508999999999872,-6.404483032226563,-0.1721160888671875,7.438076782226563,1713569403889.0
11.518999999999863,-6.5843750000000005,0.0237762451171875,6.610394287109376,1713569403899.0
11.528999999999968,-7.185659790039063,0.22490234375,6.416146850585938,1713569403909.0
11.53899999999996,-7.101171875,0.43126220703125,6.527102661132813,1713569403919.0
11.54899999999995,-7.072460937500001,0.3994110107421875,6.681274414062501,1713569403929.0
11.55899999999994,-6.7004150390625,0.3446807861328125,6.845166015625001,1713569403939.0
11.56899999999996,-6.429754638671875,0.3868499755859375,7.158294677734376,1713569403949.0
11.580999999999875,-6.6047119140625,0.1786956787109375,7.590005493164063,1713569403961.0
11.588999999999912,-6.486279296875001,-0.141461181640625,7.349850463867188,1713569403969.0
11.598999999999904,-6.593795776367188,-0.37623291015625,6.9686828613281255,1713569403979.0
11.608999999999895,-6.808978271484375,-0.3366058349609375,6.670059204101563,1713569403989.0
11.619999999999862,-6.5933471679687505,-0.261688232421875,6.888082885742188,1713569404000.0
11.629999999999969,-6.341677856445313,-0.08553466796875,6.951934814453126,1713569404010.0
11.638999999999868,-6.916644287109375,0.3303253173828125,7.2647644042968755,1713569404019.0
11.649999999999949,-7.357028198242188,0.6910064697265625,6.890325927734375,1713569404030.0
11.658999999999963,-7.322186279296876,0.6715667724609375,6.58616943359375,1713569404039.0
11.668999999999954,-6.456072998046875,0.1882659912109375,6.677835083007813,1713569404049.0
11.680999999999898,-6.185562133789063,-0.204864501953125,7.153808593750001,1713569404061.0
11.689999999999912,-6.464447021484376,-0.4270751953125,8.106951904296876,1713569404070.0
11.699999999999903,-6.764566040039063,-0.179742431640625,6.829763793945313,1713569404080.0
11.709999999999894,-7.029095458984376,0.1855743408203125,7.018927001953125,1713569404090.0
11.719999999999883,-6.661236572265626,-0.1260589599609375,6.554318237304688,1713569404100.0
11.729999999999876,-6.4453063964843755,-0.5914154052734375,7.342373657226563,1713569404110.0
11.739999999999869,-6.83140869140625,-0.35828857421875,7.159640502929688,1713569404120.0
11.75,-7.223043823242188,0.6739593505859376,6.6411987304687505,1713569404130.0
11.759999999999962,-6.776080322265625,1.027163696289063,6.374575805664063,1713569404140.0
11.769999999999952,-6.286349487304688,0.311932373046875,6.916793823242188,1713569404150.0
11.779999999999944,-6.389529418945313,-0.15372314453125,8.198916625976564,1713569404160.0
11.789999999999935,-6.774884033203126,0.1143951416015625,7.608847045898438,1713569404170.0
11.799999999999926,-6.9088684082031255,0.3605316162109375,6.341827392578126,1713569404180.0
11.809999999999915,-6.783108520507813,0.005084228515625,5.745028686523438,1713569404190.0
11.819999999999908,-7.129434204101563,-0.5851348876953125,6.935934448242188,1713569404200.0
11.830999999999875,-6.77518310546875,-0.4655059814453125,7.672549438476563,1713569404211.0
11.840999999999866,-6.333901977539063,-0.0399261474609375,7.692138671875001,1713569404221.0
11.85099999999997,-5.806936645507813,-0.014654541015625,7.137359619140626,1713569404231.0
11.860999999999962,-6.2090393066406255,-0.25421142578125,7.532284545898438,1713569404241.0
11.870999999999952,-6.820791625976563,-0.2208648681640625,7.650717163085938,1713569404251.0
11.880999999999943,-7.544097900390626,0.38699951171875,6.329714965820313,1713569404261.0
11.890999999999934,-7.748962402343751,0.95045166015625,5.194436645507813,1713569404271.0
11.900999999999923,-7.000234985351563,0.921142578125,5.573062133789063,1713569404281.0
11.910999999999916,-6.347958374023438,0.36187744140625,7.637258911132813,1713569404291.0
11.920999999999909,-6.4049316406250005,0.0988433837890625,8.496942138671876,1713569404301.0
11.930999999999898,-6.340780639648438,0.2106964111328125,7.8033935546875,1713569404311.0
11.940999999999889,-6.322238159179688,0.093310546875,6.3439208984375,1713569404321.0
11.95099999999988,-6.18541259765625,-0.6563140869140626,6.6549560546875,1713569404331.0
11.961999999999932,-6.974514770507813,-1.1834289550781252,7.459759521484376,1713569404342.0
11.971999999999952,-7.537667846679688,-0.5025909423828125,7.329812622070313,1713569404352.0
11.981999999999942,-7.030590820312501,0.62745361328125,5.940621948242188,1713569404362.0
11.991999999999932,-7.155453491210938,0.7089508056640625,6.084475708007813,1713569404372.0
12.001999999999924,-6.422576904296876,0.2220611572265625,7.288540649414063,1713569404382.0
12.011999999999915,-6.06339111328125,0.2699127197265625,8.244525146484376,1713569404392.0
12.021999999999906,-6.11124267578125,0.5193389892578125,8.219552612304689,1713569404402.0
12.031999999999895,-6.349154663085938,0.4529449462890625,6.405529785156251,1713569404412.0
12.041999999999888,-7.262222290039063,-0.29249267578125,6.749163818359375,1713569404422.0
12.05199999999988,-7.474114990234376,-0.7992706298828126,6.760528564453126,1713569404432.0
12.06199999999987,-7.0225158691406255,-0.8080932617187501,6.426315307617188,1713569404442.0
12.07199999999986,-6.4647460937500005,-0.3183624267578125,6.264816284179688,1713569404452.0
12.081999999999963,-6.444558715820313,0.2567535400390625,7.442413330078126,1713569404462.0
12.091999999999956,-6.463101196289063,0.4891326904296875,8.54688720703125,1713569404472.0
12.102999999999923,-6.250311279296875,0.48389892578125,7.68675537109375,1713569404483.0
12.112999999999914,-6.506915283203125,0.478814697265625,6.5353271484375,1713569404493.0
12.122999999999903,-7.0234130859375,0.4502532958984375,6.103018188476563,1713569404503.0
12.132999999999896,-7.4681335449218755,0.071478271484375,6.57181396484375,1713569404513.0
12.142999999999889,-7.12509765625,-0.3183624267578125,6.851296997070313,1713569404523.0
12.152999999999878,-6.469830322265626,-0.3512603759765625,6.830661010742188,1713569404533.0
12.162999999999869,-6.2218994140625,-0.17884521484375,7.35777587890625,1713569404543.0
12.17299999999986,-6.276031494140626,-0.0758148193359375,7.9708740234375,1713569404553.0
12.182999999999964,-6.385940551757813,-0.1395172119140625,7.892367553710938,1713569404563.0
12.192999999999955,-6.617422485351563,-0.0103179931640625,6.841726684570313,1713569404573.0
12.202999999999946,-6.969879150390626,0.2636322021484375,6.239096069335938,1713569404583.0
12.212999999999935,-7.256988525390626,0.4498046875,6.237002563476563,1713569404593.0
12.222999999999928,-7.197622680664063,0.35230712890625,6.679330444335938,1713569404603.0
12.23299999999992,-6.770697021484375,0.26737060546875,6.897503662109376,1713569404613.0
12.24299999999991,-6.486578369140625,0.3724945068359375,7.110592651367188,1713569404623.0
12.253999999999875,-6.3496032714843755,0.2761932373046875,7.538265991210938,1713569404634.0
12.263999999999868,-6.511700439453126,-0.06280517578125,7.478451538085938,1713569404644.0
12.27399999999986,-6.546691894531251,-0.40255126953125,7.2288757324218755,1713569404654.0
12.283999999999963,-6.563589477539063,-0.3916351318359375,6.638058471679688,1713569404664.0
12.293999999999954,-6.474914550781251,-0.121124267578125,6.678433227539063,1713569404674.0
12.303999999999943,-7.247418212890626,0.12620849609375,6.922924804687501,1713569404684.0
12.313999999999936,-7.22080078125,0.3506622314453125,6.9223266601562505,1713569404694.0
12.323999999999929,-7.358224487304688,0.3629241943359375,6.678433227539063,1713569404704.0
12.333999999999918,-6.380258178710938,0.3548492431640625,6.8161560058593755,1713569404714.0
12.343999999999909,-6.0385681152343755,0.1018341064453125,7.161285400390626,1713569404724.0
12.3539999999999,-6.437979125976563,-0.2459869384765625,8.132522583007812,1713569404734.0
12.36399999999989,-6.527999877929688,-0.1287506103515625,7.138555908203125,1713569404744.0
12.373999999999882,-7.255044555664063,0.2352203369140625,6.9103637695312505,1713569404754.0
12.383999999999872,-6.804043579101563,-0.0148040771484375,6.296517944335938,1713569404764.0
12.393999999999863,-6.670657348632813,-0.6122009277343751,6.715069580078126,1713569404774.0
12.404999999999944,-6.76561279296875,-0.500946044921875,7.375122070312501,1713569404785.0
12.414999999999935,-7.069619750976563,0.463861083984375,7.029244995117188,1713569404795.0
12.424999999999926,-6.540560913085938,0.861029052734375,6.9522338867187505,1713569404805.0
12.434999999999915,-6.173748779296876,0.2260986328125,6.867596435546876,1713569404815.0
12.444999999999908,-6.508560180664063,-0.19140625,7.877862548828125,1713569404825.0
12.4549999999999,-6.973916625976563,0.2247528076171875,7.41220703125,1713569404835.0
12.46499999999989,-7.198818969726563,0.4966094970703125,6.253601074218751,1713569404845.0
12.474999999999852,-6.684713745117188,0.1114044189453125,5.797366333007813,1713569404855.0
12.484999999999872,-6.848754882812501,-0.384906005859375,6.799258422851563,1713569404865.0
12.494999999999862,-6.774734497070313,-0.261688232421875,8.217459106445313,1713569404875.0
12.504999999999969,-6.383547973632813,0.000299072265625,7.6813720703125,1713569404885.0
12.514999999999958,-5.724093627929688,-0.1374237060546875,7.019375610351563,1713569404895.0
12.524999999999949,-6.281564331054688,-0.419000244140625,7.2148193359375,1713569404905.0
12.53499999999994,-6.980795288085938,-0.422589111328125,7.860067749023438,1713569404915.0
12.545999999999909,-7.388580322265626,0.11962890625,6.491513061523438,1713569404926.0
12.555999999999898,-7.541555786132813,0.72196044921875,5.126248168945313,1713569404936.0
12.565999999999889,-7.179229736328126,0.9787139892578126,5.5829315185546875,1713569404946.0
12.57599999999988,-6.519177246093751,0.7777374267578125,7.551724243164063,1713569404956.0
12.58599999999987,-6.198422241210938,0.3683074951171875,8.725283813476564,1713569404966.0
12.595999999999862,-6.183169555664063,0.164788818359375,7.6341186523437505,1713569404976.0
12.605999999999966,-6.431399536132813,0.1134979248046875,6.54788818359375,1713569404986.0
12.615999999999955,-6.771444702148438,-0.42528076171875,6.452932739257813,1713569404996.0
12.625999999999948,-6.74228515625,-1.0255187988281251,6.999935913085938,1713569405006.0
12.63599999999994,-7.386187744140625,-0.8568420410156251,6.923522949218751,1713569405016.0
12.64599999999993,-6.692788696289063,0.1981353759765625,6.8565307617187505,1713569405026.0
12.655999999999892,-6.942214965820313,0.92772216796875,6.569720458984375,1713569405036.0
12.665999999999912,-7.098480224609376,0.4892822265625,7.592697143554688,1713569405046.0
12.675999999999902,-5.9268646240234375,0.0527862548828125,7.35538330078125,1713569405056.0
12.685999999999892,-6.105560302734375,0.23746337890625,7.328915405273438,1713569405066.0
12.69699999999986,-6.598431396484376,0.4382904052734375,7.199566650390626,1713569405077.0
12.706999999999963,-7.114480590820313,-0.0327484130859375,6.871035766601563,1713569405087.0
12.716999999999956,-7.290335083007813,-0.63822021484375,7.053021240234376,1713569405097.0
12.726999999999949,-6.706097412109376,-0.6793426513671875,6.1522155761718755,1713569405107.0
12.736999999999938,-6.597534179687501,-0.349615478515625,6.853240966796876,1713569405117.0
12.746999999999929,-6.643292236328126,0.116937255859375,7.171902465820313,1713569405127.0
12.75699999999992,-6.684713745117188,0.362176513671875,8.048632812500001,1713569405137.0
12.76699999999991,-6.3893798828125,0.4287200927734375,7.268502807617188,1713569405147.0
12.776999999999902,-6.312817382812501,0.4302154541015625,6.734957885742188,1713569405157.0
12.786999999999892,-7.024310302734375,0.311932373046875,6.755294799804688,1713569405167.0
12.796999999999883,-7.191641235351563,0.1185821533203125,6.787295532226563,1713569405177.0
12.806999999999874,-6.905429077148438,-0.2045654296875,6.798809814453126,1713569405187.0
12.816999999999863,-6.6217590332031255,-0.267669677734375,6.568374633789063,1713569405197.0
12.82699999999997,-6.435287475585938,-0.1926025390625,7.456320190429688,1713569405207.0
12.836999999999932,-6.498391723632813,-0.1227691650390625,7.651016235351563,1713569405217.0
12.847999999999928,-6.3690429687500005,-0.06519775390625,7.632473754882813,1713569405228.0
12.85799999999992,-6.5170837402343755,0.0438140869140625,6.811819458007813,1713569405238.0
12.86799999999991,-6.870138549804688,0.2471832275390625,6.733612060546876,1713569405248.0
12.8779999999999,-7.0868164062500005,0.292193603515625,6.587963867187501,1713569405258.0
12.88799999999992,-6.982888793945313,0.2986236572265625,6.675741577148438,1713569405268.0
12.897999999999882,-6.910662841796875,0.2271453857421875,6.736752319335938,1713569405278.0
12.907999999999872,-6.6549560546875,0.2860626220703125,6.757687377929688,1713569405288.0
12.917999999999864,-6.671255493164063,0.31163330078125,7.347607421875001,1713569405298.0
12.927999999999969,-6.5111022949218755,0.045758056640625,7.480545043945313,1713569405308.0
12.93799999999996,-6.323583984375,-0.2141357421875,7.262820434570313,1713569405318.0
12.94799999999995,-6.732565307617188,-0.2899505615234375,6.862811279296875,1713569405328.0
12.957999999999942,-6.701162719726563,-0.1281524658203125,6.789688110351563,1713569405338.0
12.967999999999932,-6.513046264648438,0.0198883056640625,6.69443359375,1713569405348.0
12.980999999999966,-7.020272827148438,0.1694244384765625,7.024459838867188,1713569405361.0
12.987999999999914,-6.907971191406251,0.423486328125,7.08621826171875,1713569405368.0
12.998999999999882,-7.340579223632813,0.4388885498046875,7.0045715332031255,1713569405379.0
13.008999999999872,-6.873428344726563,0.256903076171875,6.806884765625001,1713569405389.0
13.018999999999863,-6.005819702148438,-0.20037841796875,6.582431030273438,1713569405399.0
13.028999999999968,-6.436184692382813,-0.4270751953125,7.747018432617188,1713569405409.0
13.03899999999996,-6.593197631835938,-0.2065093994140625,7.575350952148438,1713569405419.0
13.04899999999995,-7.079937744140626,0.1816864013671875,7.173696899414063,1713569405429.0
13.05899999999994,-6.639553833007813,0.01136474609375,6.557608032226563,1713569405439.0
13.06899999999996,-6.607403564453126,-0.3829620361328125,6.414501953125001,1713569405449.0
13.080999999999875,-6.864306640625,-0.2639312744140625,7.484432983398438,1713569405461.0
13.088999999999912,-7.174145507812501,0.450701904296875,6.862213134765626,1713569405469.0
13.098999999999904,-6.602169799804688,0.7717559814453125,6.958963012695313,1713569405479.0
13.108999999999895,-6.297415161132813,0.2465850830078125,6.6307312011718755,1713569405489.0
13.118999999999886,-6.457119750976563,-0.0889739990234375,7.782907104492188,1713569405499.0
13.128999999999875,-6.958364868164063,0.122918701171875,7.565631103515625,1713569405509.0
13.139999999999958,-6.907821655273438,0.3049041748046875,6.51798095703125,1713569405520.0
13.149999999999949,-6.618020629882813,-0.0013458251953125,5.995800781250001,1713569405530.0
13.15999999999994,-6.959112548828125,-0.36845703125,6.7563415527343755,1713569405540.0
13.16999999999993,-6.796865844726563,-0.26318359375,8.075848388671876,1713569405550.0
13.180999999999898,-6.392520141601563,-0.0657958984375,7.4083190917968755,1713569405561.0
13.189999999999912,-5.8969573974609375,-0.12919921875,7.088012695312501,1713569405570.0
13.199999999999903,-6.234759521484375,-0.2594451904296875,7.207791137695313,1713569405580.0
13.209999999999894,-6.935336303710938,-0.1559661865234375,7.974313354492188,1713569405590.0
13.219999999999883,-7.357177734375001,0.2077056884765625,6.353640747070313,1713569405600.0
13.229999999999876,-7.3589721679687505,0.7273437500000001,5.222848510742188,1713569405610.0
13.239999999999869,-7.376916503906251,0.95762939453125,5.684765625000001,1713569405620.0
13.25,-6.629983520507813,0.7524658203125001,7.401440429687501,1713569405630.0
13.259999999999962,-6.238497924804688,0.3013153076171875,8.371182250976563,1713569405640.0
13.269999999999952,-6.0270538330078125,0.0131591796875,7.805636596679688,1713569405650.0
13.280999999999892,-6.366799926757813,-0.122320556640625,6.8610168457031255,1713569405661.0
13.290999999999912,-6.763967895507813,-0.5172454833984376,6.859970092773438,1713569405671.0
13.300999999999902,-6.689498901367188,-0.9840972900390624,6.800454711914063,1713569405681.0
13.310999999999892,-7.287344360351563,-0.7805786132812501,6.487326049804688,1713569405691.0
13.320999999999884,-7.110443115234376,0.3261383056640625,6.601571655273438,1713569405701.0
13.330999999999875,-6.821240234375001,1.2230560302734377,6.673348999023438,1713569405711.0
13.340999999999866,-7.124050903320313,0.9419281005859376,7.625595092773438,1713569405721.0
13.35099999999997,-6.11722412109375,0.222808837890625,7.545294189453125,1713569405731.0
13.360999999999962,-5.767459106445313,0.0746185302734375,7.248913574218751,1713569405741.0
13.370999999999952,-6.510205078125001,-0.0360382080078125,7.390823364257813,1713569405751.0
13.380999999999943,-7.115078735351563,-0.4625152587890625,6.949990844726563,1713569405761.0
13.390999999999934,-7.4307495117187505,-0.9221893310546876,6.818698120117188,1713569405771.0
13.400999999999923,-6.854287719726563,-0.7428955078125,6.258236694335938,1713569405781.0
13.410999999999916,-6.640750122070313,-0.3055023193359375,6.570318603515625,1713569405791.0
13.420999999999909,-6.441867065429688,0.2510711669921875,7.371682739257813,1713569405801.0
13.431999999999874,-6.624899291992188,0.7313812255859375,8.048333740234376,1713569405812.0
13.441999999999863,-6.504223632812501,0.9773681640625,7.429702758789063,1713569405822.0
13.45199999999997,-6.338238525390626,0.743194580078125,6.5664306640625005,1713569405832.0
13.461999999999932,-7.041806030273438,0.2358184814453125,6.582730102539063,1713569405842.0
13.471999999999952,-7.228427124023438,-0.203668212890625,6.873577880859376,1713569405852.0
13.481999999999942,-6.906475830078126,-0.5926116943359375,6.756192016601563,1713569405862.0
