time,ax,ay,az,timestamp
0.0,-6.679779052734376,-0.0847869873046875,6.806585693359375,1713570309430.0
0.0099999999999909,-6.808529663085938,-0.1766021728515625,7.156500244140625,1713570309440.0
0.0199999999999818,-6.476260375976563,0.011663818359375,6.98154296875,1713570309450.0
0.0299999999999727,-7.016983032226563,0.0234771728515625,7.04375,1713570309460.0
0.0399999999999636,-6.295172119140625,0.472235107421875,6.534130859375001,1713570309470.0
0.0499999999999545,-7.274932861328126,0.4412811279296875,6.1552062988281255,1713570309480.0
0.0599999999999454,-6.772940063476563,0.7337738037109376,7.47142333984375,1713570309490.0
0.0699999999999363,-6.699966430664063,0.8557952880859375,7.049133300781251,1713570309500.0
0.0819999999999936,-7.3230834960937505,-0.007177734375,7.6924377441406255,1713570309512.0
0.0899999999999181,-6.0295959472656255,-0.70401611328125,6.8942138671875,1713570309520.0
0.099999999999909,-5.982791137695313,-1.1252593994140625,6.543701171875001,1713570309530.0
0.1100000000000136,-6.8355957031250005,-0.7315307617187501,8.103512573242188,1713570309540.0
0.1200000000000045,-7.174295043945313,-0.4777679443359375,7.3488037109375,1713570309550.0
0.1309999999999718,-6.862362670898438,-0.2184722900390625,6.805389404296876,1713570309561.0
0.1409999999999627,-6.3259765625,0.1783966064453125,5.944509887695313,1713570309571.0
0.1509999999999536,-6.999636840820313,0.4825531005859375,7.072760009765625,1713570309581.0
0.1609999999999516,-6.528149414062501,0.9159088134765626,7.833749389648438,1713570309591.0
0.1709999999999354,-6.99051513671875,0.8211029052734375,7.073806762695313,1713570309601.0
0.1809999999999263,-6.444708251953125,0.538330078125,6.689199829101563,1713570309611.0
0.1909999999999172,-6.47850341796875,-0.0480010986328125,6.584973144531251,1713570309621.0
0.2009999999999081,-7.2243896484375005,-0.5459564208984375,7.525555419921876,1713570309631.0
0.2110000000000127,-6.645385742187501,-0.7083526611328126,7.295269775390626,1713570309641.0
0.2210000000000036,-6.4079223632812505,-0.75784912109375,6.498989868164063,1713570309651.0
0.2309999999999945,-6.740191650390625,-0.3923828125,7.105957031250001,1713570309661.0
0.2409999999999854,-6.826473999023438,0.0584686279296875,7.032534790039063,1713570309671.0
0.2509999999999763,-6.444409179687501,0.494366455078125,7.668661499023438,1713570309681.0
0.2619999999999436,-6.589309692382813,0.6353790283203126,6.972421264648438,1713570309692.0
0.2719999999999345,-6.350350952148438,0.611004638671875,6.975411987304688,1713570309702.0
0.2819999999999254,-7.038665771484376,0.5323486328125,6.623553466796875,1713570309712.0
0.2919999999999163,-7.483087158203125,0.35709228515625,6.804043579101563,1713570309722.0
0.3019999999999072,-7.386187744140625,0.2106964111328125,5.717364501953125,1713570309732.0
0.3120000000000118,-5.963949584960938,-0.0814971923828125,6.599777221679688,1713570309742.0
0.3220000000000027,-6.725387573242188,-0.271856689453125,7.324728393554688,1713570309752.0
0.3319999999999936,-6.374127197265626,-0.0488983154296875,8.366546630859375,1713570309762.0
0.3419999999999774,-6.3798095703125,0.0808990478515625,7.457965087890625,1713570309772.0
0.3519999999999754,-6.898251342773438,-0.1257598876953125,7.039862060546875,1713570309782.0
0.3619999999999663,-7.147827148437501,-0.4436737060546875,6.261227416992188,1713570309792.0
0.3719999999999572,-6.655853271484376,-0.3817657470703125,6.616824340820313,1713570309802.0
0.3819999999999481,-7.082031250000001,-0.2154815673828125,6.950888061523438,1713570309812.0
0.391999999999939,-6.477905273437501,0.26318359375,7.031787109375,1713570309822.0
0.4019999999999299,-6.6247497558593755,0.605621337890625,7.529293823242188,1713570309832.0
0.4119999999999209,-6.296966552734376,0.4472625732421875,7.532882690429688,1713570309842.0
0.4230000000000018,-6.400146484375001,0.0034393310546875,7.460507202148438,1713570309853.0
0.4329999999999927,-6.9656921386718755,-0.1446014404296875,6.369790649414063,1713570309863.0
0.4449999999999363,-7.412655639648438,0.28531494140625,6.289938354492188,1713570309875.0
0.4529999999999745,-7.194781494140625,0.170172119140625,6.357977294921875,1713570309883.0
0.4629999999999654,-6.474765014648438,-0.28232421875,7.091152954101563,1713570309893.0
0.4729999999999563,-6.169412231445313,-0.4855438232421875,7.829562377929688,1713570309903.0
0.4829999999999472,-6.413754272460938,-0.0315521240234375,7.833450317382813,1713570309913.0
0.4929999999999381,-6.540560913085938,0.3336151123046875,7.265213012695313,1713570309923.0
0.5029999999999291,-6.802847290039063,0.1060211181640625,6.378314208984375,1713570309933.0
0.51299999999992,-6.946401977539063,-0.1232177734375,6.775482177734376,1713570309943.0
0.5229999999999109,-6.8505493164062505,0.042767333984375,6.858773803710938,1713570309953.0
0.5330000000000155,-6.890325927734375,0.297576904296875,7.312017822265625,1713570309963.0
0.5459999999999354,-6.426165771484375,0.227294921875,6.727630615234376,1713570309976.0
0.5539999999999736,-6.532635498046876,0.0488983154296875,6.7802673339843755,1713570309984.0
0.5639999999999645,-7.155752563476563,0.16688232421875,7.280615234375,1713570309994.0
0.5739999999999554,-7.099227905273438,0.4290191650390625,6.8804565429687505,1713570310004.0
0.5839999999999463,-6.6980224609375005,0.0758148193359375,6.741986083984376,1713570310014.0
0.5939999999999301,-5.973968505859375,-0.3668121337890625,6.745574951171876,1713570310024.0
0.6039999999999281,-6.591702270507813,-0.4212432861328125,7.797860717773438,1713570310034.0
0.613999999999919,-7.0554138183593755,0.019140625,7.545144653320313,1713570310044.0
0.62399999999991,-6.447549438476563,0.6763519287109375,5.865853881835938,1713570310054.0
0.6340000000000146,-7.008309936523438,0.6634918212890626,5.564089965820313,1713570310064.0
0.6449999999999818,-7.700662231445313,0.590667724609375,6.920233154296875,1713570310075.0
0.6539999999999964,-6.785202026367188,1.06170654296875,7.990762329101563,1713570310084.0
0.6639999999999873,-6.987973022460938,0.2029205322265625,7.625894165039063,1713570310094.0
0.6739999999999782,-5.638858032226563,-0.938787841796875,7.036123657226563,1713570310104.0
0.6849999999999454,-5.8221893310546875,-1.900454711914063,6.934140014648438,1713570310115.0
0.6949999999999363,-6.597683715820313,-1.1144927978515626,8.474960327148438,1713570310125.0
0.7049999999999272,-7.393814086914063,-0.4122711181640625,7.0045715332031255,1713570310135.0
0.7149999999999181,-7.234857177734376,0.05682373046875,6.0135955810546875,1713570310145.0
0.724999999999909,-6.746173095703125,0.44920654296875,6.012399291992188,1713570310155.0
0.7350000000000136,-6.875372314453125,0.7864105224609376,7.102816772460938,1713570310165.0
0.7459999999999809,-6.149822998046876,1.3464233398437502,7.868142700195313,1713570310176.0
0.7549999999999955,-6.709088134765626,1.18731689453125,7.352243041992188,1713570310185.0
0.7649999999999864,-6.372781372070313,0.576910400390625,7.453329467773438,1713570310195.0
0.7749999999999844,-6.655404663085938,-0.5754150390625,6.4731201171875,1713570310205.0
0.7849999999999682,-7.205548095703126,-1.280926513671875,7.1669677734375,1713570310215.0
0.7949999999999591,-6.617572021484375,-1.4330047607421876,6.842474365234375,1713570310225.0
0.80499999999995,-6.546542358398438,-1.1817840576171876,6.926364135742188,1713570310235.0
0.8149999999999409,-6.6411987304687505,-0.6470428466796876,7.7052978515625,1713570310245.0
0.8249999999999318,-6.304293823242188,0.2839691162109375,7.110443115234376,1713570310255.0
0.8349999999999227,-6.426464843750001,1.0814453125,7.676437377929688,1713570310265.0
0.8460000000000036,-6.630282592773438,1.490576171875,6.768453979492188,1713570310276.0
0.8559999999999945,-6.544149780273438,1.266571044921875,7.049880981445313,1713570310286.0
0.8659999999999854,-7.293325805664063,0.8275329589843751,5.9193878173828125,1713570310296.0
0.8759999999999764,-8.312713623046875,0.3838592529296875,6.045745849609375,1713570310306.0
0.8859999999999673,-7.578939819335938,0.3476715087890625,5.168865966796876,1713570310316.0
0.8959999999999582,-7.179080200195313,-0.3928314208984375,6.392669677734376,1713570310326.0
0.9059999999999492,-5.102621459960938,-0.8306732177734376,7.9110595703125,1713570310336.0
0.91599999999994,-5.861218261718751,-1.0787536621093752,9.584518432617188,1713570310346.0
0.9259999999999308,-5.5186309814453125,-0.6781463623046875,9.206640625,1713570310356.0
0.9359999999999218,-6.040811157226563,-0.1592559814453125,6.545645141601563,1713570310366.0
0.9459999999999128,-6.722546386718751,-0.05084228515625,6.354537963867188,1713570310376.0
0.9560000000000102,-8.638104248046876,0.2965301513671875,5.3270751953125,1713570310386.0
0.9660000000000082,-8.764163208007814,0.9017028808593752,5.938528442382813,1713570310396.0
0.9759999999999992,-7.527349853515625,1.3453765869140626,5.447750854492188,1713570310406.0
0.98599999999999,-5.087368774414063,0.98514404296875,7.108947753906251,1713570310416.0
0.9969999999999573,-5.289242553710938,-0.1338348388671875,9.618612670898438,1713570310427.0
1.0069999999999482,-5.620016479492188,-0.6916046142578125,9.686203002929688,1713570310437.0
1.016999999999939,-6.953280639648438,-0.4586273193359375,7.4780029296875,1713570310447.0
1.02699999999993,-7.447946166992188,-0.5203857421875,5.148678588867188,1713570310457.0
1.0369999999999209,-7.380355834960938,-1.367059326171875,4.710836791992188,1713570310467.0
1.0469999999999118,-7.296615600585938,-1.5412689208984376,6.729574584960938,1713570310477.0
1.0570000000000164,-7.18192138671875,0.0417205810546875,7.782608032226563,1713570310487.0
1.0670000000000073,-6.5329345703125,1.839593505859375,7.723541259765626,1713570310497.0
1.0769999999999982,-5.2887939453125,2.0320465087890627,6.654806518554688,1713570310507.0
1.086999999999989,-5.824880981445313,0.95284423828125,8.259179687500001,1713570310517.0
1.09699999999998,-7.099975585937501,0.280828857421875,8.4123046875,1713570310527.0
1.106999999999971,-7.346710205078126,0.26497802734375,6.601123046875,1713570310537.0
1.1169999999999618,-7.708737182617188,-0.3470733642578125,4.051980590820313,1713570310547.0
1.1269999999999527,-7.029544067382813,-1.2258972167968751,5.245428466796875,1713570310557.0
1.1369999999999436,-6.655703735351563,-1.6529724121093752,7.878610229492188,1713570310567.0
1.1479999999999109,-6.314462280273438,-0.8792724609375001,9.753494262695312,1713570310578.0
1.1580000000000157,-5.556613159179688,0.1377227783203125,7.903134155273438,1713570310588.0
1.1680000000000064,-5.656951904296875,0.6500335693359376,6.312368774414063,1713570310598.0
1.1779999999999973,-6.899148559570313,0.7419982910156251,7.376617431640626,1713570310608.0
1.1879999999999882,-7.704849243164063,0.7499237060546875,7.354635620117188,1713570310618.0
1.197999999999979,-7.365103149414063,0.6471923828125,6.516784667968751,1713570310628.0
1.20799999999997,-6.866699218750001,0.5426666259765626,4.079345703125,1713570310638.0
1.217999999999961,-7.608547973632813,0.485394287109375,5.848208618164063,1713570310648.0
1.2279999999999518,-6.864605712890626,0.6491363525390625,7.2626708984375,1713570310658.0
1.2379999999999427,-6.393865966796875,0.3219512939453125,8.229421997070313,1713570310668.0
1.2479999999999336,-5.420535278320313,-0.2572021484375,8.451632690429689,1713570310678.0
1.2579999999999243,-5.911312866210938,-0.5568725585937501,7.765560913085938,1713570310688.0
1.2690000000000057,-7.393215942382813,-1.1713165283203126,7.623352050781251,1713570310699.0
1.2779999999999063,-7.3694396972656255,-1.2897491455078125,6.385043334960938,1713570310708.0
1.2889999999999873,-6.955673217773438,-1.053631591796875,5.305990600585938,1713570310719.0
1.2989999999999782,-6.6127868652343755,-0.078955078125,6.124401855468751,1713570310729.0
1.308999999999969,-6.868045043945313,1.0483978271484375,7.913302612304688,1713570310739.0
1.31899999999996,-6.5963378906250005,1.5918121337890627,8.890072631835938,1713570310749.0
1.3289999999999509,-5.775234985351563,1.2750946044921876,7.567724609375,1713570310759.0
1.3389999999999418,-6.436782836914063,0.46954345703125,5.978005981445313,1713570310769.0
1.3489999999999327,-7.158294677734376,0.0925628662109375,6.454428100585938,1713570310779.0
1.3589999999999236,-7.932293701171876,-0.335858154296875,6.847857666015625,1713570310789.0
1.3689999999999145,-7.057955932617188,-1.0469024658203123,6.77518310546875,1713570310799.0
1.3789999999999054,-5.8401336669921875,-1.5701293945312502,6.4482971191406255,1713570310809.0
1.38900000000001,-6.291732788085938,-1.07845458984375,7.860366821289063,1713570310819.0
1.399000000000001,-6.24881591796875,-0.0423187255859375,8.837286376953125,1713570310829.0
1.4089999999999918,-6.537719726562501,0.478515625,7.492807006835938,1713570310839.0
1.4189999999999827,-6.554019165039063,0.6944458007812501,6.474765014648438,1713570310849.0
1.42999999999995,-6.686508178710938,0.8833099365234376,5.881854248046875,1713570310860.0
1.4399999999999409,-7.184762573242188,1.0050323486328123,7.339981079101563,1713570310870.0
1.4499999999999318,-7.412954711914063,0.7170257568359375,7.075302124023438,1713570310880.0
1.4599999999999227,-6.546093750000001,0.0982452392578125,5.995053100585938,1713570310890.0
1.4699999999999136,-6.900045776367188,-0.1997802734375,5.711383056640625,1713570310900.0
1.4799999999998974,-7.568322753906251,0.0095703125,6.878063964843751,1713570310910.0
1.490000000000009,-7.285101318359375,0.176751708984375,7.5025268554687505,1713570310920.0
1.5,-5.875274658203125,-0.3787750244140625,7.4265625,1713570310930.0
1.509999999999991,-5.057461547851563,-0.7150817871093751,7.541107177734376,1713570310940.0
1.5199999999999818,-6.4156982421875,-0.5942565917968751,8.869436645507813,1713570310950.0
1.5299999999999727,-6.9659912109375,0.0405242919921875,7.670755004882813,1713570310960.0
1.5399999999999636,-7.609146118164063,0.33555908203125,5.405133056640626,1713570310970.0
1.5499999999999543,-6.707891845703125,0.15372314453125,5.399301147460938,1713570310980.0
1.5609999999999218,-6.161935424804688,0.1688262939453125,6.456372070312501,1713570310991.0
1.570999999999913,-7.270596313476563,0.48389892578125,8.199813842773438,1713570311001.0
1.5810000000000102,-7.727578735351563,1.3218994140625,7.335794067382813,1713570311011.0
1.5910000000000082,-7.200164794921876,1.200625610351563,5.335897827148438,1713570311021.0
1.600999999999999,-5.9563232421875005,-0.06160888671875,6.485531616210938,1713570311031.0
1.61099999999999,-6.010903930664063,-1.064996337890625,8.696722412109375,1713570311041.0
1.620999999999981,-6.7267333984375,-1.417901611328125,9.586761474609377,1713570311051.0
1.6309999999999718,-5.7499633789062505,-0.9206939697265626,6.365603637695313,1713570311061.0
1.6409999999999627,-7.226333618164063,-0.2065093994140625,4.867999267578125,1713570311071.0
1.6509999999999536,-7.859619140625001,0.27694091796875,7.326821899414063,1713570311081.0
1.6609999999999516,-6.9181396484375,0.1610504150390625,7.183865356445313,1713570311091.0
1.6709999999999354,-5.986380004882813,-0.0025421142578125,7.760626220703125,1713570311101.0
1.6809999999999263,-6.1122894287109375,0.8770294189453126,6.1791320800781255,1713570311111.0
1.6909999999999172,-7.037020874023438,1.5062774658203126,7.631427001953125,1713570311121.0
1.7019999999999982,-7.200314331054688,0.8409912109375001,7.279867553710938,1713570311132.0
1.711999999999989,-6.582580566406251,-0.41212158203125,6.481494140625,1713570311142.0
1.72199999999998,-6.697274780273438,-0.6724639892578126,6.525308227539063,1713570311152.0
1.731999999999971,-6.777426147460938,-0.1734619140625,6.928906250000001,1713570311162.0
1.7419999999999618,-7.143939208984375,-0.308343505859375,7.6430908203125005,1713570311172.0
1.7519999999999527,-5.971875000000001,-0.8608795166015626,7.1929870605468755,1713570311182.0
1.7619999999999436,-6.055166625976563,-0.8689544677734375,7.248016357421876,1713570311192.0
1.7719999999999343,-6.58975830078125,0.012860107421875,7.968930053710938,1713570311202.0
1.7819999999999254,-6.885989379882813,0.5423675537109376,6.917990112304688,1713570311212.0
1.7919999999999163,-7.247119140625,0.48389892578125,6.161337280273438,1713570311222.0
1.8019999999999072,-6.907073974609376,0.5932098388671876,6.015689086914063,1713570311232.0
1.812000000000012,-7.218109130859376,0.864019775390625,6.957168579101563,1713570311242.0
1.8220000000000027,-6.93070068359375,0.7950836181640626,7.343121337890626,1713570311252.0
1.8319999999999936,-6.315808105468751,0.4502532958984375,6.3705383300781255,1713570311262.0
1.8449999999999136,-6.933541870117188,-0.0121124267578125,6.849203491210938,1713570311275.0
1.8519999999999752,-6.5215698242187505,0.0294586181640625,7.044647216796876,1713570311282.0
1.8629999999999427,-6.2867980957031255,-0.3210540771484375,7.751504516601563,1713570311293.0
1.8729999999999336,-6.309378051757813,-0.8665618896484376,7.136611938476563,1713570311303.0
1.8829999999999243,-6.868045043945313,-0.700726318359375,7.10057373046875,1713570311313.0
1.8929999999999152,-7.456320190429688,0.19619140625,6.821240234375001,1713570311323.0
1.9029999999999063,-7.338635253906251,0.6314910888671875,6.57181396484375,1713570311333.0
1.913000000000011,-6.7742858886718755,-0.0346923828125,6.636563110351563,1713570311343.0
1.9230000000000016,-5.737252807617188,-0.2417999267578125,7.306335449218751,1713570311353.0
1.9329999999999927,-6.097036743164063,0.2373138427734375,8.207888793945314,1713570311363.0
1.9449999999999363,-6.633572387695313,0.57960205078125,7.803244018554688,1713570311375.0
1.9529999999999743,-7.002926635742188,0.243145751953125,6.742135620117188,1713570311383.0
1.9629999999999657,-7.257437133789063,-0.5142547607421876,6.305789184570313,1713570311393.0
1.9729999999999563,-7.136312866210938,-0.5897705078125001,5.9403228759765625,1713570311403.0
1.9829999999999472,-6.758435058593751,-0.3126800537109375,6.792379760742188,1713570311413.0
1.9929999999999384,-6.5843750000000005,0.0402252197265625,7.5279479980468755,1713570311423.0
2.002999999999929,-6.1022705078125,0.1777984619140625,8.089755249023439,1713570311433.0
2.01400000000001,-6.224441528320313,0.1314422607421875,7.587612915039063,1713570311444.0
2.024000000000001,-6.594992065429688,0.2349212646484375,7.22020263671875,1713570311454.0
2.033999999999992,-6.746920776367188,0.153424072265625,6.719406127929688,1713570311464.0
2.044999999999959,-6.966140747070313,-0.0477020263671875,6.4916625976562505,1713570311475.0
2.0539999999999736,-7.110293579101563,-0.25361328125,6.835147094726563,1713570311484.0
2.0639999999999645,-7.037020874023438,-0.094805908203125,6.5395141601562505,1713570311494.0
2.073999999999955,-6.481344604492188,0.287408447265625,6.950888061523438,1713570311504.0
2.0839999999999463,-6.71177978515625,0.48868408203125,6.942813110351563,1713570311514.0
2.09399999999993,-6.566131591796876,0.338250732421875,7.713821411132813,1713570311524.0
2.103999999999928,-6.208142089843751,0.1715179443359375,7.0138427734375,1713570311534.0
2.113999999999919,-7.088162231445313,0.1637420654296875,7.082180786132813,1713570311544.0
2.12399999999991,-7.145285034179688,0.2322296142578125,6.449044799804688,1713570311554.0
2.1340000000000146,-7.008309936523438,-0.1191802978515625,6.471026611328125,1713570311564.0
2.144999999999982,-6.452633666992188,-0.5522369384765625,7.162182617187501,1713570311575.0
2.1539999999999964,-6.334350585937501,-0.372344970703125,7.1316772460937505,1713570311584.0
2.1649999999999636,-6.858175659179688,0.02093505859375,7.787991333007813,1713570311595.0
2.1749999999999545,-6.596487426757813,0.4640106201171875,6.805838012695313,1713570311605.0
2.1849999999999454,-6.660488891601563,0.3476715087890625,6.789837646484376,1713570311615.0
2.1949999999999363,-6.230422973632813,-0.0097198486328125,6.886587524414063,1713570311625.0
2.2049999999999272,-6.212179565429688,0.235369873046875,6.994403076171875,1713570311635.0
2.214999999999918,-8.073605346679688,0.48389892578125,7.047039794921876,1713570311645.0
2.224999999999909,-7.282260131835938,0.8062988281250001,6.18302001953125,1713570311655.0
2.2350000000000136,-7.333999633789063,0.0342437744140625,5.999240112304688,1713570311665.0
2.2450000000000045,-6.1940856933593755,-0.6590057373046876,7.455422973632813,1713570311675.0
2.2549999999999955,-5.9832397460937505,-0.698333740234375,8.381649780273438,1713570311685.0
2.2649999999999864,-6.0774475097656255,-0.720166015625,8.352340698242188,1713570311695.0
2.2749999999999844,-6.062643432617188,-0.1260589599609375,6.229376220703125,1713570311705.0
2.284999999999968,-7.9212280273437505,0.2902496337890625,6.798959350585938,1713570311715.0
2.295999999999935,-7.2378479003906255,0.3862518310546875,6.879110717773438,1713570311726.0
2.30499999999995,-6.498242187500001,-0.1661346435546875,6.264517211914063,1713570311735.0
2.3159999999999172,-6.364108276367188,-0.15611572265625,6.961953735351563,1713570311746.0
2.325999999999908,-7.01683349609375,0.7343719482421875,7.114779663085938,1713570311756.0
2.3360000000000127,-6.898251342773438,0.975872802734375,7.894161987304688,1713570311766.0
2.3460000000000036,-6.2912841796875005,0.2201171875,6.658843994140626,1713570311776.0
2.3559999999999945,-6.315957641601563,-0.3898406982421875,6.736453247070313,1713570311786.0
2.3659999999999854,-7.091152954101563,-0.0937591552734375,7.476208496093751,1713570311796.0
2.3759999999999764,-6.913204956054688,0.156414794921875,7.15440673828125,1713570311806.0
2.3859999999999673,-6.8116699218750005,-0.398663330078125,6.570767211914063,1713570311816.0
2.395999999999958,-6.165823364257813,-0.8348602294921875,6.554318237304688,1713570311826.0
2.405999999999949,-6.455624389648438,-0.5393768310546876,7.828964233398438,1713570311836.0
2.41599999999994,-6.780416870117188,0.0438140869140625,8.20355224609375,1713570311846.0
2.4269999999999072,-6.492709350585938,0.165985107421875,6.6217590332031255,1713570311857.0
2.435999999999922,-6.710433959960938,0.2507720947265625,5.9039855957031255,1713570311866.0
2.4470000000000027,-7.32188720703125,0.697735595703125,6.884793090820313,1713570311877.0
2.4569999999999936,-7.367645263671876,1.0765106201171877,7.057806396484375,1713570311887.0
2.4669999999999774,-6.926513671875001,0.7879058837890626,6.6456848144531255,1713570311897.0
2.476999999999975,-6.207693481445313,0.401654052734375,5.789889526367188,1713570311907.0
2.4869999999999663,-7.016384887695313,0.228790283203125,7.210781860351563,1713570311917.0
2.4969999999999573,-6.897952270507813,0.0275146484375,8.054913330078126,1713570311927.0
2.506999999999948,-6.015689086914063,-0.5444610595703125,7.2976623535156255,1713570311937.0
2.516999999999939,-5.722149658203126,-1.1058197021484375,6.741537475585938,1713570311947.0
2.5279999999999063,-6.853390502929688,-0.7310821533203126,7.010104370117188,1713570311958.0
2.536999999999921,-7.924966430664063,0.0841888427734375,7.624249267578126,1713570311967.0
2.546999999999912,-7.321289062500001,0.8735900878906251,6.019726562500001,1713570311977.0
2.5570000000000164,-6.976458740234375,0.5423675537109376,6.005520629882813,1713570311987.0
2.5670000000000073,-6.152963256835938,0.055926513671875,7.218557739257813,1713570311997.0
2.5779999999999745,-5.8666015625000005,0.161798095703125,8.453726196289063,1713570312008.0
2.586999999999989,-6.2404418945312505,0.19140625,8.714517211914064,1713570312017.0
2.5979999999999563,-6.4276611328125,0.0001495361328125,6.4168945312500005,1713570312028.0
2.6079999999999472,-7.496246337890626,-0.465655517578125,6.265414428710938,1713570312038.0
2.617999999999938,-7.649670410156251,-0.724951171875,6.476409912109376,1713570312048.0
2.627999999999929,-6.997692871093751,-0.6791931152343751,6.272442626953126,1713570312058.0
2.63799999999992,-6.22489013671875,-0.17884521484375,6.766958618164063,1713570312068.0
2.647999999999911,-6.283508300781251,0.5178436279296875,7.977752685546876,1713570312078.0
2.6580000000000155,-6.347061157226563,0.70880126953125,8.694479370117188,1713570312088.0
2.6680000000000064,-6.251058959960938,0.4643096923828125,7.380505371093751,1713570312098.0
2.6779999999999973,-6.772491455078126,0.1882659912109375,6.1970764160156255,1713570312108.0
2.687999999999988,-7.135415649414063,0.037982177734375,6.207095336914063,1713570312118.0
2.697999999999979,-7.026553344726563,-0.3063995361328125,6.845614624023438,1713570312128.0
2.70799999999997,-7.167266845703126,-0.5809478759765625,7.137359619140626,1713570312138.0
2.717999999999961,-6.545346069335938,-0.413916015625,6.982290649414063,1713570312148.0
2.727999999999952,-6.101971435546876,0.0991424560546875,6.772491455078126,1713570312158.0
2.738999999999919,-6.770846557617188,0.5459564208984375,7.753298950195313,1713570312169.0
2.74899999999991,-6.559701538085938,0.4149627685546875,7.728775024414063,1713570312179.0
2.7619999999999436,-6.142794799804688,0.2237060546875,6.767706298828125,1713570312192.0
2.7690000000000055,-7.132723999023438,0.2029205322265625,6.536224365234376,1713570312199.0
2.7789999999999964,-7.384542846679688,0.44442138671875,6.323883056640626,1713570312209.0
2.7889999999999873,-7.880105590820313,0.218023681640625,6.1596923828125005,1713570312219.0
2.798999999999978,-6.3439208984375,-0.13218994140625,6.701910400390625,1713570312229.0
2.808999999999969,-6.111691284179688,-0.2435943603515625,7.065582275390626,1713570312239.0
2.81899999999996,-6.3182006835937505,-0.2044158935546875,8.848052978515625,1713570312249.0
2.828999999999951,-6.318948364257813,0.1975372314453125,7.303793334960938,1713570312259.0
2.838999999999942,-6.9552246093750005,0.0638519287109375,7.040011596679688,1713570312269.0
2.8489999999999327,-6.588262939453125,-0.026019287109375,6.0325866699218755,1713570312279.0
2.86099999999999,-6.4288574218750005,-0.206658935546875,6.81705322265625,1713570312291.0
2.8700000000000045,-7.049133300781251,-0.087030029296875,7.0673767089843755,1713570312300.0
2.8799999999999955,-7.503424072265625,0.71298828125,6.669161987304688,1713570312310.0
2.8899999999999864,-7.341625976562501,0.9637603759765626,6.2284790039062505,1713570312320.0
2.8999999999999844,-6.9686828613281255,0.4637115478515625,6.993356323242188,1713570312330.0
2.909999999999968,-5.772991943359376,-0.4690948486328125,7.835095214843751,1713570312340.0
2.919999999999959,-6.075204467773438,-0.7663726806640626,8.083026123046876,1713570312350.0
2.92999999999995,-6.075653076171875,-0.5905181884765626,7.687353515625,1713570312360.0
2.939999999999941,-7.1077514648437505,-0.14893798828125,6.203805541992188,1713570312370.0
2.949999999999932,-7.659390258789063,0.0753662109375,6.927410888671876,1713570312380.0
2.9610000000000127,-6.846661376953126,-0.32359619140625,6.23326416015625,1713570312391.0
2.9699999999999136,-6.417642211914063,-0.4134674072265625,7.112686157226563,1713570312400.0
2.9799999999998974,-6.483737182617188,0.372344970703125,6.877764892578125,1713570312410.0
2.990000000000009,-6.983935546875,1.1904571533203123,7.874722290039063,1713570312420.0
3.0,-6.545944213867188,0.94088134765625,6.946701049804688,1713570312430.0
3.009999999999991,-6.3570800781250005,0.094207763671875,6.814511108398438,1713570312440.0
3.019999999999982,-6.836642456054688,-0.07716064453125,7.158892822265625,1713570312450.0
3.030999999999949,-6.905578613281251,0.0713287353515625,6.897952270507813,1713570312461.0
3.04099999999994,-7.053021240234376,-0.239556884765625,7.000534057617188,1713570312471.0
3.050999999999931,-6.505419921875,-0.8228973388671875,6.302798461914063,1713570312481.0
3.060999999999922,-6.521719360351563,-0.874188232421875,7.242782592773438,1713570312491.0
3.0709999999999127,-6.475662231445313,-0.2896514892578125,8.074502563476564,1713570312501.0
3.08100000000001,-6.54788818359375,0.0662445068359375,7.528994750976563,1713570312511.0
3.091000000000008,-6.269451904296876,0.0991424560546875,6.698770141601563,1713570312521.0
3.100999999999999,-6.653759765625001,0.400457763671875,6.490615844726563,1713570312531.0
3.11099999999999,-7.546041870117188,0.9598724365234376,7.41759033203125,1713570312541.0
3.120999999999981,-7.617370605468751,1.05692138671875,6.307882690429688,1713570312551.0
3.130999999999972,-6.644638061523438,0.711492919921875,5.392123413085938,1713570312561.0
3.141999999999939,-6.798809814453126,0.36546630859375,6.314761352539063,1713570312572.0
3.1509999999999536,-6.954776000976563,0.3237457275390625,7.792776489257813,1713570312581.0
3.1609999999999516,-6.612936401367188,-0.09989013671875,8.281759643554688,1713570312591.0
3.171999999999912,-5.52386474609375,-0.8471221923828126,7.120162963867188,1713570312602.0
3.1820000000000164,-5.689849853515625,-1.18731689453125,7.006665039062501,1713570312612.0
3.1920000000000073,-6.989468383789063,-0.875982666015625,7.5010314941406255,1713570312622.0
3.201999999999998,-7.952331542968751,-0.0423187255859375,7.0240112304687505,1713570312632.0
3.211999999999989,-7.214370727539063,0.8432342529296876,5.599978637695313,1713570312642.0
3.22199999999998,-7.460357666015626,1.0546783447265626,5.70390625,1713570312652.0
3.231999999999971,-6.75723876953125,0.5710784912109376,7.5249572753906255,1713570312662.0
3.241999999999962,-5.352346801757813,0.244342041015625,8.227178955078125,1713570312672.0
3.2519999999999527,-5.723645019531251,0.070281982421875,8.689843750000001,1713570312682.0
3.2619999999999436,-6.323284912109376,-0.2432952880859375,7.1191162109375,1713570312692.0
3.2719999999999345,-7.429403686523438,-0.548199462890625,6.610543823242188,1713570312702.0
3.2819999999999254,-7.972967529296875,-0.9674987792968752,6.299658203125,1713570312712.0
3.2919999999999163,-7.085470581054688,-1.0319488525390623,5.358328247070313,1713570312722.0
3.3019999999999072,-6.278424072265626,-0.35589599609375,6.661834716796876,1713570312732.0
3.312000000000012,-6.514242553710938,0.659454345703125,8.159738159179689,1713570312742.0
3.322999999999979,-6.169860839843751,1.1686248779296875,9.003421020507814,1713570312753.0
3.33299999999997,-5.925518798828126,0.81766357421875,7.311419677734375,1713570312763.0
3.342999999999961,-6.568374633789063,0.4777679443359375,6.34990234375,1713570312773.0
3.352999999999952,-7.436282348632813,0.129498291015625,6.660040283203125,1713570312783.0
3.3629999999999427,-7.073208618164063,-0.42647705078125,6.466839599609376,1713570312793.0
3.3729999999999336,-7.009954833984375,-1.023724365234375,6.8834472656250005,1713570312803.0
3.3829999999999245,-6.887783813476563,-0.8764312744140625,6.496597290039063,1713570312813.0
3.3929999999999154,-6.228927612304688,-0.058319091796875,7.266409301757813,1713570312823.0
3.4029999999999063,-6.679031372070313,0.6000885009765625,7.394113159179688,1713570312833.0
3.413000000000011,-6.4438110351562505,0.6622955322265626,8.012445068359376,1713570312843.0
3.423000000000002,-5.8127685546875005,0.5214324951171876,6.852194213867188,1713570312853.0
3.4329999999999927,-7.280316162109376,0.53055419921875,6.870736694335938,1713570312863.0
3.4429999999999836,-7.527798461914063,0.6603515625,6.5114013671875,1713570312873.0
3.4529999999999745,-7.496246337890626,0.1891632080078125,5.557659912109376,1713570312883.0
3.463999999999942,-6.711181640625001,-0.5881256103515625,6.773388671875001,1713570312894.0
3.4739999999999327,-6.072064208984376,-0.55447998046875,6.844866943359375,1713570312904.0
3.4839999999999236,-6.752005004882813,-0.3509613037109375,9.001626586914064,1713570312914.0
3.4939999999999145,-6.0879150390625005,0.1519287109375,7.2243896484375005,1713570312924.0
3.5039999999999054,-6.431698608398438,0.1269561767578125,6.993954467773438,1713570312934.0
3.51400000000001,-6.647030639648438,-0.1676300048828125,6.800604248046875,1713570312944.0
3.524000000000001,-6.060400390625,0.0765625,6.92113037109375,1713570312954.0
3.533999999999992,-7.757785034179688,0.3306243896484375,6.827072143554688,1713570312964.0
3.5439999999999827,-7.591500854492188,0.9989013671875,5.9836883544921875,1713570312974.0
3.5539999999999736,-7.882946777343751,0.7259979248046875,5.807086181640625,1713570312984.0
3.5639999999999645,-6.512149047851563,0.067889404296875,7.269100952148438,1713570312994.0
3.573999999999955,-5.4393768310546875,-0.5088714599609375,8.09827880859375,1713570313004.0
3.5849999999999227,-5.963949584960938,-0.8942260742187501,8.788088989257814,1713570313015.0
3.59399999999993,-5.8989013671875,-0.5588165283203126,7.443310546875001,1713570313024.0
3.6049999999998974,-7.699914550781251,-0.0494964599609375,6.353341674804688,1713570313035.0
3.615000000000009,-7.458264160156251,0.0629547119140625,6.6083007812500005,1713570313045.0
3.625,-6.679779052734376,-0.4170562744140625,5.6716064453125,1713570313055.0
3.634999999999991,-6.653311157226563,-0.3361572265625,7.335794067382813,1713570313065.0
3.644999999999982,-7.103115844726563,0.8836090087890626,6.933392333984376,1713570313075.0
3.6549999999999727,-6.5209716796875,1.5412689208984376,7.817150878906251,1713570313085.0
3.664999999999963,-6.178533935546875,0.7300354003906251,6.789837646484376,1713570313095.0
3.6749999999999545,-6.186160278320313,-0.2223602294921875,7.290933227539063,1713570313105.0
3.6849999999999454,-7.096685791015625,-0.286810302734375,7.860516357421876,1713570313115.0
3.694999999999936,-6.947448730468751,-0.0515899658203125,6.530990600585938,1713570313125.0
3.7049999999999272,-7.11851806640625,-0.5133575439453125,5.975015258789063,1713570313135.0
3.714999999999918,-6.533831787109375,-0.9864898681640626,6.308929443359376,1713570313145.0
3.724999999999909,-6.477606201171875,-0.7289886474609375,8.003024291992189,1713570313155.0
3.7350000000000136,-6.624450683593751,0.1018341064453125,8.490960693359376,1713570313165.0
3.745999999999981,-6.1985717773437505,0.4843475341796875,6.813314819335938,1713570313176.0
3.755999999999972,-6.356182861328126,0.4673004150390625,6.314462280273438,1713570313186.0
3.7659999999999623,-7.13406982421875,0.5692840576171876,7.066329956054688,1713570313196.0
3.7759999999999536,-7.562042236328126,0.8040557861328126,7.229473876953126,1713570313206.0
3.785999999999952,-7.3248779296875,0.5673400878906251,6.294125366210938,1713570313216.0
3.795999999999935,-6.325527954101563,0.3186614990234375,5.006619262695313,1713570313226.0
3.8059999999999263,-7.147378540039063,0.0765625,7.092648315429688,1713570313236.0
3.815999999999917,-6.729275512695313,0.0100189208984375,8.395855712890626,1713570313246.0
3.825999999999908,-6.255993652343751,-0.3336151123046875,7.888180541992188,1713570313256.0
3.8360000000000127,-5.7589355468750005,-0.8504119873046876,7.111489868164063,1713570313266.0
3.846000000000003,-5.802151489257813,-0.7382598876953126,6.908718872070313,1713570313276.0
3.8559999999999945,-7.247268676757813,-0.400457763671875,7.386038208007813,1713570313286.0
3.8659999999999854,-7.933489990234375,0.3506622314453125,6.515139770507813,1713570313296.0
3.875999999999976,-7.147079467773438,1.1734100341796876,5.2828125,1713570313306.0
3.8859999999999673,-7.645782470703126,1.2407012939453126,6.269302368164063,1713570313316.0
3.8969999999999345,-6.666320800781251,0.557769775390625,7.716513061523438,1713570313327.0
3.9069999999999254,-5.28580322265625,-0.232977294921875,8.345013427734376,1713570313337.0
3.916999999999916,-5.5470428466796875,-0.6615478515625001,8.407968139648439,1713570313347.0
3.9269999999999072,-6.335546875,-0.6093597412109375,6.939523315429688,1713570313357.0
3.937000000000012,-7.801150512695313,-0.5090209960937501,7.055712890625,1713570313367.0
3.9470000000000023,-7.828216552734376,-0.6892120361328126,6.082681274414063,1713570313377.0
3.9569999999999936,-6.980346679687501,-0.862225341796875,5.396908569335938,1713570313387.0
3.9669999999999774,-6.18900146484375,0.0779083251953125,6.521719360351563,1713570313397.0
3.976999999999975,-6.734658813476563,1.2182708740234376,8.261572265625,1713570313407.0
3.9869999999999663,-6.225936889648438,1.4952117919921877,8.96558837890625,1713570313417.0
3.9969999999999577,-5.8476104736328125,0.6916046142578125,7.10057373046875,1713570313427.0
4.006999999999948,-6.550579833984376,-0.1048248291015625,6.5748046875,1713570313437.0
4.016999999999939,-7.344168090820313,-0.3600830078125,6.663479614257813,1713570313447.0
4.02699999999993,-7.074404907226563,-0.8496643066406251,6.645086669921875,1713570313457.0
4.036999999999921,-7.187603759765626,-1.208551025390625,6.666769409179688,1713570313467.0
4.048000000000002,-6.714620971679688,-0.8312713623046876,6.452633666992188,1713570313478.0
4.060999999999922,-6.429156494140625,0.3141754150390625,7.087265014648438,1713570313491.0
4.067999999999984,-6.513644409179688,1.1354278564453126,7.939022827148438,1713570313498.0
4.0779999999999745,-6.417492675781251,1.1470916748046875,7.626492309570313,1713570313508.0
4.087999999999965,-6.004922485351563,0.7841674804687501,7.055264282226563,1713570313518.0
4.097999999999956,-7.025057983398438,0.5235260009765625,6.501831054687501,1713570313528.0
4.107999999999947,-7.910610961914063,0.3183624267578125,6.5748046875,1713570313538.0
4.117999999999938,-7.411160278320313,-0.3192596435546875,5.728131103515626,1713570313548.0
4.127999999999929,-6.576000976562501,-0.9849945068359376,6.359921264648438,1713570313558.0
4.13799999999992,-6.1821228027343755,-0.9879852294921876,7.681072998046876,1713570313568.0
4.147999999999911,-6.186758422851563,-0.393280029296875,8.597430419921876,1713570313578.0
4.1609999999999445,-6.333303833007813,0.143255615234375,8.048782348632812,1713570313591.0
4.168999999999983,-6.193038940429688,0.4134674072265625,6.6995178222656255,1713570313599.0
4.178999999999974,-6.863558959960938,0.3261383056640625,6.4468017578125005,1713570313609.0
4.1889999999999645,-6.309378051757813,0.4278228759765625,6.873577880859376,1713570313619.0
4.198999999999955,-7.729373168945313,0.6826324462890625,6.402838134765625,1713570313629.0
4.208999999999946,-8.114428710937501,0.7843170166015626,6.317752075195313,1713570313639.0
4.218999999999937,-7.645782470703126,0.5476013183593751,5.421881103515625,1713570313649.0
4.228999999999928,-6.0135955810546875,-0.1326385498046875,7.322036743164063,1713570313659.0
4.238999999999919,-5.463003540039063,-0.8943756103515625,8.605355834960939,1713570313669.0
4.24899999999991,-5.68057861328125,-1.1900085449218751,9.432290649414064,1713570313679.0
4.259999999999991,-6.211880493164063,-0.6655853271484375,7.243231201171875,1713570313690.0
4.2690000000000055,-7.800701904296876,0.2426971435546875,5.788095092773438,1713570313699.0
4.278999999999996,-7.552023315429688,0.3416900634765625,5.819049072265625,1713570313709.0
4.288999999999987,-6.685760498046876,-0.229388427734375,6.3346496582031255,1713570313719.0
4.298999999999978,-6.5469909667968755,-0.074169921875,7.598678588867188,1713570313729.0
4.308999999999969,-7.398150634765625,1.064996337890625,7.049581909179688,1713570313739.0
4.319999999999936,-6.061895751953125,1.8049011230468752,7.129434204101563,1713570313750.0
4.329999999999927,-6.401791381835938,0.5523864746093751,6.635516357421875,1713570313760.0
4.339999999999918,-6.310873413085938,-0.655865478515625,8.208038330078125,1713570313770.0
4.349999999999909,-6.851147460937501,-0.6787445068359376,7.512246704101563,1713570313780.0
4.36099999999999,-7.317401123046875,-0.2775390625,6.480596923828125,1713570313791.0
4.3700000000000045,-6.658694458007813,-0.34931640625,5.50950927734375,1713570313800.0
4.3799999999999955,-6.916195678710938,-1.006378173828125,6.335098266601563,1713570313810.0
4.389999999999986,-6.418539428710938,-0.5682373046875,8.674441528320314,1713570313820.0
4.399999999999977,-6.373678588867188,0.3768310546875,8.272189331054689,1713570313830.0
4.409999999999968,-6.03826904296875,0.6826324462890625,7.10416259765625,1713570313840.0
4.419999999999959,-5.96051025390625,0.478814697265625,6.020474243164063,1713570313850.0
4.42999999999995,-7.505218505859376,0.2189208984375,7.401589965820313,1713570313860.0
4.439999999999941,-7.93199462890625,0.6021820068359376,7.16636962890625,1713570313870.0
4.449999999999932,-7.490713500976563,0.6512298583984375,5.161538696289063,1713570313880.0
4.461000000000013,-6.3660522460937505,0.270361328125,5.20445556640625,1713570313891.0
4.471000000000004,-6.537869262695313,-0.0279632568359375,7.1660705566406255,1713570313901.0
4.4809999999999945,-6.959411621093751,-0.025421142578125,9.384588623046875,1713570313911.0
4.4909999999999854,-5.992959594726563,0.020635986328125,8.199365234375001,1713570313921.0
4.500999999999976,-5.489920043945313,-0.37802734375,6.154458618164063,1713570313931.0
4.510999999999967,-6.003726196289063,-0.7587463378906251,6.728976440429688,1713570313941.0
4.520999999999958,-8.076446533203125,-0.4487579345703125,7.108798217773438,1713570313951.0
4.530999999999949,-8.144036865234376,0.340643310546875,7.176986694335938,1713570313961.0
4.54099999999994,-6.977804565429688,1.1578582763671876,4.6902008056640625,1713570313971.0
4.550999999999931,-7.090106201171875,0.6602020263671875,6.2927795410156255,1713570313981.0
4.560999999999922,-5.877218627929688,-0.094805908203125,8.551522827148439,1713570313991.0
4.570999999999913,-5.4969482421875,-0.231781005859375,8.965139770507813,1713570314001.0
4.581000000000017,-5.905331420898438,-0.1697235107421875,8.47989501953125,1713570314011.0
4.591000000000008,-6.480447387695313,-0.138470458984375,5.6647277832031255,1713570314021.0
4.600999999999999,-8.236151123046875,-0.5583679199218751,6.5114013671875,1713570314031.0
4.612999999999943,-7.951583862304688,-0.7612884521484375,6.065185546875,1713570314043.0
4.621999999999957,-6.653610229492188,-0.5142547607421876,5.879611206054688,1713570314052.0
4.631999999999948,-6.021820068359375,0.33197021484375,6.934140014648438,1713570314062.0
4.641999999999939,-6.214422607421875,1.0279113769531252,8.654254150390626,1713570314072.0
4.65199999999993,-6.338687133789063,0.837103271484375,9.058151245117188,1713570314082.0
4.661999999999921,-6.088662719726563,0.304754638671875,6.968234252929688,1713570314092.0
4.671999999999912,-7.002029418945313,-0.0139068603515625,5.691195678710938,1713570314102.0
4.682000000000016,-7.455871582031251,-0.210247802734375,6.200216674804688,1713570314112.0
4.692000000000007,-7.16995849609375,-0.6902587890625,6.721499633789063,1713570314122.0
4.701999999999998,-6.972271728515626,-0.8843566894531251,7.231716918945313,1713570314132.0
4.711999999999989,-6.335546875,-0.3031097412109375,7.099078369140625,1713570314142.0
4.72199999999998,-5.90428466796875,0.46475830078125,7.100125122070313,1713570314152.0
4.731999999999971,-6.620114135742188,0.7756439208984376,8.202655029296876,1713570314162.0
4.741999999999962,-6.522766113281251,0.51260986328125,7.520321655273438,1713570314172.0
4.751999999999953,-6.309078979492188,0.2770904541015625,6.721649169921876,1713570314182.0
4.76299999999992,-7.393066406250001,0.251519775390625,6.021820068359375,1713570314193.0
4.772999999999911,-7.768402099609376,0.3707000732421875,5.908172607421875,1713570314203.0
4.7830000000000155,-7.871731567382813,0.02572021484375,5.9732208251953125,1713570314213.0
4.793000000000006,-6.113037109375,-0.17406005859375,6.996347045898438,1713570314223.0
4.802999999999997,-5.9608093261718755,-0.23626708984375,7.68974609375,1713570314233.0
4.812999999999988,-5.949893188476563,-0.206060791015625,8.986672973632814,1713570314243.0
4.822999999999979,-6.323583984375,0.1051239013671875,7.474264526367188,1713570314253.0
4.83299999999997,-6.853689575195313,0.00538330078125,6.9576171875,1713570314263.0
4.842999999999961,-7.0090576171875005,-0.1344329833984375,5.837292480468751,1713570314273.0
4.852999999999952,-6.567327880859375,-0.284417724609375,6.551028442382813,1713570314283.0
4.862999999999943,-6.975860595703126,-0.055926513671875,6.691293334960938,1713570314293.0
4.872999999999934,-7.570266723632813,0.8761322021484376,6.781015014648438,1713570314303.0
4.8829999999999245,-7.265213012695313,1.284814453125,6.552374267578125,1713570314313.0
4.892999999999915,-7.045095825195313,0.69923095703125,6.972421264648438,1713570314323.0
4.902999999999906,-5.609997558593751,-0.4074859619140625,7.878311157226563,1713570314333.0
4.913000000000011,-5.974118041992188,-0.8614776611328125,7.862759399414063,1713570314343.0
4.923999999999978,-6.327770996093751,-0.8390472412109375,7.982089233398438,1713570314354.0
4.933999999999969,-7.141546630859375,-0.3632232666015625,5.942117309570313,1713570314364.0
4.94399999999996,-7.578790283203125,-0.085235595703125,6.834698486328126,1713570314374.0
4.953999999999951,-6.838287353515626,-0.3733917236328125,6.264218139648438,1713570314384.0
4.963999999999942,-6.243731689453125,-0.334063720703125,7.368692016601563,1713570314394.0
4.976999999999975,-6.683517456054688,0.512908935546875,7.078292846679688,1713570314407.0
4.983999999999924,-6.88883056640625,1.3944244384765625,7.59703369140625,1713570314414.0
4.9939999999999145,-6.484634399414063,1.1255584716796876,6.7339111328125005,1713570314424.0
5.003999999999905,-6.528149414062501,0.09271240234375,6.9133544921875005,1713570314434.0
5.01400000000001,-6.820343017578126,-0.22310791015625,7.319793701171876,1713570314444.0
5.024000000000001,-6.911709594726563,-0.1075164794921875,6.833203125000001,1713570314454.0
5.033999999999992,-7.027301025390625,-0.2917449951171875,6.728527832031251,1713570314464.0
5.044999999999959,-6.677536010742188,-0.7748962402343751,6.181225585937501,1713570314475.0
5.05499999999995,-6.504672241210938,-0.8942260742187501,7.500283813476563,1713570314485.0
5.064999999999941,-6.331808471679688,-0.1987335205078125,8.062689208984375,1713570314495.0
5.076999999999998,-6.519177246093751,0.1706207275390625,7.783953857421875,1713570314507.0
5.084999999999923,-6.107504272460938,0.18961181640625,6.674993896484375,1713570314515.0
5.094999999999914,-6.646731567382813,0.3120819091796875,6.487774658203126,1713570314525.0
5.1049999999999045,-7.88175048828125,0.7970275878906251,7.169659423828126,1713570314535.0
5.115000000000009,-7.525405883789063,1.01026611328125,6.266162109375,1713570314545.0
5.125,-6.697723388671876,0.61549072265625,5.367898559570313,1713570314555.0
5.134999999999991,-6.667367553710938,0.2259490966796875,6.447698974609375,1713570314565.0
5.144999999999982,-6.734658813476563,0.2666229248046875,8.066876220703126,1713570314575.0
5.154999999999973,-6.731817626953125,0.045458984375,8.461502075195312,1713570314585.0
5.164999999999964,-5.528350830078125,-0.5815460205078126,7.009954833984375,1713570314595.0
5.176999999999907,-5.766561889648438,-1.066192626953125,6.744079589843751,1713570314607.0
5.184999999999945,-7.274334716796876,-0.84757080078125,7.408020019531251,1713570314615.0
5.194999999999936,-7.665222167968751,0.06400146484375,7.147976684570313,1713570314625.0
5.206000000000017,-7.377514648437501,0.733624267578125,5.670260620117188,1713570314636.0
5.216000000000008,-7.291082763671875,0.7739990234375,5.786898803710938,1713570314646.0
5.225999999999999,-6.374725341796876,0.448907470703125,7.425964355468751,1713570314656.0
5.23599999999999,-5.6801300048828125,0.356793212890625,8.486923217773438,1713570314666.0
5.245999999999981,-5.92581787109375,0.148040771484375,8.655300903320313,1713570314676.0
5.255999999999972,-6.337191772460938,-0.1766021728515625,6.700265502929688,1713570314686.0
5.265999999999963,-7.434786987304688,-0.44083251953125,6.593197631835938,1713570314696.0
5.27699999999993,-7.841973876953125,-0.8242431640625001,6.2210021972656255,1713570314707.0
5.2859999999999445,-7.094143676757813,-0.983648681640625,5.8558349609375,1713570314716.0
5.295999999999935,-6.289340209960938,-0.310137939453125,6.527102661132813,1713570314726.0
5.305999999999926,-6.447100830078125,0.6032287597656251,8.239889526367188,1713570314736.0
5.315999999999917,-6.118869018554688,0.9661529541015624,8.67010498046875,1713570314746.0
5.325999999999908,-6.11124267578125,0.6282012939453125,7.405776977539063,1713570314756.0
5.336000000000013,-6.7488647460937505,0.3599334716796875,6.4994384765625,1713570314766.0
5.34699999999998,-7.245773315429688,0.1807891845703125,6.212777709960938,1713570314777.0
5.356999999999971,-7.268203735351563,-0.2980255126953125,6.463848876953126,1713570314787.0
5.366999999999962,-6.985879516601563,-0.744390869140625,6.729574584960938,1713570314797.0
5.376999999999953,-6.9058776855468755,-0.610107421875,6.910513305664063,1713570314807.0
5.386999999999944,-6.131729125976563,0.0456085205078125,7.286447143554688,1713570314817.0
5.3969999999999345,-6.314312744140626,0.4523468017578125,7.595986938476563,1713570314827.0
5.406999999999925,-6.4276611328125,0.3887939453125,7.989715576171876,1713570314837.0
5.416999999999916,-6.236105346679688,0.25780029296875,7.141098022460938,1713570314847.0
5.426999999999907,-7.034927368164063,0.2878570556640625,6.486279296875001,1713570314857.0
5.437000000000012,-7.763467407226563,0.4245330810546875,6.0744567871093755,1713570314867.0
5.447000000000003,-7.438973999023438,0.2253509521484375,5.758636474609375,1713570314877.0
5.456999999999994,-6.743182373046875,-0.2667724609375,7.001431274414063,1713570314887.0
5.4669999999999845,-5.9941558837890625,-0.2717071533203125,7.204351806640625,1713570314897.0
5.477999999999952,-6.409118652343751,-0.114544677734375,8.539559936523439,1713570314908.0
5.487999999999943,-6.288143920898438,0.25301513671875,7.458862304687501,1713570314918.0
5.497999999999934,-6.639105224609375,0.1897613525390625,6.851895141601563,1713570314928.0
5.5079999999999245,-6.904531860351563,-0.2214630126953125,6.593795776367188,1713570314938.0
5.517999999999915,-6.383697509765626,-0.239556884765625,6.726583862304688,1713570314948.0
5.527999999999906,-6.808529663085938,0.0058319091796875,6.690246582031251,1713570314958.0
5.538000000000011,-7.512844848632813,0.6352294921875,6.681723022460938,1713570314968.0
5.5499999999999545,-7.4516845703125005,0.7315307617187501,6.624002075195313,1713570314980.0
5.557999999999993,-7.257736206054688,0.314923095703125,6.934140014648438,1713570314988.0
5.567999999999984,-5.526705932617188,-0.1760040283203125,7.277175903320313,1713570314998.0
5.5779999999999745,-6.169262695312501,-0.5344421386718751,7.710232543945313,1713570315008.0
5.587999999999965,-6.0789428710937505,-0.5304046630859376,8.352938842773439,1713570315018.0
5.598999999999933,-7.375421142578125,-0.037384033203125,6.318051147460938,1713570315029.0
5.607999999999947,-7.270446777343751,0.1613494873046875,7.034030151367188,1713570315038.0
5.617999999999938,-6.55087890625,-0.26318359375,5.717813110351563,1713570315048.0
5.628999999999905,-6.638058471679688,-0.6881652832031251,7.487872314453125,1713570315059.0
5.63900000000001,-6.829763793945313,0.1326385498046875,7.2722412109375005,1713570315069.0
5.649000000000001,-7.017581176757813,1.0727722167968752,7.310223388671876,1713570315079.0
5.658999999999992,-6.344219970703126,0.8854034423828125,6.439025878906251,1713570315089.0
5.668999999999983,-6.209487915039063,0.147442626953125,6.881802368164063,1713570315099.0
5.678999999999974,-6.979449462890625,-0.0058319091796875,8.167514038085939,1713570315109.0
5.6889999999999645,-6.801351928710938,0.2899505615234375,7.087414550781251,1713570315119.0
5.698999999999955,-6.998291015625001,0.03349609375,6.00537109375,1713570315129.0
5.708999999999946,-6.6636291503906255,-0.5283111572265625,6.110195922851563,1713570315139.0
5.718999999999937,-6.7174621582031255,-0.89542236328125,7.366448974609376,1713570315149.0
5.728999999999928,-6.664675903320313,-0.4780670166015625,8.456866455078126,1713570315159.0
5.738999999999919,-6.263021850585938,-0.1739105224609375,7.2985595703125,1713570315169.0
5.74899999999991,-5.974865722656251,-0.0518890380859375,6.540112304687501,1713570315179.0
5.7590000000000146,-6.790585327148438,0.24224853515625,7.0975830078125,1713570315189.0
5.7690000000000055,-7.536621093750001,0.7442413330078126,7.397103881835938,1713570315199.0
5.779999999999973,-7.621109008789063,0.9244323730468752,6.561645507812501,1713570315210.0
5.789999999999964,-6.095242309570313,0.8551971435546876,5.13028564453125,1713570315220.0
5.7999999999999545,-7.0736572265625,0.444720458984375,6.349005126953125,1713570315230.0
5.809999999999945,-7.1095458984375,0.327783203125,8.223440551757813,1713570315240.0
5.819999999999936,-6.753948974609376,0.1087127685546875,7.606155395507813,1713570315250.0
5.829999999999927,-5.927163696289063,-0.6298461914062501,6.9357849121093755,1713570315260.0
5.839999999999918,-5.484387207031251,-1.0038360595703126,6.822286987304688,1713570315270.0
5.849999999999909,-6.761126708984375,-1.044659423828125,7.913601684570313,1713570315280.0
5.860000000000014,-7.837786865234375,-0.32120361328125,7.618267822265626,1713570315290.0
5.8700000000000045,-6.862362670898438,0.7961303710937501,5.5226684570312505,1713570315300.0
5.8799999999999955,-7.634866333007813,1.044659423828125,5.643643188476563,1713570315310.0
5.889999999999986,-7.209286499023438,0.5508911132812501,7.034179687500001,1713570315320.0
5.900999999999954,-5.496649169921875,0.2492767333984375,7.865151977539063,1713570315331.0
5.909999999999968,-5.822338867187501,0.2213134765625,8.675039672851563,1713570315340.0
5.920999999999935,-6.114083862304688,0.086431884765625,7.410861206054688,1713570315351.0
5.930999999999926,-7.169659423828126,-0.4882354736328125,7.015936279296875,1713570315361.0
5.940999999999917,-7.640100097656251,-0.9921722412109376,6.53831787109375,1713570315371.0
5.950999999999908,-7.286148071289063,-1.191204833984375,5.368496704101563,1713570315381.0
5.961000000000013,-6.495550537109375,-0.399560546875,6.383847045898438,1713570315391.0
5.971000000000004,-6.697573852539063,0.47432861328125,7.64189453125,1713570315401.0
5.9809999999999945,-6.306536865234375,0.92413330078125,8.883642578125,1713570315411.0
5.9909999999999854,-5.851348876953125,0.80570068359375,7.55516357421875,1713570315421.0
6.000999999999976,-6.381304931640625,0.578704833984375,6.730322265625,1713570315431.0
6.010999999999967,-7.3245788574218755,0.366961669921875,6.789089965820313,1713570315441.0
6.020999999999958,-6.98453369140625,-0.2878570556640625,6.246871948242188,1713570315451.0
6.030999999999949,-7.188351440429688,-0.9112731933593752,6.653311157226563,1713570315461.0
6.04099999999994,-7.033581542968751,-0.7594940185546876,6.593795776367188,1713570315471.0
6.050999999999931,-6.528747558593751,-0.08553466796875,7.118817138671876,1713570315481.0
6.060999999999922,-6.299807739257813,0.4125701904296875,7.261474609375001,1713570315491.0
6.072000000000003,-6.511849975585938,0.4945159912109375,7.875021362304688,1713570315502.0
6.081999999999994,-6.0195770263671875,0.494366455078125,7.535873413085938,1713570315512.0
6.0919999999999845,-6.767706298828125,0.518292236328125,6.828717041015626,1713570315522.0
6.101999999999975,-7.462451171875,0.4478607177734375,6.568972778320313,1713570315532.0
6.111999999999966,-7.399047851562501,0.05802001953125,5.651867675781251,1713570315542.0
6.121999999999957,-7.028945922851563,-0.4673004150390625,6.792529296875,1713570315552.0
6.131999999999948,-6.338088989257813,-0.4203460693359375,6.8475585937500005,1713570315562.0
6.141999999999939,-6.371286010742188,-0.31163330078125,8.3034423828125,1713570315572.0
6.15199999999993,-6.219207763671876,-0.01016845703125,7.530789184570313,1713570315582.0
6.161999999999921,-6.531738281250001,0.2954833984375,7.119863891601563,1713570315592.0
6.171999999999912,-6.773538208007813,0.2163787841796875,6.698770141601563,1713570315602.0
6.182000000000016,-5.864657592773438,0.2624359130859375,6.756192016601563,1713570315612.0
6.192000000000007,-7.735504150390626,0.3437835693359375,6.893615722656251,1713570315622.0
6.201999999999998,-7.717559814453126,0.5941070556640625,6.656750488281251,1713570315632.0
6.212999999999965,-7.805187988281251,0.39178466796875,5.89232177734375,1713570315643.0
6.222999999999956,-6.153411865234376,-0.2083038330078125,6.890325927734375,1713570315653.0
6.232999999999947,-5.695831298828125,-0.7663726806640626,7.520321655273438,1713570315663.0
6.242999999999938,-5.997894287109375,-0.8818145751953126,9.29920349121094,1713570315673.0
6.252999999999929,-6.349154663085938,-0.1801910400390625,7.352990722656251,1713570315683.0
6.26299999999992,-7.289736938476563,0.5172454833984376,6.670657348632813,1713570315693.0
6.272999999999911,-7.156051635742188,0.210247802734375,5.867648315429688,1713570315703.0
6.2830000000000155,-6.555664062500001,-0.4323089599609375,6.393566894531251,1713570315713.0
6.293000000000006,-7.165771484375001,-0.2009765625,7.352093505859376,1713570315723.0
6.302999999999997,-7.246670532226563,0.9398345947265626,6.9157470703125,1713570315733.0
6.312999999999988,-6.33255615234375,1.272402954101563,6.660040283203125,1713570315743.0
6.322999999999979,-6.053671264648438,0.2277435302734375,6.999786376953126,1713570315753.0
6.33299999999997,-6.462203979492188,-0.4451690673828125,8.446249389648438,1713570315763.0
6.342999999999961,-6.764266967773438,-0.1984344482421875,7.848553466796876,1713570315773.0
6.353999999999928,-6.982739257812501,0.033795166015625,6.135317993164063,1713570315784.0
6.363999999999919,-6.768603515625,-0.3348114013671875,5.471975708007813,1713570315794.0
6.37399999999991,-7.063787841796875,-0.8643188476562501,6.839782714843751,1713570315804.0
6.3840000000000146,-6.65794677734375,-0.4197479248046875,8.226730346679688,1713570315814.0
6.3940000000000055,-6.553570556640626,0.2118927001953125,7.815505981445313,1713570315824.0
6.403999999999996,-5.7982635498046875,0.352008056640625,6.749612426757813,1713570315834.0
6.413999999999987,-6.189450073242188,0.2127899169921875,6.482391357421876,1713570315844.0
6.423999999999978,-7.534378051757813,0.316119384765625,7.776327514648438,1713570315854.0
6.433999999999969,-7.707540893554688,0.7375122070312501,7.02939453125,1713570315864.0
6.44399999999996,-7.111489868164063,0.654669189453125,5.045947265625,1713570315874.0
6.453999999999951,-6.246871948242188,0.2438934326171875,5.5782958984375,1713570315884.0
6.463999999999942,-6.8909240722656255,-0.0058319091796875,7.633370971679688,1713570315894.0
6.476999999999975,-7.192239379882813,0.0964508056640625,8.978448486328126,1713570315907.0
6.485000000000014,-5.907574462890626,0.07596435546875,7.148275756835938,1713570315915.0
6.4950000000000045,-5.816656494140625,-0.5169464111328126,6.280667114257813,1713570315925.0
6.5049999999999955,-6.155654907226563,-0.8390472412109375,7.370486450195313,1713570315935.0
6.514999999999986,-7.382449340820313,-0.4693939208984375,7.329663085937501,1713570315945.0
6.524999999999977,-8.08033447265625,0.2301361083984375,6.944607543945313,1713570315955.0
6.534999999999968,-6.453829956054688,1.2314300537109375,4.660443115234376,1713570315965.0
6.544999999999959,-7.274334716796876,1.0489959716796875,6.750808715820313,1713570315975.0
6.55499999999995,-7.308428955078125,0.094805908203125,8.655300903320313,1713570315985.0
6.564999999999941,-4.996600341796875,-0.29847412109375,7.764364624023438,1713570315995.0
6.576999999999998,-5.602520751953126,-0.372344970703125,7.619613647460938,1713570316007.0
6.584999999999923,-6.609048461914063,-0.3349609375,7.093246459960938,1713570316015.0
6.594999999999914,-7.915994262695313,-0.7378112792968751,7.186557006835938,1713570316025.0
6.6049999999999045,-7.692138671875001,-0.8052520751953126,6.4886718750000005,1713570316035.0
6.615000000000009,-6.701162719726563,-0.43485107421875,4.874578857421875,1713570316045.0
6.625,-6.175543212890625,0.30684814453125,6.867745971679688,1713570316055.0
6.634999999999991,-6.6995178222656255,0.998602294921875,8.480493164062501,1713570316065.0
6.645999999999958,-6.534280395507813,1.0292572021484376,9.026599121093753,1713570316076.0
6.655999999999949,-5.717962646484375,0.6539215087890625,6.712677001953126,1713570316086.0
6.66599999999994,-6.635516357421875,0.1368255615234375,5.770001220703126,1713570316096.0
6.676999999999907,-7.750906372070313,-0.3440826416015625,7.1406494140625005,1713570316107.0
6.685999999999922,-7.061096191406251,-0.8465240478515625,6.64000244140625,1713570316116.0
6.695999999999913,-6.7668090820312505,-1.1309417724609376,6.752154541015625,1713570316126.0
6.706000000000017,-6.4183898925781255,-0.5259185791015626,6.722845458984375,1713570316136.0
6.716000000000008,-6.271545410156251,0.2163787841796875,7.769149780273438,1713570316146.0
6.725999999999999,-6.498690795898438,0.6781463623046875,7.951583862304688,1713570316156.0
6.73599999999999,-6.474316406250001,0.7352691650390626,7.382598876953126,1713570316166.0
6.745999999999981,-6.337490844726563,0.7134368896484375,6.612188720703125,1713570316176.0
6.755999999999972,-7.132574462890625,0.5737701416015626,6.407772827148438,1713570316186.0
6.766999999999939,-7.5976318359375,0.238360595703125,6.478652954101563,1713570316197.0
6.77699999999993,-7.717111206054688,-0.044561767578125,5.783609008789063,1713570316207.0
6.786999999999921,-6.768753051757813,-0.2657257080078125,6.50302734375,1713570316217.0
6.796999999999912,-6.097186279296875,-0.1682281494140625,7.106704711914063,1713570316227.0
6.807000000000016,-6.007763671875001,-0.4149627685546875,8.930596923828126,1713570316237.0
6.817000000000007,-6.018231201171876,-0.2806793212890625,8.011996459960939,1713570316247.0
6.826999999999998,-6.671554565429688,0.0509918212890625,7.278970336914063,1713570316257.0
6.836999999999989,-6.868643188476563,0.239556884765625,6.0420074462890625,1713570316267.0
6.84699999999998,-6.845614624023438,-0.0022430419921875,6.331060791015625,1713570316277.0
6.856999999999971,-6.576599121093751,-0.0453094482421875,6.427062988281251,1713570316287.0
6.866999999999962,-7.763616943359375,0.6449493408203125,7.072460937500001,1713570316297.0
6.876999999999953,-7.516732788085938,1.0460052490234375,6.7518554687500005,1713570316307.0
6.886999999999944,-6.955075073242188,0.7170257568359375,6.289489746093751,1713570316317.0
6.8969999999999345,-5.618072509765625,-0.43963623046875,7.803244018554688,1713570316327.0
6.906999999999925,-5.9926605224609375,-0.9449188232421876,7.830908203125,1713570316337.0
6.918000000000006,-6.186758422851563,-0.8058502197265626,8.76580810546875,1713570316348.0
6.926999999999907,-7.1481262207031255,-0.2633331298828125,5.875274658203125,1713570316357.0
6.937999999999988,-7.385888671875,0.179742431640625,6.4378295898437505,1713570316368.0
6.947999999999979,-7.003823852539063,-0.214434814453125,6.138458251953126,1713570316378.0
6.95799999999997,-6.429904174804688,-0.3425872802734375,7.4935546875,1713570316388.0
6.967999999999961,-6.78714599609375,0.3805694580078125,7.188949584960938,1713570316398.0
6.977999999999952,-6.909017944335938,1.3568908691406252,7.124798583984376,1713570316408.0
6.987999999999943,-6.383697509765626,1.182681274414063,6.5783935546875005,1713570316418.0
6.997999999999934,-6.405081176757813,-0.081646728515625,7.260876464843751,1713570316428.0
7.0079999999999245,-6.818847656250001,-0.511114501953125,7.872030639648438,1713570316438.0
7.017999999999915,-6.859072875976563,-0.171966552734375,6.774734497070313,1713570316448.0
7.027999999999906,-7.112088012695313,-0.072076416015625,6.256442260742188,1713570316458.0
7.038000000000011,-6.605758666992188,-0.4670013427734375,5.9159484863281255,1713570316468.0
7.048000000000002,-6.892718505859375,-0.8578887939453126,7.817150878906251,1713570316478.0
7.057999999999993,-6.1836181640625005,-0.1179840087890625,8.126092529296876,1713570316488.0
7.067999999999984,-6.402987670898438,0.3389984130859375,7.588211059570313,1713570316498.0
7.078999999999951,-5.9821929931640625,0.228790283203125,6.985729980468751,1713570316509.0
7.088999999999942,-6.232366943359375,-0.0934600830078125,6.854736328125001,1713570316519.0
7.098999999999933,-7.624249267578126,0.11185302734375,7.410861206054688,1713570316529.0
7.108999999999924,-8.038613891601564,0.79493408203125,6.0729614257812505,1713570316539.0
7.1189999999999145,-7.437030029296875,0.8483184814453125,4.750912475585938,1713570316549.0
7.128999999999905,-6.322387695312501,0.5461059570312501,5.913107299804688,1713570316559.0
7.13900000000001,-6.483139038085938,0.1810882568359375,7.975958251953125,1713570316569.0
7.149000000000001,-6.636413574218751,0.1691253662109375,9.6361083984375,1713570316579.0
7.158999999999992,-5.955126953125,0.1060211181640625,6.969281005859376,1713570316589.0
7.168999999999983,-6.007015991210938,-0.5429656982421875,6.372781372070313,1713570316599.0
7.178999999999974,-6.678433227539063,-1.2709075927734377,7.272988891601563,1713570316609.0
7.1889999999999645,-6.75364990234375,-1.1381195068359375,7.232614135742188,1713570316619.0
7.198999999999955,-8.008706665039064,-0.36068115234375,6.67589111328125,1713570316629.0
7.208999999999946,-6.7832580566406255,1.2048126220703126,4.932598876953126,1713570316639.0
7.218999999999937,-7.08861083984375,1.7672180175781251,6.398501586914063,1713570316649.0
7.229999999999904,-7.415048217773438,1.01864013671875,8.542550659179689,1713570316660.0
7.240000000000009,-5.619418334960938,0.2980255126953125,8.331106567382813,1713570316670.0
7.25,-5.2360076904296875,-0.157611083984375,7.038815307617188,1713570316680.0
7.259999999999991,-6.265115356445313,-0.532049560546875,7.132574462890625,1713570316690.0
7.269999999999982,-7.750607299804688,-1.033294677734375,7.204650878906251,1713570316700.0
7.279999999999973,-8.030838012695312,-1.263430786132813,6.908718872070313,1713570316710.0
7.289999999999964,-6.685760498046876,-0.998602294921875,5.4932098388671875,1713570316720.0
7.299999999999955,-6.159841918945313,-0.3548492431640625,6.0714660644531255,1713570316730.0
7.309999999999945,-6.478952026367188,0.795233154296875,8.198168945312501,1713570316740.0
7.319999999999936,-6.875372314453125,1.4144622802734377,9.036767578125,1713570316750.0
7.329999999999927,-5.99041748046875,1.380218505859375,7.418637084960938,1713570316760.0
7.339999999999918,-6.2000671386718755,0.793438720703125,5.568576049804688,1713570316770.0
7.349999999999909,-7.511349487304688,0.0186920166015625,6.7174621582031255,1713570316780.0
7.36099999999999,-7.35,-0.5703308105468751,7.017730712890626,1713570316791.0
7.370999999999981,-6.918289184570313,-1.2288879394531251,6.694134521484376,1713570316801.0
7.380999999999972,-6.4635498046875,-1.1016326904296876,6.517681884765626,1713570316811.0
7.392999999999915,-6.462353515625001,-0.494366455078125,7.142294311523438,1713570316823.0
7.400999999999954,-6.236703491210938,0.0916656494140625,8.432940673828126,1713570316831.0
7.410999999999944,-6.352145385742188,0.4954132080078125,7.760177612304688,1713570316841.0
7.420999999999935,-6.4378295898437505,0.7891021728515626,7.027899169921875,1713570316851.0
7.430999999999926,-6.659292602539063,0.9960601806640624,6.0771484375,1713570316861.0
7.440999999999917,-7.688101196289063,0.7781860351562501,6.352743530273438,1713570316871.0
7.450999999999908,-7.734906005859376,0.4460662841796875,6.33255615234375,1713570316881.0
7.461000000000013,-7.068722534179688,-0.0255706787109375,5.917144775390625,1713570316891.0
7.471000000000004,-6.3286682128906255,-0.29967041015625,6.974514770507813,1713570316901.0
7.480999999999995,-5.899050903320313,-0.4701416015625,8.047885131835939,1713570316911.0
7.492999999999938,-6.267059326171876,-0.7239044189453125,8.667861938476562,1713570316923.0
7.501999999999953,-6.311920166015626,-0.4198974609375,7.547985839843751,1713570316932.0
7.511999999999944,-6.676339721679688,-0.058319091796875,6.41629638671875,1713570316942.0
7.5219999999999345,-7.167266845703126,-0.0462066650390625,6.372183227539063,1713570316952.0
7.531999999999925,-5.945556640625,0.0777587890625,6.644338989257813,1713570316962.0
7.541999999999916,-7.293475341796875,0.3742889404296875,6.913055419921876,1713570316972.0
7.551999999999907,-7.681671142578126,1.1811859130859377,7.0975830078125,1713570316982.0
7.562000000000012,-7.826721191406251,1.313226318359375,5.627941894531251,1713570316992.0
7.572000000000003,-6.58916015625,0.41092529296875,6.725985717773438,1713570317002.0
7.581999999999994,-5.360870361328125,-0.6141448974609376,7.636959838867188,1713570317012.0
7.592999999999961,-6.297564697265625,-1.2641784667968752,9.040505981445314,1713570317023.0
7.601999999999975,-6.003875732421875,-0.8033081054687501,8.039511108398438,1713570317032.0
7.611999999999966,-7.555612182617188,-0.148040771484375,5.765814208984375,1713570317042.0
7.621999999999957,-7.116275024414063,-0.111553955078125,6.454129028320313,1713570317052.0
7.631999999999948,-6.740939331054688,-0.4610198974609375,6.14354248046875,1713570317062.0
7.641999999999939,-6.666021728515625,-0.2343231201171875,8.095138549804688,1713570317072.0
7.652999999999906,-7.275082397460938,1.0636505126953126,6.499737548828126,1713570317083.0
7.663000000000011,-6.425567626953126,1.8333129882812504,6.842773437500001,1713570317093.0
7.673000000000002,-6.3421264648437505,0.94566650390625,6.773239135742188,1713570317103.0
7.682999999999993,-6.323733520507813,-0.224005126953125,7.853488159179688,1713570317113.0
7.692999999999984,-7.040161132812501,-0.4868896484375,8.241235351562501,1713570317123.0
7.7029999999999745,-6.737051391601563,-0.18243408203125,5.9836883544921875,1713570317133.0
7.712999999999965,-6.926364135742188,-0.460870361328125,5.7175140380859375,1713570317143.0
7.722999999999956,-7.059152221679688,-1.0056304931640625,6.462203979492188,1713570317153.0
7.732999999999947,-6.462054443359375,-0.80570068359375,8.17364501953125,1713570317163.0
7.742999999999938,-6.392221069335938,0.0441131591796875,8.469876098632813,1713570317173.0
7.752999999999929,-5.927163696289063,0.5746673583984375,6.737799072265625,1713570317183.0
7.76299999999992,-6.171804809570313,0.411224365234375,6.7084899902343755,1713570317193.0
7.772999999999911,-7.122256469726563,0.3632232666015625,7.450189208984376,1713570317203.0
7.783000000000016,-7.640847778320313,0.6811370849609375,7.095938110351563,1713570317213.0
7.793999999999983,-7.850646972656251,0.6914550781250001,5.356533813476563,1713570317224.0
7.803999999999974,-6.267657470703125,0.46954345703125,5.070321655273438,1713570317234.0
7.8139999999999645,-6.927560424804688,0.0405242919921875,6.8355957031250005,1713570317244.0
7.823999999999955,-6.7413879394531255,-0.0919647216796875,9.156097412109377,1713570317254.0
7.833999999999946,-6.177487182617188,-0.016448974609375,7.882647705078125,1713570317264.0
7.843999999999937,-5.8416290283203125,-0.404345703125,6.920980834960938,1713570317274.0
7.853999999999928,-6.050082397460938,-0.740203857421875,6.768753051757813,1713570317284.0
7.863999999999919,-6.884643554687501,-0.8228973388671875,7.454376220703126,1713570317294.0
7.87399999999991,-7.829412841796875,-0.26378173828125,6.936981201171876,1713570317304.0
7.8840000000000146,-7.095938110351563,0.9194976806640626,5.414703369140625,1713570317314.0
7.894000000000005,-7.300802612304688,1.4228363037109375,5.617623901367188,1713570317324.0
7.903999999999996,-7.390972900390626,0.9773681640625,7.7058959960937505,1713570317334.0
7.914999999999964,-5.90189208984375,0.047552490234375,8.48109130859375,1713570317345.0
7.924999999999955,-5.042507934570313,-0.2818756103515625,7.77109375,1713570317355.0
7.934999999999945,-5.992361450195313,-0.55447998046875,7.569967651367188,1713570317365.0
7.944999999999936,-7.356430053710938,-0.7509704589843751,7.055862426757813,1713570317375.0
7.954999999999927,-8.0761474609375,-0.8184112548828125,6.725238037109375,1713570317385.0
7.964999999999918,-7.271194458007813,-0.8910858154296876,5.511303710937501,1713570317395.0
7.974999999999909,-6.266012573242188,-0.3058013916015625,5.73441162109375,1713570317405.0
7.985000000000014,-6.470877075195313,0.6555664062500001,7.729373168945313,1713570317415.0
7.9950000000000045,-6.647479248046875,1.3838073730468752,9.147125244140623,1713570317425.0
8.004999999999995,-5.957369995117188,1.236962890625,7.942312622070313,1713570317435.0
8.014999999999986,-6.178683471679688,0.4544403076171875,6.19737548828125,1713570317445.0
8.024999999999977,-7.085470581054688,-0.125909423828125,6.462802124023438,1713570317455.0
8.034999999999968,-7.482040405273438,-0.6660339355468751,6.849951171875,1713570317465.0
8.044999999999959,-6.978103637695313,-1.0908660888671875,6.807333374023438,1713570317475.0
8.05499999999995,-6.826773071289063,-1.044659423828125,6.2778259277343755,1713570317485.0
8.065999999999917,-6.641647338867188,-0.2773895263671875,6.949990844726563,1713570317496.0
8.074999999999932,-6.1013732910156255,0.54849853515625,7.787243652343751,1713570317505.0
8.086000000000013,-6.5589538574218755,0.847271728515625,8.1060546875,1713570317516.0
8.096000000000004,-6.1525146484375,0.94566650390625,7.434188842773438,1713570317526.0
8.105999999999995,-6.444110107421875,0.7460357666015626,6.280667114257813,1713570317536.0
8.115999999999985,-7.806085205078125,0.4915252685546875,6.357977294921875,1713570317546.0
8.125999999999976,-7.526602172851563,0.145050048828125,6.154608154296875,1713570317556.0
8.135999999999967,-7.42716064453125,-0.4948150634765625,5.999539184570313,1713570317566.0
8.145999999999958,-6.060250854492188,-0.692352294921875,7.144238281250001,1713570317576.0
8.155999999999949,-6.064288330078125,-0.5665924072265626,7.859020996093751,1713570317586.0
8.16599999999994,-6.246572875976563,-0.3218017578125,8.830706787109376,1713570317596.0
8.17599999999993,-6.273638916015625,0.1359283447265625,7.237698364257813,1713570317606.0
8.185999999999922,-6.744079589843751,0.2809783935546875,6.801052856445313,1713570317616.0
8.195999999999913,-7.078292846679688,0.261688232421875,6.080587768554688,1713570317626.0
8.206000000000017,-6.772491455078126,0.2630340576171875,6.531289672851563,1713570317636.0
8.216000000000008,-6.785351562500001,0.3099884033203125,6.6935363769531255,1713570317646.0
8.225999999999999,-7.237548828125001,0.7681671142578126,6.453829956054688,1713570317656.0
8.23599999999999,-7.267755126953125,0.8160186767578126,6.962850952148438,1713570317666.0
8.246999999999957,-7.288540649414063,0.2875579833984375,7.0628906250000005,1713570317677.0
8.256999999999948,-5.843722534179688,-0.5127593994140626,7.6475769042968755,1713570317687.0
8.266999999999939,-5.8277221679687505,-1.0678375244140623,7.422824096679688,1713570317697.0
8.27699999999993,-6.340780639648438,-1.0845855712890626,8.191888427734376,1713570317707.0
8.28699999999992,-7.15799560546875,-0.3404937744140625,6.379211425781251,1713570317717.0
8.296999999999912,-7.50731201171875,0.3913360595703125,6.8326049804687505,1713570317727.0
8.307000000000016,-6.629385375976563,0.3395965576171875,5.972174072265625,1713570317737.0
8.317000000000007,-6.391174316406251,-0.0803009033203125,7.416693115234375,1713570317747.0
8.326999999999998,-6.477456665039063,0.433056640625,7.756588745117188,1713570317757.0
8.336999999999989,-7.455572509765625,1.0486968994140626,7.163229370117188,1713570317767.0
8.34699999999998,-6.27274169921875,1.0217803955078126,6.3570800781250005,1713570317777.0
8.356999999999971,-6.666320800781251,-0.0441131591796875,6.145935058593751,1713570317787.0
8.366999999999962,-6.9372802734375005,-0.557769775390625,8.194879150390626,1713570317797.0
8.376999999999953,-6.793576049804688,-0.29488525390625,7.2856994628906255,1713570317807.0
8.38799999999992,-6.636264038085938,-0.21951904296875,6.766958618164063,1713570317818.0
8.39799999999991,-6.446502685546876,-0.4032989501953125,6.229675292968751,1713570317828.0
8.408000000000015,-6.619515991210938,-0.70281982421875,7.315307617187501,1713570317838.0
8.418000000000006,-6.669012451171875,-0.23985595703125,8.35009765625,1713570317848.0
8.427999999999997,-6.580337524414063,0.23148193359375,7.169509887695313,1713570317858.0
8.437999999999988,-6.326724243164063,0.3384002685546875,6.32298583984375,1713570317868.0
8.447999999999979,-6.747070312500001,0.40673828125,6.267807006835938,1713570317878.0
8.45799999999997,-7.561294555664063,0.6273040771484375,7.444058227539063,1713570317888.0
8.467999999999961,-7.483535766601563,0.759344482421875,7.005169677734376,1713570317898.0
8.477999999999952,-6.3226867675781255,0.6138458251953125,5.48917236328125,1713570317908.0
8.487999999999943,-6.688302612304688,0.197686767578125,6.33853759765625,1713570317918.0
8.497999999999934,-6.717611694335938,0.0291595458984375,8.013043212890626,1713570317928.0
8.509000000000015,-6.896456909179688,-0.179742431640625,8.180673217773439,1713570317939.0
8.519000000000005,-5.8431243896484375,-0.6652862548828126,7.354187011718751,1713570317949.0
8.528999999999996,-5.792581176757813,-0.9103759765625,6.255245971679688,1713570317959.0
8.538999999999987,-6.782510375976563,-0.648388671875,7.161883544921875,1713570317969.0
8.548999999999978,-8.035324096679688,0.21473388671875,6.968832397460938,1713570317979.0
8.558999999999969,-7.213623046875001,1.0747161865234376,6.257638549804688,1713570317989.0
8.56899999999996,-6.869390869140625,1.402947998046875,5.756094360351563,1713570317999.0
8.57899999999995,-7.2034545898437505,0.7046142578125001,7.475460815429688,1713570318009.0
8.588999999999942,-5.697775268554688,-0.1131988525390625,8.306134033203126,1713570318019.0
8.598999999999933,-5.514443969726563,-0.5016937255859375,8.033380126953126,1713570318029.0
8.608999999999924,-6.359771728515626,-0.7367645263671876,7.395608520507813,1713570318039.0
8.618999999999915,-7.198818969726563,-0.8388977050781251,6.593496704101563,1713570318049.0
8.628999999999905,-7.907171630859375,-0.8589355468750001,6.7721923828125,1713570318059.0
8.63900000000001,-7.189846801757813,-0.7524658203125001,5.705850219726563,1713570318069.0
8.649000000000001,-6.149822998046876,-0.012860107421875,6.320294189453126,1713570318079.0
8.658999999999992,-6.462203979492188,0.9843963623046876,7.724737548828125,1713570318089.0
8.668999999999983,-6.602020263671876,1.5110626220703125,8.837734985351563,1713570318099.0
8.67999999999995,-6.206796264648438,1.0714263916015625,7.582827758789063,1713570318110.0
8.68999999999994,-6.24283447265625,0.29129638671875,6.152664184570313,1713570318120.0
8.699999999999932,-7.272988891601563,-0.2818756103515625,6.453829956054688,1713570318130.0
8.709999999999923,-7.31949462890625,-0.7662231445312501,6.6905456542968755,1713570318140.0
8.719999999999914,-6.808529663085938,-1.2098968505859375,7.042852783203125,1713570318150.0
8.729999999999905,-6.709237670898438,-1.07366943359375,6.728677368164063,1713570318160.0
8.740000000000009,-6.290536499023438,-0.22550048828125,7.355682373046876,1713570318170.0
8.75,-6.203656005859376,0.512908935546875,7.619912719726563,1713570318180.0
8.759999999999991,-6.617721557617188,0.91815185546875,7.9466491699218755,1713570318190.0
8.769999999999982,-6.432147216796875,0.8892913818359376,7.062442016601563,1713570318200.0
8.779999999999973,-6.456372070312501,0.8064483642578125,6.226535034179688,1713570318210.0
8.793000000000006,-8.038613891601564,0.5372833251953125,6.3077331542968755,1713570318223.0
8.80099999999993,-7.568472290039063,0.342138671875,5.8295166015625,1713570318231.0
8.810999999999922,-7.601968383789063,-0.1978363037109375,5.861517333984375,1713570318241.0
8.820999999999913,-5.666970825195313,-0.466253662109375,7.36973876953125,1713570318251.0
8.831000000000017,-6.02391357421875,-0.6510803222656251,8.264712524414064,1713570318261.0
8.841000000000008,-6.04185791015625,-0.5707794189453126,9.141143798828123,1713570318271.0
8.850999999999999,-6.282760620117188,-0.02213134765625,7.069320678710938,1713570318281.0
8.86099999999999,-6.954327392578126,0.0512908935546875,6.635366821289063,1713570318291.0
8.870999999999981,-7.030441284179688,-0.012860107421875,6.0663818359375,1713570318301.0
8.880999999999972,-6.881652832031251,0.009271240234375,6.670059204101563,1713570318311.0
8.892999999999915,-7.007412719726563,0.246734619140625,6.700714111328126,1713570318323.0
8.900999999999954,-6.651068115234375,1.08563232421875,6.199468994140625,1713570318331.0
8.910999999999945,-7.250408935546876,1.335357666015625,6.890325927734375,1713570318341.0
8.920999999999935,-7.092498779296876,0.8357574462890626,7.449291992187501,1713570318351.0
8.930999999999926,-7.127938842773438,-0.2189208984375,7.766458129882813,1713570318361.0
8.940999999999917,-5.282662963867188,-0.995611572265625,6.999038696289063,1713570318371.0
8.950999999999908,-6.399996948242188,-1.2523651123046875,7.089059448242188,1713570318381.0
8.961000000000013,-6.625048828125,-1.1355773925781252,7.6072021484375005,1713570318391.0
8.97199999999998,-7.562939453125001,-0.2364166259765625,6.959411621093751,1713570318402.0
8.981999999999971,-6.955972290039063,0.1227691650390625,6.9597106933593755,1713570318412.0
8.992999999999938,-6.031689453125001,0.2065093994140625,6.00537109375,1713570318423.0
9.001999999999953,-6.450689697265625,0.3509613037109375,7.742532348632813,1713570318432.0
9.011999999999944,-7.366748046875,0.9725830078125,7.385888671875,1713570318442.0
9.021999999999936,-6.762173461914063,1.4614166259765626,7.225286865234375,1713570318452.0
9.031999999999924,-6.775033569335938,0.6222198486328125,5.365805053710938,1713570318462.0
9.041999999999916,-6.367996215820313,-0.1024322509765625,6.9582153320312505,1713570318472.0
9.051999999999907,-7.208090209960938,-0.386700439453125,7.893862915039063,1713570318482.0
9.062000000000012,-6.6127868652343755,-0.3757843017578125,7.764364624023438,1713570318492.0
9.072000000000005,-6.321041870117188,-0.639715576171875,6.301452636718751,1713570318502.0
9.081999999999994,-6.4216796875,-0.9561340332031252,6.479400634765626,1713570318512.0
9.09299999999996,-6.666021728515625,-0.7288391113281251,8.207141113281251,1713570318523.0
9.102999999999952,-6.732116699218751,-0.125909423828125,7.8344970703125005,1713570318533.0
9.112999999999944,-6.49644775390625,0.1736114501953125,7.011898803710938,1713570318543.0
9.122999999999934,-6.09210205078125,0.419000244140625,5.88873291015625,1713570318553.0
9.132999999999925,-7.258633422851563,0.8436828613281251,7.170407104492188,1713570318563.0
9.142999999999915,-7.823880004882813,1.2051116943359377,7.239642333984375,1713570318573.0
9.152999999999906,-7.233810424804688,1.0294067382812502,5.899649047851563,1713570318583.0
9.163000000000013,-6.400894165039063,0.619976806640625,5.3342529296875005,1713570318593.0
9.173000000000002,-6.686508178710938,0.2205657958984375,6.851147460937501,1713570318603.0
9.182999999999993,-7.164874267578125,-0.1879669189453125,8.807379150390625,1713570318613.0
9.192999999999984,-5.991464233398438,-0.668426513671875,7.982388305664063,1713570318623.0
9.202999999999976,-5.439227294921875,-1.1868682861328126,6.428109741210938,1713570318633.0
9.212999999999964,-6.0749053955078125,-1.2272430419921876,7.2985595703125,1713570318643.0
9.222999999999956,-7.674343872070313,-0.5333953857421876,7.761224365234376,1713570318653.0
9.232999999999947,-7.62454833984375,0.4514495849609375,6.872082519531251,1713570318663.0
9.242999999999938,-7.706942749023438,1.140960693359375,4.927066040039063,1713570318673.0
9.253999999999904,-6.812268066406251,0.9631622314453124,5.822488403320313,1713570318684.0
9.26400000000001,-5.620614624023438,0.7819244384765626,7.725933837890626,1713570318694.0
9.274,-6.340032958984375,0.5178436279296875,9.595883178710938,1713570318704.0
9.283999999999992,-5.986978149414063,0.0500946044921875,8.2783203125,1713570318714.0
9.293999999999984,-6.3899780273437505,-0.389691162109375,5.920733642578125,1713570318724.0
9.303999999999974,-7.672250366210938,-1.191653442382813,6.382052612304688,1713570318734.0
9.313999999999965,-7.676736450195313,-1.5432128906250002,5.878863525390625,1713570318744.0
9.323999999999955,-6.990216064453126,-0.9890319824218752,6.773239135742188,1713570318754.0
9.333999999999946,-6.399847412109375,0.2244537353515625,6.814511108398438,1713570318764.0
9.343999999999935,-5.84805908203125,1.0639495849609375,8.276077270507812,1713570318774.0
9.353999999999928,-6.169412231445313,1.036135864257813,8.458212280273438,1713570318784.0
9.36399999999992,-6.411511230468751,0.9244323730468752,7.6116882324218755,1713570318794.0
9.37399999999991,-6.9731689453125005,0.6981842041015626,6.301153564453125,1713570318804.0
9.384000000000016,-7.041058349609376,0.12381591796875,5.585772705078125,1713570318814.0
9.394999999999982,-7.35478515625,-0.7105957031250001,6.44022216796875,1713570318825.0
9.404999999999973,-7.560098266601563,-1.0289581298828123,6.891522216796876,1713570318835.0
9.414999999999964,-6.335247802734376,-0.5540313720703125,7.256838989257813,1713570318845.0
9.424999999999956,-6.026455688476563,0.03828125,6.743630981445313,1713570318855.0
9.434999999999944,-6.246124267578126,0.3351104736328125,8.260226440429689,1713570318865.0
9.444999999999936,-6.089111328125,0.3470733642578125,7.99779052734375,1713570318875.0
9.454999999999927,-6.904830932617188,0.4844970703125,7.182669067382813,1713570318885.0
9.464999999999918,-7.158444213867188,0.6781463623046875,5.995800781250001,1713570318895.0
9.474999999999907,-7.452282714843751,0.4409820556640625,5.390777587890625,1713570318905.0
9.485000000000014,-7.27164306640625,-0.203070068359375,6.856381225585938,1713570318915.0
9.495000000000005,-6.436782836914063,-0.370849609375,6.991412353515625,1713570318925.0
9.504999999999995,-6.605160522460938,-0.264678955078125,7.974462890625,1713570318935.0
9.514999999999986,-6.019726562500001,0.135479736328125,7.168014526367188,1713570318945.0
9.524999999999975,-6.432147216796875,0.1064697265625,7.369290161132813,1713570318955.0
9.534999999999968,-6.833053588867188,-0.22490234375,7.361215209960938,1713570318965.0
9.545999999999935,-6.407473754882813,-0.1529754638671875,6.938626098632813,1713570318976.0
9.555999999999926,-6.263470458984376,-0.0375335693359375,6.619964599609376,1713570318986.0
9.565999999999915,-7.143191528320313,0.4385894775390625,6.531439208984375,1713570318996.0
9.575999999999908,-7.790234375000001,0.5214324951171876,6.923074340820313,1713570319006.0
9.586000000000013,-7.903582763671875,0.3339141845703125,6.371734619140626,1713570319016.0
9.596000000000004,-6.290835571289063,0.2178741455078125,6.542803955078125,1713570319026.0
9.605999999999996,-5.4553771972656255,-0.2062103271484375,7.142742919921876,1713570319036.0
9.615999999999984,-6.219955444335938,-0.575714111328125,9.084619140625,1713570319046.0
9.625999999999976,-6.634170532226563,-0.251220703125,7.889974975585938,1713570319056.0
9.635999999999967,-7.339682006835938,0.3792236328125,6.656750488281251,1713570319066.0
9.645999999999958,-6.69383544921875,0.1658355712890625,5.2853546142578125,1713570319076.0
9.655999999999947,-6.833801269531251,-0.7092498779296875,6.44620361328125,1713570319086.0
9.66599999999994,-7.054217529296875,-0.4510009765625,8.085867309570313,1713570319096.0
9.67599999999993,-7.373776245117188,0.566143798828125,7.109844970703126,1713570319106.0
9.685999999999922,-5.974865722656251,1.137371826171875,6.4393249511718755,1713570319116.0
9.697000000000005,-6.070269775390625,0.3120819091796875,6.495849609375001,1713570319127.0
9.706999999999994,-6.560598754882813,-0.356195068359375,8.922671508789064,1713570319137.0
9.716999999999985,-6.9387756347656255,-0.0046356201171875,7.98582763671875,1713570319147.0
9.726999999999975,-7.045544433593751,0.2420989990234375,5.66502685546875,1713570319157.0
9.736999999999966,-6.7294250488281255,0.0602630615234375,5.1518188476562505,1713570319167.0
9.746999999999955,-7.205697631835938,-0.491375732421875,6.343023681640625,1713570319177.0
9.756999999999948,-7.018627929687501,-0.4400848388671875,8.931195068359376,1713570319187.0
9.76699999999994,-6.023165893554688,0.10108642578125,7.665222167968751,1713570319197.0
9.77699999999993,-5.741140747070313,0.1449005126953125,6.981842041015626,1713570319207.0
9.78699999999992,-6.036474609375,-0.122918701171875,6.890774536132813,1713570319217.0
9.796999999999912,-7.353439331054688,-0.0853851318359375,7.610641479492188,1713570319227.0
9.809999999999944,-7.982089233398438,0.3433349609375,7.456918334960938,1713570319240.0
9.817999999999984,-7.033731079101563,0.6715667724609375,4.6124420166015625,1713570319248.0
9.827999999999976,-6.507662963867188,0.3718963623046875,5.4692840576171875,1713570319258.0
9.837999999999964,-6.545794677734375,0.1873687744140625,7.757635498046875,1713570319268.0
9.847999999999956,-7.147827148437501,0.2929412841796875,8.847604370117189,1713570319278.0
9.857999999999947,-6.164328002929688,0.458477783203125,7.7642150878906255,1713570319288.0
9.867999999999938,-5.542855834960938,0.022430419921875,5.322439575195313,1713570319298.0
9.877999999999927,-6.434390258789063,-0.689361572265625,7.271343994140626,1713570319308.0
9.88799999999992,-7.813412475585938,-0.6615478515625001,7.721746826171875,1713570319318.0
9.89799999999991,-7.365252685546875,-0.0177947998046875,7.265512084960938,1713570319328.0
9.909999999999968,-7.217959594726563,0.4397857666015625,5.0614990234375,1713570319340.0
9.918000000000006,-6.761425781250001,0.1413116455078125,6.062045288085938,1713570319348.0
9.927999999999995,-6.133673095703125,-0.19918212890625,8.377163696289063,1713570319358.0
9.937999999999988,-6.052774047851563,0.083740234375,8.8465576171875,1713570319368.0
9.94799999999998,-5.8775177001953125,0.3457275390625,7.850646972656251,1713570319378.0
9.95799999999997,-6.571365356445313,0.4409820556640625,5.7873474121093755,1713570319388.0
9.96799999999996,-7.876815795898438,0.0073272705078125,6.96060791015625,1713570319398.0
9.978999999999928,-7.610791015625001,-0.6437530517578125,6.362911987304688,1713570319409.0
9.98899999999992,-6.6071044921875,-0.5704803466796875,6.174945068359375,1713570319419.0
9.99899999999991,-6.384146118164063,0.0059814453125,6.430801391601563,1713570319429.0
10.009999999999993,-6.371734619140626,0.5685363769531251,8.388528442382814,1713570319440.0
10.019000000000004,-6.335098266601563,0.224603271484375,8.777920532226563,1713570319449.0
10.028999999999996,-6.231768798828125,-0.0871795654296875,7.276278686523438,1713570319459.0
10.038999999999987,-6.624600219726563,0.0538330078125,6.074008178710938,1713570319469.0
10.048999999999978,-7.296316528320313,0.17286376953125,6.070568847656251,1713570319479.0
10.058999999999967,-7.343270874023438,-0.1463958740234375,7.087863159179688,1713570319489.0
10.06899999999996,-6.919635009765625,-0.3647186279296875,6.814212036132813,1713570319499.0
10.07899999999995,-6.419287109375,-0.0530853271484375,7.117620849609375,1713570319509.0
10.088999999999942,-6.124102783203125,0.40135498046875,6.944009399414063,1713570319519.0
10.098999999999933,-6.479550170898438,0.4879364013671875,8.091699218750001,1713570319529.0
10.110000000000014,-6.562094116210938,0.082244873046875,7.680325317382813,1713570319540.0
10.120000000000005,-6.528598022460938,-0.0521881103515625,6.613534545898438,1713570319550.0
10.129999999999995,-7.468582153320313,0.123516845703125,5.8595733642578125,1713570319560.0
10.139999999999986,-7.492657470703126,0.3696533203125,6.017184448242188,1713570319570.0
10.149999999999975,-7.389328002929688,0.12979736328125,6.613833618164063,1713570319580.0
10.159999999999968,-5.8890319824218755,-0.1858734130859375,7.65684814453125,1713570319590.0
10.16999999999996,-5.916546630859376,-0.2097991943359375,7.843170166015626,1713570319600.0
10.17999999999995,-6.444857788085938,0.0418701171875,8.020669555664064,1713570319610.0
10.18999999999994,-6.755743408203125,0.3265869140625,6.929953002929688,1713570319620.0
10.199999999999932,-7.080685424804688,0.0357391357421875,6.454876708984376,1713570319630.0
10.209999999999924,-6.857278442382813,-0.3108856201171875,6.434539794921876,1713570319640.0
10.219999999999914,-6.661685180664063,-0.2603424072265625,6.832455444335938,1713570319650.0
10.229999999999905,-6.758883666992188,0.036785888671875,7.006964111328125,1713570319660.0
10.240000000000007,-6.343771362304688,0.7225585937500001,6.675442504882813,1713570319670.0
10.25,-7.063040161132813,0.8182617187500001,7.14603271484375,1713570319680.0
10.259999999999993,-7.2626708984375,0.4251312255859375,7.443011474609375,1713570319690.0
10.270999999999958,-7.248016357421876,0.01256103515625,7.011300659179688,1713570319701.0
10.280999999999947,-5.7892913818359375,-0.440533447265625,6.593496704101563,1713570319711.0
10.29099999999994,-6.46953125,-0.7977752685546876,6.912008666992188,1713570319721.0
10.30099999999993,-6.500933837890625,-0.7478302001953125,7.740737915039063,1713570319731.0
10.310999999999922,-7.392169189453125,0.0952545166015625,7.505966186523438,1713570319741.0
10.320999999999913,-6.596038818359376,0.4059906005859375,7.0539184570312505,1713570319751.0
10.331000000000016,-6.157299804687501,-0.112152099609375,6.121411132812501,1713570319761.0
10.341000000000008,-6.439923095703126,-0.272454833984375,7.5518737792968755,1713570319771.0
10.351,-7.767654418945313,0.3745880126953125,7.084124755859375,1713570319781.0
10.36099999999999,-6.911560058593751,1.134979248046875,6.918887329101563,1713570319791.0
10.37099999999998,-6.507812500000001,0.5414703369140625,5.345916748046875,1713570319801.0
10.380999999999972,-6.255993652343751,-0.152227783203125,7.5159851074218755,1713570319811.0
10.390999999999964,-6.812118530273438,-0.1197784423828125,8.419781494140626,1713570319821.0
10.400999999999954,-6.729125976562501,0.106170654296875,7.838235473632813,1713570319831.0
10.41199999999992,-6.46654052734375,-0.039178466796875,5.838339233398438,1713570319842.0
10.421999999999912,-6.744976806640626,-0.545208740234375,5.770748901367188,1713570319852.0
10.432000000000016,-7.0539184570312505,-0.687567138671875,8.053567504882814,1713570319862.0
10.442000000000007,-6.734658813476563,-0.2612396240234375,7.8494506835937505,1713570319872.0
10.451999999999998,-6.3032470703125005,-0.054132080078125,7.262371826171876,1713570319882.0
10.461999999999987,-5.975015258789063,0.036187744140625,5.964697265625,1713570319892.0
10.47199999999998,-6.866848754882813,0.4055419921875,7.462002563476563,1713570319902.0
10.481999999999973,-7.94814453125,0.81885986328125,7.521817016601563,1713570319912.0
10.491999999999962,-7.076947021484376,0.95224609375,6.196328735351563,1713570319922.0
10.501999999999953,-6.4019409179687505,0.560162353515625,5.13507080078125,1713570319932.0
10.511999999999944,-6.45816650390625,0.1915557861328125,6.963150024414063,1713570319942.0
10.521999999999936,-7.236801147460938,0.0112152099609375,8.568569946289063,1713570319952.0
10.531999999999924,-6.707293701171875,-0.180938720703125,8.023959350585939,1713570319962.0
10.541999999999916,-5.7713470458984375,-0.5719757080078125,5.859274291992188,1713570319972.0
10.551999999999907,-6.210385131835938,-0.9574798583984376,7.13048095703125,1713570319982.0
10.562999999999988,-6.425119018554688,-0.7677185058593751,7.745822143554688,1713570319993.0
10.57299999999998,-7.897451782226563,-0.0779083251953125,7.29197998046875,1713570320003.0
10.58299999999997,-6.853839111328125,0.9727325439453126,5.7638702392578125,1713570320013.0
10.59299999999996,-6.8954101562500005,1.6374206542968752,5.3641601562500005,1713570320023.0
10.602999999999952,-8.082876586914063,0.916357421875,7.875320434570313,1713570320033.0
10.612999999999944,-5.97965087890625,0.1583587646484375,7.819992065429688,1713570320043.0
10.622999999999934,-5.320046997070313,-0.3793731689453125,7.409814453125,1713570320053.0
10.632999999999925,-5.800357055664063,-0.7239044189453125,7.508209228515626,1713570320063.0
10.642999999999915,-7.129733276367188,-0.7778869628906251,7.520172119140626,1713570320073.0
10.652999999999906,-7.983883666992188,-1.059613037109375,7.496246337890626,1713570320083.0
10.663000000000013,-7.000234985351563,-0.8646179199218751,5.3844970703125,1713570320093.0
10.673999999999978,-6.48209228515625,-0.3997100830078125,5.355786132812501,1713570320104.0
10.683999999999967,-6.541757202148438,0.74588623046875,7.536022949218751,1713570320114.0
10.69399999999996,-7.055862426757813,1.4833984375,8.823828125,1713570320124.0
10.70399999999995,-6.141000366210938,1.3522552490234376,8.048483276367188,1713570320134.0
10.713999999999942,-5.649923706054688,0.70521240234375,5.937481689453126,1713570320144.0
10.723999999999933,-7.156799316406251,-0.0363372802734375,6.8311096191406255,1713570320154.0
10.733999999999924,-7.367495727539063,-0.58319091796875,7.38170166015625,1713570320164.0
10.743999999999916,-6.8822509765625,-1.295281982421875,6.485382080078126,1713570320174.0
10.753999999999904,-6.975411987304688,-1.290347290039063,6.347061157226563,1713570320184.0
10.76400000000001,-6.483886718750001,-0.4993011474609375,6.581982421875001,1713570320194.0
10.774,-6.478952026367188,0.2606414794921875,8.04444580078125,1713570320204.0
10.783999999999992,-6.413455200195313,0.745587158203125,8.188299560546875,1713570320214.0
10.793999999999984,-6.000436401367188,0.977667236328125,7.1490234375,1713570320224.0
10.803999999999974,-6.612338256835938,1.0584167480468751,6.588113403320313,1713570320234.0
10.813999999999965,-7.432095336914063,0.8548980712890626,6.42825927734375,1713570320244.0
10.824999999999932,-7.849301147460938,0.2884552001953125,6.0988311767578125,1713570320255.0
10.833999999999946,-7.385589599609376,-0.3357086181640625,5.869741821289063,1713570320264.0
10.844999999999914,-6.325228881835938,-0.494366455078125,6.367248535156251,1713570320275.0
10.854999999999905,-6.250610351562501,-0.658856201171875,8.391070556640626,1713570320285.0
10.865000000000007,-5.8079833984375,-0.6280517578125,8.542102050781251,1713570320295.0
10.875,-6.387286376953125,-0.331072998046875,7.842721557617188,1713570320305.0
10.884999999999993,-6.409567260742188,0.13577880859375,6.821688842773438,1713570320315.0
10.894999999999982,-7.221847534179688,0.3300262451171875,6.1462341308593755,1713570320325.0
10.904999999999973,-6.911709594726563,0.03648681640625,6.799407958984376,1713570320335.0
10.914999999999964,-5.8670501708984375,0.28411865234375,6.486727905273438,1713570320345.0
10.924999999999956,-7.896853637695313,0.6853240966796875,6.93070068359375,1713570320355.0
10.934999999999944,-7.395758056640625,1.257598876953125,6.6202636718750005,1713570320365.0
10.944999999999936,-7.798907470703125,0.6087615966796875,6.223693847656251,1713570320375.0
10.954999999999927,-5.6859619140625,-0.325689697265625,6.957467651367188,1713570320385.0
10.964999999999918,-5.660989379882813,-0.8762817382812501,8.12698974609375,1713570320395.0
10.974999999999907,-6.45517578125,-1.269412231445313,9.035272216796876,1713570320405.0
10.985000000000014,-6.34691162109375,-0.3648681640625,6.594393920898438,1713570320415.0
10.99599999999998,-7.82432861328125,0.1018341064453125,6.271395874023438,1713570320426.0
11.005999999999972,-6.522616577148438,0.241949462890625,5.988772583007813,1713570320436.0
11.015999999999964,-6.794323730468751,-0.2582489013671875,6.956869506835938,1713570320446.0
11.025999999999954,-6.744976806640626,0.12620849609375,8.51099853515625,1713570320456.0
11.035999999999945,-7.163827514648438,1.310833740234375,5.94854736328125,1713570320466.0
11.045999999999935,-6.459661865234375,1.4315093994140626,6.3750244140625005,1713570320476.0
11.055999999999926,-6.553421020507813,0.374139404296875,6.880905151367188,1713570320486.0
11.065999999999915,-6.504373168945313,-0.49287109375,8.295816040039064,1713570320496.0
11.075999999999908,-6.9372802734375005,-0.436944580078125,7.954275512695313,1713570320506.0
11.086000000000013,-6.621908569335938,-0.139068603515625,5.4703308105468755,1713570320516.0
11.096000000000004,-6.798660278320313,-0.38341064453125,6.333453369140625,1713570320526.0
11.105999999999996,-6.898550415039063,-0.8750854492187501,6.936233520507813,1713570320536.0
11.115999999999984,-6.527999877929688,-0.5993408203125,8.519671630859376,1713570320546.0
11.126999999999953,-6.549533081054688,0.1709197998046875,7.5757995605468755,1713570320557.0
11.135999999999967,-5.78704833984375,0.5420684814453125,6.248666381835938,1713570320566.0
11.146999999999936,-6.8251281738281255,0.3291290283203125,6.896755981445313,1713570320577.0
11.156999999999924,-7.119863891601563,0.4514495849609375,7.553518676757813,1713570320587.0
11.166999999999916,-7.754196166992188,0.6482391357421875,6.867745971679688,1713570320597.0
11.176999999999907,-7.065432739257813,0.6374725341796875,5.468087768554688,1713570320607.0
11.187000000000012,-6.1507202148437505,0.389093017578125,5.399749755859375,1713570320617.0
11.197000000000005,-7.094143676757813,-0.214434814453125,8.088259887695314,1713570320627.0
11.209999999999924,-6.5275512695312505,-0.1772003173828125,8.632571411132814,1713570320640.0
11.216999999999985,-6.2867980957031255,-0.1715179443359375,7.389477539062501,1713570320647.0
11.226999999999975,-5.8760223388671875,-0.45399169921875,6.2494140625000005,1713570320657.0
11.236999999999966,-6.1740478515625,-0.5453582763671876,6.790435791015626,1713570320667.0
11.246999999999955,-7.872030639648438,-0.4909271240234375,7.707092285156251,1713570320677.0
11.256999999999948,-7.136312866210938,0.509619140625,6.8655029296875005,1713570320687.0
11.26699999999994,-7.334896850585938,1.1584564208984376,5.3342529296875005,1713570320697.0
11.27699999999993,-7.30155029296875,0.6853240966796875,6.45816650390625,1713570320707.0
11.288000000000013,-5.676840209960938,0.110357666015625,7.441815185546876,1713570320718.0
11.298000000000002,-6.129336547851563,-0.219818115234375,8.764163208007814,1713570320728.0
11.308999999999967,-5.9642486572265625,-0.0629547119140625,8.380603027343751,1713570320739.0
11.317999999999984,-6.654357910156251,-0.2284912109375,6.176889038085938,1713570320748.0
11.327999999999976,-7.551126098632813,-0.6667816162109376,6.874624633789063,1713570320758.0
11.337999999999964,-7.441815185546876,-0.97796630859375,5.780917358398438,1713570320768.0
11.347999999999956,-6.958963012695313,-0.5519378662109375,6.664376831054688,1713570320778.0
11.357999999999947,-6.395211791992188,0.5516387939453126,6.743630981445313,1713570320788.0
11.367999999999938,-6.462203979492188,0.90858154296875,8.135513305664062,1713570320798.0
11.377999999999927,-6.050082397460938,0.7699615478515626,8.230169677734375,1713570320808.0
11.38799999999992,-6.381155395507813,0.36905517578125,7.181173706054688,1713570320818.0
11.39799999999991,-7.015936279296875,0.1782470703125,6.823333740234376,1713570320828.0
11.408999999999992,-6.978253173828126,-0.1389190673828125,5.860321044921875,1713570320839.0
11.418000000000006,-7.224240112304688,-0.8374023437500001,6.5260559082031255,1713570320848.0
11.428999999999974,-6.913653564453125,-0.7647277832031251,7.025357055664063,1713570320859.0
11.438999999999965,-6.838287353515626,-0.2471832275390625,7.233361816406251,1713570320869.0
11.448999999999955,-6.015240478515626,0.3539520263671875,7.371084594726563,1713570320879.0
11.458999999999946,-6.159542846679688,0.5301055908203125,7.2856994628906255,1713570320889.0
11.468999999999935,-6.620712280273438,0.4867401123046875,7.929452514648438,1713570320899.0
11.478999999999928,-6.698620605468751,0.55926513671875,6.838436889648438,1713570320909.0
11.48899999999992,-7.507012939453125,0.4616180419921875,6.12320556640625,1713570320919.0
11.49899999999991,-7.154257202148438,0.298175048828125,5.8591247558593755,1713570320929.0
11.509000000000016,-7.182669067382813,-0.25540771484375,6.341378784179688,1713570320939.0
11.519000000000004,-6.501382446289063,-0.5411712646484376,7.903582763671875,1713570320949.0
11.528999999999996,-6.149822998046876,-0.3228485107421875,7.526602172851563,1713570320959.0
11.538999999999987,-6.233563232421876,-0.190509033203125,7.864703369140625,1713570320969.0
11.549999999999956,-6.301901245117188,0.033795166015625,6.997842407226563,1713570320980.0
11.559999999999944,-6.964495849609375,-0.025421142578125,7.154855346679688,1713570320990.0
11.569999999999936,-6.500784301757813,0.0946563720703125,6.681124877929688,1713570321000.0
11.579999999999927,-6.792379760742188,0.4797119140625,6.11004638671875,1713570321010.0
11.589999999999918,-7.589556884765625,0.683380126953125,6.986029052734375,1713570321020.0
11.599999999999907,-7.666119384765626,0.6014343261718751,6.515289306640626,1713570321030.0
11.610000000000014,-7.188949584960938,0.2397064208984375,6.810772705078126,1713570321040.0
11.620000000000005,-5.333505249023438,-0.279931640625,6.850997924804688,1713570321050.0
11.629999999999995,-6.0595031738281255,-0.7831207275390626,8.095138549804688,1713570321060.0
11.639999999999986,-6.142346191406251,-0.6769500732421876,8.779415893554688,1713570321070.0
11.649999999999975,-7.448992919921875,-0.040972900390625,6.767855834960938,1713570321080.0
11.659999999999968,-6.9866271972656255,0.1460968017578125,6.4013427734375,1713570321090.0
11.66999999999996,-6.506915283203125,-0.2528656005859375,5.265765380859375,1713570321100.0
11.67999999999995,-7.04375,-0.3105865478515625,7.577893066406251,1713570321110.0
11.68999999999994,-7.5847717285156255,0.584686279296875,7.399945068359376,1713570321120.0
11.699999999999932,-6.3510986328125005,1.4247802734375,6.859970092773438,1713570321130.0
11.711000000000013,-6.136663818359375,0.7098480224609376,6.373229980468751,1713570321141.0
11.721000000000004,-6.096438598632813,-0.2343231201171875,7.738644409179688,1713570321151.0
11.730999999999996,-7.035675048828126,-0.3943267822265625,8.574850463867188,1713570321161.0
11.740999999999984,-7.041806030273438,-0.153125,6.857876586914063,1713570321171.0
11.750999999999976,-6.742584228515626,-0.2863616943359375,5.177389526367188,1713570321181.0
11.760999999999967,-6.853839111328125,-0.6243133544921875,5.752206420898438,1713570321191.0
11.770999999999958,-7.216464233398438,-0.5027404785156251,8.274282836914063,1713570321201.0
11.780999999999947,-6.301004028320313,0.2220611572265625,8.462249755859375,1713570321211.0
11.79099999999994,-5.965594482421875,0.4996002197265625,7.014141845703126,1713570321221.0
11.80099999999993,-5.62554931640625,0.2346221923828125,6.9088684082031255,1713570321231.0
11.810999999999922,-6.998291015625001,0.1018341064453125,7.404879760742188,1713570321241.0
11.820999999999913,-7.856927490234376,0.2456878662109375,7.581332397460938,1713570321251.0
11.831000000000016,-7.780514526367188,0.4864410400390625,4.923776245117188,1713570321261.0
11.841000000000008,-6.7548461914062505,0.332568359375,5.215969848632813,1713570321271.0
11.851,-6.245675659179688,0.0716278076171875,6.635665893554688,1713570321281.0
11.861999999999966,-6.987225341796876,-0.0578704833984375,9.1384521484375,1713570321292.0
11.871999999999955,-6.158047485351563,0.2292388916015625,8.796612548828126,1713570321302.0
11.881999999999948,-5.868994140625,0.2558563232421875,6.038418579101563,1713570321312.0
11.89199999999994,-6.286349487304688,-0.4314117431640625,6.859671020507813,1713570321322.0
11.90199999999993,-6.58377685546875,-0.7089508056640625,6.884793090820313,1713570321332.0
11.91199999999992,-8.218804931640626,-0.5519378662109375,7.38768310546875,1713570321342.0
11.921999999999912,-7.092947387695313,0.6981842041015626,5.767010498046876,1713570321352.0
11.932000000000016,-6.912158203125,1.2081024169921877,5.288943481445313,1713570321362.0
11.942000000000007,-7.3724304199218755,0.3744384765625,7.923770141601563,1713570321372.0
11.951999999999998,-5.70689697265625,-0.1903594970703125,8.472567749023439,1713570321382.0
11.961999999999987,-5.5709686279296875,-0.2080047607421875,8.092446899414064,1713570321392.0
11.97199999999998,-5.91864013671875,-0.0952545166015625,7.1675659179687505,1713570321402.0
11.981999999999973,-7.231118774414063,-0.3201568603515625,6.464895629882813,1713570321412.0
11.991999999999962,-8.160037231445314,-0.7110443115234375,7.154855346679688,1713570321422.0
12.002999999999927,-7.101620483398438,-0.5713775634765625,5.734112548828126,1713570321433.0
12.01299999999992,-6.499887084960938,-0.2639312744140625,5.880209350585938,1713570321443.0
12.02299999999991,-6.097933959960938,0.5908172607421875,7.42955322265625,1713570321453.0
12.033000000000015,-6.842623901367188,0.8919830322265626,8.8345947265625,1713570321463.0
12.043000000000006,-6.198870849609375,0.7375122070312501,8.360864257812501,1713570321473.0
12.052999999999995,-5.954379272460938,0.336456298828125,5.950192260742188,1713570321483.0
12.062999999999988,-7.3694396972656255,-0.0623565673828125,6.315359497070313,1713570321493.0
12.07299999999998,-7.448394775390626,-0.296380615234375,6.595590209960938,1713570321503.0
12.08299999999997,-7.189547729492188,-0.7894012451171876,6.716116333007813,1713570321513.0
12.09299999999996,-6.587664794921875,-0.6869689941406251,6.821389770507813,1713570321523.0
12.102999999999952,-6.157150268554688,-0.161798095703125,7.0165344238281255,1713570321533.0
12.112999999999944,-6.3570800781250005,0.265576171875,8.292974853515625,1713570321543.0
12.125999999999976,-6.191693115234376,0.4233367919921875,7.952780151367188,1713570321556.0
12.132999999999925,-6.428707885742188,0.3422882080078125,7.103414916992188,1713570321563.0
12.144000000000004,-6.83140869140625,0.4176544189453125,6.394015502929688,1713570321574.0
12.153999999999996,-7.451385498046876,0.354400634765625,5.97965087890625,1713570321584.0
12.163999999999987,-7.794271850585938,0.206658935546875,6.180178833007813,1713570321594.0
12.173999999999978,-7.303195190429688,0.1601531982421875,6.016735839843751,1713570321604.0
12.183999999999967,-6.330462646484375,0.2069580078125,7.110891723632813,1713570321614.0
12.19399999999996,-5.975164794921875,0.0107666015625,8.017678833007814,1713570321624.0
12.20399999999995,-5.733364868164063,-0.30325927734375,8.615075683593751,1713570321634.0
12.213999999999942,-6.635067749023438,-0.3267364501953125,7.613931274414063,1713570321644.0
12.226,-6.704302978515625,-0.167779541015625,6.513793945312501,1713570321656.0
12.233999999999924,-6.592599487304688,-0.2522674560546875,6.05382080078125,1713570321664.0
12.243999999999916,-6.912158203125,-0.2983245849609375,6.607403564453126,1713570321674.0
12.253999999999904,-7.603164672851563,0.271856689453125,7.0598999023437505,1713570321684.0
12.26400000000001,-8.114279174804688,0.7206146240234376,6.593945312500001,1713570321694.0
12.274,-6.477008056640625,0.9485076904296876,6.095541381835938,1713570321704.0
12.284999999999968,-5.445657348632813,0.3218017578125,7.166668701171876,1713570321715.0
12.293999999999984,-6.133374023437501,-0.5256195068359375,9.007159423828126,1713570321724.0
12.30499999999995,-6.164028930664063,-0.401055908203125,8.569018554687501,1713570321735.0
12.31499999999994,-7.71068115234375,0.0121124267578125,5.984884643554688,1713570321745.0
12.325999999999908,-6.9746643066406255,0.238958740234375,5.571417236328125,1713570321756.0
12.334999999999924,-6.848306274414063,-0.695343017578125,5.8561340332031255,1713570321765.0
12.344999999999914,-6.691293334960938,-1.063201904296875,8.308825683593751,1713570321775.0
12.354999999999905,-7.243231201171875,0.1607513427734375,7.458264160156251,1713570321785.0
12.365000000000007,-6.413006591796876,1.4798095703125,6.723144531250001,1713570321795.0
12.375,-5.946902465820313,1.1276519775390623,6.144888305664063,1713570321805.0
12.384999999999993,-6.373977661132813,-0.2875579833984375,7.977752685546876,1713570321815.0
12.394999999999982,-7.021170043945313,-0.398663330078125,8.949288940429689,1713570321825.0
12.404999999999973,-6.982290649414063,0.2761932373046875,6.293377685546876,1713570321835.0
12.414999999999964,-7.418338012695313,0.2935394287109375,4.52017822265625,1713570321845.0
12.42599999999993,-6.623104858398438,-0.224603271484375,5.724691772460938,1713570321856.0
12.435999999999922,-7.273287963867188,-0.7677185058593751,8.141644287109376,1713570321866.0
12.445999999999913,-6.271545410156251,-0.082244873046875,9.503768920898438,1713570321876.0
12.456000000000016,-5.5320892333984375,0.44202880859375,6.592001342773438,1713570321886.0
12.466000000000008,-5.881256103515625,0.0710296630859375,7.160537719726563,1713570321896.0
12.476,-6.554916381835938,-0.4394866943359375,7.419833374023438,1713570321906.0
12.48599999999999,-7.850048828125001,-0.40614013671875,7.555313110351563,1713570321916.0
12.49599999999998,-7.789337158203126,0.43245849609375,5.849554443359375,1713570321926.0
12.505999999999972,-7.235455322265626,0.7810272216796875,3.9532867431640626,1713570321936.0
12.515999999999964,-6.2972656250000005,0.4936187744140625,6.9806457519531255,1713570321946.0
12.525999999999954,-6.348706054687501,0.1724151611328125,8.607000732421875,1713570321956.0
12.535999999999945,-6.500933837890625,0.282623291015625,9.698165893554688,1713570321966.0
12.545999999999935,-5.9993896484375,0.629248046875,6.084027099609376,1713570321976.0
12.555999999999926,-6.210833740234375,0.0985443115234375,5.6901489257812505,1713570321986.0
12.565999999999915,-6.94864501953125,-0.7971771240234375,6.829165649414063,1713570321996.0
12.576999999999998,-8.08392333984375,-0.8854034423828125,7.438824462890626,1713570322007.0
12.586999999999987,-7.084124755859375,0.017645263671875,7.347607421875001,1713570322017.0
12.59699999999998,-6.7961181640625,0.5894714355468751,5.014843750000001,1713570322027.0
12.606999999999973,-6.569271850585938,-0.1221710205078125,7.485479736328125,1713570322037.0
12.616999999999962,-5.6876068115234375,-0.401953125,8.247067260742188,1713570322047.0
12.626999999999953,-6.411361694335938,0.074169921875,8.779565429687501,1713570322057.0
12.636999999999944,-6.2314697265625005,0.708203125,6.9001953125,1713570322067.0
12.646999999999936,-7.1391540527343755,0.6054718017578126,5.472125244140625,1713570322077.0
12.656999999999924,-7.710980224609376,-0.2585479736328125,7.104910278320313,1713570322087.0
12.666999999999916,-7.251455688476563,-0.6238647460937501,6.189898681640625,1713570322097.0
12.676999999999907,-6.481942749023438,-0.2687164306640625,6.963897705078126,1713570322107.0
12.687000000000012,-6.246722412109375,0.2872589111328125,6.76322021484375,1713570322117.0
12.697000000000005,-6.304891967773438,0.26976318359375,8.37103271484375,1713570322127.0
12.706999999999994,-6.426614379882813,-0.28531494140625,8.269647216796876,1713570322137.0
12.716999999999985,-6.431399536132813,-0.1900604248046875,6.985281372070313,1713570322147.0
12.727999999999952,-7.1032653808593755,0.1610504150390625,6.0016326904296875,1713570322158.0
12.737999999999944,-7.177435302734375,0.1999298095703125,6.036325073242188,1713570322168.0
12.747999999999934,-6.967337036132813,-0.1040771484375,7.117022705078125,1713570322178.0
12.757999999999925,-6.983786010742188,-0.0674407958984375,7.179379272460938,1713570322188.0
12.767999999999915,-6.251058959960938,0.4438232421875,7.432843017578126,1713570322198.0
12.777999999999906,-6.328219604492188,0.6204254150390626,6.666021728515625,1713570322208.0
12.788000000000013,-6.444409179687501,0.2500244140625,7.793374633789063,1713570322218.0
12.798000000000002,-6.427511596679688,-0.273651123046875,7.527200317382813,1713570322228.0
12.807999999999993,-7.144238281250001,-0.3695037841796875,6.889279174804688,1713570322238.0
12.817999999999984,-7.097433471679688,-0.10946044921875,5.876470947265625,1713570322248.0
12.827999999999976,-7.302447509765625,0.078656005859375,5.71885986328125,1713570322258.0
12.837999999999964,-7.051675415039063,-0.0518890380859375,7.470376586914063,1713570322268.0
12.847999999999956,-5.896209716796875,0.0393280029296875,7.572360229492188,1713570322278.0
12.857999999999947,-6.242684936523438,0.111553955078125,8.252899169921875,1713570322288.0
12.867999999999938,-6.189151000976563,0.51380615234375,6.832904052734375,1713570322298.0
12.878999999999904,-7.207342529296875,0.5625549316406251,6.844268798828126,1713570322309.0
12.88900000000001,-7.134817504882813,0.0844879150390625,6.498541259765625,1713570322319.0
12.899,-6.671554565429688,-0.340643310546875,6.34451904296875,1713570322329.0
12.908999999999992,-5.987277221679688,-0.3671112060546875,7.002926635742188,1713570322339.0
12.918999999999984,-7.243829345703125,0.3207550048828125,7.186557006835938,1713570322349.0
12.928999999999974,-7.488320922851563,0.3923828125,7.768850708007813,1713570322359.0
12.938999999999965,-7.12509765625,-0.0608612060546875,5.965594482421875,1713570322369.0
12.948999999999955,-5.918041992187501,-0.26138916015625,7.032684326171876,1713570322379.0
12.958999999999946,-6.522616577148438,-0.196490478515625,7.242932128906251,1713570322389.0
12.968999999999935,-6.204403686523438,-0.1939483642578125,8.541653442382813,1713570322399.0
12.978999999999928,-6.926065063476563,0.0563751220703125,6.3929687500000005,1713570322409.0
12.98899999999992,-7.128836059570313,0.6237152099609375,6.9776550292968755,1713570322419.0
12.99899999999991,-6.808828735351563,0.419598388671875,6.4363342285156255,1713570322429.0
13.009999999999993,-6.4408203125000005,-0.53533935546875,7.170257568359376,1713570322440.0
13.019000000000004,-6.5783935546875005,-0.6563140869140626,7.162930297851563,1713570322449.0
13.029999999999973,-7.542453002929688,0.371746826171875,6.833053588867188,1713570322460.0
13.039999999999964,-6.504971313476563,0.9108245849609377,6.991262817382813,1713570322470.0
13.049999999999956,-6.326873779296876,-0.12381591796875,6.429904174804688,1713570322480.0
13.059999999999944,-6.318350219726563,-0.5689849853515625,8.21790771484375,1713570322490.0
13.069999999999936,-6.772640991210938,0.2021728515625,7.476657104492188,1713570322500.0
13.079999999999927,-7.221997070312501,0.78895263671875,6.824679565429688,1713570322510.0
13.089999999999918,-6.674545288085938,0.3689056396484375,5.63511962890625,1713570322520.0
13.099999999999907,-6.7144714355468755,-0.6009857177734376,6.381903076171875,1713570322530.0
13.110000000000014,-6.718060302734376,-0.4747772216796875,8.35308837890625,1713570322540.0
13.120000000000005,-6.774136352539063,0.0130096435546875,8.008407592773438,1713570322550.0
13.129999999999995,-5.99639892578125,-0.101385498046875,6.727182006835938,1713570322560.0
13.139999999999986,-5.999838256835938,-0.533245849609375,6.288442993164063,1713570322570.0
13.150999999999954,-7.201211547851563,-0.2845672607421875,7.718606567382813,1713570322581.0
13.159999999999968,-7.868591308593751,0.6102569580078125,7.517031860351563,1713570322590.0
13.170999999999935,-7.247567749023438,1.02462158203125,5.322888183593751,1713570322601.0
13.180999999999926,-6.176290893554688,0.745587158203125,5.261279296875,1713570322611.0
13.190999999999915,-6.4856811523437505,0.3195587158203125,7.520620727539063,1713570322621.0
13.200999999999908,-7.182818603515625,0.36845703125,9.023757934570312,1713570322631.0
13.211000000000013,-6.603366088867188,0.2642303466796875,7.532284545898438,1713570322641.0
13.221000000000004,-5.89830322265625,-0.2474822998046875,5.222998046875,1713570322651.0
13.230999999999996,-6.3798095703125,-0.9637603759765626,6.860568237304688,1713570322661.0
13.240999999999984,-6.740042114257813,-0.9658538818359376,7.847357177734375,1713570322671.0
13.250999999999976,-7.916143798828125,-0.2609405517578125,7.768252563476563,1713570322681.0
13.260999999999967,-6.443960571289063,0.7671203613281251,5.529397583007813,1713570322691.0
13.270999999999958,-6.829464721679688,1.1575592041015623,5.755496215820313,1713570322701.0
13.280999999999947,-7.838085937500001,0.39776611328125,8.33035888671875,1713570322711.0
13.29099999999994,-5.937631225585938,-0.0755157470703125,7.699465942382813,1713570322721.0
13.30099999999993,-5.318850708007813,-0.149835205078125,7.352392578125,1713570322731.0
13.312000000000012,-6.043652343750001,-0.0168975830078125,6.787445068359376,1713570322742.0
13.322000000000005,-7.421478271484376,-0.258099365234375,7.744027709960938,1713570322752.0
13.331999999999994,-8.078390502929688,-0.7708587646484376,7.579238891601563,1713570322762.0
13.341999999999985,-6.5200744628906255,-0.7091003417968751,5.380459594726563,1713570322772.0
13.351999999999975,-6.350350952148438,-0.3303253173828125,5.35638427734375,1713570322782.0
13.361999999999966,-6.779071044921875,0.465057373046875,7.784701538085938,1713570322792.0
13.371999999999955,-7.099975585937501,0.94686279296875,8.912203979492189,1713570322802.0
13.381999999999948,-6.0435028076171875,0.8205047607421876,7.918536376953125,1713570322812.0
13.39199999999994,-5.7098876953125,0.39417724609375,5.594296264648438,1713570322822.0
13.40199999999993,-7.160537719726563,-0.0704315185546875,7.111938476562501,1713570322832.0
13.41199999999992,-7.538714599609375,-0.28651123046875,7.28001708984375,1713570322842.0
13.421999999999912,-7.011300659179688,-0.796429443359375,6.542803955078125,1713570322852.0
13.432000000000016,-6.639254760742188,-0.7188201904296876,6.133822631835938,1713570322862.0
13.442999999999984,-6.249713134765625,-0.252716064453125,6.932046508789063,1713570322873.0
13.452999999999976,-6.556411743164063,0.121124267578125,8.469277954101564,1713570322883.0
13.462999999999964,-6.344668579101563,0.4544403076171875,8.172149658203125,1713570322893.0
13.472999999999956,-6.154159545898438,0.554779052734375,6.784454345703126,1713570322903.0
