time,ax,ay,az,timestamp
0.0,7.1526123046875005,-0.5543304443359376,6.694134521484376,1713732088937.0
0.0099999999999909,6.790884399414063,-0.9153106689453124,7.577294921875,1713732088947.0
0.0199999999999818,6.392669677734376,-1.0309020996093752,6.801800537109376,1713732088957.0
0.0299999999999727,6.308929443359376,-0.8765808105468751,7.272390747070313,1713732088967.0
0.0409999999999968,7.192538452148438,-0.6608001708984376,7.080386352539063,1713732088978.0
0.0500000000000113,6.929055786132813,-0.1036285400390625,7.801748657226563,1713732088987.0
0.0600000000000022,7.857376098632813,0.923834228515625,6.598431396484376,1713732088997.0
0.0699999999999931,6.272293090820313,1.8144714355468752,5.987277221679688,1713732089007.0
0.0810000000000172,6.562542724609376,1.585382080078125,6.241040039062501,1713732089018.0
0.0910000000000081,7.758084106445313,0.8347106933593751,8.335742187500001,1713732089028.0
0.100999999999999,6.529495239257813,-0.2253509521484375,7.561294555664063,1713732089038.0
0.11099999999999,7.039862060546875,-0.3120819091796875,6.908419799804688,1713732089048.0
0.1209999999999809,6.4004455566406255,-0.4079345703125,6.2003662109375,1713732089058.0
0.1309999999999718,7.452432250976563,-0.46715087890625,6.185861206054688,1713732089068.0
0.1410000000000195,7.990313720703125,-0.5250213623046875,7.531686401367188,1713732089078.0
0.1510000000000104,7.679278564453125,-0.8061492919921875,4.9933105468750005,1713732089088.0
0.1610000000000013,7.075451660156251,-0.4119720458984375,6.591104125976563,1713732089098.0
0.1709999999999922,6.584674072265625,0.11544189453125,6.797912597656251,1713732089108.0
0.1809999999999831,6.043353271484375,0.769512939453125,8.934634399414064,1713732089118.0
0.190999999999974,6.0328857421875,0.7328765869140625,8.644235229492189,1713732089128.0
0.2010000000000218,6.007464599609375,0.533843994140625,7.451235961914063,1713732089138.0
0.2110000000000127,6.773538208007813,0.339447021484375,6.615179443359375,1713732089148.0
0.2210000000000036,7.705447387695313,0.1469940185546875,6.667965698242188,1713732089158.0
0.2319999999999709,7.641744995117188,-0.2420989990234375,6.432296752929688,1713732089169.0
0.2420000000000186,7.574603271484375,-0.59156494140625,5.679232788085938,1713732089179.0
0.2520000000000095,6.890625000000001,-0.590069580078125,6.477008056640625,1713732089189.0
0.2620000000000004,6.978851318359376,-0.096002197265625,7.122256469726563,1713732089199.0
0.2719999999999913,6.492709350585938,0.4514495849609375,8.420828247070313,1713732089209.0
0.2819999999999822,6.726135253906251,0.9346008300781252,7.254595947265625,1713732089219.0
0.2919999999999731,7.056460571289063,1.160699462890625,6.4796997070312505,1713732089229.0
0.3020000000000209,7.202108764648438,1.11673583984375,6.203506469726563,1713732089239.0
0.3120000000000118,6.985580444335938,0.8653656005859376,6.985430908203125,1713732089249.0
0.3220000000000027,6.497195434570313,0.2549591064453125,7.045394897460938,1713732089259.0
0.3319999999999936,6.777426147460938,-0.5561248779296876,7.2267822265625,1713732089269.0
0.3419999999999845,7.163827514648438,-1.6247100830078127,7.169210815429688,1713732089279.0
0.3519999999999754,7.280764770507813,-1.5861297607421876,7.1152282714843755,1713732089289.0
0.3629999999999995,7.554415893554688,-0.5357879638671875,7.045245361328125,1713732089300.0
0.3729999999999904,5.709439086914063,0.4269256591796875,6.856082153320313,1713732089310.0
0.3829999999999813,6.173599243164063,0.6126495361328126,6.256143188476563,1713732089320.0
0.3929999999999722,9.7342041015625,0.54251708984375,6.877615356445313,1713732089330.0
0.40300000000002,8.359967041015626,-0.1975372314453125,4.291387939453125,1713732089340.0
0.4130000000000109,7.381552124023438,-0.1096099853515625,5.261129760742188,1713732089350.0
0.4230000000000018,5.553921508789063,0.8432342529296876,8.029193115234376,1713732089360.0
0.4329999999999927,5.685513305664063,1.045556640625,9.954470825195314,1713732089370.0
0.4429999999999836,5.866900634765625,0.492572021484375,9.890469360351563,1713732089380.0
0.4529999999999745,6.817352294921876,-0.2827728271484375,5.2564941406250005,1713732089390.0
0.4630000000000223,7.631427001953125,-0.011962890625,5.940621948242188,1713732089400.0
0.4730000000000132,7.212277221679688,0.6395660400390626,5.994305419921876,1713732089410.0
0.4830000000000041,7.794122314453125,0.6421081542968751,7.796066284179688,1713732089420.0
0.492999999999995,7.324728393554688,-0.19678955078125,6.734060668945313,1713732089430.0
0.5040000000000191,6.935186767578125,-1.0513885498046875,4.7151733398437505,1713732089441.0
0.51400000000001,6.799258422851563,-1.0113128662109376,7.2632690429687505,1713732089451.0
0.5240000000000009,6.96658935546875,-0.7406524658203125,7.513742065429688,1713732089461.0
0.5339999999999918,6.533084106445313,-0.320904541015625,8.791229248046875,1713732089471.0
0.5439999999999827,7.128985595703125,-0.0740203857421875,5.6955322265625,1713732089481.0
0.5539999999999736,6.741537475585938,0.6181823730468751,6.488372802734376,1713732089491.0
0.5640000000000214,6.8385864257812505,1.6081115722656252,6.994253540039063,1713732089501.0
0.5740000000000123,6.906326293945313,1.9357452392578127,8.277124023437501,1713732089511.0
0.5840000000000032,6.844268798828126,1.002191162109375,7.104461669921876,1713732089521.0
0.5939999999999941,7.1376586914062505,-0.1897613525390625,5.68955078125,1713732089531.0
0.603999999999985,6.809127807617188,-0.8542999267578125,6.745724487304688,1713732089541.0
0.6139999999999759,6.798062133789063,-0.7113433837890626,7.852890014648438,1713732089551.0
0.6240000000000236,6.141299438476563,-0.7408020019531251,8.44281005859375,1713732089561.0
0.6349999999999909,7.186557006835938,-0.9323577880859376,5.645587158203125,1713732089572.0
0.6449999999999818,7.978350830078125,-1.1330352783203126,5.1223602294921875,1713732089582.0
0.6549999999999727,8.87586669921875,-0.6433044433593751,5.238101196289063,1713732089592.0
0.6650000000000205,7.585968017578126,0.712689208984375,7.236950683593751,1713732089602.0
0.6750000000000114,6.177188110351563,1.37513427734375,7.7657104492187505,1713732089612.0
0.6850000000000023,4.638162231445313,1.6220184326171876,8.50501708984375,1713732089622.0
0.6949999999999932,5.7294769287109375,1.389041137695313,8.800650024414063,1713732089632.0
0.7049999999999841,6.863259887695313,1.102978515625,7.988519287109376,1713732089642.0
0.7180000000000177,8.21072998046875,0.079852294921875,5.795123291015625,1713732089655.0
0.7250000000000227,8.398696899414062,-0.738409423828125,5.0191802978515625,1713732089662.0
0.7350000000000136,6.881503295898438,-0.7702606201171875,5.3376922607421875,1713732089672.0
0.7450000000000045,6.775033569335938,-0.5223297119140625,7.7402893066406255,1713732089682.0
0.7549999999999955,6.844866943359375,-0.8507110595703126,8.27174072265625,1713732089692.0
0.7649999999999864,7.155303955078126,-1.4066864013671876,6.804342651367188,1713732089702.0
0.7749999999999773,6.647329711914063,-0.7233062744140626,6.099130249023438,1713732089712.0
0.7849999999999682,6.835147094726563,0.8270843505859375,6.890325927734375,1713732089722.0
0.7959999999999923,6.991860961914063,1.8004150390625002,8.038613891601564,1713732089733.0
0.8059999999999832,7.000384521484375,1.5107635498046876,7.396804809570313,1713732089743.0
0.8179999999999836,6.818548583984375,1.0125091552734375,5.993856811523438,1713732089755.0
0.8260000000000218,6.419586181640626,0.7076049804687501,6.542654418945313,1713732089763.0
0.8360000000000127,6.610394287109376,0.396270751953125,8.017379760742188,1713732089773.0
0.8460000000000036,7.172799682617188,-0.5070770263671875,8.147625732421876,1713732089783.0
0.8559999999999945,7.629931640625,-1.5164459228515623,6.017483520507813,1713732089793.0
0.8659999999999854,7.314410400390625,-1.4527435302734375,5.182025146484375,1713732089803.0
0.8759999999999764,6.602020263671876,-0.5700317382812501,6.973019409179688,1713732089813.0
0.8859999999999673,6.642843627929688,0.2739501953125,7.875320434570313,1713732089823.0
0.896000000000015,7.595538330078125,0.545208740234375,7.945452880859375,1713732089833.0
0.906000000000006,7.672698974609376,0.15611572265625,4.476812744140625,1713732089843.0
0.9180000000000064,7.352990722656251,0.052337646484375,5.107107543945313,1713732089855.0
0.9270000000000208,6.709237670898438,0.777288818359375,7.843917846679688,1713732089864.0
0.9370000000000118,5.907125854492188,1.042266845703125,9.422869873046876,1713732089874.0
0.9470000000000028,5.632876586914063,0.5441619873046876,8.724386596679688,1713732089884.0
0.9569999999999936,6.460858154296876,-0.488385009765625,5.422329711914063,1713732089894.0
0.9669999999999844,7.993453979492188,-0.66693115234375,6.701461791992188,1713732089904.0
0.9769999999999754,8.82203369140625,0.0073272705078125,5.900396728515625,1713732089914.0
0.9870000000000232,7.7411865234375,0.3539520263671875,6.501382446289063,1713732089924.0
0.997000000000014,6.0056701660156255,-0.0402252197265625,5.713925170898438,1713732089934.0
1.007000000000005,6.029446411132813,-0.2292388916015625,7.617819213867188,1713732089944.0
1.016999999999996,6.549234008789063,0.0952545166015625,9.31729736328125,1713732089954.0
1.0269999999999868,6.8415771484375005,0.1114044189453125,7.864105224609376,1713732089964.0
1.0369999999999775,7.179678344726563,-0.01016845703125,6.350350952148438,1713732089974.0
1.0469999999999686,7.359869384765625,0.3120819091796875,4.955776977539063,1713732089984.0
1.0570000000000164,7.298709106445313,0.9957611083984376,6.639254760742188,1713732089994.0
1.0670000000000073,7.442562866210938,0.8178131103515626,7.160836791992188,1713732090004.0
1.0769999999999982,6.978253173828126,-0.07357177734375,7.400842285156251,1713732090014.0
1.0880000000000225,6.174197387695313,-0.6663330078125,6.597982788085938,1713732090025.0
1.0980000000000132,6.304592895507813,-0.19320068359375,7.8273193359375,1713732090035.0
1.108000000000004,6.712677001953126,0.245538330078125,8.504119873046875,1713732090045.0
1.117999999999995,7.140200805664063,0.1481903076171875,7.066180419921875,1713732090055.0
1.127999999999986,7.172799682617188,0.055328369140625,5.545248413085938,1713732090065.0
1.1379999999999768,7.1645751953125005,0.130096435546875,5.5096588134765625,1713732090075.0
1.1479999999999675,7.540060424804688,0.496160888671875,7.316952514648438,1713732090085.0
1.1580000000000157,7.213623046875001,0.160003662109375,7.194931030273438,1713732090095.0
1.1680000000000064,7.33145751953125,-0.5347412109375,6.199020385742188,1713732090105.0
1.1779999999999973,6.861764526367188,-0.9667510986328126,5.893069458007813,1713732090115.0
1.1879999999999882,6.440371704101563,-0.401654052734375,7.745672607421875,1713732090125.0
1.197999999999979,6.2823120117187505,0.424981689453125,8.871380615234376,1713732090135.0
1.20799999999997,6.796417236328126,0.74110107421875,7.763467407226563,1713732090145.0
1.218999999999994,7.1286865234375005,0.4774688720703125,5.59683837890625,1713732090156.0
1.228999999999985,7.539611816406251,0.440234375,5.50352783203125,1713732090166.0
1.238999999999976,7.122854614257813,0.9256286621093752,7.143341064453126,1713732090176.0
1.2490000000000236,6.892269897460938,0.6869689941406251,7.777374267578126,1713732090186.0
1.2590000000000146,6.780865478515626,-0.2965301513671875,7.312017822265625,1713732090196.0
1.271000000000015,7.079937744140626,-1.2224578857421875,5.677886962890625,1713732090208.0
1.2789999999999964,6.663479614257813,-1.0436126708984377,6.874026489257813,1713732090216.0
1.2889999999999873,6.398202514648438,-0.38101806640625,7.458712768554688,1713732090226.0
1.2989999999999782,7.575949096679688,-0.1036285400390625,7.823132324218751,1713732090236.0
1.308999999999969,7.809823608398438,-0.194696044921875,5.967987060546875,1713732090246.0
1.3190000000000168,7.755691528320313,0.273052978515625,5.334851074218751,1713732090256.0
1.3290000000000075,6.655404663085938,1.38111572265625,6.802249145507813,1713732090266.0
1.3389999999999986,5.6905975341796875,1.7190673828125,8.157046508789064,1713732090276.0
1.3489999999999895,6.446353149414063,0.9323577880859376,9.004318237304688,1713732090286.0
1.3589999999999804,6.584524536132813,-0.1903594970703125,7.230670166015625,1713732090296.0
1.3700000000000043,7.279867553710938,-0.4894317626953125,6.091055297851563,1713732090307.0
1.3799999999999957,7.499835205078125,-0.14774169921875,6.519177246093751,1713732090317.0
1.3899999999999864,7.225735473632813,-0.2050140380859375,6.334350585937501,1713732090327.0
1.3999999999999773,7.718756103515625,-0.5908172607421875,6.537121582031251,1713732090337.0
1.4099999999999682,6.891522216796876,-0.7974761962890625,6.0968872070312505,1713732090347.0
1.420000000000016,6.593197631835938,-0.31282958984375,7.328018188476563,1713732090357.0
1.4300000000000068,6.422726440429688,0.5102172851562501,8.281610107421876,1713732090367.0
1.4399999999999975,6.628787231445313,0.7678680419921876,7.892816162109376,1713732090377.0
1.4499999999999886,7.156500244140625,0.7348205566406251,6.548934936523438,1713732090387.0
1.4599999999999795,6.904830932617188,0.728240966796875,5.897106933593751,1713732090397.0
1.4699999999999704,6.954925537109376,0.85474853515625,6.908569335937501,1713732090407.0
1.4800000000000182,6.911260986328125,0.5698822021484375,7.771243286132813,1713732090417.0
1.490000000000009,6.960159301757813,-0.2394073486328125,7.219454956054688,1713732090427.0
1.5,7.024310302734375,-0.8300750732421875,6.0424560546875,1713732090437.0
1.509999999999991,7.347756958007813,-1.079949951171875,6.181076049804688,1713732090447.0
1.521000000000015,7.103115844726563,-0.61907958984375,7.334298706054688,1713732090458.0
1.531000000000006,6.839334106445313,-0.2112945556640625,7.307232666015626,1713732090468.0
1.5409999999999968,6.887634277343751,0.1526763916015625,6.970028686523438,1713732090478.0
1.5509999999999875,7.248165893554688,0.245538330078125,5.711981201171875,1713732090488.0
1.5609999999999786,7.467984008789063,0.434552001953125,6.719256591796875,1713732090498.0
1.5709999999999695,6.783108520507813,0.6733612060546875,7.06468505859375,1713732090508.0
1.5810000000000173,6.388333129882813,0.9072357177734376,8.244973754882814,1713732090518.0
1.5910000000000082,5.942117309570313,0.5166473388671875,7.101470947265626,1713732090528.0
1.600999999999999,7.034030151367188,-0.117535400390625,6.8864379882812505,1713732090538.0
1.61099999999999,7.439273071289063,-0.6655853271484375,6.44560546875,1713732090548.0
1.620999999999981,7.637408447265625,-0.6320892333984376,6.680825805664063,1713732090558.0
1.6309999999999718,7.696774291992188,-0.2666229248046875,6.575851440429688,1713732090568.0
1.6410000000000196,7.290036010742188,-0.0049346923828125,6.405978393554688,1713732090578.0
1.6510000000000105,5.845068359375,0.2854644775390625,6.889279174804688,1713732090588.0
1.6610000000000014,6.336294555664063,0.5097686767578126,7.723690795898438,1713732090598.0
1.6719999999999686,6.805389404296876,0.5668914794921875,8.524606323242189,1713732090609.0
1.6820000000000164,7.299008178710938,0.2735015869140625,6.621609497070313,1713732090619.0
1.6920000000000073,7.175640869140626,0.3096893310546875,6.4755126953125,1713732090629.0
1.7019999999999982,7.143191528320313,0.5169464111328126,5.6378112792968755,1713732090639.0
1.711999999999989,7.132424926757813,0.463262939453125,7.250408935546876,1713732090649.0
1.72199999999998,7.113284301757813,-0.1945465087890625,7.164425659179688,1713732090659.0
1.7339999999999804,6.877914428710938,-0.6990814208984375,7.105807495117188,1713732090671.0
1.7420000000000186,6.177487182617188,-0.4176544189453125,7.1421447753906255,1713732090679.0
1.7520000000000095,6.650021362304688,0.104376220703125,7.626342773437501,1713732090689.0
1.7620000000000005,7.127340698242188,0.3868499755859375,7.689596557617188,1713732090699.0
1.7719999999999914,7.489218139648438,0.3126800537109375,6.0251098632812505,1713732090709.0
1.7819999999999825,7.127490234375,0.4140655517578125,5.71048583984375,1713732090719.0
1.7930000000000064,7.06229248046875,0.343035888671875,6.169860839843751,1713732090730.0
1.8029999999999973,7.26566162109375,0.1984344482421875,7.96190185546875,1713732090740.0
1.812999999999988,6.59813232421875,-0.251220703125,7.5114990234375005,1713732090750.0
1.822999999999979,6.52037353515625,-0.4062896728515625,6.815707397460938,1713732090760.0
1.8340000000000032,6.564187622070313,-0.3333160400390625,6.797314453125001,1713732090771.0
1.8430000000000175,7.293475341796875,0.0261688232421875,7.46962890625,1713732090780.0
1.8530000000000089,7.107901000976563,0.331671142578125,7.059451293945313,1713732090790.0
1.8629999999999995,7.4890686035156255,0.340643310546875,5.872134399414063,1713732090800.0
1.8729999999999905,7.20823974609375,0.1795928955078125,5.858377075195313,1713732090810.0
1.8829999999999816,7.156051635742188,0.056524658203125,6.797613525390625,1713732090820.0
1.8929999999999725,6.556561279296876,0.238360595703125,8.292825317382814,1713732090830.0
1.90300000000002,6.407174682617188,0.114544677734375,7.492807006835938,1713732090840.0
1.913000000000011,6.5828796386718755,-0.1586578369140625,7.116873168945313,1713732090850.0
1.9230000000000016,7.327569580078125,-0.3093902587890625,6.161038208007813,1713732090860.0
1.933999999999969,7.055712890625,0.1048248291015625,6.99649658203125,1713732090871.0
1.9440000000000168,6.834249877929688,0.3696533203125,6.447698974609375,1713732090881.0
1.9540000000000075,7.434786987304688,0.04306640625,6.806585693359375,1713732090891.0
1.9639999999999984,7.609445190429688,-0.5441619873046876,6.322387695312501,1713732090901.0
1.9739999999999895,7.657296752929688,-0.3552978515625,6.753500366210938,1713732090911.0
1.9839999999999804,6.582431030273438,0.389093017578125,7.402188110351563,1713732090921.0
1.9939999999999711,5.242138671875001,0.7928405761718751,7.377365112304688,1713732090931.0
2.004000000000019,6.552075195312501,0.6238647460937501,8.344714355468751,1713732090941.0
2.01400000000001,7.300503540039063,0.2811279296875,7.464544677734375,1713732090951.0
2.024000000000001,7.620510864257813,0.28232421875,6.085971069335938,1713732090961.0
2.033999999999992,7.329663085937501,0.48270263671875,5.860470581054688,1713732090971.0
2.0439999999999827,6.8505493164062505,0.296380615234375,6.135317993164063,1713732090981.0
2.0539999999999736,7.438525390625,-0.350213623046875,7.5503784179687505,1713732090991.0
2.064000000000022,6.790286254882813,-0.813177490234375,7.323532104492188,1713732091001.0
2.0740000000000123,6.4153991699218755,-0.7690643310546875,6.993356323242188,1713732091011.0
2.084000000000003,6.4946533203125005,-0.21114501953125,7.34940185546875,1713732091021.0
2.0949999999999704,7.052572631835938,0.172564697265625,7.209735107421875,1713732091032.0
2.105000000000018,7.7148681640625005,0.566741943359375,7.044497680664063,1713732091042.0
2.115000000000009,6.879708862304688,0.8115325927734376,5.712429809570313,1713732091052.0
2.125,6.710284423828125,1.0539306640625,6.541607666015626,1713732091062.0
2.134999999999991,6.817352294921876,0.7856628417968751,7.661782836914063,1713732091072.0
2.144999999999982,6.983486938476563,0.1176849365234375,7.840179443359376,1713732091082.0
2.1549999999999727,6.699069213867188,-0.4364959716796875,6.836193847656251,1713732091092.0
2.1650000000000205,7.153659057617188,-0.9132171630859376,6.045297241210938,1713732091102.0
2.1750000000000114,7.0000854492187505,-0.72315673828125,7.089508056640626,1713732091112.0
2.1850000000000023,7.076498413085938,-0.4047943115234375,7.093844604492188,1713732091122.0
2.194999999999993,7.063787841796875,0.0657958984375,7.380056762695313,1713732091132.0
2.204999999999984,7.344467163085938,0.122021484375,5.21881103515625,1713732091142.0
2.214999999999975,7.530191040039063,0.2477813720703125,6.607553100585938,1713732091152.0
2.2250000000000227,6.857876586914063,0.442626953125,6.657797241210938,1713732091162.0
2.23599999999999,6.386837768554688,0.9224884033203126,8.625094604492189,1713732091173.0
2.245999999999981,5.940921020507813,0.6836791992187501,7.514340209960938,1713732091183.0
2.255999999999972,6.9716735839843755,-0.010467529296875,6.8505493164062505,1713732091193.0
2.2660000000000196,7.061544799804688,-0.6316406250000001,6.21591796875,1713732091203.0
2.2760000000000105,7.829861450195313,-0.4786651611328125,6.7204528808593755,1713732091213.0
2.286000000000002,7.256240844726563,-0.098095703125,6.929205322265625,1713732091223.0
2.2959999999999923,7.912255859375,-0.1580596923828125,6.202459716796875,1713732091233.0
2.305999999999983,6.476559448242188,-0.0139068603515625,6.622506713867188,1713732091243.0
2.315999999999974,5.7499633789062505,0.2926422119140625,6.797463989257813,1713732091253.0
2.326000000000022,6.711331176757813,0.7385589599609376,9.110339355468753,1713732091263.0
2.3360000000000127,7.002777099609376,0.361578369140625,7.607052612304688,1713732091273.0
2.3460000000000036,7.180725097656251,0.1960418701171875,6.6083007812500005,1713732091283.0
2.3559999999999945,7.150369262695313,0.4308135986328125,5.300607299804688,1713732091293.0
2.3659999999999854,7.282858276367188,0.6341827392578125,6.395361328125,1713732091303.0
2.3770000000000095,7.4427124023437505,0.0964508056640625,7.459310913085938,1713732091314.0
2.3870000000000005,6.89481201171875,-0.6661834716796875,7.097732543945313,1713732091324.0
2.3969999999999914,6.108102416992188,-0.665435791015625,7.051824951171875,1713732091334.0
2.4069999999999823,6.4168945312500005,-0.070880126953125,7.712774658203125,1713732091344.0
2.416999999999973,6.859671020507813,0.3721954345703125,7.996893310546875,1713732091354.0
2.427000000000021,7.617819213867188,0.3769805908203125,6.658245849609376,1713732091364.0
2.437000000000012,7.2507080078125,0.4499542236328125,5.262026977539063,1713732091374.0
2.4470000000000027,7.0255065917968755,0.506329345703125,5.741738891601563,1713732091384.0
2.4569999999999936,7.3081298828125005,0.3850555419921875,7.6239501953125,1713732091394.0
2.4669999999999845,6.844119262695313,-0.1894622802734375,7.894012451171876,1713732091404.0
2.476999999999975,6.529196166992188,-0.54371337890625,7.070217895507813,1713732091414.0
2.487000000000023,6.343023681640625,-0.6304443359375,6.444558715820313,1713732091424.0
2.497000000000014,6.987075805664063,-0.1535736083984375,7.534378051757813,1713732091434.0
2.507000000000005,7.266409301757813,0.245538330078125,7.330859375,1713732091444.0
2.5179999999999723,7.604360961914063,0.396270751953125,6.421530151367188,1713732091455.0
2.52800000000002,7.134518432617188,0.3129791259765625,5.1567535400390625,1713732091465.0
2.538000000000011,7.103713989257813,0.3605316162109375,6.685910034179688,1713732091475.0
2.548000000000002,6.619964599609376,0.442626953125,8.083175659179688,1713732091485.0
2.5579999999999927,6.726284790039063,0.2080047607421875,8.057156372070313,1713732091495.0
2.5679999999999836,6.372930908203125,-0.3072967529296875,6.957467651367188,1713732091505.0
2.5779999999999745,7.029095458984376,-0.4948150634765625,6.066830444335938,1713732091515.0
2.5880000000000223,6.956869506835938,-0.0420196533203125,7.197772216796875,1713732091525.0
2.598000000000013,7.1310791015625,0.206658935546875,6.699966430664063,1713732091535.0
2.608000000000004,7.373028564453126,-0.0291595458984375,6.8789611816406255,1713732091545.0
2.617999999999995,7.655651855468751,-0.484197998046875,5.6651763916015625,1713732091555.0
2.627999999999986,7.456918334960938,-0.08074951171875,6.733163452148438,1713732091565.0
2.637999999999977,6.8140625,0.5588165283203126,7.563088989257813,1713732091575.0
2.649000000000001,5.372982788085938,0.8121307373046875,7.837188720703126,1713732091586.0
2.658999999999992,6.458914184570313,0.5244232177734376,7.864254760742188,1713732091596.0
2.6689999999999827,7.063787841796875,0.2011260986328125,7.469329833984376,1713732091606.0
2.6789999999999736,7.66881103515625,0.2178741455078125,6.2105346679687505,1713732091616.0
2.689000000000022,7.562042236328126,0.3381011962890625,6.2218994140625,1713732091626.0
2.6990000000000123,6.798062133789063,0.157611083984375,5.908023071289063,1713732091636.0
2.709000000000003,7.3828979492187505,-0.3431854248046875,7.113284301757813,1713732091646.0
2.718999999999994,6.821240234375001,-0.5882751464843751,7.473965454101563,1713732091656.0
2.728999999999985,6.455624389648438,-0.5505920410156251,7.138107299804688,1713732091666.0
2.738999999999976,6.524859619140625,-0.056524658203125,7.616772460937501,1713732091676.0
2.7490000000000236,7.04434814453125,0.16209716796875,6.669161987304688,1713732091686.0
2.7590000000000146,7.524359130859375,0.5550781250000001,7.115078735351563,1713732091696.0
2.7690000000000055,6.996197509765626,0.7393066406250001,5.920135498046875,1713732091706.0
2.7789999999999964,6.777426147460938,0.8643188476562501,6.8984008789062505,1713732091716.0
2.7889999999999873,6.742733764648438,0.526068115234375,7.17235107421875,1713732091726.0
2.798999999999978,6.972421264648438,-0.097198486328125,7.662530517578125,1713732091736.0
2.808999999999969,6.762771606445313,-0.3850555419921875,7.058554077148438,1713732091746.0
2.819999999999993,7.060647583007813,-0.66214599609375,6.262423706054688,1713732091757.0
2.829999999999984,6.986328125000001,-0.41451416015625,7.118368530273438,1713732091767.0
2.839999999999975,7.233361816406251,-0.2911468505859375,6.677984619140625,1713732091777.0
2.8500000000000227,7.1271911621093755,0.0994415283203125,7.271792602539063,1713732091787.0
2.8600000000000136,7.1630798339843755,0.20516357421875,5.60162353515625,1713732091797.0
2.8700000000000045,7.298410034179688,0.264678955078125,7.0473388671875,1713732091807.0
2.8799999999999955,6.832455444335938,0.2447906494140625,6.728079223632813,1713732091817.0
2.8899999999999864,6.702209472656251,0.5474517822265625,8.282058715820312,1713732091827.0
2.8999999999999773,6.11064453125,0.5356384277343751,7.299905395507813,1713732091837.0
2.909999999999968,7.0195251464843755,0.211444091796875,7.04375,1713732091847.0
2.920000000000016,7.069021606445313,-0.1317413330078125,6.520672607421876,1713732091857.0
2.930000000000007,7.295867919921876,-0.1855743408203125,6.279022216796876,1713732091867.0
2.940999999999974,6.941317749023438,-0.1191802978515625,6.914700317382813,1713732091878.0
2.951000000000022,7.496694946289063,-0.477618408203125,6.319247436523438,1713732091888.0
2.9610000000000127,7.744326782226563,-0.58438720703125,7.142294311523438,1713732091898.0
2.9710000000000036,7.291531372070313,-0.1640411376953125,6.442166137695313,1713732091908.0
2.9809999999999945,5.453433227539063,0.6712677001953126,7.422375488281251,1713732091918.0
2.9909999999999854,6.28709716796875,0.9674987792968752,7.493405151367188,1713732091928.0
3.0009999999999764,7.113134765625,0.468646240234375,8.444604492187501,1713732091938.0
3.0109999999999673,7.538714599609375,0.0817962646484375,6.180178833007813,1713732091948.0
3.021000000000015,7.187155151367188,0.3778778076171875,6.303396606445313,1713732091958.0
3.0330000000000155,6.749911499023438,0.5905181884765626,6.002081298828125,1713732091970.0
3.040999999999997,7.489666748046876,0.0967498779296875,7.385888671875,1713732091978.0
3.0509999999999877,7.17593994140625,-0.6510803222656251,7.198669433593751,1713732091988.0
3.060999999999978,6.583328247070313,-0.696240234375,6.508261108398438,1713732091998.0
3.0709999999999695,6.133523559570313,-0.1852752685546875,7.476507568359375,1713732092008.0
3.0810000000000173,6.878363037109375,0.238360595703125,7.745223999023438,1713732092018.0
3.0919999999999845,7.286895751953126,0.4188507080078125,7.787243652343751,1713732092029.0
3.101999999999975,7.264166259765625,0.489581298828125,5.383749389648438,1713732092039.0
3.112000000000023,7.159939575195313,0.7138854980468751,5.833404541015625,1713732092049.0
3.122000000000014,6.970626831054688,0.393280029296875,6.641348266601563,1713732092059.0
3.1340000000000146,7.350149536132813,0.0285614013671875,8.078540039062501,1713732092071.0
3.141999999999996,6.382052612304688,-0.4637115478515625,7.416543579101563,1713732092079.0
3.151999999999987,6.426165771484375,-0.5226287841796875,6.483587646484375,1713732092089.0
3.1619999999999777,6.770248413085938,-0.429168701171875,7.175192260742188,1713732092099.0
3.1719999999999686,7.668212890625001,-0.137274169921875,7.158743286132813,1713732092109.0
3.1820000000000164,7.27164306640625,0.205462646484375,6.802847290039063,1713732092119.0
3.1920000000000073,7.096835327148438,0.40733642578125,5.49395751953125,1713732092129.0
3.201999999999998,6.965542602539063,0.5060302734375001,6.5589538574218755,1713732092139.0
3.211999999999989,7.261474609375001,0.332269287109375,7.392318725585938,1713732092149.0
3.22199999999998,6.529644775390626,0.3111846923828125,8.201458740234376,1713732092159.0
3.2339999999999804,6.338088989257813,0.146844482421875,6.948046875,1713732092171.0
3.242999999999995,6.429904174804688,-0.0251220703125,7.042553710937501,1713732092180.0
3.252999999999986,7.586715698242188,-0.2068084716796875,6.485980224609375,1713732092190.0
3.262999999999977,7.244427490234376,-0.2406036376953125,6.99649658203125,1713732092200.0
3.2729999999999677,7.028646850585938,-0.2667724609375,5.7873474121093755,1713732092210.0
3.2830000000000155,7.5258544921875,-0.1667327880859375,7.0018798828125,1713732092220.0
3.2930000000000064,7.297213745117188,-0.3022125244140625,6.537271118164063,1713732092230.0
3.3029999999999973,7.608847045898438,0.1182830810546875,7.538565063476563,1713732092240.0
3.312999999999988,5.265316772460938,0.6410614013671876,6.900045776367188,1713732092250.0
3.322999999999979,6.145037841796875,0.9760223388671876,7.604360961914063,1713732092260.0
3.33299999999997,7.121658325195313,0.6880157470703125,8.498287963867188,1713732092270.0
3.3430000000000177,7.663128662109376,0.084039306640625,6.2628723144531255,1713732092280.0
3.3530000000000086,7.479199218750001,0.2788848876953125,6.429006958007813,1713732092290.0
3.3629999999999995,6.4363342285156255,0.2702117919921875,5.2355590820312505,1713732092300.0
3.3729999999999905,7.395758056640625,-0.0405242919921875,7.649221801757813,1713732092310.0
3.3840000000000146,7.3455139160156255,-0.8185607910156251,7.65445556640625,1713732092321.0
3.3940000000000055,6.6576477050781255,-0.892132568359375,6.657199096679688,1713732092331.0
3.4039999999999964,6.247171020507813,-0.3282318115234375,6.698171997070313,1713732092341.0
3.4139999999999873,6.987374877929688,0.2349212646484375,7.35538330078125,1713732092351.0
3.423999999999978,7.562939453125001,0.499749755859375,7.733261108398438,1713732092361.0
3.433999999999969,7.234558105468751,0.6987823486328125,6.2359558105468755,1713732092371.0
3.444000000000017,6.417642211914063,0.8560943603515626,5.673550415039063,1713732092381.0
3.4540000000000077,6.833651733398438,0.7560546875,7.337887573242188,1713732092391.0
3.463999999999998,6.932644653320313,0.3108856201171875,8.183963012695314,1713732092401.0
3.4739999999999895,7.147827148437501,-0.276641845703125,7.362261962890625,1713732092411.0
3.4839999999999804,6.640301513671876,-0.753363037109375,5.861367797851563,1713732092421.0
3.4939999999999714,7.036572265625001,-0.708502197265625,6.3974548339843755,1713732092431.0
3.504000000000019,7.089657592773438,-0.2501739501953125,7.766458129882813,1713732092441.0
3.51400000000001,7.239941406250001,0.02332763671875,7.114779663085938,1713732092451.0
3.5249999999999773,7.310971069335938,0.126507568359375,6.065634155273438,1713732092462.0
3.534999999999968,7.091003417968751,-0.026019287109375,5.380908203125,1713732092472.0
3.545000000000016,7.0916015625,0.40135498046875,7.521069335937501,1713732092482.0
3.555000000000007,6.5574584960937505,0.78177490234375,8.041903686523439,1713732092492.0
3.5649999999999977,6.489868164062501,0.5600128173828125,7.811618041992188,1713732092502.0
3.5749999999999886,6.385342407226563,-0.118731689453125,6.0146423339843755,1713732092512.0
3.5849999999999795,7.087564086914063,-0.46416015625,6.7234436035156255,1713732092522.0
3.5949999999999704,7.421478271484376,-0.1087127685546875,7.363308715820313,1713732092532.0
3.605000000000018,7.638754272460938,-0.016448974609375,7.139901733398438,1713732092542.0
3.615000000000009,7.845263671875,-0.0402252197265625,5.900097656250001,1713732092552.0
3.625,6.088662719726563,-0.05084228515625,5.655007934570313,1713732092562.0
3.634999999999991,6.264816284179688,0.4290191650390625,7.534976196289063,1713732092572.0
3.644999999999982,7.080386352539063,0.4634124755859375,9.01822509765625,1713732092582.0
3.656000000000006,6.767855834960938,0.02452392578125,7.728176879882813,1713732092593.0
3.665999999999997,6.94266357421875,-0.0231781005859375,5.877667236328126,1713732092603.0
3.6750000000000114,6.8625122070312505,0.575714111328125,5.975613403320313,1713732092612.0
3.685999999999978,7.527648925781251,0.7843170166015626,6.9417663574218755,1713732092623.0
3.6959999999999695,7.5608459472656255,0.15791015625,7.513592529296876,1713732092633.0
3.7060000000000177,6.791033935546875,-0.5064788818359376,6.025857543945313,1713732092643.0
3.716000000000008,6.252853393554688,-0.338250732421875,7.033880615234375,1713732092653.0
3.725999999999999,6.347509765625,0.1254608154296875,8.049679565429688,1713732092663.0
3.73599999999999,7.11014404296875,0.2181732177734375,8.266058349609375,1713732092673.0
3.745999999999981,7.164126586914063,0.0955535888671875,6.594692993164063,1713732092683.0
3.755999999999972,7.029095458984376,0.121722412109375,4.830615234375,1713732092693.0
3.766000000000019,7.328167724609376,0.367559814453125,6.413754272460938,1713732092703.0
3.7760000000000105,7.522714233398438,0.1613494873046875,7.225137329101563,1713732092713.0
3.786000000000002,7.205697631835938,-0.1449005126953125,7.863058471679688,1713732092723.0
3.795999999999992,6.375921630859375,-0.60113525390625,5.810076904296875,1713732092733.0
3.805999999999983,6.419586181640626,-0.33974609375,7.237100219726563,1713732092743.0
3.8170000000000073,6.8012023925781255,0.086431884765625,7.868591308593751,1713732092754.0
3.826999999999998,7.365701293945313,0.447113037109375,8.0809326171875,1713732092764.0
3.836999999999989,6.904083251953126,0.4260284423828125,5.768804931640625,1713732092774.0
3.84699999999998,7.151565551757813,0.4290191650390625,5.54599609375,1713732092784.0
3.856999999999971,7.025057983398438,0.5208343505859375,7.016235351562501,1713732092794.0
3.867000000000018,7.408169555664063,0.384307861328125,7.820291137695313,1713732092804.0
3.8770000000000095,6.500335693359376,-0.098992919921875,7.727728271484375,1713732092814.0
3.887000000000001,6.75125732421875,-0.60711669921875,5.707644653320313,1713732092824.0
3.8969999999999914,6.593795776367188,-0.5115631103515625,7.1451354980468755,1713732092834.0
3.9069999999999823,7.316952514648438,-0.1957427978515625,7.017132568359376,1713732092844.0
3.916999999999973,6.745724487304688,0.005682373046875,7.694082641601563,1713732092854.0
3.927000000000021,7.456918334960938,-0.124713134765625,5.546743774414063,1713732092864.0
3.937000000000012,7.442263793945313,-0.0031402587890625,6.574505615234376,1713732092874.0
3.9499999999999886,7.896554565429688,0.38819580078125,6.443063354492188,1713732092887.0
3.95799999999997,6.50601806640625,0.7693634033203126,7.829113769531251,1713732092895.0
3.9680000000000177,5.2195587158203125,0.8082427978515626,7.153210449218751,1713732092905.0
3.9780000000000086,6.588711547851563,0.4442718505859375,8.197122192382814,1713732092915.0
3.987999999999999,6.984683227539063,-0.0629547119140625,7.8153564453125,1713732092925.0
3.9979999999999905,8.083624267578125,-0.2106964111328125,6.3361450195312505,1713732092935.0
4.007999999999981,6.993206787109376,0.1460968017578125,5.941519165039063,1713732092945.0
4.017999999999972,6.989767456054688,0.0808990478515625,5.239447021484375,1713732092955.0
4.02800000000002,7.568621826171875,-0.2068084716796875,7.895956420898438,1713732092965.0
4.038000000000011,7.111639404296875,-0.5875274658203126,6.906326293945313,1713732092975.0
4.050000000000011,6.133523559570313,-0.247930908203125,7.748214721679688,1713732092987.0
4.057999999999993,6.363809204101563,0.13697509765625,6.6645263671875,1713732092995.0
4.067999999999984,6.993206787109376,0.4350006103515625,7.998986816406251,1713732093005.0
4.0779999999999745,7.5728088378906255,0.5531341552734376,6.875372314453125,1713732093015.0
4.088999999999999,6.865802001953125,0.7209136962890625,6.043801879882813,1713732093026.0
4.098000000000013,6.66990966796875,0.6754547119140626,6.223693847656251,1713732093035.0
4.1089999999999804,7.176837158203125,0.298175048828125,7.271493530273438,1713732093046.0
4.118999999999971,7.141995239257813,-0.24404296875,7.818496704101563,1713732093056.0
4.129000000000019,7.079040527343751,-0.6910064697265625,6.2942749023437505,1713732093066.0
4.13900000000001,6.592300415039063,-0.804205322265625,6.584524536132813,1713732093076.0
4.149999999999977,7.048385620117188,-0.458477783203125,6.889727783203125,1713732093087.0
4.158999999999992,6.965841674804688,0.0468048095703125,7.942312622070313,1713732093096.0
4.168999999999983,7.257138061523438,0.34273681640625,6.491513061523438,1713732093106.0
4.178999999999974,7.123452758789063,0.3973175048828125,5.9238739013671875,1713732093116.0
4.189000000000021,7.071115112304688,0.414215087890625,6.244030761718751,1713732093126.0
4.199000000000012,6.879708862304688,0.73870849609375,7.940817260742188,1713732093136.0
4.209000000000003,6.5395141601562505,0.6165374755859375,7.852890014648438,1713732093146.0
4.218999999999994,6.528448486328125,0.072076416015625,6.9779541015625,1713732093156.0
4.228999999999985,6.744079589843751,-0.5546295166015626,6.087167358398438,1713732093166.0
4.238999999999976,7.363159179687501,-0.6850250244140625,6.880905151367188,1713732093176.0
4.25,7.434936523437501,-0.38341064453125,7.145584106445313,1713732093187.0
4.259999999999991,7.474264526367188,-0.241650390625,6.775930786132813,1713732093197.0
4.269999999999982,7.587313842773438,0.0354400634765625,6.106756591796875,1713732093207.0
4.279999999999973,6.011801147460938,0.4984039306640625,6.56224365234375,1713732093217.0
4.2900000000000205,6.187356567382813,1.0587158203125,7.883395385742188,1713732093227.0
4.300000000000011,7.00487060546875,0.8064483642578125,8.545989990234375,1713732093237.0
4.310000000000002,6.954925537109376,0.16807861328125,6.972869873046876,1713732093247.0
4.319999999999993,7.214520263671876,-0.0112152099609375,6.06279296875,1713732093257.0
4.329999999999984,6.923971557617188,0.287408447265625,6.159243774414063,1713732093267.0
4.339999999999975,7.379159545898438,0.1383209228515625,6.917391967773438,1713732093277.0
4.350000000000023,7.451834106445313,-0.5064788818359376,7.416842651367188,1713732093287.0
4.360000000000014,6.6800781250000005,-0.8249908447265626,6.125747680664063,1713732093297.0
4.3700000000000045,6.366500854492188,-0.23746337890625,7.368243408203125,1713732093307.0
4.3799999999999955,6.497793579101563,0.4858428955078125,7.884442138671876,1713732093317.0
4.389999999999986,7.121359252929688,0.6640899658203125,7.916293334960938,1713732093327.0
4.4010000000000105,7.243231201171875,0.631939697265625,6.275582885742188,1713732093338.0
4.411000000000001,7.030142211914063,0.5973968505859375,5.261279296875,1713732093348.0
4.420999999999992,7.131228637695313,0.5244232177734376,6.775482177734376,1713732093358.0
4.430999999999983,7.349850463867188,-0.126806640625,7.382000732421876,1713732093368.0
4.440999999999974,7.075451660156251,-0.6525756835937501,7.751953125000001,1713732093378.0
4.451000000000022,6.296218872070313,-0.9884338378906252,5.959613037109375,1713732093388.0
4.461000000000013,6.590655517578125,-0.5785552978515626,7.327420043945313,1713732093398.0
4.471000000000004,7.126742553710938,-0.0669921875,7.482339477539063,1713732093408.0
4.4809999999999945,7.709484863281251,0.3672607421875,7.356430053710938,1713732093418.0
4.4909999999999854,6.947897338867188,0.5613586425781251,5.492910766601563,1713732093428.0
4.500999999999976,7.00247802734375,0.796429443359375,5.921182250976563,1713732093438.0
4.510999999999967,6.785501098632813,0.8791229248046876,7.635763549804688,1713732093448.0
4.521000000000015,7.107302856445313,0.4708892822265625,8.080184936523438,1713732093458.0
4.531000000000006,6.375921630859375,-0.105572509765625,7.601519775390625,1713732093468.0
4.541999999999973,6.643740844726563,-0.5531341552734376,5.83489990234375,1713732093479.0
4.552000000000021,6.857278442382813,-0.47373046875,7.199417114257813,1713732093489.0
4.562000000000012,7.652062988281251,-0.356195068359375,6.720751953125,1713732093499.0
4.572000000000003,7.083676147460938,-0.3677093505859375,6.950140380859375,1713732093509.0
4.581999999999994,7.403384399414063,-0.42169189453125,5.1572021484375,1713732093519.0
4.5919999999999845,7.1600891113281255,-0.1739105224609375,7.065432739257813,1713732093529.0
4.601999999999975,7.437628173828125,0.3132781982421875,7.1570983886718755,1713732093539.0
4.612000000000023,6.957766723632813,0.8988616943359375,8.377462768554688,1713732093549.0
4.622000000000014,5.0191802978515625,1.083837890625,6.663180541992188,1713732093559.0
4.632000000000005,6.432595825195313,0.8979644775390626,7.270147705078125,1713732093569.0
4.641999999999996,7.498040771484376,0.4689453125,8.227627563476563,1713732093579.0
4.651999999999987,7.984033203125,-0.0710296630859375,6.182272338867188,1713732093589.0
4.661999999999978,7.181472778320313,-0.1987335205078125,6.216964721679688,1713732093599.0
4.673000000000002,6.725836181640625,-0.356793212890625,5.056265258789063,1713732093610.0
4.682999999999993,7.107302856445313,-0.4577301025390625,7.985079956054688,1713732093620.0
4.692999999999984,7.035076904296876,-0.6480895996093751,7.827618408203126,1713732093630.0
4.7029999999999745,6.482989501953125,-0.3455780029296875,7.431198120117188,1713732093640.0
4.713000000000022,6.467288208007813,0.1143951416015625,6.225787353515625,1713732093650.0
4.723000000000013,7.121359252929688,0.6766510009765625,7.003674316406251,1713732093660.0
4.733000000000004,7.743429565429688,0.9069366455078126,7.298110961914063,1713732093670.0
4.742999999999995,7.042404174804688,0.8747863769531251,6.459362792968751,1713732093680.0
4.752999999999986,6.290536499023438,0.6090606689453125,6.230123901367188,1713732093690.0
4.762999999999977,6.785202026367188,0.2169769287109375,7.357327270507813,1713732093700.0
4.772999999999968,6.89481201171875,-0.3052032470703125,8.169906616210938,1713732093710.0
4.7830000000000155,7.167416381835938,-0.6021820068359376,6.9641967773437505,1713732093720.0
4.793000000000006,6.88883056640625,-0.81287841796875,6.033184814453126,1713732093730.0
4.802999999999997,7.351495361328125,-0.6150421142578125,6.132626342773438,1713732093740.0
4.812999999999988,7.131527709960938,-0.04486083984375,7.328167724609376,1713732093750.0
4.824000000000012,7.389028930664063,0.3099884033203125,6.875820922851563,1713732093761.0
4.834000000000003,6.985281372070313,0.326885986328125,6.410614013671876,1713732093771.0
4.843999999999994,6.958813476562501,0.12740478515625,6.010305786132813,1713732093781.0
4.853999999999985,6.741836547851563,0.449505615234375,7.89012451171875,1713732093791.0
4.863999999999976,6.489718627929688,0.7092498779296875,8.0282958984375,1713732093801.0
4.874000000000024,6.476559448242188,0.542816162109375,7.807131958007813,1713732093811.0
4.8840000000000146,6.85892333984375,-0.079852294921875,5.691046142578125,1713732093821.0
4.8940000000000055,7.246520996093751,-0.4589263916015625,6.2721435546875,1713732093831.0
4.903999999999996,7.745672607421875,-0.4302154541015625,6.724789428710938,1713732093841.0
4.913999999999987,7.315008544921875,-0.393878173828125,7.393963623046876,1713732093851.0
4.923999999999978,7.799206542968751,-0.2355194091796875,6.423025512695313,1713732093861.0
4.933999999999969,6.143093872070313,0.1628448486328125,6.498690795898438,1713732093871.0
4.944000000000017,5.453433227539063,0.5441619873046876,7.021319580078125,1713732093881.0
4.954999999999984,7.339682006835938,0.6766510009765625,8.966635131835938,1713732093892.0
4.964999999999975,7.094143676757813,0.395074462890625,7.806982421875,1713732093902.0
4.975000000000023,7.1182189941406255,0.33795166015625,5.638409423828126,1713732093912.0
4.985000000000014,7.0359741210937505,0.56165771484375,5.8486572265625005,1713732093922.0
4.9950000000000045,7.363308715820313,0.5196380615234375,6.470278930664063,1713732093932.0
5.0049999999999955,7.307382202148438,-0.063104248046875,8.131475830078125,1713732093942.0
5.014999999999986,6.591552734375001,-0.6851745605468751,6.578094482421876,1713732093952.0
5.024999999999977,6.318499755859375,-0.6065185546875,7.208987426757813,1713732093962.0
5.034999999999968,6.566879272460938,-0.1449005126953125,7.419384765625001,1713732093972.0
5.045000000000016,7.1301818847656255,0.311334228515625,7.808328247070313,1713732093982.0
5.055000000000007,7.467535400390625,0.493768310546875,6.8535400390625005,1713732093992.0
5.065999999999974,6.940420532226563,0.5508911132812501,5.15660400390625,1713732094003.0
5.074999999999989,7.086517333984376,0.596051025390625,6.287396240234376,1713732094012.0
5.0849999999999795,7.42177734375,0.1939483642578125,7.249063110351563,1713732094022.0
5.09499999999997,7.070217895507813,-0.3213531494140625,7.913302612304688,1713732094032.0
5.105000000000018,6.502728271484376,-0.674407958984375,6.250610351562501,1713732094042.0
5.1159999999999854,6.457568359375,-0.5944061279296875,7.067825317382813,1713732094053.0
5.125999999999976,6.841876220703125,-0.1789947509765625,7.479049682617188,1713732094063.0
5.135999999999967,7.352990722656251,0.298773193359375,7.757635498046875,1713732094073.0
5.146000000000015,7.1152282714843755,0.4502532958984375,6.028399658203125,1713732094083.0
5.156000000000006,7.220352172851563,0.529058837890625,5.605661010742188,1713732094093.0
5.165999999999997,7.161285400390626,0.472833251953125,6.631329345703126,1713732094103.0
5.175999999999988,7.11612548828125,0.427374267578125,7.865451049804688,1713732094113.0
5.185999999999979,6.289041137695313,0.151031494140625,7.948294067382813,1713732094123.0
5.1959999999999695,6.567477416992188,-0.282623291015625,6.599179077148438,1713732094133.0
5.206000000000017,6.826473999023438,-0.5680877685546876,6.570019531250001,1713732094143.0
5.216000000000008,7.258932495117188,-0.51978759765625,6.726882934570313,1713732094153.0
5.225999999999999,7.1361633300781255,-0.2462860107421875,7.035675048828126,1713732094163.0
5.23599999999999,7.795767211914063,-0.049346923828125,6.706546020507813,1713732094173.0
5.249000000000024,7.3111206054687505,0.1401153564453125,6.193786621093751,1713732094186.0
5.257000000000005,7.482040405273438,0.59635009765625,6.5978332519531255,1713732094194.0
5.266999999999996,5.207745361328126,1.0427154541015626,7.338784790039063,1713732094204.0
5.276999999999987,6.2583862304687505,0.8707489013671875,8.150167846679688,1713732094214.0
5.286999999999978,7.013394165039063,0.186322021484375,8.830706787109376,1713732094224.0
5.296999999999969,7.313812255859376,-0.3372039794921875,5.889181518554688,1713732094234.0
5.307000000000016,7.523611450195313,-0.034393310546875,6.3555847167968755,1713732094244.0
5.317000000000007,6.921279907226563,0.1646392822265625,5.474517822265625,1713732094254.0
5.326999999999998,7.685110473632813,-0.0677398681640625,7.079638671875,1713732094264.0
5.336999999999989,7.1550048828125,-0.6361267089843751,7.08262939453125,1713732094274.0
5.3489999999999895,6.825576782226563,-0.7150817871093751,6.459512329101563,1713732094286.0
5.356999999999971,5.8414794921875,-0.012261962890625,7.927359008789063,1713732094294.0
5.367000000000019,6.696078491210938,0.60113525390625,7.785299682617188,1713732094304.0
5.3770000000000095,7.347756958007813,0.8157196044921876,8.021417236328126,1713732094314.0
5.3870000000000005,7.135415649414063,0.701324462890625,5.387936401367188,1713732094324.0
5.397999999999968,6.817800903320313,0.8231964111328126,5.952734375,1713732094335.0
5.4080000000000155,7.086666870117188,0.608612060546875,7.1182189941406255,1713732094345.0
5.418000000000006,7.134518432617188,0.05263671875,7.95592041015625,1713732094355.0
5.427999999999997,6.73570556640625,-0.7200164794921875,6.999038696289063,1713732094365.0
5.437999999999988,7.166220092773438,-1.20406494140625,5.8221893310546875,1713732094375.0
5.449000000000012,6.729873657226563,-0.9514984130859376,6.894512939453126,1713732094386.0
5.45799999999997,7.261474609375001,-0.204266357421875,7.479647827148438,1713732094395.0
5.468000000000018,7.00487060546875,0.3324188232421875,7.5279479980468755,1713732094405.0
5.478000000000009,7.35538330078125,0.4041961669921875,5.3716369628906255,1713732094415.0
5.4879999999999995,6.968234252929688,0.5827423095703126,6.408370971679688,1713732094425.0
5.4979999999999905,6.953280639648438,0.8851043701171876,7.139602661132813,1713732094435.0
5.507999999999981,6.493606567382813,1.0735198974609377,8.689843750000001,1713732094445.0
5.517999999999972,6.452035522460938,0.377728271484375,7.2154174804687505,1713732094455.0
5.52800000000002,6.782809448242188,-0.4547393798828125,6.316854858398438,1713732094465.0
5.538000000000011,7.065731811523438,-0.8318695068359375,6.069522094726563,1713732094475.0
5.548999999999978,7.551574707031251,-0.6929504394531251,6.849801635742188,1713732094486.0
5.558999999999969,7.562640380859375,-0.6506317138671875,7.231716918945313,1713732094496.0
5.569000000000017,7.390823364257813,-0.6512298583984375,6.212179565429688,1713732094506.0
5.579000000000008,7.5279479980468755,0.141461181640625,6.399548339843751,1713732094516.0
5.588999999999999,5.563192749023438,1.1834289550781252,7.126293945312501,1713732094526.0
5.5989999999999895,5.955126953125,1.5188385009765626,8.257983398437501,1713732094536.0
5.6089999999999804,7.052572631835938,0.8704498291015625,8.756536865234375,1713732094546.0
5.618999999999971,7.254595947265625,0.256304931640625,6.196478271484375,1713732094556.0
5.629000000000019,7.405178833007813,0.203369140625,6.002230834960938,1713732094566.0
5.63900000000001,7.199118041992188,0.06220703125,5.890377807617188,1713732094576.0
5.649000000000001,7.56114501953125,-0.453692626953125,6.938925170898438,1713732094586.0
5.658999999999992,6.948794555664063,-0.9837982177734376,7.249511718750001,1713732094596.0
5.668999999999983,6.24881591796875,-0.9329559326171876,6.856829833984375,1713732094606.0
5.678999999999974,6.472073364257813,-0.1634429931640625,8.035922241210939,1713732094616.0
5.689000000000021,6.814810180664063,0.5692840576171876,7.495648193359376,1713732094626.0
5.699999999999989,7.2507080078125,1.0084716796875002,6.988272094726563,1713732094637.0
5.7099999999999795,7.325326538085938,1.054080200195313,5.704354858398438,1713732094647.0
5.71999999999997,6.876119995117188,0.9562835693359376,6.1193176269531255,1713732094657.0
5.730000000000018,6.93907470703125,0.637921142578125,7.672549438476563,1713732094667.0
5.740000000000009,6.9477478027343755,-0.190509033203125,7.648773193359376,1713732094677.0
5.75,6.658245849609376,-0.8438323974609375,7.069918823242188,1713732094687.0
5.759999999999991,6.789987182617188,-1.2586456298828126,6.010006713867188,1713732094697.0
5.769999999999982,7.478451538085938,-0.8673095703125001,7.18192138671875,1713732094707.0
5.779999999999973,7.105657958984375,-0.3150726318359375,6.920681762695313,1713732094717.0
5.7900000000000205,7.3350463867187505,0.32120361328125,6.863858032226563,1713732094727.0
5.800000000000011,6.9576171875,0.5435638427734375,5.76072998046875,1713732094737.0
5.810000000000002,7.336093139648438,0.6560150146484376,6.5275512695312505,1713732094747.0
5.819999999999993,6.8176513671875005,0.752166748046875,7.483685302734376,1713732094757.0
5.829999999999984,6.562393188476563,0.6404632568359375,7.950836181640626,1713732094767.0
5.839999999999975,6.064288330078125,0.3862518310546875,7.820889282226563,1713732094777.0
5.850999999999999,6.781613159179688,-0.0922637939453125,6.768154907226563,1713732094788.0
5.86099999999999,7.1406494140625005,-0.2213134765625,7.1152282714843755,1713732094798.0
5.870999999999981,7.579537963867188,-0.350213623046875,5.9054809570312505,1713732094808.0
5.880999999999972,7.108947753906251,-0.408233642578125,6.429605102539063,1713732094818.0
5.8910000000000196,7.352990722656251,-0.6814361572265626,5.437582397460938,1713732094828.0
5.9010000000000105,7.759130859375,-0.7517181396484376,7.410412597656251,1713732094838.0
5.911000000000001,6.870587158203126,-0.5396759033203126,6.852642822265626,1713732094848.0
5.920999999999992,7.28958740234375,0.333465576171875,7.913452148437501,1713732094858.0
5.930999999999983,5.462704467773438,1.2990203857421876,7.3703369140625,1713732094868.0
5.940999999999974,5.54300537109375,1.5309509277343751,7.20823974609375,1713732094878.0
5.951000000000022,7.513742065429688,1.293338012695313,8.366397094726564,1713732094888.0
5.961000000000013,7.686007690429688,0.609808349609375,6.20634765625,1713732094898.0
5.97199999999998,7.550677490234375,0.1556671142578125,6.170608520507813,1713732094909.0
5.981999999999971,7.079788208007813,-0.2576507568359375,5.458218383789063,1713732094919.0
5.992000000000019,6.716714477539063,-0.6759033203125,7.411010742187501,1713732094929.0
6.0020000000000095,6.920233154296875,-1.1614471435546876,7.934536743164063,1713732094939.0
6.0120000000000005,6.624899291992188,-1.176699829101563,7.411160278320313,1713732094949.0
6.021999999999991,6.666470336914063,-0.528759765625,6.750509643554688,1713732094959.0
6.031999999999982,7.012197875976563,0.4272247314453125,6.530841064453125,1713732094969.0
6.041999999999973,7.482040405273438,1.064697265625,6.969131469726563,1713732094979.0
6.052000000000021,7.6804748535156255,1.2686645507812502,6.576748657226563,1713732094989.0
6.062000000000012,6.202160644531251,1.1759521484375002,6.455923461914063,1713732094999.0
6.072000000000003,6.320144653320313,0.9622650146484376,7.4875732421875005,1713732095009.0
6.081999999999994,6.743331909179688,0.3799713134765625,8.474960327148438,1713732095019.0
6.0919999999999845,6.629684448242188,-0.472235107421875,7.325326538085938,1713732095029.0
6.101999999999975,7.194781494140625,-0.9932189941406252,6.187655639648438,1713732095039.0
6.1129999999999995,7.631576538085938,-1.2221588134765626,5.818301391601563,1713732095050.0
6.122000000000014,7.200015258789063,-0.6966888427734376,6.75963134765625,1713732095059.0
6.132999999999981,7.235006713867188,-0.161199951171875,6.880157470703126,1713732095070.0
6.142999999999972,7.190594482421876,0.0832916259765625,6.695181274414063,1713732095080.0
6.15300000000002,7.436282348632813,0.07716064453125,5.604016113281251,1713732095090.0
6.165999999999997,7.040908813476563,0.2809783935546875,6.925616455078125,1713732095103.0
6.173000000000002,6.38040771484375,0.7630828857421875,7.69632568359375,1713732095110.0
6.182999999999993,6.012399291992188,1.07965087890625,8.718405151367188,1713732095120.0
6.192999999999984,6.130084228515625,0.6950439453125,7.338186645507813,1713732095130.0
6.2029999999999745,6.969729614257813,-0.00897216796875,6.414352416992188,1713732095140.0
6.213000000000022,7.954425048828125,-0.410028076171875,6.147280883789063,1713732095150.0
6.223000000000013,7.868142700195313,-0.4185516357421875,6.295620727539063,1713732095160.0
6.233000000000004,7.885189819335938,-0.4029998779296875,6.2793212890625005,1713732095170.0
6.242999999999995,6.710284423828125,-0.38460693359375,6.497195434570313,1713732095180.0
6.254000000000019,5.295074462890625,-0.19080810546875,7.378860473632813,1713732095191.0
6.264999999999986,6.5927490234375,0.2220611572265625,8.82861328125,1713732095202.0
6.274000000000001,6.763369750976563,0.4723846435546875,8.546139526367188,1713732095211.0
6.283999999999992,7.386935424804688,0.6817352294921876,6.001931762695313,1713732095221.0
6.293999999999983,7.517181396484376,0.8960205078125001,5.478106689453125,1713732095231.0
6.303999999999974,7.507611083984376,0.9595733642578126,5.483489990234375,1713732095241.0
6.314000000000021,7.421926879882813,0.5103668212890625,7.501629638671876,1713732095251.0
6.324000000000012,6.468185424804688,-0.409429931640625,7.526153564453126,1713732095261.0
6.334000000000003,6.264068603515626,-1.0009948730468752,7.5701171875,1713732095271.0
6.343999999999994,6.131878662109376,-0.7692138671875001,7.847207641601563,1713732095281.0
6.353999999999985,6.837539672851563,-0.1902099609375,7.550079345703126,1713732095291.0
6.3659999999999854,7.542004394531251,0.32598876953125,6.99051513671875,1713732095303.0
6.374000000000024,7.4771057128906255,0.5688354492187501,5.154959106445313,1713732095311.0
6.3840000000000146,7.414001464843751,0.8523559570312501,5.815609741210938,1713732095321.0
6.394999999999982,7.108050537109375,0.6335845947265626,6.63760986328125,1713732095332.0
6.404999999999973,7.088012695312501,0.1810882568359375,7.969677734375001,1713732095342.0
6.4150000000000205,6.251806640625,-0.4305145263671875,7.422225952148438,1713732095352.0
6.425000000000011,6.555065917968751,-0.7538116455078125,7.011599731445313,1713732095362.0
6.435000000000002,6.5589538574218755,-0.57122802734375,7.333251953125001,1713732095372.0
6.444999999999993,7.401889038085938,-0.161199951171875,7.18192138671875,1713732095382.0
6.454999999999984,7.189248657226563,0.2890533447265625,6.75723876953125,1713732095392.0
6.466000000000008,7.522564697265626,0.4667022705078125,5.343972778320313,1713732095403.0
6.475000000000023,7.178482055664063,0.536834716796875,6.438278198242188,1713732095412.0
6.485000000000014,7.183117675781251,0.42647705078125,6.9821411132812505,1713732095422.0
6.4950000000000045,6.336892700195313,0.410626220703125,8.424118041992188,1713732095432.0
6.505999999999972,6.293527221679688,0.0569732666015625,7.240240478515625,1713732095443.0
6.514999999999986,6.654058837890625,-0.2525665283203125,7.295120239257813,1713732095452.0
6.5260000000000105,7.242782592773438,-0.4113739013671875,6.315359497070313,1713732095463.0
6.534999999999968,7.236950683593751,-0.1475921630859375,6.856231689453126,1713732095472.0
6.545999999999992,6.720602416992188,-0.0442626953125,6.100476074218751,1713732095483.0
6.555999999999983,8.001528930664064,-0.197088623046875,6.797763061523438,1713732095493.0
6.565999999999974,7.560546875000001,-0.3297271728515625,6.5353271484375,1713732095503.0
6.576000000000022,7.485629272460938,0.1030303955078125,6.629385375976563,1713732095513.0
6.586000000000013,5.5694732666015625,0.7720550537109375,7.644735717773438,1713732095523.0
6.596000000000004,5.4902191162109375,0.889141845703125,7.597183227539063,1713732095533.0
6.6059999999999945,7.201510620117188,0.6234161376953126,8.92850341796875,1713732095543.0
6.6159999999999854,7.236053466796876,0.0237762451171875,6.36485595703125,1713732095553.0
6.625999999999976,7.794271850585938,0.0853851318359375,5.93778076171875,1713732095563.0
6.635999999999967,7.140798950195313,0.299072265625,5.5107055664062505,1713732095573.0
6.646000000000015,7.0353759765625,0.064898681640625,6.812716674804688,1713732095583.0
6.656000000000006,7.512396240234375,-0.5449096679687501,7.722195434570313,1713732095593.0
6.665999999999997,6.523663330078126,-0.9377410888671877,6.707592773437501,1713732095603.0
6.677000000000021,6.208291625976563,-0.509320068359375,7.311419677734375,1713732095614.0
6.687000000000012,6.659741210937501,0.299969482421875,7.607949829101563,1713732095624.0
6.697000000000003,7.179080200195313,0.6144439697265626,7.645932006835938,1713732095634.0
6.706999999999994,7.554864501953125,0.745587158203125,6.253002929687501,1713732095644.0
6.7169999999999845,6.835296630859376,0.7946350097656251,5.5844268798828125,1713732095654.0
6.726999999999975,6.824380493164063,0.8385986328125,6.886886596679688,1713732095664.0
6.737000000000023,6.856381225585938,0.4589263916015625,8.057604980468751,1713732095674.0
6.747000000000014,6.809127807617188,-0.32479248046875,7.674642944335938,1713732095684.0
6.757000000000005,6.948495483398438,-0.8824127197265625,6.14114990234375,1713732095694.0
6.766999999999996,7.018328857421875,-1.021331787109375,6.183767700195313,1713732095704.0
6.776999999999987,7.253399658203126,-0.4170562744140625,7.219006347656251,1713732095714.0
6.786999999999978,7.191043090820313,-0.00418701171875,7.316055297851563,1713732095724.0
6.796999999999969,7.124649047851563,0.2404541015625,6.470578002929688,1713732095734.0
6.807000000000016,7.133322143554688,0.317315673828125,5.613287353515625,1713732095744.0
6.817000000000007,7.031637573242188,0.5277130126953126,7.071115112304688,1713732095754.0
6.826999999999998,6.6310302734375,0.8125793457031251,7.930648803710938,1713732095764.0
6.838000000000022,6.510952758789063,0.6942962646484375,8.236151123046875,1713732095775.0
6.848000000000013,6.253302001953125,0.201275634765625,6.7204528808593755,1713732095785.0
6.858000000000004,7.21422119140625,-0.1843780517578125,6.382351684570313,1713732095795.0
6.867999999999995,7.030590820312501,-0.3701019287109375,6.659292602539063,1713732095805.0
6.877999999999986,7.517031860351563,-0.48389892578125,6.493606567382813,1713732095815.0
6.887999999999977,7.314260864257813,-0.573919677734375,7.092498779296876,1713732095825.0
6.897999999999968,7.635314941406251,-0.60831298828125,5.864657592773438,1713732095835.0
6.9080000000000155,7.438375854492188,0.0394775390625,7.114031982421875,1713732095845.0
6.918000000000006,5.831460571289063,0.729437255859375,6.9277099609375,1713732095855.0
6.927999999999997,5.81815185546875,1.0923614501953125,8.099774169921876,1713732095865.0
6.937999999999988,6.961505126953125,0.7125396728515625,8.190393066406251,1713732095875.0
6.947999999999979,7.277175903320313,0.21593017578125,6.652862548828126,1713732095885.0
6.95799999999997,7.568173217773438,0.2349212646484375,6.271395874023438,1713732095895.0
6.968000000000018,6.986328125000001,0.29847412109375,5.827572631835938,1713732095905.0
6.978000000000009,7.262969970703126,0.03349609375,6.929653930664063,1713732095915.0
6.988999999999976,7.276876831054688,-0.6276031494140626,7.275381469726563,1713732095926.0
6.999000000000024,6.4755126953125,-0.7692138671875001,6.850848388671875,1713732095936.0
7.0090000000000146,6.46953125,-0.3369049072265625,7.458712768554688,1713732095946.0
7.0190000000000055,6.49644775390625,0.3144744873046875,7.707092285156251,1713732095956.0
7.028999999999996,7.219305419921875,0.6148925781250001,7.427011108398438,1713732095966.0
7.038999999999987,7.4684326171875,0.7714569091796876,6.242236328125,1713732095976.0
7.048999999999978,6.8678955078125,0.6853240966796875,5.398104858398438,1713732095986.0
7.058999999999969,7.141845703125001,0.480908203125,6.892568969726563,1713732095996.0
7.069000000000017,7.140948486328125,-0.0964508056640625,7.651614379882813,1713732096006.0
7.079000000000008,6.8759704589843755,-0.5671905517578125,7.421627807617188,1713732096016.0
7.088999999999999,6.3196960449218755,-0.8348602294921875,6.406576538085938,1713732096026.0
7.100000000000023,7.018179321289063,-0.6104064941406251,6.9635986328125,1713732096037.0
7.110000000000014,6.922476196289063,-0.0587677001953125,7.591500854492188,1713732096047.0
7.118999999999971,7.499685668945313,0.404345703125,6.90079345703125,1713732096056.0
7.129000000000019,7.074105834960938,0.5893218994140625,5.942715454101563,1713732096066.0
7.13900000000001,7.371383666992188,0.4885345458984375,5.625997924804688,1713732096076.0
7.149999999999977,6.844268798828126,0.50782470703125,7.6356140136718755,1713732096087.0
7.163999999999987,6.590655517578125,0.4831512451171875,7.850347900390625,1713732096101.0
7.170000000000016,6.426763916015625,0.204864501953125,8.075100708007813,1713732096107.0
7.180000000000007,6.6875549316406255,-0.440533447265625,6.133673095703125,1713732096117.0
7.189999999999998,7.331158447265626,-0.4658050537109375,6.985430908203125,1713732096127.0
7.199999999999989,7.042404174804688,-0.09390869140625,6.4139038085937505,1713732096137.0
7.2099999999999795,7.147827148437501,0.2726043701171875,6.948046875,1713732096147.0
7.21999999999997,6.782360839843751,-0.15611572265625,6.170758056640626,1713732096157.0
7.230000000000018,8.069418334960938,-0.5552276611328125,6.3534912109375,1713732096167.0
7.240000000000009,7.131976318359375,-0.2145843505859375,7.1406494140625005,1713732096177.0
7.250999999999976,7.180725097656251,0.3518585205078125,6.964346313476563,1713732096188.0
7.260999999999967,5.9054809570312505,0.6727630615234376,7.943209838867188,1713732096198.0
7.271000000000015,5.824432373046875,0.54730224609375,6.910961914062501,1713732096208.0
7.281000000000006,7.066479492187501,0.7152313232421875,8.344265747070313,1713732096218.0
7.290999999999997,7.14603271484375,0.4670013427734375,6.603515625000001,1713732096228.0
7.300999999999988,7.904180908203125,0.1973876953125,6.4303527832031255,1713732096238.0
7.310999999999979,7.255642700195313,0.0279632568359375,5.621960449218751,1713732096248.0
7.3209999999999695,6.833203125000001,-0.085833740234375,6.481793212890626,1713732096258.0
7.331000000000017,6.998739624023438,-0.314324951171875,7.854833984375,1713732096268.0
7.341000000000008,6.749163818359375,-0.77698974609375,7.290783691406251,1713732096278.0
7.350999999999999,6.531588745117188,-0.641510009765625,7.340728759765626,1713732096288.0
7.36099999999999,6.773239135742188,0.037384033203125,6.614730834960938,1713732096298.0
7.372000000000014,7.01683349609375,0.6075653076171875,7.328765869140626,1713732096309.0
7.380999999999972,7.731018066406251,0.7980743408203126,6.612487792968751,1713732096318.0
7.3910000000000196,6.994253540039063,0.7672698974609375,6.333303833007813,1713732096328.0
7.401999999999987,6.639553833007813,0.6922027587890626,6.331210327148438,1713732096339.0
7.411999999999978,6.512149047851563,0.5384796142578125,7.877114868164063,1713732096349.0
7.421999999999969,6.696377563476563,-0.09031982421875,7.912704467773438,1713732096359.0
7.432000000000016,7.084274291992188,-0.5921630859375,7.244577026367188,1713732096369.0
7.442000000000007,7.084872436523438,-0.9183013916015624,5.7698516845703125,1713732096379.0
7.451999999999998,7.1071533203125,-0.530255126953125,6.4931579589843755,1713732096389.0
7.461999999999989,7.212127685546876,-0.126507568359375,6.9899169921875,1713732096399.0
7.47199999999998,7.511798095703125,0.117236328125,7.036123657226563,1713732096409.0
7.481999999999971,7.273886108398438,0.04306640625,5.755197143554688,1713732096419.0
7.492000000000019,6.8834472656250005,0.122021484375,6.451736450195313,1713732096429.0
7.5020000000000095,6.285452270507813,0.6208740234375001,7.817150878906251,1713732096439.0
7.512,6.575103759765626,0.966900634765625,8.647076416015626,1713732096449.0
7.521999999999991,6.273489379882813,0.5716766357421875,7.566827392578125,1713732096459.0
7.533000000000016,7.290036010742188,-0.046954345703125,5.57530517578125,1713732096470.0
7.541999999999973,6.885989379882813,-0.361578369140625,6.2613769531250005,1713732096479.0
7.552999999999997,8.004968261718751,-0.273651123046875,6.644787597656251,1713732096490.0
7.564999999999998,7.260577392578125,-0.3781768798828125,7.604510498046875,1713732096502.0
7.572999999999979,7.549032592773438,-0.610107421875,5.8067871093750005,1713732096510.0
7.58299999999997,6.477157592773438,-0.195294189453125,6.979598999023438,1713732096520.0
7.593000000000018,5.740692138671875,0.4347015380859375,7.164126586914063,1713732096530.0
7.603000000000009,6.926364135742188,0.9688446044921876,8.912652587890626,1713732096540.0
7.613,6.870587158203126,0.587677001953125,7.388430786132813,1713732096550.0
7.6229999999999905,7.536322021484375,0.310736083984375,5.704205322265626,1713732096560.0
7.632999999999981,7.155902099609375,0.5567230224609375,6.08671875,1713732096570.0
7.642999999999972,7.234857177734376,0.5728729248046875,6.302200317382813,1713732096580.0
7.65300000000002,7.222296142578125,-0.098095703125,8.038763427734375,1713732096590.0
7.665999999999997,6.777127075195313,-1.093408203125,6.474017333984375,1713732096603.0
7.673000000000002,6.329714965820313,-0.893927001953125,7.377066040039063,1713732096610.0
7.683999999999969,6.526205444335938,-0.0907684326171875,7.557257080078125,1713732096621.0
7.694000000000017,6.870138549804688,0.5677886962890626,7.834646606445313,1713732096631.0
7.704000000000008,7.520172119140626,0.6276031494140626,6.619964599609376,1713732096641.0
7.713999999999999,7.26566162109375,0.7047637939453125,5.212380981445313,1713732096651.0
7.723999999999989,6.9447570800781255,0.79493408203125,6.279022216796876,1713732096661.0
7.7339999999999804,7.159640502929688,0.520086669921875,7.527349853515625,1713732096671.0
7.743999999999971,6.793875122070313,-0.2583984375,8.117419433593751,1713732096681.0
7.754000000000019,6.728378295898438,-0.9486572265625,6.429754638671875,1713732096691.0
7.7660000000000196,6.500186157226563,-1.04017333984375,6.602020263671876,1713732096703.0
7.774000000000001,7.156799316406251,-0.491973876953125,7.252352905273438,1713732096711.0
7.783999999999992,7.245623779296875,0.1197784423828125,7.468283081054688,1713732096721.0
7.793999999999983,7.432992553710938,0.4029998779296875,6.283059692382813,1713732096731.0
7.803999999999974,7.07066650390625,0.6104064941406251,5.498443603515625,1713732096741.0
7.814000000000021,6.967785644531251,0.8055511474609376,6.739743041992188,1713732096751.0
7.824000000000012,6.720153808593751,0.905889892578125,8.273983764648438,1713732096761.0
7.8349999999999795,6.499288940429688,0.485693359375,8.029641723632814,1713732096772.0
7.843999999999994,6.438278198242188,-0.1798919677734375,6.9522338867187505,1713732096781.0
7.855000000000018,6.978851318359376,-0.5803497314453125,6.127093505859375,1713732096792.0
7.865000000000009,7.443759155273438,-0.4089813232421875,7.120761108398438,1713732096802.0
7.875,7.058853149414063,-0.2555572509765625,6.552822875976563,1713732096812.0
7.884999999999991,7.0150390625000005,-0.1879669189453125,6.620861816406251,1713732096822.0
7.894999999999982,6.938476562500001,-0.485992431640625,5.8610687255859375,1713732096832.0
7.904999999999973,8.201608276367189,-0.3524566650390625,6.994403076171875,1713732096842.0
7.9150000000000205,7.268801879882813,0.313726806640625,7.344317626953125,1713732096852.0
7.925000000000011,6.674545288085938,0.7992706298828126,7.1346679687500005,1713732096862.0
7.935000000000002,5.159146118164063,1.130792236328125,7.4301513671875,1713732096872.0
7.944999999999993,6.296218872070313,0.9251800537109376,7.537368774414063,1713732096882.0
7.954999999999984,7.365551757812501,0.552685546875,8.427557373046875,1713732096892.0
7.966000000000008,7.677035522460938,-0.39776611328125,5.6248016357421875,1713732096903.0
7.975999999999999,7.805935668945313,-0.5013946533203125,6.232666015625001,1713732096913.0
7.98599999999999,6.59873046875,-0.2379119873046875,5.712728881835938,1713732096923.0
7.995999999999981,6.992160034179688,-0.0919647216796875,7.526153564453126,1713732096933.0
8.005999999999972,7.288540649414063,-0.45458984375,7.784701538085938,1713732096943.0
8.01600000000002,6.942214965820313,-0.8164672851562501,6.322537231445313,1713732096953.0
8.02600000000001,6.263021850585938,0.0372344970703125,6.956869506835938,1713732096963.0
8.036000000000001,6.763369750976563,0.9571807861328124,7.321139526367188,1713732096973.0
8.045999999999992,7.1669677734375,1.100885009765625,8.208337402343751,1713732096983.0
8.055999999999983,7.483236694335938,0.6267059326171875,6.045297241210938,1713732096993.0
8.065999999999974,6.6645263671875,0.3970184326171875,5.894564819335938,1713732097003.0
8.076000000000022,6.722097778320313,0.335260009765625,6.680975341796875,1713732097013.0
8.086000000000013,6.8702880859375,0.09151611328125,8.481539916992189,1713732097023.0
8.096000000000004,6.903036499023438,-0.6102569580078125,7.644735717773438,1713732097033.0
8.105999999999995,7.131976318359375,-0.9482086181640624,5.870190429687501,1713732097043.0
8.115999999999985,6.7742858886718755,-0.6993804931640626,5.949594116210938,1713732097053.0
8.125999999999976,7.507012939453125,0.067889404296875,7.101620483398438,1713732097063.0
8.135999999999967,7.368542480468751,0.326287841796875,7.708737182617188,1713732097073.0
8.146999999999991,7.288241577148438,0.2743988037109375,5.993408203125,1713732097084.0
8.156999999999982,6.565084838867188,0.29010009765625,5.960061645507813,1713732097094.0
8.166999999999973,6.822286987304688,0.44801025390625,7.1959777832031255,1713732097104.0
8.177000000000021,6.600225830078125,0.6643890380859375,8.861361694335939,1713732097114.0
8.187000000000012,6.626693725585938,0.3665130615234375,7.747616577148438,1713732097124.0
8.197000000000003,6.435885620117188,0.0227294921875,6.0744567871093755,1713732097134.0
8.206999999999994,7.315008544921875,-0.1942474365234375,5.76431884765625,1713732097144.0
8.216999999999985,7.211679077148438,-0.2666229248046875,6.941915893554688,1713732097154.0
8.226999999999975,7.91405029296875,-0.3940277099609375,7.044796752929688,1713732097164.0
8.237000000000023,7.027749633789063,-0.4855438232421875,6.706396484375,1713732097174.0
8.247000000000014,7.212127685546876,-0.3384002685546875,5.865853881835938,1713732097184.0
8.257000000000005,6.768753051757813,0.249725341796875,7.588510131835938,1713732097194.0
8.266999999999996,5.891873168945313,0.7437927246093751,7.597332763671876,1713732097204.0
8.276999999999987,6.675292968750001,0.846075439453125,8.327069091796876,1713732097214.0
8.288000000000011,6.757986450195313,0.448309326171875,6.7458740234375005,1713732097225.0
8.298000000000002,7.675091552734376,0.224005126953125,6.218310546875,1713732097235.0
8.307999999999993,7.434338378906251,0.351409912109375,6.6262451171875005,1713732097245.0
8.317999999999984,7.062741088867188,0.3192596435546875,6.271994018554688,1713732097255.0
8.327999999999975,6.944158935546875,-0.1879669189453125,7.327719116210938,1713732097265.0
8.338000000000022,6.866549682617188,-0.8212524414062501,6.55985107421875,1713732097275.0
8.348000000000013,6.6705078125,-0.6667816162109376,7.785150146484376,1713732097285.0
8.358000000000004,6.598580932617188,-0.082244873046875,7.3464111328125,1713732097295.0
8.367999999999995,6.635665893554688,0.488385009765625,7.441665649414063,1713732097305.0
8.377999999999986,7.43912353515625,0.5610595703125001,6.523513793945313,1713732097315.0
8.387999999999977,7.488769531250001,0.65616455078125,5.995352172851563,1713732097325.0
8.397999999999968,6.802847290039063,0.62147216796875,6.349752807617188,1713732097335.0
8.408000000000015,7.077694702148438,0.3792236328125,7.207492065429688,1713732097345.0
8.418000000000006,6.730322265625,-0.1810882568359375,7.830010986328125,1713732097355.0
8.427999999999997,6.759930419921876,-0.6585571289062501,6.719256591796875,1713732097365.0
8.439000000000021,6.688003540039063,-0.6694732666015626,7.029544067382813,1713732097376.0
8.449000000000012,7.155902099609375,-0.378326416015625,6.761276245117188,1713732097386.0
8.459000000000003,7.119863891601563,0.0949554443359375,7.293923950195313,1713732097396.0
8.468999999999994,7.285848999023438,0.3361572265625,6.213226318359376,1713732097406.0
8.480999999999995,7.289886474609376,0.491375732421875,6.227432250976563,1713732097418.0
8.488999999999976,7.075750732421875,0.3542510986328125,6.333004760742188,1713732097426.0
8.499000000000024,6.749462890625001,0.4637115478515625,7.906573486328125,1713732097436.0
8.509000000000015,6.283956909179688,0.4149627685546875,7.779916381835938,1713732097446.0
8.519000000000005,6.5828796386718755,0.1060211181640625,7.55875244140625,1713732097456.0
8.528999999999996,7.023861694335938,-0.3040069580078125,6.353640747070313,1713732097466.0
8.538999999999987,7.483685302734376,-0.280230712890625,6.703854370117188,1713732097476.0
8.548999999999978,6.778472900390626,-0.02572021484375,6.303396606445313,1713732097486.0
8.558999999999969,7.072012329101563,0.0761138916015625,6.782510375976563,1713732097496.0
8.569000000000017,7.335794067382813,-0.4844970703125,6.5694213867187505,1713732097506.0
8.581000000000017,7.954724121093751,-0.6461456298828125,6.836791992187501,1713732097518.0
8.589999999999975,7.014590454101563,0.040374755859375,6.759033203125001,1713732097527.0
8.600000000000023,6.2697509765625,0.7101470947265626,7.220501708984376,1713732097537.0
8.610000000000014,5.489471435546875,0.9845458984375,7.804440307617188,1713732097547.0
8.620000000000005,7.047189331054688,0.696539306640625,7.892218017578125,1713732097557.0
8.629999999999995,6.884793090820313,0.456085205078125,7.605258178710938,1713732097567.0
8.639999999999986,7.766757202148438,0.1700225830078125,5.5447998046875,1713732097577.0
8.649999999999977,7.383197021484375,0.1939483642578125,6.599627685546875,1713732097587.0
8.659999999999968,6.971823120117188,-0.102880859375,5.833853149414063,1713732097597.0
8.670000000000016,7.300204467773438,-0.41331787109375,7.753897094726563,1713732097607.0
8.680999999999983,6.635964965820313,-0.8199066162109375,6.709088134765626,1713732097618.0
8.689999999999998,6.7458740234375005,-0.7554565429687501,7.376467895507813,1713732097627.0
8.699999999999989,6.510952758789063,-0.040972900390625,7.365103149414063,1713732097637.0
8.70999999999998,7.114031982421875,0.5329467773437501,7.27762451171875,1713732097647.0
8.721000000000004,7.254147338867188,0.9287689208984377,6.9896179199218755,1713732097658.0
8.730000000000018,7.0853210449218755,0.867010498046875,5.63870849609375,1713732097667.0
8.740000000000009,6.845913696289063,0.8623748779296876,7.063040161132813,1713732097677.0
8.750999999999976,6.832754516601563,0.4397857666015625,7.0598999023437505,1713732097688.0
8.760999999999967,6.7428833007812505,-0.0121124267578125,8.153756713867189,1713732097698.0
8.771000000000015,6.864157104492188,-0.704315185546875,6.356332397460938,1713732097708.0
8.781999999999982,7.160537719726563,-0.9921722412109376,6.767108154296875,1713732097719.0
8.790999999999997,7.156350708007813,-0.7026702880859376,6.417044067382813,1713732097728.0
8.800999999999988,7.180575561523438,-0.153125,7.320391845703125,1713732097738.0
8.810999999999979,6.8804565429687505,0.2715576171875,6.709088134765626,1713732097748.0
8.822000000000003,7.575500488281251,0.3452789306640625,6.00596923828125,1713732097759.0
8.831000000000017,6.944607543945313,0.2881561279296875,6.553570556640626,1713732097768.0
8.841000000000008,7.057208251953125,0.5393768310546876,7.105508422851563,1713732097778.0
8.851999999999975,6.0225677490234375,0.7792327880859375,8.552270507812501,1713732097789.0
8.862000000000023,6.589309692382813,0.5157501220703126,7.235604858398438,1713732097799.0
8.872000000000014,6.719555664062501,-0.0444122314453125,6.982290649414063,1713732097809.0
8.882000000000005,7.253399658203126,-0.4571319580078125,5.818899536132813,1713732097819.0
8.891999999999996,7.1361633300781255,-0.4565338134765625,6.680825805664063,1713732097829.0
8.901999999999987,7.770944213867188,-0.390289306640625,6.887185668945313,1713732097839.0
8.911999999999978,7.559649658203125,-0.4294677734375,6.766958618164063,1713732097849.0
8.921999999999969,7.4660400390625,-0.1703216552734375,6.0913543701171875,1713732097859.0
8.932000000000016,5.557809448242188,0.5235260009765625,7.075750732421875,1713732097869.0
8.942000000000007,5.999240112304688,0.9769195556640624,7.936480712890625,1713732097879.0
8.951999999999998,7.039562988281251,0.7213623046875001,9.10076904296875,1713732097889.0
8.961999999999989,7.232763671875,0.19080810546875,6.324331665039063,1713732097899.0
8.97199999999998,7.506115722656251,0.2151824951171875,5.9159484863281255,1713732097909.0
8.981999999999971,6.922177124023438,0.4880859375,5.7335144042968755,1713732097919.0
8.992000000000019,7.495947265625,0.2438934326171875,7.098928833007813,1713732097929.0
9.002999999999986,7.198519897460938,-0.5688354492187501,7.619015502929688,1713732097940.0
9.012999999999977,6.597982788085938,-1.0558746337890623,6.254348754882813,1713732097950.0
9.022999999999968,6.222348022460938,-0.46236572265625,7.741934204101563,1713732097960.0
9.033000000000015,6.543850708007813,0.3189605712890625,7.675390625,1713732097970.0
9.043000000000006,7.2243896484375005,0.7248016357421876,7.9915100097656255,1713732097980.0
9.052999999999995,7.481591796875,0.5924621582031251,5.594146728515625,1713732097990.0
9.062999999999988,7.017282104492188,0.6883148193359375,5.457769775390625,1713732098000.0
9.07299999999998,6.955673217773438,0.5962005615234376,6.744229125976563,1713732098010.0
9.08299999999997,7.386187744140625,0.20396728515625,7.96549072265625,1713732098020.0
9.093000000000018,6.552075195312501,-0.5211334228515625,7.71068115234375,1713732098030.0
9.103000000000009,6.590655517578125,-1.0024902343750002,5.906378173828125,1713732098040.0
9.113,6.728976440429688,-0.7161285400390626,7.156051635742188,1713732098050.0
9.12299999999999,7.34342041015625,-0.141461181640625,7.328616333007813,1713732098060.0
9.13299999999998,7.28360595703125,0.3724945068359375,7.543798828125,1713732098070.0
9.144000000000004,7.1735473632812505,0.4230377197265625,5.313168334960938,1713732098081.0
9.153999999999996,7.0258056640625,0.626556396484375,6.155953979492188,1713732098091.0
9.163999999999987,7.036871337890625,0.6329864501953125,7.06827392578125,1713732098101.0
9.173999999999978,6.784304809570313,0.5909667968750001,8.488119506835938,1713732098111.0
9.183999999999967,6.414651489257813,0.0701324462890625,7.355682373046876,1713732098121.0
9.194000000000017,6.427212524414063,-0.3455780029296875,6.6130859375,1713732098131.0
9.204000000000008,7.08621826171875,-0.3404937744140625,6.673947143554688,1713732098141.0
9.214,7.39366455078125,-0.1688262939453125,7.039114379882813,1713732098151.0
9.22399999999999,6.754696655273438,-0.10946044921875,6.713275146484375,1713732098161.0
9.23399999999998,7.202108764648438,-0.30684814453125,6.030343627929688,1713732098171.0
9.243999999999971,8.115325927734375,-0.294586181640625,6.618170166015625,1713732098181.0
9.25400000000002,7.638006591796875,0.0563751220703125,6.656600952148438,1713732098191.0
9.26400000000001,6.562094116210938,0.5390777587890625,7.291381835937501,1713732098201.0
9.274,5.185464477539063,0.817364501953125,7.435086059570313,1713732098211.0
9.284999999999968,6.1940856933593755,0.7956817626953125,8.352191162109376,1713732098222.0
9.295000000000016,7.223641967773438,0.406439208984375,8.189944458007814,1713732098232.0
9.305000000000009,7.794720458984376,-0.148040771484375,5.830413818359375,1713732098242.0
9.314999999999998,7.8030944824218755,-0.019439697265625,5.871237182617188,1713732098252.0
9.324999999999989,6.5951416015625,0.2420989990234375,5.606707763671875,1713732098262.0
9.33499999999998,7.2411376953125,0.0490478515625,7.428057861328125,1713732098272.0
9.34499999999997,7.442263793945313,-0.6424072265625,7.662231445312501,1713732098282.0
9.355000000000018,6.61966552734375,-1.1955413818359375,6.354687500000001,1713732098292.0
9.365000000000007,6.183319091796876,-0.2930908203125,7.264465332031251,1713732098302.0
9.375,6.5209716796875,0.7011749267578126,7.811917114257813,1713732098312.0
9.384999999999993,7.499984741210938,0.8982635498046876,7.950387573242188,1713732098322.0
9.394999999999982,7.2507080078125,0.7261474609375,5.810076904296875,1713732098332.0
9.404999999999973,6.814212036132813,0.627752685546875,5.399749755859375,1713732098342.0
9.41500000000002,6.900344848632813,0.8140747070312501,7.245175170898438,1713732098352.0
9.425000000000011,6.766659545898438,0.2986236572265625,8.182318115234375,1713732098362.0
9.435000000000002,7.022067260742188,-0.4595245361328125,7.795468139648438,1713732098372.0
9.44599999999997,6.9447570800781255,-1.224700927734375,5.415899658203125,1713732098383.0
9.456000000000016,6.984384155273438,-0.8649169921875001,6.376370239257813,1713732098393.0
9.466000000000008,6.962402343750001,-0.1526763916015625,7.532135009765626,1713732098403.0
9.476,7.40562744140625,0.253314208984375,7.761672973632813,1713732098413.0
9.48599999999999,7.136013793945313,0.257501220703125,5.75115966796875,1713732098423.0
9.49599999999998,7.283306884765626,0.2385101318359375,5.587567138671876,1713732098433.0
9.505999999999972,6.602020263671876,0.6069671630859376,6.989468383789063,1713732098443.0
9.51600000000002,7.031188964843751,0.9766204833984377,8.627487182617188,1713732098453.0
9.52600000000001,6.051278686523438,0.44801025390625,8.252899169921875,1713732098463.0
9.536,6.801950073242188,-0.198284912109375,5.6022216796875,1713732098473.0
9.545999999999992,6.531588745117188,-0.5027404785156251,6.633273315429688,1713732098483.0
9.555999999999983,7.858123779296876,-0.4448699951171875,6.520223999023438,1713732098493.0
9.565999999999974,7.715017700195313,-0.2522674560546875,7.965640258789063,1713732098503.0
9.576000000000022,7.670455932617188,-0.378326416015625,5.4987426757812505,1713732098513.0
9.586999999999987,6.971823120117188,0.019140625,6.115429687500001,1713732098524.0
9.59699999999998,5.652914428710938,0.5822937011718751,7.0778442382812505,1713732098534.0
9.606999999999973,6.524411010742188,0.93310546875,8.762069702148438,1713732098544.0
9.61700000000002,6.72135009765625,0.4029998779296875,8.923867797851564,1713732098554.0
9.62700000000001,7.162631225585938,-0.06878662109375,5.4583679199218755,1713732098564.0
9.637,7.430899047851563,0.2483795166015625,6.283059692382813,1713732098574.0
9.646999999999991,7.364804077148438,0.581695556640625,5.994305419921876,1713732098584.0
9.656999999999982,7.342971801757813,0.338848876953125,7.425515747070313,1713732098594.0
9.666999999999971,7.084274291992188,-0.529058837890625,6.680825805664063,1713732098604.0
9.67700000000002,6.306088256835938,-0.7873077392578126,6.658096313476563,1713732098614.0
9.687000000000012,6.469381713867188,-0.282025146484375,8.099475097656251,1713732098624.0
9.697000000000005,6.62564697265625,0.43126220703125,8.040408325195314,1713732098634.0
9.706999999999994,6.983187866210938,0.466851806640625,7.427908325195313,1713732098644.0
9.716999999999985,7.691989135742188,0.4158599853515625,5.1343231201171875,1713732098654.0
9.728000000000009,7.103115844726563,0.47073974609375,5.7936279296875,1713732098665.0
9.738,7.1944824218750005,0.5549285888671875,6.923672485351563,1713732098675.0
9.74799999999999,6.916195678710938,0.1591064453125,8.181719970703126,1713732098685.0
9.75799999999998,6.655105590820313,-0.5181427001953125,7.141995239257813,1713732098695.0
9.767999999999972,6.344070434570313,-0.7233062744140626,6.456671142578125,1713732098705.0
9.781000000000006,7.127490234375,-0.415411376953125,7.17593994140625,1713732098718.0
9.788000000000013,7.133770751953126,0.0988433837890625,7.395309448242188,1713732098725.0
9.798000000000002,7.352093505859376,0.3066986083984375,6.848904418945313,1713732098735.0
9.807999999999993,7.160687255859376,0.3194091796875,5.590707397460938,1713732098745.0
9.817999999999984,7.219604492187501,0.3324188232421875,6.036175537109376,1713732098755.0
9.827999999999976,7.028048706054688,0.397467041015625,7.721447753906251,1713732098765.0
9.838000000000022,6.545645141601563,0.2839691162109375,7.814907836914063,1713732098775.0
9.848000000000011,6.426016235351563,0.08792724609375,7.763018798828125,1713732098785.0
9.858000000000004,6.4288574218750005,-0.1676300048828125,6.321789550781251,1713732098795.0
9.867999999999997,7.401141357421875,-0.0683380126953125,7.078143310546875,1713732098805.0
9.880999999999972,7.178182983398438,-0.023626708984375,6.459213256835938,1713732098818.0
9.88900000000001,6.950439453125001,-0.0282623291015625,6.632824707031251,1713732098826.0
9.899,7.495498657226563,-0.2968292236328125,6.179281616210938,1713732098836.0
9.908999999999992,7.762869262695313,-0.4221405029296875,6.8146606445312505,1713732098846.0
9.918999999999984,7.459161376953125,-0.02332763671875,6.996795654296876,1713732098856.0
9.928999999999974,6.186758422851563,0.4538421630859375,7.2034545898437505,1713732098866.0
9.93900000000002,5.076303100585938,0.8707489013671875,7.415048217773438,1713732098876.0
9.949000000000012,6.906027221679688,0.6343322753906251,8.097531127929688,1713732098886.0
9.959000000000003,7.201510620117188,0.2821746826171875,8.099026489257813,1713732098896.0
9.968999999999994,7.862011718750001,0.1170867919921875,5.671755981445313,1713732098906.0
9.980000000000018,7.162332153320313,0.3935791015625,6.021670532226563,1713732098917.0
9.988999999999976,6.903335571289063,0.26378173828125,5.6367645263671875,1713732098926.0
9.999000000000024,7.6700073242187505,-0.3241943359375,7.793673706054688,1713732098936.0
10.009000000000016,6.979449462890625,-0.9808074951171876,6.902737426757813,1713732098946.0
10.019999999999982,6.392819213867188,-0.9640594482421876,7.03238525390625,1713732098957.0
10.029999999999973,6.043951416015625,-0.0681884765625,7.510452270507813,1713732098967.0
10.04000000000002,7.0497314453125,0.5176940917968751,7.879208374023438,1713732098977.0
10.050000000000011,7.617370605468751,0.816168212890625,7.285848999023438,1713732098987.0
10.060000000000002,7.130929565429688,0.8827117919921875,5.022918701171875,1713732098997.0
10.069999999999991,6.87088623046875,1.0394256591796875,6.306985473632813,1713732099007.0
10.079999999999984,6.912606811523438,0.76981201171875,7.316952514648438,1713732099017.0
10.089999999999977,6.800305175781251,0.0669921875,8.641094970703126,1713732099027.0
10.100000000000025,6.599029541015626,-0.7672698974609375,6.739144897460938,1713732099037.0
10.110000000000014,6.841726684570313,-1.0944549560546877,6.337490844726563,1713732099047.0
10.120000000000005,6.918588256835938,-0.9012542724609376,6.65196533203125,1713732099057.0
10.129999999999995,7.9331909179687505,-0.34632568359375,7.225137329101563,1713732099067.0
10.14100000000002,7.206146240234376,0.0112152099609375,6.762173461914063,1713732099078.0
10.149999999999975,7.339532470703125,0.3243438720703125,5.060003662109375,1713732099087.0
10.161,6.495401000976563,0.6434539794921875,7.002178955078126,1713732099098.0
10.170999999999992,7.16337890625,0.8495147705078125,7.526153564453126,1713732099108.0
10.180999999999983,6.288742065429688,0.8374023437500001,9.095684814453126,1713732099118.0
10.190999999999974,6.408969116210938,0.3560455322265625,6.440072631835938,1713732099128.0
10.201000000000022,6.53233642578125,0.031402587890625,6.771743774414063,1713732099138.0
10.211000000000013,7.22618408203125,-0.397467041015625,6.378613281250001,1713732099148.0
10.221000000000004,7.826571655273438,-0.5164978027343751,6.976458740234375,1713732099158.0
10.230999999999996,7.564584350585938,-0.6806884765625001,6.642544555664063,1713732099168.0
10.240999999999984,7.300054931640625,-0.5695831298828126,5.64708251953125,1713732099178.0
10.250999999999976,7.206594848632813,0.016748046875,6.907672119140625,1713732099188.0
10.260999999999967,5.7960205078125,0.5012451171875001,7.547985839843751,1713732099198.0
10.271000000000017,6.377865600585938,0.8436828613281251,8.290881347656251,1713732099208.0
10.281000000000006,6.683666992187501,0.6622955322265626,8.075698852539062,1713732099218.0
10.290999999999997,7.124649047851563,0.5947052001953126,6.129336547851563,1713732099228.0
10.30200000000002,7.6694091796875,0.6314910888671875,6.585421752929688,1713732099239.0
10.312000000000012,7.101620483398438,0.4729827880859375,5.810824584960938,1713732099249.0
10.322000000000005,7.579986572265626,-0.0243743896484375,6.905429077148438,1713732099259.0
10.331999999999994,6.549084472656251,-0.7612884521484375,6.833053588867188,1713732099269.0
10.341999999999985,6.803146362304688,-0.9423767089843752,7.202407836914063,1713732099279.0
10.351999999999975,6.345864868164063,-0.4996002197265625,8.267852783203125,1713732099289.0
10.362000000000023,6.489120483398438,0.0659454345703125,7.209735107421875,1713732099299.0
10.372000000000014,7.325326538085938,0.6286499023437501,7.336990356445313,1713732099309.0
10.382000000000003,7.435833740234376,0.7826721191406251,5.346813964843751,1713732099319.0
10.391999999999996,7.248764038085938,0.9718353271484376,6.169412231445313,1713732099329.0
10.401999999999989,7.088012695312501,0.5647979736328126,6.646881103515626,1713732099339.0
10.411999999999978,7.179229736328126,0.019439697265625,7.587612915039063,1713732099349.0
10.421999999999969,6.384445190429688,-0.6255096435546875,7.367794799804688,1713732099359.0
10.432000000000016,6.696377563476563,-0.90140380859375,6.9552246093750005,1713732099369.0
10.442000000000007,6.640151977539063,-0.6246124267578126,7.487722778320313,1713732099379.0
10.452999999999976,7.186407470703125,-0.1413116455078125,7.02879638671875,1713732099390.0
10.463000000000022,7.156350708007813,0.39178466796875,6.835745239257813,1713732099400.0
10.473000000000011,7.623352050781251,0.5719757080078125,5.329168701171875,1713732099410.0
10.483000000000004,7.186407470703125,0.6222198486328125,6.584823608398438,1713732099420.0
10.492999999999997,7.038665771484376,0.5555267333984375,6.884045410156251,1713732099430.0
10.502999999999986,6.23685302734375,0.533544921875,8.459707641601563,1713732099440.0
10.512999999999977,6.509906005859375,0.0521881103515625,7.240390014648438,1713732099450.0
10.522999999999968,6.657049560546875,-0.4116729736328125,7.281661987304688,1713732099460.0
10.533000000000015,7.195230102539063,-0.4945159912109375,6.269900512695313,1713732099470.0
10.543000000000006,6.894662475585938,-0.131591796875,6.900942993164063,1713732099480.0
10.552999999999995,7.016983032226563,-0.085833740234375,6.259283447265625,1713732099490.0
10.562999999999988,8.375518798828125,-0.3108856201171875,6.794622802734375,1713732099500.0
10.57299999999998,7.511050415039063,-0.291595458984375,6.045297241210938,1713732099510.0
10.58299999999997,7.077694702148438,0.352008056640625,6.597683715820313,1713732099520.0
10.593000000000018,5.171856689453126,0.9218902587890626,7.819992065429688,1713732099530.0
10.603999999999983,6.085223388671875,0.8480194091796875,8.400640869140625,1713732099541.0
10.613999999999976,7.033132934570313,0.3563446044921875,8.7269287109375,1713732099551.0
10.624000000000024,7.293475341796875,-0.009869384765625,5.583380126953125,1713732099561.0
10.634000000000016,7.724139404296875,0.2572021484375,6.226684570312501,1713732099571.0
10.644000000000004,7.087115478515625,0.314324951171875,5.583081054687501,1713732099581.0
10.653999999999996,7.453778076171876,-0.0500946044921875,7.157247924804688,1713732099591.0
10.663999999999987,7.342672729492188,-0.7108947753906251,7.111340332031251,1713732099601.0
10.673999999999978,6.410015869140626,-0.959423828125,6.518728637695313,1713732099611.0
10.683999999999967,6.187057495117188,-0.3959716796875,7.796066284179688,1713732099621.0
10.697000000000005,6.682620239257813,0.39896240234375,7.943508911132813,1713732099634.0
10.704000000000008,7.162631225585938,0.6596038818359375,7.673147583007813,1713732099641.0
10.714,7.424468994140626,0.8037567138671876,5.5395660400390625,1713732099651.0
10.72399999999999,6.935037231445313,0.8691040039062501,5.715719604492188,1713732099661.0
10.735000000000014,7.168612670898438,0.8202056884765626,7.060198974609375,1713732099672.0
10.745000000000005,6.806436157226563,0.258099365234375,7.97386474609375,1713732099682.0
10.754999999999995,6.760079956054688,-0.5390777587890625,7.381103515625001,1713732099692.0
10.764999999999986,6.677835083007813,-1.0445098876953125,6.292181396484375,1713732099702.0
10.774999999999975,7.038067626953126,-0.9172546386718752,6.749911499023438,1713732099712.0
10.784999999999968,7.183117675781251,-0.2726043701171875,7.334298706054688,1713732099722.0
10.796999999999969,7.172500610351563,0.1221710205078125,7.056161499023438,1713732099734.0
10.805000000000009,7.260876464843751,0.411224365234375,5.962902832031251,1713732099742.0
10.814999999999998,7.260577392578125,0.466253662109375,5.692840576171875,1713732099752.0
10.824999999999989,7.036721801757813,0.58558349609375,7.3843933105468755,1713732099762.0
10.83499999999998,6.5469909667968755,0.6877166748046876,7.8584228515625005,1713732099772.0
10.84499999999997,6.215768432617188,0.456683349609375,8.285049438476562,1713732099782.0
10.855000000000018,6.438128662109375,-0.0312530517578125,6.393417358398438,1713732099792.0
10.865999999999984,7.233959960937501,-0.3231475830078125,6.815856933593751,1713732099803.0
10.875,6.850848388671875,-0.462664794921875,6.383697509765626,1713732099812.0
10.885999999999967,7.827468872070313,-0.36307373046875,6.944906616210938,1713732099823.0
10.896000000000017,7.690792846679688,-0.3461761474609375,6.549533081054688,1713732099833.0
10.906000000000006,7.825674438476563,-0.165087890625,5.890377807617188,1713732099843.0
10.915999999999997,6.394015502929688,0.3940277099609375,6.861614990234376,1713732099853.0
10.925999999999988,5.374179077148438,0.7835693359375001,7.456619262695313,1713732099863.0
10.93599999999998,6.5559631347656255,0.7454376220703125,9.080731201171876,1713732099873.0
10.94599999999997,6.894512939453126,0.044561767578125,7.7196533203125,1713732099883.0
10.956000000000016,7.615127563476563,-0.08314208984375,5.958566284179688,1713732099893.0
10.966000000000008,7.592098999023438,0.264678955078125,5.738299560546875,1713732099903.0
10.976,7.101919555664063,0.5728729248046875,6.114532470703125,1713732099913.0
10.98599999999999,7.318298339843751,0.1523773193359375,7.314709472656251,1713732099923.0
10.997000000000014,7.070816040039063,-0.5639007568359375,6.901541137695313,1713732099934.0
11.007000000000003,6.278125,-0.7914947509765625,7.01085205078125,1713732099944.0
11.016999999999996,6.2817138671875,-0.145050048828125,8.103961181640626,1713732099954.0
11.026999999999989,6.496597290039063,0.5498443603515626,7.971173095703126,1713732099964.0
11.036999999999978,7.416094970703125,0.5643493652343751,7.058853149414063,1713732099974.0
11.046999999999969,7.623800659179688,0.4581787109375,5.121014404296876,1713732099984.0
11.057000000000016,7.1406494140625005,0.3808685302734375,5.563192749023438,1713732099994.0
11.067000000000007,7.2387451171875,0.478515625,7.293325805664063,1713732100004.0
11.076999999999998,6.65555419921875,-0.0,8.048931884765626,1713732100014.0
11.086999999999987,6.492709350585938,-0.5042358398437501,7.470974731445313,1713732100024.0
11.09699999999998,6.4811950683593755,-0.7763916015625001,6.480596923828125,1713732100034.0
11.106999999999973,7.0000854492187505,-0.2708099365234375,7.2169128417968755,1713732100044.0
11.11700000000002,7.170108032226563,0.2356689453125,7.145883178710938,1713732100054.0
11.12700000000001,7.6933349609375,0.3677093505859375,6.689797973632813,1713732100064.0
11.137,7.227081298828126,0.2313323974609375,5.334103393554688,1713732100074.0
11.147999999999968,7.245922851562501,0.236566162109375,6.211431884765625,1713732100085.0
11.158000000000015,6.4482971191406255,0.37982177734375,7.890872192382813,1713732100095.0
11.168000000000006,6.695779418945313,0.307745361328125,8.242132568359375,1713732100105.0
11.177999999999995,6.294424438476563,-0.0650482177734375,7.768551635742188,1713732100115.0
11.187999999999988,6.861764526367188,-0.2851654052734375,6.0210723876953125,1713732100125.0
11.19799999999998,7.160238647460938,0.0814971923828125,6.9327941894531255,1713732100135.0
11.20799999999997,7.390075683593751,0.2966796875,6.4139038085937505,1713732100145.0
11.218000000000018,7.177584838867188,0.270660400390625,6.886737060546875,1713732100155.0
11.228000000000009,6.511550903320313,-0.3204559326171875,5.8905273437500005,1713732100165.0
11.238,7.864553833007813,-0.59635009765625,6.909466552734376,1713732100175.0
11.24799999999999,7.41759033203125,-0.299969482421875,7.485928344726563,1713732100185.0
11.25799999999998,7.230819702148438,0.0490478515625,6.924420166015626,1713732100195.0
11.267999999999972,5.7758331298828125,0.4966094970703125,7.088461303710938,1713732100205.0
11.27800000000002,5.6876068115234375,0.66334228515625,6.936083984375,1713732100215.0
11.288999999999987,7.393963623046876,0.8871978759765625,8.513391113281251,1713732100226.0
11.298999999999978,7.135116577148438,0.3386993408203125,7.120462036132813,1713732100236.0
11.308999999999967,7.864254760742188,0.0477020263671875,5.9276123046875,1713732100246.0
11.319000000000017,7.024459838867188,0.2220611572265625,5.8292175292968755,1713732100256.0
11.329000000000008,6.489270019531251,0.2193695068359375,6.58916015625,1713732100266.0
11.339,7.6359130859375,-0.1876678466796875,8.06298828125,1713732100276.0
11.34899999999999,6.862213134765626,-1.0845855712890626,6.839633178710938,1713732100286.0
11.35899999999998,6.527252197265626,-0.893927001953125,6.520822143554688,1713732100296.0
11.368999999999971,6.53233642578125,0.13936767578125,7.325177001953126,1713732100306.0
11.37900000000002,7.01085205078125,0.708203125,7.766308593750001,1713732100316.0
11.38900000000001,7.748214721679688,0.7122406005859375,7.186856079101563,1713732100326.0
11.399,6.840530395507813,0.5695831298828126,5.206250000000001,1713732100336.0
11.408999999999992,6.676788330078126,0.733624267578125,6.341827392578126,1713732100346.0
11.420000000000016,6.728228759765625,0.7436431884765625,8.261572265625,1713732100357.0
11.428999999999974,6.802847290039063,0.049945068359375,8.231066894531251,1713732100366.0
11.439999999999998,7.013693237304688,-0.6338836669921876,6.677835083007813,1713732100377.0
11.449999999999989,6.785800170898438,-0.9311614990234376,5.529397583007813,1713732100387.0
11.45999999999998,7.220352172851563,-0.394775390625,6.981991577148438,1713732100397.0
11.46999999999997,7.493704223632813,-0.0521881103515625,7.426412963867188,1713732100407.0
11.480000000000018,7.4157958984375005,0.01734619140625,6.895260620117188,1713732100417.0
11.490000000000007,7.017132568359376,-0.0705810546875,5.146734619140625,1713732100427.0
11.5,6.800155639648438,0.1828826904296875,6.605459594726563,1713732100437.0
11.509999999999993,6.623852539062501,0.7739990234375,8.297909545898438,1713732100447.0
11.519999999999982,6.761724853515625,0.7787841796875,8.664871215820312,1713732100457.0
11.529999999999973,6.376370239257813,0.29967041015625,6.729125976562501,1713732100467.0
11.54000000000002,6.933392333984376,0.0261688232421875,5.729177856445313,1713732100477.0
11.550000000000011,7.013693237304688,0.0405242919921875,6.654357910156251,1713732100487.0
11.560000000000002,7.459609985351563,-0.152825927734375,7.001281738281251,1713732100497.0
11.569999999999991,7.597781372070313,-0.6494354248046875,7.21781005859375,1713732100507.0
11.579999999999984,7.0598999023437505,-0.973779296875,5.6979248046875,1713732100517.0
11.589999999999977,7.4546752929687505,-0.2857635498046875,6.880606079101563,1713732100527.0
11.601,6.489419555664063,0.7108947753906251,7.529443359375,1713732100538.0
11.61099999999999,5.641848754882813,0.9202453613281252,7.650567626953125,1713732100548.0
11.62099999999998,7.018627929687501,0.6794921875000001,7.625595092773438,1713732100558.0
11.630999999999972,6.994702148437501,0.4015045166015625,6.82841796875,1713732100568.0
11.64100000000002,7.60899658203125,0.5465545654296875,6.579739379882813,1713732100578.0
11.65100000000001,7.165621948242188,0.4317108154296875,6.553271484375,1713732100588.0
11.661,7.047039794921876,-0.02392578125,6.270498657226563,1713732100598.0
11.670999999999992,7.153808593750001,-0.5902191162109376,6.989169311523438,1713732100608.0
11.680999999999983,6.518878173828125,-0.7143341064453126,7.153509521484375,1713732100618.0
11.690999999999974,6.814959716796875,-0.4320098876953125,7.773336791992188,1713732100628.0
11.701000000000022,6.537121582031251,0.0539825439453125,7.479049682617188,1713732100638.0
11.711000000000013,6.947299194335938,0.439337158203125,6.728677368164063,1713732100648.0
11.721000000000004,7.536022949218751,0.8104858398437501,6.653909301757813,1713732100658.0
11.730999999999996,7.042404174804688,0.8414398193359376,5.972024536132813,1713732100668.0
11.74200000000002,7.004421997070313,0.6929504394531251,7.040908813476563,1713732100679.0
11.75200000000001,6.947448730468751,0.0351409912109375,7.001281738281251,1713732100689.0
11.762,6.9193359375000005,-0.514404296875,7.323980712890625,1713732100699.0
11.771999999999991,6.601571655273438,-0.7738494873046876,6.8251281738281255,1713732100709.0
11.781999999999982,7.080087280273438,-0.7119415283203125,7.059750366210938,1713732100719.0
11.791999999999971,6.824081420898438,-0.29488525390625,7.223043823242188,1713732100729.0
11.80200000000002,7.344168090820313,0.11065673828125,6.513793945312501,1713732100739.0
11.812000000000012,7.087265014648438,0.5404235839843751,6.640301513671876,1713732100749.0
11.822000000000005,7.461853027343751,0.5504425048828125,5.758187866210938,1713732100759.0
11.831999999999994,6.8819519042968755,0.6150421142578125,7.594491577148438,1713732100769.0
11.841999999999985,6.642544555664063,0.457879638671875,7.031787109375,1713732100779.0
11.851999999999975,6.264666748046875,0.3829620361328125,8.365350341796876,1713732100789.0
11.862000000000023,6.758734130859375,-0.119927978515625,6.665722656250001,1713732100799.0
11.872000000000014,7.245922851562501,-0.413018798828125,7.078143310546875,1713732100809.0
11.882000000000003,7.0856201171875,-0.3760833740234375,6.0150909423828125,1713732100819.0
11.892999999999972,6.961505126953125,-0.13577880859375,6.669161987304688,1713732100830.0
11.90300000000002,7.123901367187501,-0.2429962158203125,6.539813232421875,1713732100840.0
11.913000000000013,8.176486206054689,-0.5052825927734376,6.9301025390625,1713732100850.0
11.923000000000002,7.220651245117188,-0.1772003173828125,6.640301513671876,1713732100860.0
11.932999999999993,6.859970092773438,0.5281616210937501,6.685012817382813,1713732100870.0
11.942999999999984,5.198025512695313,1.1210723876953126,7.742532348632813,1713732100880.0
11.952999999999976,6.45517578125,0.8767303466796875,7.888330078125,1713732100890.0
11.963000000000022,7.165921020507813,0.3841583251953125,8.54569091796875,1713732100900.0
11.973000000000011,7.430001831054688,0.048150634765625,5.522967529296875,1713732100910.0
11.983000000000004,7.455422973632813,0.1997802734375,6.494204711914063,1713732100920.0
11.99599999999998,7.045993041992188,0.168377685546875,5.653662109375,1713732100933.0
12.002999999999986,7.371234130859375,-0.2883056640625,7.395010375976563,1713732100940.0
12.012999999999977,7.104312133789063,-0.8447296142578126,6.989019775390625,1713732100950.0
12.022999999999968,6.599777221679688,-0.9072357177734376,6.746621704101563,1713732100960.0
12.033999999999992,6.237301635742188,-0.2295379638671875,7.73221435546875,1713732100971.0
12.043999999999984,6.844418334960938,0.500347900390625,7.568920898437501,1713732100981.0
12.053999999999974,7.210632324218751,0.7660736083984375,7.530490112304688,1713732100991.0
12.06400000000002,7.432394409179688,0.861029052734375,5.4389282226562505,1713732101001.0
12.074000000000012,6.802398681640626,0.9769195556640624,6.318051147460938,1713732101011.0
12.084000000000003,6.952981567382813,0.8121307373046875,6.976907348632813,1713732101021.0
12.096000000000004,6.788940429687501,0.218621826171875,8.309722900390625,1713732101033.0
12.103999999999983,6.562692260742188,-0.6228179931640625,7.137957763671875,1713732101041.0
12.113999999999976,6.922027587890626,-0.999798583984375,6.54130859375,1713732101051.0
12.124000000000024,6.986029052734375,-0.929815673828125,6.587515258789063,1713732101061.0
12.134000000000016,7.4875732421875005,-0.4083831787109375,6.999935913085938,1713732101071.0
12.144000000000004,7.316952514648438,-0.050244140625,6.81705322265625,1713732101081.0
12.154999999999973,7.3918701171875005,0.2420989990234375,5.672952270507813,1713732101092.0
12.16500000000002,7.104461669921876,0.4015045166015625,6.120663452148438,1713732101102.0
12.175000000000011,6.963150024414063,0.581097412109375,7.454974365234375,1713732101112.0
12.185000000000002,6.170758056640626,0.8569915771484375,8.509353637695312,1713732101122.0
12.19599999999997,6.169561767578125,0.746185302734375,8.02650146484375,1713732101133.0
12.204999999999984,6.513793945312501,0.315521240234375,6.801351928710938,1713732101142.0
12.214999999999977,7.522714233398438,-0.170770263671875,6.333752441406251,1713732101152.0
12.225000000000025,7.334896850585938,-0.33555908203125,6.26317138671875,1713732101162.0
12.235000000000014,7.079788208007813,-0.482403564453125,6.219207763671876,1713732101172.0
12.245000000000005,7.567874145507813,-0.7853637695312501,6.828717041015626,1713732101182.0
12.254999999999995,7.691839599609375,-0.97677001953125,6.410165405273438,1713732101192.0
12.264999999999986,7.256240844726563,-0.2893524169921875,7.0942932128906255,1713732101202.0
12.274999999999975,5.8860412597656255,0.7717559814453125,7.2052490234375,1713732101212.0
12.284999999999968,5.471078491210938,1.370648193359375,8.029043579101563,1713732101222.0
12.295999999999992,6.997991943359375,1.2087005615234376,8.289984130859375,1713732101233.0
12.305999999999983,7.3727294921875,0.6129486083984376,6.74527587890625,1713732101243.0
12.315999999999974,7.894760131835938,0.3385498046875,5.70330810546875,1713732101253.0
12.326000000000022,7.15440673828125,0.154022216796875,5.8630126953125,1713732101263.0
12.336000000000013,7.002029418945313,-0.2050140380859375,6.766659545898438,1713732101273.0
12.346000000000004,7.102218627929688,-0.93848876953125,7.701409912109376,1713732101283.0
12.355999999999996,6.45457763671875,-1.26986083984375,7.147677612304688,1713732101293.0
12.365999999999984,6.534878540039063,-0.7841674804687501,7.313214111328126,1713732101303.0
12.375999999999976,6.647927856445313,0.357391357421875,7.5019287109375,1713732101313.0
12.385999999999967,7.201062011718751,1.0621551513671876,7.019076538085938,1713732101323.0
12.396000000000017,7.541555786132813,1.2290374755859377,6.441867065429688,1713732101333.0
12.406000000000006,7.028347778320313,1.0777069091796876,5.67100830078125,1713732101343.0
12.415999999999997,6.787594604492188,0.88345947265625,7.184164428710938,1713732101353.0
12.425999999999988,6.719854736328125,0.2693145751953125,7.850347900390625,1713732101363.0
12.43599999999998,6.648077392578125,-0.6017333984375001,7.73221435546875,1713732101373.0
12.44599999999997,6.844866943359375,-1.28780517578125,6.374276733398438,1713732101383.0
12.456000000000016,7.359121704101563,-1.2338226318359375,6.360668945312501,1713732101393.0
12.466999999999985,7.035525512695313,-0.5700317382812501,6.943710327148438,1713732101404.0
12.476999999999975,7.484582519531251,0.1718170166015625,6.698620605468751,1713732101414.0
12.487000000000023,7.111041259765625,0.488385009765625,6.61368408203125,1713732101424.0
12.497000000000014,7.552920532226563,0.5845367431640626,5.527752685546876,1713732101434.0
12.507000000000003,6.571514892578126,0.7375122070312501,7.397402954101563,1713732101444.0
12.516999999999996,6.544598388671876,0.8540008544921875,7.679727172851563,1713732101454.0
12.526999999999989,6.090606689453125,0.7038665771484376,8.886334228515626,1713732101464.0
12.536999999999978,6.523663330078126,0.02452392578125,6.778024291992188,1713732101474.0
12.546999999999969,7.243978881835938,-0.309539794921875,6.680825805664063,1713732101484.0
12.557000000000016,7.45706787109375,-0.4254302978515625,5.94854736328125,1713732101494.0
12.567000000000007,7.416394042968751,-0.2196685791015625,6.555813598632813,1713732101504.0
12.576999999999998,6.779968261718751,-0.3422882080078125,6.5589538574218755,1713732101514.0
12.586999999999987,7.266857910156251,-0.6655853271484375,6.375921630859375,1713732101524.0
12.598000000000011,7.662680053710938,-0.7585968017578125,7.018478393554688,1713732101535.0
12.608000000000004,7.323980712890625,-0.2189208984375,6.979000854492188,1713732101545.0
12.617999999999997,6.880157470703126,0.8391967773437501,7.554864501953125,1713732101555.0
12.627999999999986,5.320944213867188,1.37274169921875,7.136611938476563,1713732101565.0
12.637999999999977,6.054568481445313,1.4165557861328126,7.699465942382813,1713732101575.0
12.647999999999968,7.372131347656251,0.8560943603515626,7.858273315429688,1713732101585.0
12.658000000000015,7.492657470703126,0.0462066650390625,6.35648193359375,1713732101595.0
12.668000000000006,8.001828002929688,-0.312530517578125,6.233413696289063,1713732101605.0
12.677999999999995,6.6755920410156255,-0.34632568359375,5.8749755859375,1713732101615.0
12.687999999999988,6.758883666992188,-0.4918243408203125,6.972869873046876,1713732101625.0
12.69799999999998,7.385589599609376,-0.8732910156250001,7.672698974609376,1713732101635.0
12.70799999999997,6.872381591796875,-1.10238037109375,6.604861450195313,1713732101645.0
12.718000000000018,6.591702270507813,-0.273052978515625,7.116873168945313,1713732101655.0
12.728000000000009,6.544149780273438,0.8540008544921875,6.901690673828125,1713732101665.0
12.738999999999976,7.2378479003906255,1.2884033203125,7.812664794921876,1713732101676.0
12.74799999999999,7.392318725585938,1.1535217285156252,6.686657714843751,1713732101685.0
12.759000000000016,6.581533813476563,0.8653656005859376,5.985482788085938,1713732101696.0
12.769000000000004,6.557757568359375,0.7783355712890626,7.152911376953125,1713732101706.0
12.778999999999996,6.602917480468751,0.174957275390625,8.07913818359375,1713732101716.0
12.788999999999987,7.0195251464843755,-0.6252105712890625,7.8973022460937505,1713732101726.0
12.798999999999978,7.176687622070313,-1.2957305908203125,5.720953369140625,1713732101736.0
12.808999999999967,7.379159545898438,-1.1484375,5.873181152343751,1713732101746.0
12.819000000000017,7.208538818359376,-0.5580688476562501,6.513195800781251,1713732101756.0
12.829000000000008,7.664624023437501,0.03409423828125,7.450189208984376,1713732101766.0
12.839,6.874176025390626,0.2764923095703125,6.557907104492188,1713732101776.0
12.84899999999999,7.183715820312501,0.4314117431640625,5.8849945068359375,1713732101786.0
12.85899999999998,6.416445922851563,0.6627441406250001,7.220053100585938,1713732101796.0
12.868999999999971,6.6516662597656255,1.0472015380859376,8.362808227539062,1713732101806.0
12.87900000000002,6.178234863281251,0.999798583984375,8.824426269531251,1713732101816.0
12.88900000000001,6.587066650390626,0.3961212158203125,6.11064453125,1713732101826.0
12.899,7.261026000976563,-0.2097991943359375,6.149822998046876,1713732101836.0
12.911999999999978,7.412356567382813,-0.7349700927734375,5.713177490234376,1713732101849.0
12.920000000000016,7.907620239257813,-0.7822235107421875,7.087713623046875,1713732101857.0
12.930000000000009,7.203753662109375,-0.9622650146484376,6.755145263671875,1713732101867.0
12.939999999999998,7.406674194335938,-0.7325775146484376,6.565682983398438,1713732101877.0
12.949999999999989,6.887783813476563,0.0716278076171875,6.981842041015626,1713732101887.0
12.95999999999998,5.374777221679688,1.0552764892578126,7.508358764648438,1713732101897.0
12.96999999999997,6.442764282226563,1.4563323974609377,8.338134765625,1713732101907.0
12.980000000000018,7.136013793945313,0.8936279296875,7.789337158203126,1713732101917.0
12.990000000000007,7.586416625976563,0.5247222900390626,5.8989013671875,1713732101927.0
13.0,7.437179565429688,0.424981689453125,5.962603759765625,1713732101937.0
13.012,6.896606445312501,0.25780029296875,6.280667114257813,1713732101949.0
13.019999999999982,7.283755493164063,-0.466851806640625,7.527499389648438,1713732101957.0
13.031000000000006,6.799258422851563,-1.1698211669921876,7.262222290039063,1713732101968.0
13.04000000000002,6.531140136718751,-1.10537109375,6.769052124023438,1713732101977.0
13.050999999999988,6.446054077148438,-0.23865966796875,7.795468139648438,1713732101988.0
13.06099999999998,6.84097900390625,0.5613586425781251,7.325027465820313,1713732101998.0
13.07099999999997,7.567276000976563,0.9842468261718752,7.218408203125,1713732102008.0
13.081000000000016,7.359869384765625,0.9467132568359377,5.2529052734375,1713732102018.0
13.091000000000008,7.0045715332031255,0.8405426025390625,6.019726562500001,1713732102028.0
13.101,6.91514892578125,0.481805419921875,7.359121704101563,1713732102038.0
13.112000000000023,6.887484741210938,-0.20277099609375,8.127886962890626,1713732102049.0
13.12099999999998,6.314761352539063,-0.7532135009765626,7.489517211914063,1713732102058.0
13.130999999999972,6.706695556640626,-0.975872802734375,6.329714965820313,1713732102068.0
13.14100000000002,7.050030517578126,-0.5344421386718751,7.272988891601563,1713732102078.0
13.15100000000001,7.379608154296876,0.0375335693359375,6.746173095703125,1713732102088.0
13.161,7.395608520507813,0.5540313720703125,6.903485107421876,1713732102098.0
13.170999999999992,7.4427124023437505,0.451300048828125,4.9948059082031255,1713732102108.0
13.180999999999983,7.286447143554688,0.36187744140625,6.640151977539063,1713732102118.0
13.192000000000007,6.686807250976563,0.297576904296875,7.294671630859376,1713732102129.0
13.201999999999998,6.309078979492188,0.4122711181640625,8.754742431640626,1713732102139.0
13.211999999999987,6.126644897460938,0.057122802734375,7.6311279296875005,1713732102149.0
13.22199999999998,6.987225341796876,-0.2869598388671875,6.658694458007813,1713732102159.0
13.231999999999973,7.051525878906251,-0.1734619140625,6.560748291015625,1713732102169.0
13.24200000000002,7.558154296875,0.2615386962890625,6.174795532226563,1713732102179.0
13.25200000000001,6.702957153320313,0.17286376953125,6.750958251953126,1713732102189.0
13.262,8.03846435546875,-0.44202880859375,5.927163696289063,1713732102199.0
13.271999999999991,7.449890136718751,-0.6329864501953125,7.22618408203125,1713732102209.0
13.281999999999982,7.212576293945313,-0.1894622802734375,6.4408203125000005,1713732102219.0
13.291999999999971,5.998941040039063,0.5298065185546875,8.0928955078125,1713732102229.0
13.30200000000002,5.413656616210938,0.6522766113281251,7.255343627929688,1713732102239.0
13.312000000000012,7.024160766601563,0.6044250488281251,8.282806396484375,1713732102249.0
13.322000000000005,7.180276489257813,0.5034881591796876,7.078890991210938,1713732102259.0
13.33299999999997,7.826571655273438,0.5028900146484375,5.758038330078126,1713732102270.0
13.343000000000018,7.2139221191406255,0.52158203125,6.297415161132813,1713732102280.0
13.353000000000009,7.037918090820313,0.10347900390625,5.963650512695313,1713732102290.0
13.363,7.173098754882813,-0.423486328125,7.869338989257813,1713732102300.0
13.37299999999999,6.692639160156251,-0.9710876464843752,6.879559326171876,1713732102310.0
13.38299999999998,6.444857788085938,-0.9162078857421876,7.578790283203125,1713732102320.0
13.392999999999972,6.740042114257813,-0.3120819091796875,7.004721069335938,1713732102330.0
13.40300000000002,6.974215698242188,0.3369049072265625,7.384094238281251,1713732102340.0
13.413000000000013,7.69034423828125,0.7666717529296876,6.476858520507813,1713732102350.0
13.423000000000002,7.042553710937501,1.0338928222656252,5.978155517578125,1713732102360.0
13.432999999999993,6.7533508300781255,1.03897705078125,6.5619445800781255,1713732102370.0
13.442999999999984,6.778472900390626,0.82962646484375,7.7746826171875005,1713732102380.0
13.452999999999976,6.452932739257813,0.0955535888671875,7.959957885742188,1713732102390.0
13.463000000000022,6.879110717773438,-0.5236755371093751,7.02879638671875,1713732102400.0
13.47399999999999,6.9253173828125005,-1.0325469970703125,6.3690429687500005,1713732102411.0
13.48399999999998,7.410711669921875,-0.825140380859375,6.584225463867188,1713732102421.0
13.493999999999971,7.130929565429688,-0.4222900390625,6.902438354492188,1713732102431.0
13.50400000000002,7.4068237304687505,-0.0438140869140625,6.559701538085938,1713732102441.0
13.51400000000001,7.269549560546875,0.151629638671875,5.8969573974609375,1713732102451.0
13.524,7.30155029296875,0.252716064453125,6.4468017578125005,1713732102461.0
13.533999999999992,6.504223632812501,0.6796417236328125,7.653109741210938,1713732102471.0
13.543999999999984,6.266012573242188,1.011163330078125,8.30643310546875,1713732102481.0
13.553999999999974,6.1345703125,0.7657745361328125,7.761672973632813,1713732102491.0
13.56400000000002,6.966290283203126,0.1111053466796875,6.194833374023438,1713732102501.0
13.574000000000012,7.136911010742188,-0.4409820556640625,6.499288940429688,1713732102511.0
13.584000000000003,8.014389038085938,-0.5404235839843751,6.305191040039063,1713732102521.0
13.593999999999994,7.609445190429688,-0.43604736328125,7.052124023437501,1713732102531.0
13.603999999999983,7.688250732421875,-0.409429931640625,6.008810424804688,1713732102541.0
13.615000000000007,6.1955810546875005,-0.0584686279296875,6.743780517578125,1713732102552.0
13.625,5.431600952148438,0.35469970703125,7.331906127929688,1713732102562.0
13.634999999999993,6.9223266601562505,0.669921875,9.060394287109377,1713732102572.0
13.644999999999982,6.88284912109375,0.4137664794921875,7.832702636718751,1713732102582.0
13.654999999999973,7.514788818359375,0.4152618408203125,5.8162078857421875,1713732102592.0
