time,ax,ay,az,timestamp
0.0,7.610491943359375,-0.233575439453125,7.736401367187501,1713734072937.0
0.0099999999999909,6.754397583007813,-1.2043640136718752,7.770196533203125,1713734072947.0
0.0199999999999995,7.728924560546876,-1.206158447265625,6.8326049804687505,1713734072957.0
0.0300000000000011,6.324929809570313,-0.5476013183593751,6.337191772460938,1713734072967.0
0.0399999999999884,6.602169799804688,0.1021331787109375,6.10765380859375,1713734072977.0
0.0499999999999971,7.6550537109375005,0.5447601318359375,7.4899658203125,1713734072987.0
0.0630000000000023,7.470077514648438,0.6814361572265626,6.655255126953126,1713734073000.0
0.0709999999999979,7.037619018554688,1.021630859375,6.711929321289063,1713734073008.0
0.081000000000003,6.389080810546876,1.42178955078125,7.154257202148438,1713734073018.0
0.0909999999999939,6.456671142578125,1.2526641845703126,7.524807739257813,1713734073028.0
0.100999999999999,6.764715576171875,0.3533538818359375,8.09229736328125,1713734073038.0
0.1110000000000077,7.452432250976563,-0.8231964111328126,5.957669067382813,1713734073048.0
0.1209999999999951,7.414001464843751,-1.4114715576171877,6.285601806640625,1713734073058.0
0.1309999999999966,6.687106323242188,-1.3147216796875,5.896209716796875,1713734073068.0
0.1409999999999911,7.185211181640626,-0.7138854980468751,7.944854736328126,1713734073078.0
0.1509999999999998,7.410113525390625,0.082244873046875,7.659988403320313,1713734073088.0
0.1629999999999967,6.057110595703126,0.6009857177734376,6.131430053710938,1713734073100.0
0.1709999999999887,7.25609130859375,1.5539794921875,6.349453735351563,1713734073108.0
0.1809999999999973,7.24173583984375,1.7640777587890626,6.868942260742188,1713734073118.0
0.1910000000000025,7.06767578125,1.1266052246093752,7.254147338867188,1713734073128.0
0.2009999999999934,7.370635986328126,0.209649658203125,6.673049926757813,1713734073138.0
0.2120000000000033,6.815557861328125,-0.7790832519531251,6.682620239257813,1713734073149.0
0.2219999999999942,6.041259765625,-0.9715362548828126,7.224688720703125,1713734073159.0
0.2319999999999993,7.066180419921875,-0.744091796875,7.660736083984376,1713734073169.0
0.242000000000008,7.4786010742187505,-0.69803466796875,7.02042236328125,1713734073179.0
0.2519999999999953,7.562939453125001,-0.99949951171875,5.1612396240234375,1713734073189.0
0.262999999999991,7.396954345703126,-0.3964202880859375,5.906527709960938,1713734073200.0
0.2719999999999913,6.816754150390626,0.640911865234375,7.236651611328125,1713734073209.0
0.2819999999999965,5.824880981445313,1.317263793945313,8.693582153320314,1713734073219.0
0.2920000000000016,5.627044677734375,1.28541259765625,8.467483520507812,1713734073229.0
0.3019999999999889,6.186309814453126,0.7926910400390625,7.887582397460938,1713734073239.0
0.3119999999999976,7.59404296875,0.357989501953125,6.779220581054688,1713734073249.0
0.3220000000000027,8.641244506835939,0.44202880859375,6.17703857421875,1713734073259.0
0.3319999999999936,5.9986419677734375,-0.0650482177734375,5.361767578125001,1713734073269.0
0.3419999999999987,7.073507690429688,-0.5108154296875,6.1671691894531255,1713734073279.0
0.3520000000000074,8.029791259765625,-1.0128082275390626,8.062091064453126,1713734073289.0
0.3629999999999995,7.442263793945313,-1.314273071289063,6.342425537109375,1713734073300.0
0.3730000000000046,7.043600463867188,-0.2500244140625,6.712228393554688,1713734073310.0
0.3829999999999955,6.361715698242188,1.0591644287109376,5.948248291015625,1713734073320.0
0.3929999999999971,6.7787719726562505,1.648785400390625,7.991360473632813,1713734073330.0
0.4029999999999916,6.504074096679688,1.221710205078125,8.427557373046875,1713734073340.0
0.4129999999999967,6.942514038085938,0.778485107421875,6.951486206054688,1713734073350.0
0.4230000000000018,6.577346801757813,0.4915252685546875,6.618618774414063,1713734073360.0
0.4329999999999891,7.0210205078125005,-0.1027313232421875,6.031988525390625,1713734073370.0
0.4429999999999978,8.091848754882813,-0.6600524902343751,7.368991088867188,1713734073380.0
0.4530000000000029,7.378411865234376,-0.9948638916015624,6.098980712890626,1713734073390.0
0.4629999999999938,6.5329345703125,-0.6711181640625,6.0744567871093755,1713734073400.0
0.472999999999999,6.772341918945313,-0.27813720703125,7.3248779296875,1713734073410.0
0.4830000000000076,6.272442626953126,0.2690155029296875,8.539260864257812,1713734073420.0
0.4939999999999998,6.269900512695313,1.0669403076171875,8.334246826171876,1713734073431.0
0.5040000000000049,6.419735717773438,1.5363342285156252,7.114031982421875,1713734073441.0
0.5139999999999993,7.2052490234375,1.6100555419921876,6.3439208984375,1713734073451.0
0.5240000000000009,7.35538330078125,1.2027191162109376,6.465194702148438,1713734073461.0
0.5339999999999918,7.506863403320313,0.5374328613281251,6.603964233398438,1713734073471.0
0.5439999999999969,6.958813476562501,-0.3686065673828125,6.6337219238281255,1713734073481.0
0.554000000000002,7.353588867187501,-1.3995086669921877,6.501083374023438,1713734073491.0
0.563999999999993,6.684713745117188,-1.9279693603515624,6.912158203125,1713734073501.0
0.5739999999999981,7.56533203125,-1.5364837646484375,6.53592529296875,1713734073511.0
0.5840000000000032,6.73331298828125,-0.9843963623046876,6.5335327148437505,1713734073521.0
0.5939999999999941,7.7890380859375,-0.3641204833984375,6.133224487304688,1713734073531.0
0.6039999999999992,7.0225158691406255,0.55926513671875,7.443460083007813,1713734073541.0
0.6140000000000079,6.628488159179688,1.796826171875,6.939822387695313,1713734073551.0
0.6239999999999952,5.984136962890625,2.6926971435546876,8.788088989257814,1713734073561.0
0.6339999999999968,5.800506591796875,2.2591918945312504,7.276129150390625,1713734073571.0
0.6439999999999912,7.468731689453126,1.1894104003906252,7.553369140625,1713734073581.0
0.6539999999999999,6.913653564453125,-0.19200439453125,6.182870483398438,1713734073591.0
0.6649999999999885,8.002725219726564,-1.1704193115234376,5.833255004882813,1713734073602.0
0.6749999999999972,6.8439697265625,-1.5641479492187502,7.449740600585938,1713734073612.0
0.6850000000000023,6.728677368164063,-1.6393646240234376,6.228778076171875,1713734073622.0
0.6949999999999932,7.376168823242188,-1.1312408447265625,8.180523681640626,1713734073632.0
0.7049999999999983,6.792529296875,-0.584088134765625,5.541659545898438,1713734073642.0
0.7150000000000034,7.1256958007812505,0.6904083251953126,7.296765136718751,1713734073652.0
0.7249999999999943,7.281661987304688,1.6279998779296876,6.459213256835938,1713734073662.0
0.7349999999999994,6.606356811523438,1.9495025634765624,7.288391113281251,1713734073672.0
0.7450000000000045,7.01444091796875,1.5651947021484376,7.356130981445313,1713734073682.0
0.7549999999999955,6.302200317382813,0.9048431396484377,7.113433837890626,1713734073692.0
0.764999999999997,6.564486694335938,0.29010009765625,7.540060424804688,1713734073702.0
0.7749999999999915,6.514990234375,-0.5595642089843751,7.307681274414063,1713734073712.0
0.7860000000000014,7.498638916015626,-1.215579223632813,6.986776733398438,1713734073723.0
0.7959999999999887,7.264315795898438,-1.4443695068359377,6.145486450195313,1713734073733.0
0.8059999999999974,7.447647094726563,-0.861029052734375,6.114083862304688,1713734073743.0
0.8160000000000025,6.872531127929688,-0.070880126953125,6.697872924804688,1713734073753.0
0.8259999999999934,7.654754638671876,0.4462158203125,6.846810913085938,1713734073763.0
0.8359999999999985,7.129284667968751,0.5896209716796875,6.486727905273438,1713734073773.0
0.8460000000000036,7.00487060546875,0.665435791015625,6.439773559570313,1713734073783.0
0.8559999999999945,6.229077148437501,0.8798706054687501,7.423870849609376,1713734073793.0
0.8659999999999997,6.201263427734376,0.9304138183593752,8.544943237304688,1713734073803.0
0.8760000000000048,6.5933471679687505,0.5274139404296876,7.733111572265625,1713734073813.0
0.8859999999999957,6.374575805664063,-0.183929443359375,6.482391357421876,1713734073823.0
0.8960000000000008,7.937677001953125,-0.590069580078125,5.93359375,1713734073833.0
0.9059999999999916,7.858273315429688,-0.5178436279296875,6.621011352539063,1713734073843.0
0.9159999999999968,8.694180297851563,-0.3078948974609375,6.112438964843751,1713734073853.0
0.926000000000002,6.314761352539063,0.1305450439453125,6.471475219726563,1713734073863.0
0.9369999999999976,4.865756225585938,0.171368408203125,6.669461059570313,1713734073874.0
0.9470000000000028,6.594992065429688,0.4753753662109375,9.668707275390624,1713734073884.0
0.9569999999999936,6.987374877929688,0.3289794921875,8.764462280273438,1713734073894.0
0.9669999999999987,7.165771484375001,0.5830413818359376,6.166421508789063,1713734073904.0
0.9770000000000074,7.434637451171875,0.8151214599609375,4.924673461914063,1713734073914.0
0.9869999999999948,7.4651428222656255,1.0174438476562502,5.4673400878906255,1713734073924.0
0.997,7.766009521484375,0.5653961181640625,7.753298950195313,1713734073934.0
1.007000000000005,6.4276611328125,-0.3378021240234375,7.460656738281251,1713734073944.0
1.0169999999999997,6.249264526367188,-0.8300750732421875,7.306484985351563,1713734073954.0
1.027000000000001,5.955426025390626,-0.793438720703125,7.627987670898438,1713734073964.0
1.036999999999992,7.006216430664063,-0.2283416748046875,7.927059936523438,1713734073974.0
1.046999999999997,7.616323852539063,0.2400054931640625,7.194332885742188,1713734073984.0
1.0570000000000022,7.1675659179687505,0.5304046630859376,4.900897216796875,1713734073994.0
1.066999999999993,7.092947387695313,0.8417388916015626,5.686859130859375,1713734074004.0
1.078000000000003,7.671951293945313,0.8436828613281251,7.090106201171875,1713734074015.0
1.087999999999994,6.9911132812500005,0.576611328125,7.890573120117188,1713734074025.0
1.097999999999999,6.214721679687501,0.035888671875,6.938626098632813,1713734074035.0
1.1080000000000076,6.424819946289063,-0.483599853515625,6.928457641601563,1713734074045.0
1.117999999999995,6.778472900390626,-0.541021728515625,7.839581298828126,1713734074055.0
1.1279999999999966,6.902438354492188,-0.228192138671875,7.585220336914063,1713734074065.0
1.137999999999991,7.341775512695313,0.1392181396484375,6.784005737304688,1713734074075.0
1.1479999999999997,7.283306884765626,0.0131591796875,4.849905395507813,1713734074085.0
1.1580000000000013,7.9825378417968755,0.1045257568359375,6.004473876953125,1713734074095.0
1.1679999999999886,7.209735107421875,0.204864501953125,6.897802734375,1713734074105.0
1.1779999999999973,6.464297485351563,0.6268554687500001,7.975659179687501,1713734074115.0
1.1880000000000024,5.879910278320313,0.5012451171875001,7.7172607421875,1713734074125.0
1.1979999999999933,6.571365356445313,0.172564697265625,7.626193237304688,1713734074135.0
1.2079999999999984,7.13048095703125,0.1471435546875,7.202108764648438,1713734074145.0
1.218999999999994,6.496746826171876,0.4511505126953125,6.77518310546875,1713734074156.0
1.2289999999999992,6.992309570312501,0.5284606933593751,6.049932861328125,1713734074166.0
1.239000000000008,7.807281494140626,-0.2720062255859375,6.424520874023438,1713734074176.0
1.2489999999999952,8.5845703125,-1.0223785400390626,5.756243896484375,1713734074186.0
1.2589999999999968,8.120260620117188,-0.671417236328125,6.5574584960937505,1713734074196.0
1.2689999999999912,6.025259399414063,-0.027813720703125,6.699966430664063,1713734074206.0
1.279,4.638760375976563,0.7864105224609376,8.412454223632814,1713734074216.0
1.2890000000000017,6.130831909179688,0.935498046875,9.45606689453125,1713734074226.0
1.2989999999999888,6.854138183593751,0.8003173828125001,8.006762695312501,1713734074236.0
1.3089999999999975,7.8010009765625,0.5389282226562501,5.489321899414063,1713734074246.0
1.3190000000000026,8.041903686523439,0.7568023681640625,5.082882690429688,1713734074256.0
1.3289999999999935,7.273886108398438,0.7953826904296876,5.93419189453125,1713734074266.0
1.3389999999999986,6.93309326171875,0.0180938720703125,7.350747680664063,1713734074276.0
1.3490000000000073,7.4157958984375005,-1.005181884765625,7.701708984375,1713734074286.0
1.3619999999999948,5.7070465087890625,-1.678692626953125,6.7697998046875005,1713734074299.0
1.3700000000000043,6.317901611328126,-0.92772216796875,7.665222167968751,1713734074307.0
1.3799999999999957,6.966290283203126,0.246435546875,8.250506591796876,1713734074317.0
1.389999999999997,7.498788452148438,0.8563934326171876,6.851596069335938,1713734074327.0
1.3999999999999917,7.375122070312501,1.158905029296875,5.2161193847656255,1713734074337.0
1.4099999999999966,7.084124755859375,1.3130767822265623,5.55137939453125,1713734074347.0
1.4200000000000017,7.063189697265625,1.3643676757812502,7.479049682617188,1713734074357.0
1.429999999999989,6.572711181640625,0.6431549072265625,8.557055664062501,1713734074367.0
1.4399999999999975,6.420782470703125,-0.400457763671875,7.184762573242188,1713734074377.0
1.4500000000000028,6.865203857421876,-1.325189208984375,6.321490478515625,1713734074387.0
1.4620000000000033,6.921728515625,-1.2261962890625,6.874325561523438,1713734074399.0
1.4699999999999989,7.159341430664063,-0.31522216796875,7.692138671875001,1713734074407.0
1.4809999999999943,7.037319946289063,0.24344482421875,7.190444946289063,1713734074418.0
1.4899999999999949,7.590155029296875,0.4024017333984375,5.006021118164063,1713734074427.0
1.5,7.65146484375,0.3138763427734375,5.729925537109375,1713734074437.0
1.5109999999999957,7.320541381835938,0.57242431640625,6.4692321777343755,1713734074448.0
1.5210000000000008,6.290237426757813,0.9226379394531252,8.526849365234376,1713734074458.0
1.5309999999999917,5.9433135986328125,0.5728729248046875,8.383145141601563,1713734074468.0
1.5409999999999968,5.979351806640626,-0.1164886474609375,7.26566162109375,1713734074478.0
1.551000000000002,7.14244384765625,-0.3218017578125,6.719256591796875,1713734074488.0
1.5619999999999976,7.530789184570313,-0.2824737548828125,6.202908325195313,1713734074499.0
1.570999999999998,7.935733032226563,-0.0752166748046875,6.5768981933593755,1713734074508.0
1.581000000000003,8.129681396484376,-0.095703125,5.7912353515625,1713734074518.0
1.590999999999994,6.5724121093750005,0.1006378173828125,6.511550903320313,1713734074528.0
1.600999999999999,5.670858764648438,0.3512603759765625,7.2830078125,1713734074538.0
1.6110000000000078,6.607403564453126,0.5733215332031251,8.987271118164063,1713734074548.0
1.6209999999999951,6.733013916015626,0.22071533203125,8.182168579101564,1713734074558.0
1.630999999999997,7.030889892578125,0.1715179443359375,6.284555053710938,1713734074568.0
1.6409999999999911,7.202557373046876,0.6839782714843751,5.7694030761718755,1713734074578.0
1.652000000000001,7.256539916992188,0.8620758056640626,6.131878662109376,1713734074589.0
1.661999999999992,7.794122314453125,0.32598876953125,7.2830078125,1713734074599.0
1.671999999999997,6.7533508300781255,-0.3159698486328125,7.018777465820313,1713734074609.0
1.6820000000000022,6.216964721679688,-0.4352996826171875,6.885690307617188,1713734074619.0
1.691999999999993,6.1028686523437505,0.003887939453125,8.200711059570313,1713734074629.0
1.7019999999999982,6.841278076171876,0.2423980712890625,8.063436889648438,1713734074639.0
1.7120000000000033,7.23515625,0.2675201416015625,7.188650512695313,1713734074649.0
1.7219999999999942,7.330709838867188,0.2428466796875,4.6976776123046875,1713734074659.0
1.731999999999999,7.390673828125,0.321502685546875,5.6905975341796875,1713734074669.0
1.742000000000008,8.0294921875,0.0273651123046875,6.50601806640625,1713734074679.0
1.7519999999999951,7.379608154296876,-0.43245849609375,7.394561767578126,1713734074689.0
1.761999999999997,6.504672241210938,-0.7023712158203126,6.6286376953125,1713734074699.0
1.7719999999999914,5.570220947265625,-0.3931304931640625,7.703204345703125,1713734074709.0
1.7819999999999965,6.398800659179688,0.3982147216796875,8.568270874023439,1713734074719.0
1.7920000000000016,6.862213134765626,0.86551513671875,8.172299194335938,1713734074729.0
1.8029999999999973,7.455871582031251,0.9153106689453124,6.061297607421875,1713734074740.0
1.8130000000000024,7.162631225585938,0.855047607421875,4.863812255859376,1713734074750.0
1.8229999999999933,7.680175781250001,0.8421875000000001,6.290237426757813,1713734074760.0
1.8329999999999984,6.974813842773438,0.29368896484375,7.626043701171875,1713734074770.0
1.8430000000000035,7.109396362304688,-0.4726837158203125,7.84287109375,1713734074780.0
1.8529999999999944,6.159542846679688,-1.1879150390625002,6.378912353515625,1713734074790.0
1.8629999999999995,6.693685913085938,-1.1101562500000002,6.854437255859375,1713734074800.0
1.8730000000000049,6.839184570312501,-0.51739501953125,7.321737670898438,1713734074810.0
1.8829999999999956,7.322036743164063,0.1356292724609375,7.376766967773438,1713734074820.0
1.8929999999999971,7.694381713867188,0.4927215576171875,5.986828613281251,1713734074830.0
1.9029999999999916,7.009506225585938,0.5562744140625,5.706448364257813,1713734074840.0
1.9129999999999967,8.147326660156251,1.1581573486328125,6.8430725097656255,1713734074850.0
1.9230000000000016,5.530294799804688,1.49775390625,8.131027221679688,1713734074860.0
1.9329999999999892,5.67698974609375,1.0732208251953126,7.8030944824218755,1713734074870.0
1.9440000000000024,6.498840332031251,0.1090118408203125,8.17783203125,1713734074881.0
1.9539999999999935,7.201510620117188,-0.7837188720703125,6.883895874023438,1713734074891.0
1.9639999999999984,7.97984619140625,-0.492572021484375,6.656600952148438,1713734074901.0
1.9740000000000073,7.249960327148438,-0.0838897705078125,5.451788330078125,1713734074911.0
1.9839999999999949,6.9327941894531255,-0.14056396484375,5.9074249267578125,1713734074921.0
1.994,7.628137207031251,-0.3569427490234375,7.482339477539063,1713734074931.0
2.004000000000005,6.721798706054688,-0.1514801025390625,7.104910278320313,1713734074941.0
2.0139999999999993,6.2135253906250005,0.4430755615234375,7.746719360351563,1713734074951.0
2.024000000000001,6.157897949218751,0.6603515625,7.0673767089843755,1713734074961.0
2.033999999999992,7.435235595703125,0.687567138671875,7.900592041015625,1713734074971.0
2.043999999999997,7.191192626953126,0.7242034912109375,6.583477783203126,1713734074981.0
2.054000000000002,6.749612426757813,0.8577392578125,5.992062377929688,1713734074991.0
2.063999999999993,6.821240234375001,0.5449096679687501,6.559103393554688,1713734075001.0
2.073999999999998,7.374822998046875,-0.2818756103515625,7.322634887695313,1713734075011.0
2.0849999999999937,7.345962524414063,-0.8214019775390625,7.164126586914063,1713734075022.0
2.094999999999999,7.0180297851562505,-0.90260009765625,6.320892333984376,1713734075032.0
2.1050000000000075,6.299807739257813,-0.697735595703125,6.488821411132813,1713734075042.0
2.114999999999995,7.063339233398438,-0.14056396484375,7.832852172851563,1713734075052.0
2.125,7.399047851562501,0.2906982421875,7.293624877929688,1713734075062.0
2.134999999999991,6.985430908203125,0.5725738525390626,6.216217041015626,1713734075072.0
2.1449999999999996,7.195529174804688,0.7535125732421876,5.544650268554688,1713734075082.0
2.155000000000001,6.622805786132813,0.9066375732421876,7.600323486328126,1713734075092.0
2.1649999999999885,7.02939453125,0.94267578125,7.974163818359376,1713734075102.0
2.174999999999997,6.206796264648438,0.500946044921875,7.960406494140625,1713734075112.0
2.1850000000000023,6.951486206054688,-0.2917449951171875,5.78465576171875,1713734075122.0
2.194999999999993,6.598880004882813,-0.7621856689453126,6.582281494140625,1713734075132.0
2.2049999999999983,7.816851806640625,-0.7859619140625,6.780715942382813,1713734075142.0
2.2150000000000034,7.32786865234375,-0.5692840576171876,7.461254882812501,1713734075152.0
2.225999999999999,7.541555786132813,-0.388494873046875,6.170758056640626,1713734075163.0
2.236000000000008,7.124798583984376,0.3695037841796875,6.322387695312501,1713734075173.0
2.245999999999995,5.758038330078126,0.95523681640625,7.140350341796876,1713734075183.0
2.2559999999999967,6.888082885742188,1.4868377685546876,8.095437622070314,1713734075193.0
2.265999999999991,6.587216186523438,1.0413696289062502,8.458062744140626,1713734075203.0
2.276,7.034030151367188,0.33316650390625,5.8860412597656255,1713734075213.0
2.286000000000002,7.113882446289063,0.2534637451171875,6.911560058593751,1713734075223.0
2.2959999999999887,6.9911132812500005,0.131292724609375,6.025408935546875,1713734075233.0
2.3059999999999974,7.431796264648438,-0.302960205078125,7.5976318359375,1713734075243.0
2.3160000000000025,6.928158569335938,-0.91934814453125,6.717312622070313,1713734075253.0
2.3259999999999934,6.697125244140626,-0.764129638671875,6.630282592773438,1713734075263.0
2.3359999999999985,6.74527587890625,-0.038580322265625,7.431497192382813,1713734075273.0
2.3460000000000036,6.713723754882813,0.6986328125000001,7.380953979492188,1713734075283.0
2.3559999999999945,7.476806640625001,0.8931793212890625,7.32607421875,1713734075293.0
2.3659999999999997,6.841278076171876,0.7609893798828126,5.674298095703126,1713734075303.0
2.379000000000005,6.9926086425781255,0.6685760498046875,6.0883636474609375,1713734075316.0
2.386999999999997,7.129434204101563,0.2615386962890625,7.539761352539063,1713734075324.0
2.3969999999999914,7.386187744140625,-0.3066986083984375,7.219903564453125,1713734075334.0
2.4069999999999965,6.489868164062501,-0.8258880615234375,7.120312500000001,1713734075344.0
2.4170000000000016,6.791931152343751,-0.7998687744140626,6.338986206054688,1713734075354.0
2.426999999999989,6.376220703125001,-0.148638916015625,7.817898559570313,1713734075364.0
2.4369999999999976,7.499386596679688,0.5209838867187501,7.250857543945313,1713734075374.0
2.4470000000000027,7.023861694335938,0.6129486083984376,6.717910766601563,1713734075384.0
2.4569999999999936,7.452581787109375,0.5834899902343751,5.391375732421875,1713734075394.0
2.4669999999999987,6.781463623046876,0.7457366943359376,6.590805053710938,1713734075404.0
2.478999999999999,6.98154296875,0.7496246337890625,7.97147216796875,1713734075416.0
2.4869999999999948,6.60770263671875,0.2068084716796875,7.883096313476563,1713734075424.0
2.497,6.6920410156250005,-0.4972076416015625,6.9941040039062505,1713734075434.0
2.507000000000005,6.760678100585938,-0.724951171875,5.6497741699218755,1713734075444.0
2.5169999999999995,6.9836364746093755,-0.4942169189453125,7.221697998046875,1713734075454.0
2.5279999999999916,7.503872680664063,-0.3566436767578125,6.691293334960938,1713734075465.0
2.5379999999999967,7.555612182617188,-0.1351806640625,7.633819580078126,1713734075475.0
2.548000000000002,7.576846313476563,0.2208648681640625,5.394964599609375,1713734075485.0
2.557999999999989,6.942364501953126,0.97557373046875,6.939523315429688,1713734075495.0
2.567999999999998,5.445956420898438,1.4780151367187502,7.1870056152343755,1713734075505.0
2.578000000000003,6.250012207031251,1.2057098388671876,8.481539916992189,1713734075515.0
2.587999999999994,7.106106567382813,0.26976318359375,8.766107177734376,1713734075525.0
2.597999999999999,6.894512939453126,-0.4367950439453125,5.54898681640625,1713734075535.0
2.6080000000000076,7.826422119140625,-0.2256500244140625,6.728378295898438,1713734075545.0
2.617999999999995,6.788491821289063,0.016448974609375,5.63511962890625,1713734075555.0
2.627999999999997,7.801150512695313,-0.2887542724609375,7.025207519531251,1713734075565.0
2.637999999999991,7.012646484375001,-0.6779968261718751,7.078591918945313,1713734075575.0
2.6479999999999997,6.651815795898438,-0.552984619140625,6.145486450195313,1713734075585.0
2.6580000000000013,6.1919921875,0.236865234375,8.06717529296875,1713734075595.0
2.668999999999997,7.047189331054688,0.73272705078125,7.670605468750001,1713734075606.0
2.679000000000002,6.9627014160156255,0.8936279296875,7.645932006835938,1713734075616.0
2.688999999999993,7.169659423828126,0.9332550048828124,5.7384490966796875,1713734075626.0
2.698999999999998,6.2254882812500005,0.9583770751953126,6.36485595703125,1713734075636.0
2.709000000000003,7.1914916992187505,0.6898101806640625,7.5832763671875005,1713734075646.0
2.718999999999994,7.105657958984375,-0.133685302734375,7.839730834960938,1713734075656.0
2.728999999999999,7.341476440429688,-0.811383056640625,6.1881042480468755,1713734075666.0
2.739000000000008,7.025656127929688,-1.272402954101563,5.4251708984375,1713734075676.0
2.7489999999999952,7.2004638671875005,-0.8469726562500001,7.075900268554688,1713734075686.0
2.758999999999997,6.704153442382813,-0.157012939453125,7.784252929687501,1713734075696.0
2.7689999999999912,6.9507385253906255,0.3799713134765625,7.759130859375,1713734075706.0
2.780000000000001,7.024160766601563,0.4517486572265625,5.2823638916015625,1713734075717.0
2.7890000000000015,7.284353637695313,0.5665924072265626,6.4587646484375005,1713734075726.0
2.799999999999997,7.042703247070313,0.9670501708984376,7.1573974609375,1713734075737.0
2.8089999999999975,6.332855224609376,1.3238433837890626,8.500979614257814,1713734075746.0
2.819999999999993,6.364706420898438,0.7705596923828125,7.367495727539063,1713734075757.0
2.8299999999999983,6.621609497070313,-0.2872589111328125,6.326724243164063,1713734075767.0
2.8400000000000034,7.464544677734375,-0.8842071533203125,6.233114624023438,1713734075777.0
2.8499999999999943,7.307232666015626,-0.8058502197265626,6.705947875976563,1713734075787.0
2.859999999999999,7.532135009765626,-0.6166870117187501,7.064086914062501,1713734075797.0
2.8700000000000045,7.4681335449218755,-0.5927612304687501,6.394613647460938,1713734075807.0
2.8799999999999955,7.698419189453125,-0.0925628662109375,6.504522705078125,1713734075817.0
2.889999999999997,5.292681884765625,0.9658538818359376,6.834548950195313,1713734075827.0
2.8999999999999915,6.292929077148438,1.6734588623046875,8.187850952148438,1713734075837.0
2.9099999999999966,6.750808715820313,1.167877197265625,8.854931640625,1713734075847.0
2.9200000000000017,7.335644531250001,0.300567626953125,6.398052978515626,1713734075857.0
2.929999999999989,7.245773315429688,0.310137939453125,6.1644775390625,1713734075867.0
2.9399999999999977,7.039114379882813,0.4406829833984375,5.677438354492188,1713734075877.0
2.9509999999999934,7.300354003906251,-0.1721160888671875,7.1780334472656255,1713734075888.0
2.9599999999999937,7.5114990234375005,-1.0334442138671875,7.556359863281251,1713734075897.0
2.9710000000000036,6.124401855468751,-1.0235748291015625,6.55087890625,1713734075908.0
2.9809999999999945,6.216067504882813,-0.169573974609375,7.497293090820313,1713734075918.0
2.9909999999999997,6.836343383789063,0.6125,7.951583862304688,1713734075928.0
3.0010000000000048,7.41160888671875,0.84158935546875,7.412805175781251,1713734075938.0
3.0109999999999957,7.358074951171876,0.9159088134765626,5.614483642578126,1713734075948.0
3.021000000000001,6.956570434570313,0.9142639160156252,5.347262573242188,1713734075958.0
3.0309999999999917,7.011001586914063,0.6119018554687501,7.200015258789063,1713734075968.0
3.040999999999997,7.283456420898438,-0.1269561767578125,8.037118530273439,1713734075978.0
3.051000000000002,6.587963867187501,-0.7409515380859375,7.406524658203126,1713734075988.0
3.060999999999993,6.635815429687501,-1.02581787109375,5.90667724609375,1713734075998.0
3.070999999999998,6.837689208984376,-0.68726806640625,7.168911743164063,1713734076008.0
3.0819999999999936,7.096984863281251,0.10467529296875,7.8015991210937505,1713734076019.0
3.090999999999994,7.191043090820313,0.669921875,7.170257568359376,1713734076028.0
3.1020000000000074,7.195080566406251,0.8037567138671876,5.406777954101563,1713734076039.0
3.1119999999999948,7.326672363281251,0.5369842529296875,5.750561523437501,1713734076049.0
3.122,7.122256469726563,0.56165771484375,7.499984741210938,1713734076059.0
3.132000000000005,6.484036254882813,0.5624053955078125,8.069119262695313,1713734076069.0
3.1419999999999995,6.261676025390625,0.1567138671875,7.998837280273438,1713734076079.0
3.152000000000001,6.650619506835938,-0.6015838623046875,6.283358764648438,1713734076089.0
3.161999999999992,7.057806396484375,-0.509320068359375,7.191342163085938,1713734076099.0
3.171999999999997,7.371383666992188,0.09091796875,6.531289672851563,1713734076109.0
3.182000000000002,7.007113647460938,0.350213623046875,6.791033935546875,1713734076119.0
3.191999999999993,7.506863403320313,-0.1099090576171875,5.357730102539063,1713734076129.0
3.201999999999998,7.53721923828125,-0.49586181640625,6.25718994140625,1713734076139.0
3.2120000000000033,7.024310302734375,-0.357989501953125,7.1002746582031255,1713734076149.0
3.222999999999999,6.8490539550781255,0.173760986328125,8.098876953125,1713734076160.0
3.2330000000000076,7.151416015625,0.6462951660156251,8.37940673828125,1713734076170.0
3.242999999999995,4.855438232421875,0.998602294921875,6.342425537109375,1713734076180.0
3.252999999999997,6.303994750976563,1.2284393310546875,7.133770751953126,1713734076190.0
3.262999999999991,7.871432495117188,0.959423828125,7.863058471679688,1713734076200.0
3.2729999999999997,7.902685546875,0.15791015625,6.503775024414063,1713734076210.0
3.2830000000000013,7.404580688476563,-0.14893798828125,5.974865722656251,1713734076220.0
3.2929999999999886,6.403137207031251,-0.1281524658203125,5.582183837890625,1713734076230.0
3.3029999999999973,6.602468872070313,-0.2908477783203125,7.894012451171876,1713734076240.0
3.3130000000000024,7.232015991210938,-0.7621856689453126,8.618515014648438,1713734076250.0
3.3229999999999933,6.816455078125,-0.8172149658203126,6.799557495117188,1713734076260.0
3.3329999999999984,6.454129028320313,-0.2237060546875,5.573211669921875,1713734076270.0
3.3430000000000035,7.115975952148438,0.5564239501953125,6.645385742187501,1713734076280.0
3.3529999999999944,8.020669555664064,1.056024169921875,7.69273681640625,1713734076290.0
3.3629999999999995,6.991412353515625,1.0531829833984376,7.18431396484375,1713734076300.0
3.3730000000000047,5.7963195800781255,1.0579681396484375,5.690747070312501,1713734076310.0
3.383999999999997,6.290985107421876,0.7705596923828125,7.725186157226563,1713734076321.0
3.3939999999999912,7.223641967773438,0.183331298828125,8.537017822265625,1713734076331.0
3.404,7.087414550781251,-0.38939208984375,7.411758422851563,1713734076341.0
3.4140000000000015,7.432095336914063,-0.91875,4.995852661132813,1713734076351.0
3.423999999999989,6.913055419921876,-1.048098754882813,5.768206787109375,1713734076361.0
3.4339999999999975,7.257287597656251,-0.5103668212890625,7.483685302734376,1713734076371.0
3.4440000000000026,7.2528015136718755,0.0849365234375,8.028894042968751,1713734076381.0
3.4539999999999935,7.253549194335938,0.1383209228515625,5.9937072753906255,1713734076391.0
3.463999999999998,7.023562622070313,-0.007177734375,5.055667114257813,1713734076401.0
3.4740000000000073,6.930999755859376,0.4390380859375,7.332952880859375,1713734076411.0
3.4839999999999947,6.396557617187501,1.376031494140625,8.641992187500001,1713734076421.0
3.494,6.01195068359375,1.4126678466796876,8.811267089843751,1713734076431.0
3.504000000000005,6.518878173828125,0.2594451904296875,5.690298461914063,1713734076441.0
3.5139999999999993,7.317550659179688,-0.566143798828125,6.0711669921875,1713734076451.0
3.524000000000001,7.984182739257813,-0.5301055908203125,6.669161987304688,1713734076461.0
3.5349999999999966,7.707092285156251,-0.3099884033203125,6.897653198242188,1713734076472.0
3.5450000000000017,7.869638061523438,-0.3727935791015625,6.770846557617188,1713734076482.0
3.554999999999989,5.1802307128906255,-0.5130584716796875,5.718411254882813,1713734076492.0
3.5649999999999977,6.3056396484375,0.203668212890625,7.893563842773438,1713734076502.0
3.575000000000003,6.890176391601563,0.7873077392578126,9.455618286132813,1713734076512.0
3.5849999999999937,7.244876098632813,0.8000183105468751,7.516134643554688,1713734076522.0
3.594999999999999,7.025656127929688,0.792242431640625,5.506967163085938,1713734076532.0
3.605000000000007,7.139004516601563,1.0491455078125,5.0495361328125,1713734076542.0
3.614999999999995,7.526303100585938,0.96480712890625,7.0539184570312505,1713734076552.0
3.625,7.137957763671875,0.0255706787109375,8.106353759765625,1713734076562.0
3.634999999999991,6.3944641113281255,-0.8821136474609376,7.215866088867188,1713734076572.0
3.645,6.106756591796875,-1.0274627685546875,6.895858764648438,1713734076582.0
3.655000000000001,6.462503051757813,-0.3816162109375,7.61856689453125,1713734076592.0
3.664999999999989,7.4684326171875,0.2525665283203125,7.917041015625,1713734076602.0
3.6779999999999977,7.467834472656251,0.496160888671875,6.6008239746093755,1713734076615.0
3.685999999999993,7.175192260742188,0.7191192626953126,4.3667541503906255,1713734076623.0
3.695999999999998,7.182968139648438,0.6628936767578125,6.01793212890625,1713734076633.0
3.706000000000003,7.702008056640626,0.2935394287109375,7.445254516601563,1713734076643.0
3.715999999999994,7.0975830078125,-0.2151824951171875,8.089755249023439,1713734076653.0
3.725999999999999,6.231619262695313,-0.6933990478515626,6.499288940429688,1713734076663.0
3.736000000000008,5.7499633789062505,-0.6231170654296876,7.219305419921875,1713734076673.0
3.745999999999995,6.669012451171875,0.045159912109375,8.386434936523438,1713734076683.0
3.7559999999999967,7.654904174804688,0.5431152343750001,7.5796875,1713734076693.0
3.765999999999991,7.301400756835938,0.6044250488281251,5.791534423828125,1713734076703.0
3.777999999999992,7.353738403320313,0.5615081787109375,4.445260620117188,1713734076715.0
3.786000000000002,7.0165344238281255,0.7639801025390626,7.178182983398438,1713734076723.0
3.7959999999999887,7.149472045898438,0.654669189453125,7.900592041015625,1713734076733.0
3.8059999999999974,6.564636230468751,-0.0483001708984375,8.572756958007814,1713734076743.0
3.8160000000000025,6.3974548339843755,-0.9278717041015626,5.646932983398438,1713734076753.0
3.826999999999998,6.44022216796875,-0.7155303955078125,7.002029418945313,1713734076764.0
3.8370000000000033,7.397552490234376,-0.1057220458984375,7.178182983398438,1713734076774.0
3.846999999999994,6.989468383789063,0.045758056640625,7.352691650390626,1713734076784.0
3.8569999999999993,8.119064331054688,-0.051141357421875,5.784506225585938,1713734076794.0
3.867000000000008,7.045095825195313,0.014056396484375,5.752505493164063,1713734076804.0
3.877999999999997,7.948742675781251,0.8495147705078125,6.904531860351563,1713734076815.0
3.886999999999997,5.635867309570313,1.355694580078125,8.09827880859375,1713734076824.0
3.8969999999999914,5.29058837890625,1.0727722167968752,8.263964843750001,1713734076834.0
3.906999999999997,6.715667724609376,0.295782470703125,7.796963500976563,1713734076844.0
3.9170000000000016,6.970327758789063,-0.3754852294921875,7.088012695312501,1713734076854.0
3.926999999999989,8.364901733398439,-0.2995208740234375,6.2299743652343755,1713734076864.0
3.9369999999999976,7.330111694335938,0.0765625,5.899349975585938,1713734076874.0
3.9470000000000023,6.7506591796875,-0.1206756591796875,5.387188720703126,1713734076884.0
3.9569999999999936,7.748663330078125,-0.407037353515625,7.565481567382813,1713734076894.0
3.968000000000003,6.696975708007813,-0.5939575195312501,7.021917724609375,1713734076905.0
3.9779999999999944,6.054568481445313,-0.0001495361328125,8.146878051757813,1713734076915.0
3.987999999999999,6.30205078125,0.6404632568359375,7.276278686523438,1713734076925.0
3.9980000000000047,6.933541870117188,0.8438323974609375,7.718756103515625,1713734076935.0
4.007999999999996,7.583874511718751,0.8990112304687501,6.566580200195313,1713734076945.0
4.017999999999997,7.0832275390625,0.9154602050781252,5.81217041015625,1713734076955.0
4.027999999999992,6.827819824218751,0.7034179687500001,6.34451904296875,1713734076965.0
4.037999999999997,7.043301391601563,-0.0453094482421875,7.3583740234375,1713734076975.0
4.048000000000002,7.114331054687501,-0.8027099609375,7.567425537109376,1713734076985.0
4.057999999999989,7.085171508789063,-1.1088104248046875,6.562094116210938,1713734076995.0
4.067999999999998,6.6860595703125005,-0.9757232666015626,6.347958374023438,1713734077005.0
4.078000000000003,6.865802001953125,-0.279034423828125,7.201510620117188,1713734077015.0
4.087999999999994,7.315756225585938,0.3952239990234375,7.562939453125001,1713734077025.0
4.097999999999999,6.810025024414063,0.8590850830078126,6.720901489257813,1713734077035.0
4.108999999999995,7.365701293945313,1.0252197265625,5.684466552734375,1713734077046.0
4.119,6.678433227539063,0.8433837890625001,6.989318847656251,1713734077056.0
4.129000000000005,7.078442382812501,0.8091400146484375,7.71068115234375,1713734077066.0
4.138999999999999,6.1137847900390625,0.5336944580078126,8.262918090820314,1713734077076.0
4.149000000000001,6.848007202148438,-0.2181732177734375,6.516336059570313,1713734077086.0
4.158999999999992,6.878662109375001,-0.8818145751953126,6.338836669921876,1713734077096.0
4.168999999999997,7.517330932617188,-1.04017333984375,6.285601806640625,1713734077106.0
4.179000000000002,7.349700927734376,-0.5867797851562501,6.751705932617188,1713734077116.0
4.188999999999993,7.319345092773438,-0.248529052734375,7.115377807617188,1713734077126.0
4.198999999999998,7.447048950195313,0.0551788330078125,6.427511596679688,1713734077136.0
4.209000000000003,7.25908203125,0.8883941650390625,7.272091674804688,1713734077146.0
4.218999999999994,5.041012573242188,1.5792510986328123,6.607403564453126,1713734077156.0
4.228999999999999,6.586468505859376,1.56055908203125,8.359368896484376,1713734077166.0
4.239000000000008,7.108648681640625,0.40972900390625,8.333349609375,1713734077176.0
4.248999999999995,7.471572875976563,-0.3069976806640625,6.176589965820313,1713734077186.0
4.259999999999991,7.167266845703126,-0.1236663818359375,6.1142333984375,1713734077197.0
4.27,6.615628051757813,-0.0659454345703125,5.766561889648438,1713734077207.0
4.280000000000001,7.788290405273438,-0.5203857421875,7.672698974609376,1713734077217.0
4.2899999999999885,6.978253173828126,-0.8571411132812501,7.418038940429688,1713734077227.0
4.299999999999997,6.3346496582031255,-0.2791839599609375,6.386239624023438,1713734077237.0
4.310000000000002,6.325527954101563,0.6219207763671876,7.590753173828125,1713734077247.0
4.319999999999993,6.929354858398438,1.03299560546875,7.631726074218751,1713734077257.0
4.329999999999998,7.513592529296876,1.0226776123046877,7.538714599609375,1713734077267.0
4.340000000000003,7.159790039062501,0.7529144287109375,5.3675994873046875,1713734077277.0
4.349999999999994,6.503326416015626,0.5423675537109376,5.8052917480468755,1713734077287.0
4.359999999999999,7.226483154296876,-0.1248626708984375,7.473367309570313,1713734077297.0
4.3700000000000045,7.58507080078125,-0.8182617187500001,7.896853637695313,1713734077307.0
4.380999999999997,6.763668823242188,-1.1052215576171875,6.612637329101563,1713734077318.0
4.390999999999991,6.377716064453126,-0.8450286865234375,5.97845458984375,1713734077328.0
4.401,6.765014648437501,-0.017047119140625,7.492657470703126,1713734077338.0
4.411000000000001,7.172650146484376,0.6974365234375001,7.955322265625001,1713734077348.0
4.420999999999989,7.71427001953125,0.9645080566406252,6.809576416015625,1713734077358.0
4.430999999999997,6.6621337890625005,0.739605712890625,4.9334960937500005,1713734077368.0
4.4410000000000025,7.153509521484375,0.7479797363281251,6.5589538574218755,1713734077378.0
4.450999999999993,6.602169799804688,0.669921875,8.343667602539064,1713734077388.0
4.4609999999999985,6.890026855468751,0.22071533203125,8.319442749023438,1713734077398.0
4.471000000000004,6.263619995117188,-0.5568725585937501,6.828567504882813,1713734077408.0
4.4809999999999945,6.994851684570313,-0.9120208740234376,5.723345947265625,1713734077418.0
4.491,7.197024536132813,-0.3841583251953125,6.947448730468751,1713734077428.0
4.501000000000005,7.630679321289063,0.0533843994140625,6.873577880859376,1713734077438.0
4.510999999999996,6.8879333496093755,-0.0653472900390625,6.368295288085938,1713734077448.0
4.521000000000001,7.680175781250001,-0.28052978515625,6.0076141357421875,1713734077458.0
4.530999999999992,6.790435791015626,0.0237762451171875,7.053619384765626,1713734077468.0
4.542000000000002,7.711727905273438,1.01505126953125,8.129382324218751,1713734077479.0
4.551999999999989,5.405880737304688,1.3684051513671875,7.621408081054688,1713734077489.0
4.561999999999998,5.22479248046875,0.95643310546875,6.654357910156251,1713734077499.0
4.572000000000003,7.670755004882813,0.3363067626953125,7.961752319335938,1713734077509.0
4.581999999999994,7.389627075195313,-0.073272705078125,7.147976684570313,1713734077519.0
4.594999999999999,8.023809814453125,-0.1075164794921875,6.433493041992188,1713734077532.0
4.602000000000007,6.70938720703125,-0.0841888427734375,5.436236572265625,1713734077539.0
4.611999999999995,6.836941528320313,-0.3581390380859375,6.1152801513671875,1713734077549.0
4.622,7.3245788574218755,-0.420794677734375,8.462997436523438,1713734077559.0
4.632000000000005,6.870437622070313,-0.34393310546875,7.121359252929688,1713734077569.0
4.6419999999999995,6.098980712890626,0.0515899658203125,7.305288696289063,1713734077579.0
4.652000000000001,6.897653198242188,0.3485687255859375,6.248367309570313,1713734077589.0
4.661999999999992,7.281661987304688,0.7716064453125001,7.669110107421876,1713734077599.0
4.671999999999997,7.582528686523438,1.011163330078125,7.026104736328126,1713734077609.0
4.682000000000002,6.289938354492188,0.973779296875,6.127243041992188,1713734077619.0
4.694000000000003,6.665722656250001,0.5465545654296875,6.556710815429688,1713734077631.0
4.703000000000003,7.080685424804688,-0.1179840087890625,7.758233642578125,1713734077640.0
4.712999999999994,7.167117309570313,-0.4948150634765625,7.5623413085937505,1713734077650.0
4.722999999999999,6.893466186523438,-0.715679931640625,6.316256713867188,1713734077660.0
4.733000000000008,7.185958862304688,-0.8360565185546875,6.00537109375,1713734077670.0
4.742999999999995,6.871783447265625,-0.527264404296875,7.024459838867188,1713734077680.0
4.752999999999997,7.524658203125001,0.1996307373046875,7.422973632812501,1713734077690.0
4.762999999999991,6.6705078125,0.5842376708984376,6.665872192382813,1713734077700.0
4.773,7.4666381835937505,0.5546295166015626,5.860321044921875,1713734077710.0
4.783000000000001,6.602169799804688,0.4658050537109375,7.039562988281251,1713734077720.0
4.793999999999997,6.765911865234376,0.90618896484375,7.923171997070313,1713734077731.0
4.802999999999997,6.223095703125001,0.9802093505859376,8.070913696289063,1713734077740.0
4.813000000000002,6.891372680664063,0.180938720703125,6.596038818359376,1713734077750.0
4.822999999999993,6.9656921386718755,-0.7385589599609376,5.852694702148438,1713734077760.0
4.834000000000003,7.708737182617188,-0.8753845214843751,6.7548461914062505,1713734077771.0
4.843999999999994,7.427011108398438,-0.43245849609375,7.099526977539063,1713734077781.0
4.853999999999999,7.46962890625,-0.20037841796875,6.839782714843751,1713734077791.0
4.864000000000008,7.109097290039063,0.0991424560546875,6.393716430664063,1713734077801.0
4.873999999999995,5.208193969726563,0.4499542236328125,6.534878540039063,1713734077811.0
4.883999999999997,6.983038330078125,1.015350341796875,8.458361816406251,1713734077821.0
4.893999999999991,7.125247192382813,0.9283203125,8.65216064453125,1713734077831.0
4.904,7.054367065429688,0.5689849853515625,6.402838134765625,1713734077841.0
4.9140000000000015,7.0913024902343755,0.5280120849609375,5.466592407226563,1713734077851.0
4.923999999999989,7.250857543945313,0.5274139404296876,5.983987426757813,1713734077861.0
4.9339999999999975,7.2842041015625005,0.0490478515625,7.8255249023437505,1713734077871.0
4.944000000000003,6.727630615234376,-0.6778472900390625,7.636810302734376,1713734077881.0
4.9539999999999935,6.424969482421876,-0.8209533691406251,6.82542724609375,1713734077891.0
4.963999999999999,6.518429565429688,-0.3748870849609375,7.159042358398438,1713734077901.0
4.974000000000007,6.691891479492188,0.3488677978515625,7.552471923828126,1713734077911.0
4.984999999999999,7.844067382812501,0.7316802978515625,7.367196655273438,1713734077922.0
4.9950000000000045,7.034628295898438,0.8388977050781251,5.7010650634765625,1713734077932.0
5.0049999999999955,6.8583251953125,0.7029693603515625,5.237353515625,1713734077942.0
5.014999999999997,7.304989624023438,0.297576904296875,7.282260131835938,1713734077952.0
5.0249999999999915,7.652810668945313,-0.320306396484375,7.548434448242188,1713734077962.0
5.034999999999997,6.429605102539063,-0.6956420898437501,7.460357666015626,1713734077972.0
5.045000000000002,6.402987670898438,-0.7141845703125,6.250759887695313,1713734077982.0
5.054999999999989,6.085671997070313,-0.28531494140625,7.86380615234375,1713734077992.0
5.064999999999998,7.603164672851563,0.456982421875,7.782757568359376,1713734078002.0
5.075000000000003,7.320840454101563,0.658856201171875,6.794622802734375,1713734078012.0
5.084999999999994,7.432095336914063,0.594854736328125,4.696630859375,1713734078022.0
5.094999999999999,6.94864501953125,0.6500335693359376,6.362762451171876,1713734078032.0
5.1050000000000075,6.85892333984375,0.7511199951171875,7.94754638671875,1713734078042.0
5.116,6.710882568359375,0.378924560546875,8.336938476562501,1713734078053.0
5.126000000000005,6.569271850585938,-0.46356201171875,7.146929931640625,1713734078063.0
5.135999999999996,6.588412475585938,-0.8830108642578126,5.693737792968751,1713734078073.0
5.146000000000001,7.049133300781251,-0.3237457275390625,7.36734619140625,1713734078083.0
5.155999999999992,7.335644531250001,0.073870849609375,6.605010986328126,1713734078093.0
5.165999999999997,7.269549560546875,-0.0803009033203125,6.9223266601562505,1713734078103.0
5.176000000000002,7.820291137695313,-0.416607666015625,5.580389404296875,1713734078113.0
5.185999999999993,7.0464416503906255,0.12381591796875,6.732565307617188,1713734078123.0
5.195999999999998,7.649072265625,1.09041748046875,7.782308959960938,1713734078133.0
5.206000000000003,5.107107543945313,1.3872467041015626,7.663876342773438,1713734078143.0
5.215999999999994,5.383749389648438,0.8837585449218751,7.482339477539063,1713734078153.0
5.225999999999999,7.258184814453125,0.218621826171875,8.19697265625,1713734078163.0
5.236000000000008,7.572210693359375,-0.0417205810546875,6.9420654296875,1713734078173.0
5.245999999999995,7.874423217773438,-0.1006378173828125,6.06578369140625,1713734078183.0
5.255999999999997,7.468881225585938,-0.1232177734375,5.2295776367187505,1713734078193.0
5.2669999999999995,6.767257690429688,-0.320306396484375,5.980847167968751,1713734078204.0
5.277000000000001,7.374972534179688,-0.44202880859375,7.975360107421875,1713734078214.0
5.286999999999992,6.365902709960938,-0.3856536865234375,7.74716796875,1713734078224.0
5.296999999999997,6.0191284179687505,-0.0856842041015625,7.8967041015625,1713734078234.0
5.307000000000002,6.67589111328125,0.5854339599609375,6.8161560058593755,1713734078244.0
5.316999999999993,7.289138793945313,1.014154052734375,7.300354003906251,1713734078254.0
5.326999999999998,7.744476318359376,1.1429046630859376,6.261676025390625,1713734078264.0
5.337000000000003,6.923223876953125,0.9299652099609376,5.9593139648437505,1713734078274.0
5.346999999999994,6.610842895507813,0.5120117187500001,6.650021362304688,1713734078284.0
5.356999999999999,6.884344482421875,-0.11783447265625,7.973715209960938,1713734078294.0
5.367000000000008,6.490765380859376,-0.7603912353515625,7.796813964843751,1713734078304.0
5.376999999999995,7.333401489257813,-0.9299652099609376,6.354986572265625,1713734078314.0
5.386999999999997,7.14005126953125,-1.0678375244140623,6.218759155273438,1713734078324.0
5.396999999999991,7.314260864257813,-0.43365478515625,6.203955078125,1713734078334.0
5.4069999999999965,7.1430419921875,0.382513427734375,7.467385864257813,1713734078344.0
5.417999999999989,7.029244995117188,0.84278564453125,6.618917846679688,1713734078355.0
5.427999999999997,7.213024902343751,0.7674194335937501,6.313265991210938,1713734078365.0
5.438000000000002,6.717013549804688,0.5025909423828125,6.952532958984375,1713734078375.0
5.447999999999993,6.359921264648438,0.80689697265625,7.844964599609376,1713734078385.0
5.457999999999998,6.213076782226563,0.9794616699218752,8.675936889648439,1713734078395.0
5.4680000000000035,6.690396118164063,0.2477813720703125,6.881652832031251,1713734078405.0
5.477999999999994,7.3350463867187505,-0.5579193115234375,6.267059326171876,1713734078415.0
5.4879999999999995,7.697521972656251,-0.7707092285156251,5.3152618408203125,1713734078425.0
5.498000000000005,6.93668212890625,-0.44920654296875,6.444708251953125,1713734078435.0
5.507999999999996,7.73759765625,-0.6066680908203126,6.788043212890625,1713734078445.0
5.517999999999997,7.004122924804688,-0.8124298095703125,7.599426269531251,1713734078455.0
5.527999999999992,7.382449340820313,-0.2002288818359375,6.658993530273438,1713734078465.0
5.5390000000000015,6.239096069335938,1.24354248046875,7.5354248046875005,1713734078476.0
5.548000000000002,5.389431762695313,1.9285675048828128,7.268353271484376,1713734078485.0
5.557999999999989,6.972869873046876,1.403994750976563,7.981192016601563,1713734078495.0
5.569000000000003,7.567575073242188,0.4397857666015625,7.299456787109375,1713734078506.0
5.5789999999999935,7.354037475585938,-0.0354400634765625,5.463452148437501,1713734078516.0
5.588999999999999,7.273437500000001,-0.1009368896484375,6.599926757812501,1713734078526.0
5.599000000000007,6.8311096191406255,-0.4445709228515625,6.602020263671876,1713734078536.0
5.608999999999995,7.167416381835938,-0.9046936035156252,7.866796875,1713734078546.0
5.619,6.468933105468751,-0.8768798828125001,6.869091796875001,1713734078556.0
5.629000000000005,6.416744995117188,-0.19320068359375,6.998291015625001,1713734078566.0
5.638999999999999,7.118368530273438,0.74468994140625,7.662530517578125,1713734078576.0
5.649000000000001,7.097882080078126,1.1988311767578126,7.008758544921876,1713734078586.0
5.658999999999992,7.279119873046875,1.286907958984375,6.378164672851563,1713734078596.0
5.668999999999997,7.023861694335938,0.9453674316406252,5.922976684570313,1713734078606.0
5.679000000000002,6.558654785156251,0.4927215576171875,7.2243896484375005,1713734078616.0
5.688999999999993,6.9148498535156255,-0.2069580078125,7.797561645507813,1713734078626.0
5.700000000000003,6.877615356445313,-0.9413299560546876,7.527798461914063,1713734078637.0
5.709999999999994,7.114630126953125,-1.188662719726563,5.8266754150390625,1713734078647.0
5.719999999999999,7.111938476562501,-1.021630859375,6.466989135742188,1713734078657.0
5.7300000000000075,7.260876464843751,-0.096600341796875,7.111041259765625,1713734078667.0
5.739999999999995,6.9552246093750005,0.6652862548828126,7.148574829101563,1713734078677.0
5.75,7.328466796875,0.9123199462890624,6.681423950195313,1713734078687.0
5.759999999999991,6.905429077148438,0.6706695556640625,5.777926635742188,1713734078697.0
5.77,6.921728515625,0.7442413330078126,7.473666381835938,1713734078707.0
5.780000000000001,6.446054077148438,0.7747467041015625,7.775430297851563,1713734078717.0
5.7899999999999885,6.322836303710938,0.4400848388671875,8.345013427734376,1713734078727.0
5.799999999999997,6.829464721679688,-0.2878570556640625,6.610394287109376,1713734078737.0
5.810000000000002,7.127639770507813,-0.6477905273437501,6.301901245117188,1713734078747.0
5.819999999999993,7.606454467773438,-0.392681884765625,5.92880859375,1713734078757.0
5.829999999999998,6.910513305664063,-0.2787353515625,6.592898559570313,1713734078767.0
5.840000000000003,7.481591796875,-0.3662139892578125,6.578244018554688,1713734078777.0
5.850999999999999,7.387533569335938,-0.431561279296875,7.1675659179687505,1713734078788.0
5.861000000000008,7.2291748046875,0.11962890625,6.840679931640626,1713734078798.0
5.870999999999995,6.7369018554687505,1.1032775878906251,7.479199218750001,1713734078808.0
5.880999999999997,5.297616577148438,1.52347412109375,7.225585937500001,1713734078818.0
5.890999999999991,6.214422607421875,1.1731109619140625,7.541854858398438,1713734078828.0
5.901,7.625744628906251,0.3572418212890625,8.269946289062501,1713734078838.0
5.911000000000001,7.33743896484375,-0.2301361083984375,5.8830505371093755,1713734078848.0
5.920999999999989,7.778271484375001,-0.1577606201171875,6.549084472656251,1713734078858.0
5.930999999999997,6.564785766601563,-0.1341339111328125,5.679232788085938,1713734078868.0
5.9410000000000025,7.233660888671875,-0.44561767578125,7.152761840820313,1713734078878.0
5.950999999999993,7.291531372070313,-0.7215118408203125,7.664624023437501,1713734078888.0
5.962000000000003,6.53831787109375,-0.593658447265625,6.451138305664063,1713734078899.0
5.971000000000004,6.23326416015625,0.26258544921875,7.661633300781251,1713734078908.0
5.981999999999999,6.963150024414063,0.8792724609375001,7.185809326171875,1713734078919.0
5.994,7.344766235351563,1.05452880859375,7.6670166015625005,1713734078931.0
6.001999999999995,7.399346923828125,0.9344512939453126,5.8251800537109375,1713734078939.0
6.011999999999997,6.3798095703125,0.8166168212890625,6.140402221679688,1713734078949.0
6.021999999999991,6.723144531250001,0.52935791015625,7.351046752929688,1713734078959.0
6.0319999999999965,6.785052490234375,-0.1233673095703125,8.478399658203125,1713734078969.0
6.042000000000002,6.995300292968751,-0.6069671630859376,7.173098754882813,1713734078979.0
6.051999999999989,7.111041259765625,-1.0196868896484377,5.416348266601563,1713734078989.0
6.061999999999998,7.32188720703125,-0.8347106933593751,6.2434326171875005,1713734078999.0
6.072000000000003,7.241436767578126,-0.222509765625,7.039862060546875,1713734079009.0
6.081999999999994,7.362411499023438,0.414813232421875,7.697372436523438,1713734079019.0
6.093999999999994,6.81705322265625,0.4203460693359375,5.567230224609375,1713734079031.0
6.102000000000007,7.034628295898438,0.324493408203125,6.605908203125001,1713734079039.0
6.111999999999995,6.919784545898438,0.480010986328125,7.173397827148438,1713734079049.0
6.123000000000005,6.265563964843751,1.06051025390625,8.619561767578126,1713734079060.0
6.132999999999996,6.374725341796876,0.956732177734375,7.834945678710938,1713734079070.0
6.142999999999997,6.432745361328125,0.1374237060546875,6.359771728515626,1713734079080.0
6.152999999999992,7.866497802734376,-0.374139404296875,5.814413452148438,1713734079090.0
6.162999999999997,7.0913024902343755,-0.5987426757812501,6.199917602539063,1713734079100.0
6.173000000000002,7.962799072265626,-0.5299560546875001,6.758285522460938,1713734079110.0
6.182999999999989,6.830361938476563,-0.7600921630859375,7.1451354980468755,1713734079120.0
6.192999999999998,7.709783935546875,-0.5555267333984375,6.613833618164063,1713734079130.0
6.203000000000003,6.2583862304687505,0.5360870361328125,7.416693115234375,1713734079140.0
6.212999999999994,5.267709350585938,1.271954345703125,7.139303588867188,1713734079150.0
6.222999999999999,6.96300048828125,1.3769287109375,8.488119506835938,1713734079160.0
6.233000000000008,7.408917236328126,0.6009857177734376,7.3727294921875,1713734079170.0
6.242999999999995,7.5384155273437505,0.477618408203125,5.705252075195313,1713734079180.0
6.252999999999997,7.145883178710938,0.5495452880859375,6.1242523193359375,1713734079190.0
6.262999999999991,6.930401611328126,0.2308837890625,6.256591796875001,1713734079200.0
6.273,7.2650634765625,-0.57840576171875,8.147775268554689,1713734079210.0
6.283999999999992,6.314910888671876,-1.1324371337890626,6.968832397460938,1713734079221.0
6.293999999999997,6.374575805664063,-0.7011749267578126,7.326971435546875,1713734079231.0
6.304000000000002,6.864605712890626,0.064599609375,7.574902343750001,1713734079241.0
6.313999999999993,7.082031250000001,0.6754547119140626,7.03477783203125,1713734079251.0
6.323999999999998,7.644137573242188,0.95762939453125,6.434539794921876,1713734079261.0
6.334000000000003,7.069171142578125,1.0044342041015626,5.525958251953125,1713734079271.0
6.343999999999994,6.661685180664063,0.9036468505859376,6.754995727539063,1713734079281.0
6.353999999999999,7.01982421875,0.3476715087890625,7.885937500000001,1713734079291.0
6.364000000000008,7.063339233398438,-0.4750762939453125,7.544396972656251,1713734079301.0
6.373999999999995,6.6097961425781255,-0.9837982177734376,6.326126098632813,1713734079311.0
6.383999999999997,6.942364501953126,-0.9103759765625,6.462203979492188,1713734079321.0
6.393999999999991,6.868643188476563,-0.2770904541015625,7.750457763671876,1713734079331.0
6.404,7.320840454101563,0.3375030517578125,7.043002319335938,1713734079341.0
6.4140000000000015,7.1002746582031255,0.560760498046875,6.606057739257813,1713734079351.0
6.424999999999997,7.354635620117188,0.4936187744140625,4.987628173828125,1713734079362.0
6.435000000000002,7.157846069335938,0.6530242919921876,7.146331787109376,1713734079372.0
6.444999999999993,6.811968994140625,0.6403137207031251,7.645932006835938,1713734079382.0
6.454999999999998,6.08970947265625,0.4972076416015625,8.496044921875,1713734079392.0
6.465000000000003,6.5090087890625,0.0061309814453125,6.978402709960938,1713734079402.0
6.474999999999994,6.684414672851563,-0.320904541015625,6.679779052734376,1713734079412.0
6.484999999999999,7.733709716796875,-0.168377685546875,6.647778320312501,1713734079422.0
6.4950000000000045,6.832305908203126,-0.0791046142578125,6.373379516601563,1713734079432.0
6.5049999999999955,7.451535034179688,-0.09091796875,6.205151367187501,1713734079442.0
6.514999999999997,7.526303100585938,-0.573919677734375,6.223693847656251,1713734079452.0
6.5249999999999915,7.517330932617188,-0.5644989013671875,7.1215087890625,1713734079462.0
6.534999999999997,7.362411499023438,0.2328277587890625,7.237698364257813,1713734079472.0
6.545000000000002,5.64708251953125,0.99052734375,7.767803955078126,1713734079482.0
6.555999999999997,5.098284912109375,1.29976806640625,7.228277587890625,1713734079493.0
6.564999999999998,7.102667236328125,0.9435729980468752,8.485726928710939,1713734079502.0
6.575999999999993,7.4292541503906255,0.520086669921875,7.242932128906251,1713734079513.0
6.5859999999999985,7.889227294921875,0.2313323974609375,5.6955322265625,1713734079523.0
6.596000000000004,7.448394775390626,0.1137969970703125,5.517285156250001,1713734079533.0
6.6059999999999945,6.845764160156251,-0.2349212646484375,6.25419921875,1713734079543.0
6.616,7.203903198242188,-0.708203125,7.919433593750001,1713734079553.0
6.626000000000005,6.491513061523438,-0.8728424072265626,7.683016967773438,1713734079563.0
6.635999999999996,6.137860107421876,-0.6796417236328125,7.008908081054688,1713734079573.0
6.646000000000001,6.733761596679688,0.1375732421875,7.305288696289063,1713734079583.0
6.655999999999992,7.511349487304688,0.8563934326171876,7.201510620117188,1713734079593.0
6.665999999999997,7.481442260742188,1.3030578613281252,6.331359863281251,1713734079603.0
6.676000000000002,6.982290649414063,1.241448974609375,5.83489990234375,1713734079613.0
6.685999999999993,6.385791015625,0.9706390380859377,6.884643554687501,1713734079623.0
6.695999999999998,6.84935302734375,0.3937286376953125,8.179177856445314,1713734079633.0
6.706999999999994,6.527252197265626,-0.3156707763671875,8.103811645507813,1713734079644.0
6.716999999999999,7.061843872070313,-0.892132568359375,6.149673461914063,1713734079654.0
6.727000000000007,7.3111206054687505,-1.3106842041015625,6.122906494140626,1713734079664.0
6.736999999999995,7.369589233398438,-0.7976257324218751,6.420932006835938,1713734079674.0
6.747,7.095938110351563,0.1078155517578125,7.43912353515625,1713734079684.0
6.757000000000005,7.165472412109375,0.5087219238281251,6.575103759765626,1713734079694.0
6.7669999999999995,7.242932128906251,0.3862518310546875,5.8311614990234375,1713734079704.0
6.777000000000001,7.363906860351563,0.361279296875,6.566729736328125,1713734079714.0
6.786999999999992,6.2329650878906255,0.8217010498046876,7.710830688476563,1713734079724.0
6.796999999999997,6.301153564453125,1.221710205078125,8.675189208984376,1713734079734.0
6.807000000000002,5.9491455078125,0.6317901611328125,7.894161987304688,1713734079744.0
6.816999999999993,7.253848266601563,-0.074468994140625,6.250012207031251,1713734079754.0
6.826999999999998,7.330410766601563,-0.3874481201171875,5.8820037841796875,1713734079764.0
6.837000000000003,7.373477172851563,-0.4849456787109375,5.916098022460938,1713734079774.0
6.846999999999994,7.783654785156251,-0.5390777587890625,7.087115478515625,1713734079784.0
6.858000000000008,7.499237060546876,-0.7959808349609375,6.672900390625,1713734079795.0
6.867999999999995,7.334597778320313,-0.3994110107421875,6.562692260742188,1713734079805.0
6.877999999999997,5.78465576171875,0.5655456542968751,7.393215942382813,1713734079815.0
6.887999999999991,5.5914550781250005,1.230682373046875,7.625445556640625,1713734079825.0
6.897999999999996,7.158145141601563,1.185671997070313,9.036468505859377,1713734079835.0
6.911000000000001,7.1870056152343755,0.5001983642578125,6.360968017578125,1713734079848.0
6.917999999999992,7.5354248046875005,0.5175445556640625,5.898153686523438,1713734079855.0
6.927999999999997,7.133322143554688,0.6391174316406251,5.936434936523438,1713734079865.0
6.938000000000002,7.064535522460938,0.243743896484375,6.689349365234375,1713734079875.0
6.947999999999993,7.429702758789063,-0.7206146240234376,8.121606445312501,1713734079885.0
6.957999999999998,6.072662353515625,-1.1580078125000002,6.473419189453126,1713734079895.0
6.9680000000000035,6.360968017578125,-0.5842376708984376,7.6939331054687505,1713734079905.0
6.977999999999994,6.803445434570313,0.29129638671875,7.801898193359375,1713734079915.0
6.9879999999999995,7.172799682617188,0.722259521484375,7.13406982421875,1713734079925.0
6.998000000000005,7.5976318359375,0.8519073486328126,6.038418579101563,1713734079935.0
7.010999999999996,7.184164428710938,0.8357574462890626,4.9604125976562505,1713734079948.0
7.018999999999991,6.9432617187500005,0.7031188964843751,7.024609375000001,1713734079956.0
7.028999999999996,7.196575927734376,0.125311279296875,7.7283264160156255,1713734079966.0
7.0390000000000015,6.645385742187501,-0.5636016845703126,7.931845092773438,1713734079976.0
7.048999999999992,6.655853271484376,-0.9840972900390624,6.0749053955078125,1713734079986.0
7.0589999999999975,6.628936767578126,-0.69683837890625,7.213024902343751,1713734079996.0
7.069000000000003,6.940869140625001,0.1064697265625,7.651614379882813,1713734080006.0
7.0789999999999935,7.066928100585938,0.681884765625,7.329064941406251,1713734080016.0
7.088999999999999,7.494900512695313,0.796429443359375,5.8067871093750005,1713734080026.0
7.099000000000004,7.284951782226563,0.4873382568359375,5.303448486328126,1713734080036.0
7.111000000000004,7.334747314453126,0.5084228515625,7.144686889648438,1713734080048.0
7.119,6.230123901367188,0.5147033691406251,7.960556030273438,1713734080056.0
7.1299999999999955,6.617572021484375,0.212640380859375,8.325872802734375,1713734080067.0
7.138999999999996,6.375323486328125,-0.64898681640625,6.511550903320313,1713734080076.0
7.1499999999999915,7.161434936523438,-0.700726318359375,6.641348266601563,1713734080087.0
7.159999999999997,7.049880981445313,-0.061309814453125,6.516485595703125,1713734080097.0
7.170000000000002,6.8475585937500005,0.3608306884765625,6.991262817382813,1713734080107.0
7.179999999999993,7.834646606445313,0.0485992431640625,6.433941650390626,1713734080117.0
7.189999999999998,7.78843994140625,-0.2489776611328125,6.440521240234376,1713734080127.0
7.200000000000003,7.452880859375001,0.3333160400390625,6.068026733398438,1713734080137.0
7.2109999999999985,5.810675048828125,0.9212921142578124,7.812216186523438,1713734080148.0
7.219999999999999,5.49515380859375,0.9257781982421877,8.100222778320314,1713734080157.0
7.230000000000004,6.737500000000001,0.3931304931640625,8.503372192382812,1713734080167.0
7.239999999999995,6.973617553710938,-0.169573974609375,7.016384887695313,1713734080177.0
7.25,7.8629089355468755,-0.0910675048828125,5.600128173828125,1713734080187.0
7.259999999999991,7.65684814453125,0.3294281005859375,6.3346496582031255,1713734080197.0
7.269999999999996,6.705200195312501,0.2980255126953125,5.927761840820313,1713734080207.0
7.280999999999992,7.763467407226563,-0.1149932861328125,7.426263427734376,1713734080218.0
7.290999999999997,6.468035888671875,-0.6159393310546876,6.683666992187501,1713734080228.0
7.301000000000002,6.435736083984375,-0.475225830078125,7.493853759765625,1713734080238.0
7.310999999999993,6.362014770507813,0.243743896484375,8.022912597656251,1713734080248.0
7.320999999999998,7.051226806640625,0.5760131835937501,7.493106079101563,1713734080258.0
7.331000000000003,7.17294921875,0.6890625,6.6576477050781255,1713734080268.0
7.340999999999994,7.233361816406251,0.6760528564453125,5.393170166015626,1713734080278.0
7.350999999999999,6.767407226562501,0.8378509521484375,6.967785644531251,1713734080288.0
7.361000000000004,6.918438720703126,0.5797515869140626,7.555462646484376,1713734080298.0
7.370999999999995,6.941168212890625,-0.0659454345703125,7.644436645507813,1713734080308.0
7.381,7.319195556640626,-0.7931396484375001,5.954080200195313,1713734080318.0
7.390999999999991,6.886138916015626,-1.0941558837890626,6.244180297851563,1713734080328.0
7.400999999999996,7.0763488769531255,-0.4765716552734375,7.368542480468751,1713734080338.0
7.411999999999992,6.8251281738281255,0.1102081298828125,7.708587646484376,1713734080349.0
7.420999999999992,6.903335571289063,0.36666259765625,7.032086181640626,1713734080358.0
7.432000000000002,7.189846801757813,0.3608306884765625,5.5092102050781255,1713734080369.0
7.441999999999993,7.332653808593751,0.5698822021484375,6.6669189453125,1713734080379.0
7.451999999999998,6.916644287109375,0.9093292236328124,7.313363647460938,1713734080389.0
7.462000000000003,6.432894897460938,0.9646575927734377,8.381799316406251,1713734080399.0
7.471999999999994,6.29307861328125,0.3524566650390625,7.015338134765625,1713734080409.0
7.481999999999999,6.881503295898438,-0.2154815673828125,6.695181274414063,1713734080419.0
7.492000000000004,7.425964355468751,-0.5209838867187501,6.351696777343751,1713734080429.0
7.501999999999995,6.713125610351563,-0.5172454833984376,6.82303466796875,1713734080439.0
7.512,7.664025878906251,-0.521881103515625,6.625198364257813,1713734080449.0
7.521999999999991,7.426712036132813,-0.51859130859375,6.729125976562501,1713734080459.0
7.5319999999999965,8.088409423828125,-0.197088623046875,6.15311279296875,1713734080469.0
7.542000000000002,6.452932739257813,0.728240966796875,7.047189331054688,1713734080479.0
7.551999999999992,5.229129028320313,1.2978240966796877,7.2770263671875,1713734080489.0
7.561999999999998,6.473867797851563,1.2347198486328126,8.681619262695314,1713734080499.0
7.572000000000003,6.941915893554688,0.3069976806640625,8.123101806640626,1713734080509.0
7.582999999999998,7.556359863281251,-0.0351409912109375,6.044100952148438,1713734080520.0
7.5930000000000035,7.518228149414063,0.270660400390625,5.983538818359375,1713734080530.0
7.602999999999994,6.800454711914063,0.296978759765625,5.698672485351563,1713734080540.0
7.613,7.716513061523438,-0.249725341796875,7.450338745117188,1713734080550.0
7.623000000000005,6.928009033203126,-0.8385986328125,7.061544799804688,1713734080560.0
7.632999999999996,6.129934692382813,-0.6211730957031251,7.0598999023437505,1713734080570.0
7.643000000000001,6.324331665039063,0.1777984619140625,7.867993164062501,1713734080580.0
7.652999999999992,6.816754150390626,0.7137359619140625,7.896405029296876,1713734080590.0
7.662999999999997,7.369589233398438,0.807196044921875,7.054217529296875,1713734080600.0
7.673000000000002,7.452880859375001,0.7864105224609376,5.22598876953125,1713734080610.0
7.682999999999993,6.75963134765625,0.7466339111328125,5.943612670898438,1713734080620.0
7.692999999999998,7.1107421875000005,0.328680419921875,7.409365844726563,1713734080630.0
7.703000000000003,7.113134765625,-0.354400634765625,8.019921875000001,1713734080640.0
7.712999999999994,7.003674316406251,-0.8523559570312501,6.4901672363281255,1713734080650.0
7.724000000000004,6.605758666992188,-1.0585662841796877,6.070120239257813,1713734080661.0
7.733999999999995,6.954476928710938,-0.45279541015625,7.423870849609376,1713734080671.0
7.744,6.7877441406250005,0.4018035888671875,7.891619873046875,1713734080681.0
7.754000000000005,7.248016357421876,0.9087310791015626,7.246072387695313,1713734080691.0
7.763999999999996,7.0389648437500005,0.665435791015625,5.020974731445313,1713734080701.0
7.774000000000001,7.366000366210938,0.5576202392578126,6.451138305664063,1713734080711.0
7.783999999999992,6.905578613281251,0.6913055419921875,7.424319458007813,1713734080721.0
7.793999999999997,6.427960205078126,0.7077545166015625,8.439520263671875,1713734080731.0
7.804000000000002,6.513345336914063,-0.1194793701171875,7.215267944335938,1713734080741.0
7.813999999999993,6.7548461914062505,-0.8350097656250001,6.441418457031251,1713734080751.0
7.823999999999998,7.425216674804688,-0.5441619873046876,6.61966552734375,1713734080761.0
7.834000000000003,6.782510375976563,0.0925628662109375,6.987673950195313,1713734080771.0
7.843999999999994,7.169659423828126,0.258697509765625,6.582580566406251,1713734080781.0
7.853999999999999,7.240689086914063,-0.2373138427734375,6.248367309570313,1713734080791.0
7.864999999999995,8.0928955078125,-0.4717864990234375,6.049185180664063,1713734080802.0
7.875,7.058105468750001,0.252716064453125,7.124349975585938,1713734080812.0
7.884999999999991,7.141995239257813,0.834112548828125,7.45946044921875,1713734080822.0
7.894999999999996,4.971029663085938,0.92174072265625,7.856628417968751,1713734080832.0
7.905000000000001,5.965444946289063,0.7125396728515625,7.738345336914063,1713734080842.0
7.914999999999992,7.089657592773438,0.6120513916015625,8.121606445312501,1713734080852.0
7.924999999999997,7.5892578125,0.215631103515625,6.353640747070313,1713734080862.0
7.935000000000002,8.147027587890626,-0.0393280029296875,6.051577758789063,1713734080872.0
7.944999999999993,7.297811889648438,-0.000897216796875,5.205203247070313,1713734080882.0
7.954999999999998,6.525308227539063,-0.07835693359375,6.618319702148438,1713734080892.0
7.965000000000003,7.288540649414063,-0.32060546875,8.069119262695313,1713734080902.0
7.974999999999994,6.3534912109375,-0.8365051269531251,7.767803955078126,1713734080912.0
7.984999999999999,6.333901977539063,-0.4059906005859375,7.347308349609375,1713734080922.0
7.9950000000000045,6.747219848632813,0.465057373046875,6.696377563476563,1713734080932.0
8.006,7.307681274414063,0.98992919921875,7.250857543945313,1713734080943.0
8.015999999999991,7.59105224609375,1.0352386474609376,6.448147583007813,1713734080953.0
8.025999999999996,6.922177124023438,0.8698516845703126,6.226684570312501,1713734080963.0
8.036000000000001,6.459213256835938,0.7684661865234376,6.686209106445313,1713734080973.0
8.045999999999992,6.579141235351563,0.279931640625,8.08511962890625,1713734080983.0
8.055999999999997,6.896008300781251,-0.4007568359375,7.623800659179688,1713734080993.0
8.066000000000003,7.563238525390625,-1.0774078369140625,6.370388793945313,1713734081003.0
8.075999999999993,7.275531005859375,-1.1909057617187502,5.680429077148438,1713734081013.0
8.085999999999999,6.744229125976563,-0.4771697998046875,6.831259155273438,1713734081023.0
8.096000000000004,7.031936645507813,0.363372802734375,7.628286743164063,1713734081033.0
8.105999999999995,7.213024902343751,0.5912658691406251,7.1490234375,1713734081043.0
8.116,7.602566528320313,0.224005126953125,5.4793029785156255,1713734081053.0
8.126000000000005,6.673797607421876,0.356494140625,6.369940185546875,1713734081063.0
8.135999999999996,6.52396240234375,1.0777069091796876,7.960855102539063,1713734081073.0
8.146999999999991,6.020474243164063,1.26029052734375,9.049179077148438,1713734081084.0
8.156999999999996,6.746621704101563,0.368756103515625,7.333251953125001,1713734081094.0
8.167000000000002,6.942214965820313,-0.5102172851562501,5.618222045898438,1713734081104.0
8.176999999999992,7.332354736328125,-0.718670654296875,5.602520751953126,1713734081114.0
8.186999999999998,7.773934936523438,-0.4358978271484375,6.841876220703125,1713734081124.0
8.197000000000003,7.797113037109376,-0.544012451171875,7.470825195312501,1713734081134.0
8.206999999999994,7.345065307617188,-0.6706695556640625,6.1821228027343755,1713734081144.0
8.216999999999999,6.559402465820313,0.054730224609375,6.381454467773438,1713734081154.0
8.227000000000004,5.019479370117188,1.0355377197265625,7.538565063476563,1713734081164.0
8.236999999999995,7.003973388671875,1.47442626953125,9.20364990234375,1713734081174.0
8.247,6.960308837890626,0.7868591308593751,8.33035888671875,1713734081184.0
8.257000000000005,7.36136474609375,0.4242340087890625,4.924374389648438,1713734081194.0
8.266999999999996,7.369140625000001,0.6111541748046876,5.808132934570313,1713734081204.0
8.277000000000001,7.268353271484376,0.5653961181640625,6.285003662109376,1713734081214.0
8.287999999999997,7.479797363281251,-0.2552581787109375,8.108596801757812,1713734081225.0
8.298000000000002,6.509906005859375,-1.182681274414063,6.879708862304688,1713734081235.0
8.310999999999993,6.0026794433593755,-1.1345306396484376,6.590505981445313,1713734081248.0
8.317999999999998,6.663330078125001,-0.200079345703125,8.457315063476564,1713734081255.0
8.328000000000003,7.017730712890626,0.6593048095703126,7.666867065429688,1713734081265.0
8.337999999999994,7.478451538085938,0.9658538818359376,6.767257690429688,1713734081275.0
8.347999999999999,7.317550659179688,0.9126190185546876,4.410717773437501,1713734081285.0
8.358000000000004,7.048236083984375,0.8946746826171875,6.232217407226563,1713734081295.0
8.367999999999995,7.023562622070313,0.6471923828125,8.088259887695314,1713734081305.0
8.378,6.8161560058593755,-0.0384307861328125,8.227627563476563,1713734081315.0
8.387999999999991,6.403585815429688,-0.853253173828125,6.578842163085938,1713734081325.0
8.397999999999996,6.838287353515626,-1.2263458251953123,6.010754394531251,1713734081335.0
8.409999999999997,7.132424926757813,-0.6256591796875001,7.610491943359375,1713734081347.0
8.417999999999992,7.147079467773438,0.3081939697265625,7.433291625976563,1713734081355.0
8.429000000000002,7.0957885742187505,0.6480895996093751,6.779071044921875,1713734081366.0
8.438999999999993,7.226333618164063,0.5161987304687501,4.999591064453125,1713734081376.0
8.448999999999998,7.525405883789063,0.4933197021484375,6.450390625000001,1713734081386.0
8.459000000000003,6.703854370117188,0.7542602539062501,7.806085205078125,1713734081396.0
8.468999999999994,6.519625854492188,0.6733612060546875,8.186953735351564,1713734081406.0
8.479,5.899050903320313,0.0575714111328125,7.783505249023438,1713734081416.0
8.489000000000004,6.964495849609375,-0.4436737060546875,6.228628540039063,1713734081426.0
8.498999999999995,7.120312500000001,-0.26138916015625,7.138406372070313,1713734081436.0
8.509999999999991,7.535873413085938,-0.040972900390625,6.091055297851563,1713734081447.0
8.518999999999991,6.811968994140625,-0.087628173828125,6.577346801757813,1713734081456.0
8.528999999999996,7.902835083007813,-0.4849456787109375,5.658895874023438,1713734081466.0
8.539000000000001,7.436730957031251,-0.560760498046875,7.120761108398438,1713734081476.0
8.548999999999992,7.580734252929688,0.1463958740234375,7.147079467773438,1713734081486.0
8.558999999999997,5.997296142578126,0.923834228515625,7.728176879882813,1713734081496.0
8.569000000000003,5.005123901367188,1.2852630615234375,7.431347656250001,1713734081506.0
8.579999999999998,6.43065185546875,1.0307525634765626,8.006314086914063,1713734081517.0
8.590000000000003,7.576397705078126,0.5788543701171875,8.04444580078125,1713734081527.0
8.599999999999994,7.855731201171875,0.0758148193359375,5.567678833007813,1713734081537.0
8.61,7.658941650390625,-0.0240753173828125,5.854489135742188,1713734081547.0
8.620000000000005,6.991860961914063,-0.14654541015625,5.512350463867188,1713734081557.0
8.629999999999995,6.948495483398438,-0.500946044921875,7.70469970703125,1713734081567.0
8.64,6.957168579101563,-0.7858123779296876,7.874124145507813,1713734081577.0
8.649999999999991,6.0689239501953125,-0.7472320556640626,7.25010986328125,1713734081587.0
8.659999999999997,6.426763916015625,0.070880126953125,7.194931030273438,1713734081597.0
8.670000000000002,7.196127319335938,0.9283203125,7.349252319335938,1713734081607.0
8.679999999999993,7.727130126953125,1.2439910888671877,6.724490356445313,1713734081617.0
8.689999999999998,7.305886840820313,1.1940460205078125,5.774786376953125,1713734081627.0
8.700000000000003,6.453530883789063,0.9166564941406252,6.230572509765626,1713734081637.0
8.709999999999994,6.539215087890626,0.5266662597656251,7.888479614257813,1713734081647.0
8.719999999999999,6.609497070312501,-0.1945465087890625,8.701358032226564,1713734081657.0
8.730999999999995,6.782659912109375,-0.7734008789062501,6.896456909179688,1713734081668.0
8.741,7.322933959960938,-1.2777862548828125,5.558108520507813,1713734081678.0
8.751000000000005,7.471124267578125,-0.9787139892578126,6.083279418945313,1713734081688.0
8.760999999999996,7.518527221679688,-0.140264892578125,6.961355590820313,1713734081698.0
8.771,7.005767822265626,0.4876373291015625,7.364654541015626,1713734081708.0
8.780999999999992,7.137509155273438,0.5191894531250001,5.5567626953125,1713734081718.0
8.790999999999997,6.889129638671876,0.3600830078125,6.885690307617188,1713734081728.0
8.801000000000002,6.874176025390626,0.6014343261718751,7.26566162109375,1713734081738.0
8.810999999999993,6.00238037109375,1.1376708984375,8.800650024414063,1713734081748.0
8.820999999999998,6.287396240234376,0.951947021484375,7.952331542968751,1713734081758.0
8.831000000000003,6.588562011718751,0.176751708984375,6.572262573242188,1713734081768.0
8.840999999999994,7.955322265625001,-0.2836700439453125,5.820993041992188,1713734081778.0
8.850999999999999,7.2483154296875005,-0.4406829833984375,5.838040161132813,1713734081788.0
8.861999999999995,7.302297973632813,-0.5060302734375001,6.550131225585938,1713734081799.0
8.870999999999995,7.426861572265626,-0.89661865234375,7.089358520507813,1713734081808.0
8.882000000000005,7.401141357421875,-0.9500030517578124,6.689498901367188,1713734081819.0
8.891999999999996,7.103414916992188,-0.0560760498046875,7.107901000976563,1713734081829.0
8.902000000000001,5.72125244140625,1.1144927978515626,7.527798461914063,1713734081839.0
8.911999999999992,5.7758331298828125,1.6330841064453123,7.65445556640625,1713734081849.0
8.921999999999997,7.182818603515625,1.283917236328125,8.288787841796875,1713734081859.0
8.932000000000002,7.444357299804688,0.590667724609375,6.1357666015625005,1713734081869.0
8.941999999999993,7.564285278320313,0.39537353515625,6.151318359375001,1713734081879.0
8.951999999999998,7.227081298828126,0.1900604248046875,6.016436767578125,1713734081889.0
8.962000000000003,6.874923706054688,-0.355596923828125,6.990066528320313,1713734081899.0
8.971999999999994,7.104611206054688,-1.1156890869140623,7.573257446289063,1713734081909.0
8.982,6.330761718750001,-1.1387176513671875,7.120312500000001,1713734081919.0
8.992999999999995,6.506167602539063,-0.42288818359375,7.422076416015625,1713734081930.0
9.001999999999995,6.871185302734376,0.5833404541015625,7.44151611328125,1713734081939.0
9.012999999999993,7.357028198242188,1.0786041259765626,6.8655029296875005,1713734081950.0
9.022999999999996,7.381552124023438,1.2387573242187502,6.011801147460938,1713734081960.0
9.033,7.047039794921876,1.1479888916015626,5.843273925781251,1713734081970.0
9.042999999999992,6.647778320312501,0.7888031005859376,7.404281616210938,1713734081980.0
9.052999999999995,6.855184936523438,0.0046356201171875,7.936331176757813,1713734081990.0
9.063000000000002,6.437680053710938,-0.7672698974609375,7.622305297851563,1713734082000.0
9.072999999999992,7.066329956054688,-1.1458953857421876,6.076101684570313,1713734082010.0
9.082999999999998,7.296466064453125,-1.0735198974609377,6.690695190429688,1713734082020.0
9.093000000000004,7.310073852539063,-0.3476715087890625,6.835446166992188,1713734082030.0
9.102999999999994,6.9836364746093755,0.4490570068359375,7.005917358398438,1713734082040.0
9.113,7.286148071289063,0.83082275390625,6.127542114257813,1713734082050.0
9.123000000000005,7.240390014648438,0.6712677001953126,6.172103881835938,1713734082060.0
9.132999999999996,7.150817871093751,0.5656951904296875,7.229025268554688,1713734082070.0
9.143,5.9371826171875,0.8184112548828125,8.0570068359375,1713734082080.0
9.152999999999992,6.287994384765626,0.828131103515625,8.212075805664064,1713734082090.0
9.164,6.500784301757813,-0.0064300537109375,7.208688354492188,1713734082101.0
9.173999999999992,7.6658203125,-0.5767608642578126,6.392071533203126,1713734082111.0
9.183999999999996,7.236502075195313,-0.3937286376953125,6.078793334960938,1713734082121.0
9.194000000000004,7.103713989257813,0.0554779052734375,6.296817016601563,1713734082131.0
9.203999999999994,7.02281494140625,-0.1454986572265625,6.687255859375001,1713734082141.0
9.214,7.725186157226563,-0.7053619384765626,6.716415405273438,1713734082151.0
9.227000000000004,7.355682373046876,-0.6999786376953125,6.398501586914063,1713734082164.0
9.233999999999996,6.584225463867188,0.16448974609375,7.139901733398438,1713734082171.0
9.244,7.116275024414063,0.9523956298828126,7.89072265625,1713734082181.0
9.254000000000003,5.4034881591796875,1.2430938720703126,8.007958984375001,1713734082191.0
9.263999999999996,6.321939086914063,1.2357666015625002,6.878063964843751,1713734082201.0
9.274,7.150817871093751,0.9422271728515624,7.430001831054688,1713734082211.0
9.283999999999992,7.719055175781251,0.1505828857421875,6.136962890625001,1713734082221.0
9.293999999999995,8.052969360351563,-0.2077056884765625,7.003674316406251,1713734082231.0
9.304999999999993,6.691293334960938,-0.38341064453125,5.593548583984376,1713734082242.0
9.314999999999998,6.270648193359375,-0.484796142578125,6.9866271972656255,1713734082252.0
9.326999999999998,7.409963989257813,-0.7553070068359375,7.9421630859375005,1713734082264.0
9.334999999999994,6.733761596679688,-0.8006164550781251,7.351046752929688,1713734082272.0
9.345,6.923522949218751,0.024822998046875,6.792828369140626,1713734082282.0
9.355000000000004,6.5712158203125,0.8499633789062501,6.216217041015626,1713734082292.0
9.364999999999997,7.480694580078126,1.2079528808593751,7.372879028320313,1713734082302.0
9.375,7.260128784179688,1.0952026367187502,7.067526245117188,1713734082312.0
9.384999999999993,6.668563842773438,0.9230865478515624,6.616824340820313,1713734082322.0
9.394999999999996,6.0370727539062505,0.6125,6.784005737304688,1713734082332.0
9.405,6.876419067382813,-0.094207763671875,7.895208740234375,1713734082342.0
9.414999999999992,7.232315063476563,-0.6688751220703125,7.651165771484376,1713734082352.0
9.426999999999992,7.516134643554688,-1.0972961425781251,6.0405120849609375,1713734082364.0
9.435000000000002,6.889727783203125,-0.8852539062500001,5.781515502929688,1713734082372.0
9.445999999999998,7.1720520019531255,-0.2773895263671875,6.72733154296875,1713734082383.0
9.454999999999998,7.225436401367188,0.298175048828125,7.552471923828126,1713734082392.0
9.465999999999994,7.375570678710938,0.5348907470703126,6.736453247070313,1713734082403.0
9.476,6.896008300781251,0.3216522216796875,5.6766906738281255,1713734082413.0
9.486000000000004,6.641348266601563,0.5558258056640626,7.182070922851563,1713734082423.0
9.495999999999997,6.3917724609375,1.0442108154296876,8.42725830078125,1713734082433.0
9.506,6.271545410156251,1.08084716796875,8.667562866210938,1713734082443.0
9.515999999999991,6.758135986328125,0.255706787109375,6.206796264648438,1713734082453.0
9.527,7.087115478515625,-0.484197998046875,5.6524658203125,1713734082464.0
9.536,7.84825439453125,-0.7859619140625,5.7634216308593755,1713734082473.0
9.545999999999992,7.714718627929688,-0.6338836669921876,7.304690551757813,1713734082483.0
9.555999999999996,7.474264526367188,-0.6165374755859375,7.044796752929688,1713734082493.0
9.566000000000004,7.051077270507813,-0.368157958984375,6.5828796386718755,1713734082503.0
9.575999999999992,5.8091796875,0.533544921875,6.876568603515626,1713734082513.0
9.586,5.378814697265625,1.29677734375,7.779318237304688,1713734082523.0
9.596999999999994,7.524359130859375,1.2287384033203126,9.093591308593751,1713734082534.0
9.607,7.273138427734375,0.5384796142578125,6.595291137695313,1713734082544.0
9.617000000000004,7.447198486328125,0.401654052734375,5.4269653320312505,1713734082554.0
9.626999999999995,7.155752563476563,0.5872283935546876,5.813665771484375,1713734082564.0
9.637,7.250259399414063,0.267669677734375,6.970477294921875,1713734082574.0
9.646999999999991,7.171304321289063,-0.6899597167968751,8.102764892578126,1713734082584.0
9.656999999999996,6.314312744140626,-1.230682373046875,6.5813842773437505,1713734082594.0
9.667000000000002,6.108401489257813,-0.7508209228515625,7.1669677734375,1713734082604.0
9.676999999999992,6.797912597656251,0.269464111328125,8.180374145507812,1713734082614.0
9.686999999999998,7.304690551757813,0.8548980712890626,7.459759521484376,1713734082624.0
9.697000000000005,7.594790649414063,1.02462158203125,6.006268310546876,1713734082634.0
9.706999999999994,7.147976684570313,0.950750732421875,4.565487670898438,1713734082644.0
9.717,7.000234985351563,0.8291778564453126,6.9073730468750005,1713734082654.0
9.727000000000004,6.964944458007813,0.2274444580078125,8.155999755859376,1713734082664.0
9.738,6.668563842773438,-0.523077392578125,8.338433837890626,1713734082675.0
9.748000000000005,6.330761718750001,-1.0443603515625002,6.061148071289063,1713734082685.0
9.757999999999996,6.843820190429688,-0.9749755859375,6.6486755371093755,1713734082695.0
9.768,7.356130981445313,-0.2244537353515625,7.343869018554688,1713734082705.0
9.777999999999992,7.600921630859376,0.4610198974609375,7.123452758789063,1713734082715.0
9.787999999999997,7.051974487304688,0.6625946044921875,5.939276123046875,1713734082725.0
9.798000000000002,7.0240112304687505,0.6793426513671875,5.362515258789063,1713734082735.0
9.807999999999993,7.277923583984376,0.66094970703125,7.398748779296875,1713734082745.0
9.817999999999998,6.454876708984376,0.6045745849609375,8.305984497070312,1713734082755.0
9.828000000000005,6.374725341796876,0.36307373046875,8.134765625,1713734082765.0
9.837999999999994,6.005819702148438,-0.1341339111328125,6.801950073242188,1713734082775.0
9.848,7.425216674804688,-0.366961669921875,6.485980224609375,1713734082785.0
9.858000000000004,7.403683471679688,-0.2097991943359375,7.057955932617188,1713734082795.0
9.867999999999997,7.445404052734376,0.048748779296875,6.216366577148438,1713734082805.0
9.878,6.738247680664063,0.07357177734375,6.148776245117188,1713734082815.0
9.888999999999996,7.600772094726563,-0.41092529296875,5.711682128906251,1713734082826.0
9.899,7.395159912109375,-0.6551177978515625,7.165621948242188,1713734082836.0
9.908999999999992,6.771145629882813,-0.3084930419921875,7.768850708007813,1713734082846.0
9.918999999999995,7.048385620117188,0.51739501953125,7.738345336914063,1713734082856.0
9.929000000000002,6.202459716796875,1.06888427734375,7.404281616210938,1713734082866.0
9.938999999999991,5.508761596679688,1.29378662109375,6.5724121093750005,1713734082876.0
9.948999999999998,7.1573974609375,1.2942352294921875,7.787094116210938,1713734082886.0
9.959000000000003,7.591799926757813,0.6350799560546876,7.11612548828125,1713734082896.0
9.968999999999994,7.630380249023438,-0.1475921630859375,6.165823364257813,1713734082906.0
9.979,7.285549926757813,-0.5339935302734375,6.109149169921875,1713734082916.0
9.989000000000004,6.453829956054688,-0.3720458984375,6.676040649414063,1713734082926.0
9.998999999999995,6.845166015625001,-0.4903289794921875,7.804739379882813,1713734082936.0
10.009,6.880606079101563,-0.7168762207031251,7.696774291992188,1713734082946.0
10.018999999999991,6.8415771484375005,-0.5247222900390626,6.519027709960938,1713734082956.0
10.03,6.762023925781251,0.412420654296875,6.5903564453125005,1713734082967.0
10.039999999999992,7.31949462890625,1.2287384033203126,7.053021240234376,1713734082977.0
10.049999999999995,7.393215942382813,1.27105712890625,7.0258056640625,1713734082987.0
10.060000000000002,6.833801269531251,0.8658142089843751,6.548037719726563,1713734082997.0
10.069999999999991,6.0370727539062505,0.690557861328125,7.078890991210938,1713734083007.0
10.079999999999998,6.527700805664063,0.382513427734375,7.916741943359376,1713734083017.0
10.090000000000003,6.7482666015625,-0.1822845458984375,8.151065063476564,1713734083027.0
10.099999999999994,7.399795532226563,-0.8545989990234376,6.104214477539063,1713734083037.0
10.11,7.718606567382813,-1.1511291503906251,5.477957153320313,1713734083047.0
10.120000000000005,7.626342773437501,-0.772802734375,5.6303344726562505,1713734083057.0
10.129999999999995,6.888681030273438,-0.08553466796875,7.379608154296876,1713734083067.0
10.14,7.107003784179688,0.3210540771484375,7.499835205078125,1713734083077.0
10.149999999999991,6.717163085937501,0.2307342529296875,6.495251464843751,1713734083087.0
10.159999999999997,7.101321411132813,0.3174652099609375,6.443362426757813,1713734083097.0
10.170000000000002,6.397155761718751,0.702520751953125,7.585369873046876,1713734083107.0
10.180999999999996,6.57420654296875,1.387994384765625,8.495147705078125,1713734083118.0
10.191000000000004,6.079241943359375,1.18671875,7.862011718750001,1713734083128.0
10.200999999999992,7.2770263671875,0.356494140625,5.945257568359375,1713734083138.0
10.211,7.411160278320313,-0.433056640625,5.74637451171875,1713734083148.0
10.221000000000004,7.521069335937501,-0.7049133300781251,6.222796630859375,1713734083158.0
10.230999999999996,7.227081298828126,-0.7690643310546875,6.9157470703125,1713734083168.0
10.241,7.221548461914063,-1.071575927734375,7.293325805664063,1713734083178.0
10.251000000000005,7.316653442382813,-1.0319488525390623,6.50242919921875,1713734083188.0
10.260999999999996,7.132424926757813,0.1048248291015625,7.367047119140626,1713734083198.0
10.271,5.388684082031251,1.4798095703125,6.785351562500001,1713734083208.0
10.280999999999992,6.290835571289063,1.8333129882812504,7.930499267578125,1713734083218.0
10.290999999999997,7.384542846679688,1.0144531250000002,8.19996337890625,1713734083228.0
10.301000000000002,7.373028564453126,0.5613586425781251,6.203207397460938,1713734083238.0
10.310999999999993,7.261026000976563,0.67410888671875,6.296368408203126,1713734083248.0
10.322000000000005,6.722247314453125,0.3847564697265625,6.1327758789062505,1713734083259.0
10.331999999999994,7.492807006835938,-0.6880157470703125,7.496994018554688,1713734083269.0
10.342,6.979449462890625,-1.3544982910156251,7.223492431640626,1713734083279.0
10.352000000000004,6.417343139648438,-0.9829010009765624,6.637908935546876,1713734083289.0
10.361999999999997,6.238198852539063,-0.179443359375,7.643389892578125,1713734083299.0
10.372,7.208987426757813,0.410626220703125,7.533630371093751,1713734083309.0
10.382000000000003,7.47501220703125,0.8393463134765625,7.183117675781251,1713734083319.0
10.391999999999996,7.417889404296876,1.14185791015625,5.088565063476563,1713734083329.0
10.402,6.644338989257813,1.2359161376953125,6.00537109375,1713734083339.0
10.411999999999992,6.954327392578126,0.681884765625,7.480245971679688,1713734083349.0
10.421999999999995,6.994702148437501,-0.1541717529296875,8.46673583984375,1713734083359.0
10.432000000000002,6.537420654296875,-0.6898101806640625,6.955523681640625,1713734083369.0
10.441999999999991,6.311322021484376,-0.9096282958984376,6.303695678710938,1713734083379.0
10.451999999999998,7.279867553710938,-0.643902587890625,7.209286499023438,1713734083389.0
10.462000000000003,7.238595581054688,-0.1209747314453125,7.330859375,1713734083399.0
10.473,7.758831787109376,0.429168701171875,6.5320373535156255,1713734083410.0
10.483000000000004,6.816455078125,0.4505523681640625,4.950094604492188,1713734083420.0
10.492999999999997,7.584472656250001,0.488983154296875,6.494354248046876,1713734083430.0
10.503,6.670059204101563,0.5444610595703125,7.967733764648438,1713734083440.0
10.512999999999993,6.475662231445313,0.6672302246093751,8.285647583007814,1713734083450.0
10.522999999999996,5.8994995117187505,0.3587371826171875,7.560995483398438,1713734083460.0
10.533,6.711331176757813,-0.147442626953125,6.669311523437501,1713734083470.0
10.542999999999992,7.425814819335938,-0.088525390625,6.819744873046876,1713734083480.0
10.552999999999995,7.477255249023438,0.0354400634765625,6.334201049804688,1713734083490.0
10.563000000000002,6.899148559570313,-0.1586578369140625,5.860470581054688,1713734083500.0
10.572999999999992,7.79442138671875,-0.6057708740234375,6.332705688476563,1713734083510.0
10.582999999999998,7.467086791992188,-0.7176239013671876,7.122256469726563,1713734083520.0
10.593000000000004,7.239044189453126,0.09390869140625,7.599874877929688,1713734083530.0
10.602999999999994,6.0804382324218755,0.9523956298828126,7.456021118164063,1713734083540.0
10.614000000000004,4.872784423828126,1.33924560546875,6.989767456054688,1713734083551.0
10.626000000000005,7.153659057617188,1.0214813232421875,7.870086669921876,1713734083563.0
10.634,7.328018188476563,0.45997314453125,7.845712280273438,1713734083571.0
10.643999999999991,7.847357177734375,0.087628173828125,5.972921752929688,1713734083581.0
10.653999999999996,7.342373657226563,0.1344329833984375,5.9418182373046875,1713734083591.0
10.664,6.822586059570313,-0.139666748046875,5.850302124023438,1713734083601.0
10.673999999999992,7.1974731445312505,-0.6216217041015626,7.702157592773438,1713734083611.0
10.683999999999996,7.1092468261718755,-0.83082275390625,7.519424438476563,1713734083621.0
10.694000000000004,5.9657440185546875,-0.5773590087890625,6.77518310546875,1713734083631.0
10.703999999999994,6.634469604492188,0.11304931640625,7.404281616210938,1713734083641.0
10.714,7.136611938476563,0.7582977294921875,7.443460083007813,1713734083651.0
10.726,7.6000244140625,1.1312408447265625,7.001281738281251,1713734083663.0
10.735,7.039114379882813,1.2209625244140625,5.6524658203125,1713734083672.0
10.745000000000005,6.568673706054688,0.9335540771484376,6.297116088867188,1713734083682.0
10.754999999999995,6.704452514648438,0.3937286376953125,7.737448120117188,1713734083692.0
10.765,6.793875122070313,-0.28172607421875,8.535223388671875,1713734083702.0
10.774999999999991,6.811370849609376,-0.7801300048828126,6.666470336914063,1713734083712.0
10.784999999999997,7.403683471679688,-1.1849243164062502,5.696429443359375,1713734083722.0
10.795000000000002,7.230670166015625,-0.9782653808593752,6.243582153320313,1713734083732.0
10.804999999999993,7.448245239257813,-0.000299072265625,7.486526489257813,1713734083742.0
10.814999999999998,6.774884033203126,0.6422576904296875,7.121807861328126,1713734083752.0
10.826999999999998,7.1071533203125,0.7273437500000001,5.920584106445313,1713734083764.0
10.834999999999994,7.179977416992188,0.3864013671875,6.457418823242188,1713734083772.0
10.845,6.7174621582031255,0.6125,7.559500122070313,1713734083782.0
10.855000000000004,6.424221801757813,1.116885375976563,8.28250732421875,1713734083792.0
10.864999999999997,6.00955810546875,0.6811370849609375,7.831356811523438,1713734083802.0
10.875,7.168313598632813,-0.2492767333984375,6.0016326904296875,1713734083812.0
10.884999999999993,7.205996704101563,-0.8055511474609376,6.330911254882813,1713734083822.0
10.896,7.923770141601563,-0.6791931152343751,5.812619018554688,1713734083833.0
10.905999999999992,7.119863891601563,-0.4056915283203125,7.465740966796876,1713734083843.0
10.915999999999997,7.748214721679688,-0.453692626953125,6.531738281250001,1713734083853.0
10.925999999999997,6.958813476562501,0.079254150390625,6.995001220703125,1713734083863.0
10.935999999999993,5.105014038085938,0.8085418701171876,6.816305541992188,1713734083873.0
10.945999999999998,6.434390258789063,1.31771240234375,8.177084350585938,1713734083883.0
10.956000000000005,7.330111694335938,0.8628234863281251,9.025103759765626,1713734083893.0
10.966,7.306335449218751,0.4170562744140625,5.743234252929688,1713734083903.0
10.976,7.295718383789063,0.4993011474609375,5.84447021484375,1713734083913.0
10.986000000000004,6.896456909179688,0.4693939208984375,5.6467834472656255,1713734083923.0
10.995999999999997,7.630828857421876,-0.08553466796875,7.851544189453126,1713734083933.0
11.006,6.664974975585938,-0.8505615234375,7.78544921875,1713734083943.0
11.015999999999991,6.167019653320313,-0.8839080810546875,6.467138671875,1713734083953.0
11.025999999999996,6.48448486328125,-0.28531494140625,7.667315673828125,1713734083963.0
11.036999999999992,6.908419799804688,0.396270751953125,7.610491943359375,1713734083974.0
11.046999999999995,7.661184692382813,0.8510101318359375,7.239791870117188,1713734083984.0
11.056999999999997,7.32547607421875,0.910076904296875,5.393319702148438,1713734083994.0
11.066999999999991,6.762472534179688,0.7771392822265626,5.215969848632813,1713734084004.0
11.076999999999998,7.2842041015625005,0.399261474609375,7.587612915039063,1713734084014.0
11.087000000000003,7.272988891601563,-0.2591461181640625,7.733261108398438,1713734084024.0
11.097,6.466839599609376,-0.6899597167968751,7.582977294921876,1713734084034.0
11.107,6.472671508789063,-0.941778564453125,5.873779296875,1713734084044.0
11.117000000000004,6.6352172851562505,-0.4254302978515625,7.878610229492188,1713734084054.0
11.126999999999995,7.373477172851563,0.3709991455078125,7.36734619140625,1713734084064.0
11.137,7.153210449218751,0.737213134765625,7.081433105468751,1713734084074.0
11.146999999999991,7.377514648437501,0.6473419189453126,4.87308349609375,1713734084084.0
11.156999999999996,7.091003417968751,0.5670410156250001,6.280218505859375,1713734084094.0
11.167000000000002,7.240689086914063,0.57960205078125,7.607351684570313,1713734084104.0
11.176999999999992,6.3295654296875,0.357391357421875,8.251553344726563,1713734084114.0
11.187999999999995,6.4991394042968755,-0.1338348388671875,7.580435180664063,1713734084125.0
11.197999999999992,6.164028930664063,-0.5357879638671875,6.397155761718751,1713734084135.0
11.207999999999998,7.553967285156251,-0.259295654296875,7.069619750976563,1713734084145.0
11.218000000000004,7.113882446289063,0.0091217041015625,6.545346069335938,1713734084155.0
11.228000000000002,7.50731201171875,0.0387298583984375,6.210833740234375,1713734084165.0
11.238,7.447348022460938,-0.2211639404296875,5.605511474609376,1713734084175.0
11.248000000000005,7.395309448242188,-0.357989501953125,6.978851318359376,1713734084185.0
11.257999999999996,7.481890869140625,0.1733123779296875,7.467086791992188,1713734084195.0
11.268,6.344668579101563,0.8556457519531251,8.309573364257814,1713734084205.0
11.28,4.711285400390626,1.1370727539062502,6.783856201171876,1713734084217.0
11.287999999999997,6.455624389648438,0.8883941650390625,7.899246215820313,1713734084225.0
11.297999999999996,7.807580566406251,0.40255126953125,8.096334838867188,1713734084235.0
11.308999999999996,7.957864379882813,0.0979461669921875,5.79302978515625,1713734084246.0
11.317999999999998,7.48936767578125,0.067889404296875,5.648129272460938,1713734084255.0
11.328999999999994,6.629534912109375,-0.093310546875,5.3686462402343755,1713734084266.0
11.339,7.321438598632813,-0.5130584716796875,7.991061401367188,1713734084276.0
11.349000000000004,6.635815429687501,-0.6519775390625,8.431594848632812,1713734084286.0
11.359000000000002,6.213226318359376,-0.47672119140625,6.882699584960938,1713734084296.0
11.369,6.244030761718751,0.1120025634765625,6.921429443359376,1713734084306.0
11.379000000000003,7.610043334960938,0.677398681640625,6.991860961914063,1713734084316.0
11.388999999999996,7.695877075195313,1.0935577392578126,7.026702880859376,1713734084326.0
11.399,7.1690612792968755,1.152923583984375,5.8730316162109375,1713734084336.0
11.408999999999992,6.074606323242188,0.89542236328125,6.269900512695313,1713734084346.0
11.418999999999995,6.905279541015625,0.28172607421875,7.756887817382813,1713734084356.0
11.428999999999997,6.877764892578125,-0.4338043212890625,8.412155151367188,1713734084366.0
11.438999999999991,7.1152282714843755,-0.8058502197265626,6.638955688476563,1713734084376.0
11.448999999999998,6.809426879882813,-1.0983428955078125,5.787197875976563,1713734084386.0
11.46,7.343270874023438,-0.6841278076171875,6.523214721679688,1713734084397.0
11.469,7.147827148437501,0.1042266845703125,7.474264526367188,1713734084406.0
11.480000000000004,7.498489379882813,0.6356781005859375,6.929953002929688,1713734084417.0
11.489999999999997,6.801351928710938,0.490179443359375,5.55496826171875,1713734084427.0
11.5,7.186108398437501,0.4185516357421875,6.650769042968751,1713734084437.0
11.509999999999993,6.57181396484375,0.712689208984375,7.707241821289063,1713734084447.0
11.519999999999996,6.367098999023438,1.0419677734375,8.79571533203125,1713734084457.0
11.53,6.122158813476563,0.493768310546875,7.323681640625001,1713734084467.0
11.542999999999992,6.998291015625001,-0.2313323974609375,6.161636352539063,1713734084480.0
11.549999999999995,7.427011108398438,-0.520086669921875,5.9503417968750005,1713734084487.0
11.559999999999995,7.5025268554687505,-0.5072265625000001,6.364407348632813,1713734084497.0
11.569999999999991,7.682418823242188,-0.47432861328125,7.0673767089843755,1713734084507.0
11.579999999999998,7.3787109375,-0.5912658691406251,6.4243713378906255,1713734084517.0
11.590000000000003,7.639053344726563,-0.178546142578125,6.6310302734375,1713734084527.0
11.6,5.0734619140625,0.763531494140625,7.332354736328125,1713734084537.0
11.61,6.046643066406251,1.3808166503906252,8.007061767578126,1713734084547.0
11.620999999999997,6.949841308593751,1.03359375,9.095684814453126,1713734084558.0
11.631,7.437329101562501,0.279931640625,5.9044342041015625,1713734084568.0
11.641999999999996,7.524658203125001,0.4376922607421875,6.1048126220703125,1713734084579.0
11.650999999999996,7.111788940429688,0.61309814453125,5.567080688476563,1713734084588.0
11.661,7.147976684570313,0.1356292724609375,7.094143676757813,1713734084598.0
11.670999999999992,7.447198486328125,-0.8747863769531251,7.8273193359375,1713734084608.0
11.680999999999996,6.015838623046875,-1.1475402832031252,6.491213989257813,1713734084618.0
11.690999999999995,6.265563964843751,-0.443524169921875,7.839581298828126,1713734084628.0
11.700999999999992,6.785052490234375,0.4119720458984375,7.757485961914063,1713734084638.0
11.711,7.465292358398438,0.75904541015625,7.416094970703125,1713734084648.0
11.721000000000004,7.431945800781251,0.8152709960937501,5.41380615234375,1713734084658.0
11.731000000000002,7.013244628906251,0.926824951171875,5.335150146484375,1713734084668.0
11.742000000000004,6.845913696289063,0.8224487304687501,7.221548461914063,1713734084679.0
11.751000000000005,7.263867187500001,0.161199951171875,8.164822387695313,1713734084688.0
11.762,6.4737182617187505,-0.6089111328125001,7.530191040039063,1713734084699.0
11.771999999999991,6.717312622070313,-1.0204345703125002,5.767010498046876,1713734084709.0
11.781999999999996,6.995449829101563,-0.7445404052734376,7.139303588867188,1713734084719.0
11.792000000000002,7.161883544921875,-0.045458984375,7.612286376953126,1713734084729.0
11.801999999999992,7.081582641601563,0.469244384765625,7.289437866210938,1713734084739.0
11.811999999999998,7.009655761718751,0.672613525390625,5.702410888671875,1713734084749.0
11.821999999999996,7.424917602539063,0.5345916748046875,5.489022827148438,1713734084759.0
11.831999999999994,7.2886901855468755,0.517095947265625,7.613482666015625,1713734084769.0
11.842,6.657797241210938,0.5314514160156251,7.678829956054688,1713734084779.0
11.852000000000004,5.931201171875,0.4562347412109375,8.335891723632812,1713734084789.0
11.861999999999997,6.4931579589843755,-0.169873046875,6.255993652343751,1713734084799.0
11.872,7.183416748046875,-0.4242340087890625,7.39366455078125,1713734084809.0
11.882000000000003,7.592248535156251,-0.284716796875,6.235208129882813,1713734084819.0
11.891999999999996,6.708340454101563,0.0566741943359375,6.530392456054688,1713734084829.0
11.902,7.373178100585938,-0.075665283203125,5.959912109375001,1713734084839.0
11.912999999999997,7.637258911132813,-0.4916748046875,6.898849487304688,1713734084850.0
11.922999999999996,7.818646240234376,-0.2196685791015625,6.948794555664063,1713734084860.0
11.932999999999993,6.6406005859375,0.5236755371093751,7.141247558593751,1713734084870.0
11.942999999999998,5.1358184814453125,1.1790924072265625,7.568472290039063,1713734084880.0
11.953000000000005,6.00238037109375,1.1118011474609375,7.937527465820313,1713734084890.0
11.963,7.491610717773438,0.6642395019531251,8.390621948242188,1713734084900.0
11.973,7.456619262695313,0.1069183349609375,5.663381958007813,1713734084910.0
11.983000000000004,7.772439575195313,0.0438140869140625,6.043951416015625,1713734084920.0
11.992999999999997,6.828866577148438,0.0777587890625,5.5759033203125,1713734084930.0
12.003,7.145285034179688,-0.288006591796875,7.793823242187501,1713734084940.0
12.012999999999993,7.039263916015625,-0.6413604736328126,7.629483032226563,1713734084950.0
12.022999999999996,6.283956909179688,-0.8270843505859375,6.648226928710938,1713734084960.0
12.033,6.539364624023438,-0.18123779296875,7.105209350585938,1713734084970.0
12.042999999999992,7.198519897460938,0.5565734863281251,7.396954345703126,1713734084980.0
12.053999999999997,7.364654541015626,0.9398345947265626,7.288391113281251,1713734084991.0
12.063999999999991,7.083078002929688,1.029107666015625,5.836544799804688,1713734085001.0
12.073999999999998,6.487326049804688,0.8568420410156251,6.390576171875001,1713734085011.0
12.084000000000003,6.836044311523438,0.6238647460937501,7.427011108398438,1713734085021.0
12.094,7.010104370117188,0.05682373046875,8.135812377929689,1713734085031.0
12.104,6.901092529296876,-0.5395263671875,6.812118530273438,1713734085041.0
12.114000000000004,7.12509765625,-1.0434631347656251,5.712728881835938,1713734085051.0
12.123999999999995,7.123901367187501,-0.7083526611328126,6.962402343750001,1713734085061.0
12.134,6.9238220214843755,-0.0100189208984375,7.310821533203126,1713734085071.0
12.143999999999991,6.949542236328125,0.4664031982421875,7.63052978515625,1713734085081.0
12.153999999999996,7.370635986328126,0.3467742919921875,5.458517456054688,1713734085091.0
12.164,7.271493530273438,0.212042236328125,6.314312744140626,1713734085101.0
12.173999999999992,7.201809692382813,0.48509521484375,6.761425781250001,1713734085111.0
12.184999999999995,6.174496459960938,0.8522064208984376,8.401986694335939,1713734085122.0
12.193999999999996,6.383248901367188,0.6051727294921876,7.965640258789063,1713734085131.0
12.204999999999998,6.431100463867188,-0.0895721435546875,6.601870727539063,1713734085142.0
12.215000000000003,7.365402221679688,-0.43126220703125,6.203955078125,1713734085152.0
12.225,7.061544799804688,-0.42288818359375,6.313415527343751,1713734085162.0
12.235,7.782308959960938,-0.16209716796875,7.22977294921875,1713734085172.0
12.245000000000005,7.660287475585938,-0.222509765625,6.4782043457031255,1713734085182.0
12.254999999999995,7.759130859375,-0.101983642578125,6.459661865234375,1713734085192.0
12.265,5.4374328613281255,0.5467041015625,6.565084838867188,1713734085202.0
12.274999999999991,5.935089111328125,1.1204742431640626,8.045492553710938,1713734085212.0
12.284999999999997,6.941168212890625,0.7707092285156251,9.138900756835938,1713734085222.0
12.295000000000002,7.186108398437501,-0.1158905029296875,6.632675170898438,1713734085232.0
12.304999999999993,7.511798095703125,0.0366363525390625,6.026007080078125,1713734085242.0
12.314999999999998,6.785650634765625,0.7034179687500001,5.600726318359375,1713734085252.0
12.325000000000005,7.281661987304688,0.5987426757812501,6.989767456054688,1713734085262.0
12.335,7.704849243164063,-0.30684814453125,7.838235473632813,1713734085272.0
12.346000000000004,6.409716796875,-0.90858154296875,6.15311279296875,1713734085283.0
12.356000000000002,6.071615600585938,-0.3476715087890625,7.304092407226563,1713734085293.0
12.366,6.652713012695313,0.42886962890625,8.156149291992188,1713734085303.0
12.376000000000005,7.0270019531250005,0.5520874023437501,7.941714477539063,1713734085313.0
12.385999999999996,7.373626708984376,0.382513427734375,6.169262695312501,1713734085323.0
12.396,7.046591186523438,0.4581787109375,5.0064697265625,1713734085333.0
12.405999999999992,7.2528015136718755,0.561956787109375,6.5006347656250005,1713734085343.0
12.415999999999997,7.301400756835938,0.2738006591796875,7.791281127929688,1713734085353.0
12.425999999999997,6.994851684570313,-0.3744384765625,7.331906127929688,1713734085363.0
12.435999999999993,6.8296142578125005,-0.8457763671875,6.0206237792968755,1713734085373.0
12.445999999999998,6.7204528808593755,-0.6418090820312501,6.732565307617188,1713734085383.0
12.456000000000005,6.453680419921875,0.1854248046875,8.2974609375,1713734085393.0
12.466,6.986776733398438,0.76981201171875,8.018576049804688,1713734085403.0
12.477000000000004,6.816305541992188,0.705511474609375,6.398202514648438,1713734085414.0
12.486000000000004,7.869189453125,0.3835601806640625,4.70859375,1713734085423.0
12.497,7.225585937500001,0.2881561279296875,6.7638183593750005,1713734085434.0
12.507000000000003,7.121658325195313,0.5444610595703125,7.544546508789063,1713734085444.0
12.516999999999996,6.048138427734376,0.3081939697265625,8.492904663085938,1713734085454.0
12.527,6.729873657226563,-0.4720855712890625,6.438278198242188,1713734085464.0
12.536999999999992,6.735107421875001,-0.8222991943359376,6.856082153320313,1713734085474.0
12.546999999999995,7.363906860351563,-0.2660247802734375,6.768005371093751,1713734085484.0
12.556999999999997,6.583477783203126,0.416009521484375,6.849203491210938,1713734085494.0
12.566999999999991,7.473516845703125,0.3031097412109375,6.6516662597656255,1713734085504.0
12.576999999999998,7.703652954101563,-0.2681182861328125,5.824282836914063,1713734085514.0
12.587000000000003,7.704849243164063,-0.12142333984375,6.730023193359376,1713734085524.0
12.597,7.379757690429688,0.6148925781250001,7.088012695312501,1713734085534.0
12.607,4.914205932617188,1.0759124755859375,7.826721191406251,1713734085544.0
12.617000000000004,5.6763916015625,0.7242034912109375,7.87218017578125,1713734085554.0
12.626999999999995,7.069021606445313,0.237762451171875,8.6144775390625,1713734085564.0
12.637999999999993,7.410562133789063,-0.1078155517578125,6.298611450195313,1713734085575.0
12.647999999999996,8.080484008789064,0.193798828125,6.2045532226562505,1713734085585.0
12.658,7.158743286132813,0.3174652099609375,5.044302368164063,1713734085595.0
12.667999999999992,7.081283569335938,0.005682373046875,6.664227294921876,1713734085605.0
12.677999999999995,7.446002197265625,-0.3766815185546875,7.696774291992188,1713734085615.0
12.687999999999995,6.078195190429688,-0.634033203125,7.357626342773438,1713734085625.0
12.697999999999992,6.256442260742188,-0.2648284912109375,7.73819580078125,1713734085635.0
12.707999999999998,6.625497436523438,0.2740997314453125,7.350598144531251,1713734085645.0
12.718000000000004,7.454226684570313,0.707305908203125,7.421328735351563,1713734085655.0
12.728000000000002,7.31949462890625,0.928021240234375,5.8905273437500005,1713734085665.0
12.738,6.95462646484375,0.9701904296875,5.952883911132813,1713734085675.0
12.748000000000005,6.758584594726563,0.8193084716796876,6.948345947265626,1713734085685.0
12.759,7.018927001953125,0.1428070068359375,7.911956787109376,1713734085696.0
12.768999999999991,6.766360473632813,-0.4462158203125,7.281213378906251,1713734085706.0
12.778999999999996,7.174295043945313,-0.9897796630859376,6.02750244140625,1713734085716.0
12.789,6.931597900390625,-1.0065277099609375,6.667666625976563,1713734085726.0
12.798999999999992,7.266259765625,-0.3973175048828125,7.15799560546875,1713734085736.0
12.808999999999996,6.797613525390625,0.247332763671875,7.635314941406251,1713734085746.0
12.818999999999996,7.111788940429688,0.6495849609375001,6.112139892578125,1713734085756.0
12.828999999999994,7.200314331054688,0.5866302490234375,6.096139526367188,1713734085766.0
12.839,7.445703125,0.581097412109375,6.692788696289063,1713734085776.0
12.849000000000004,6.386239624023438,0.865216064453125,7.951135253906251,1713734085786.0
12.859000000000002,6.310873413085938,0.8931793212890625,8.0570068359375,1713734085796.0
12.869,6.300405883789063,0.1930511474609375,7.054815673828125,1713734085806.0
12.879000000000003,7.347158813476563,-0.4797119140625,6.694284057617188,1713734085816.0
12.888999999999996,7.298110961914063,-0.6400146484375,6.093597412109375,1713734085826.0
12.899,6.984832763671876,-0.3674102783203125,6.608450317382813,1713734085836.0
12.908999999999992,7.565032958984376,-0.3724945068359375,6.526205444335938,1713734085846.0
12.920000000000002,7.646978759765625,-0.5175445556640625,6.939523315429688,1713734085857.0
12.929999999999993,7.809823608398438,-0.088824462890625,6.315060424804688,1713734085867.0
12.941999999999991,5.4673400878906255,0.823345947265625,7.194781494140625,1713734085879.0
12.950000000000005,5.881256103515625,1.4346496582031252,7.664624023437501,1713734085887.0
12.96,6.733013916015626,1.0494445800781251,8.97515869140625,1713734085897.0
12.97,7.312316894531251,0.198583984375,6.916943359375001,1713734085907.0
12.980000000000004,7.477703857421876,0.26378173828125,5.882302856445313,1713734085917.0
12.989999999999997,6.924569702148438,0.4350006103515625,5.71287841796875,1713734085927.0
13.0,7.19388427734375,0.0491973876953125,6.8056884765625005,1713734085937.0
13.009999999999993,7.871133422851563,-0.7481292724609375,7.886386108398438,1713734085947.0
13.019999999999996,6.443511962890626,-0.9921722412109376,6.103616333007813,1713734085957.0
13.03,6.05740966796875,-0.4388885498046875,7.150070190429688,1713734085967.0
13.042000000000002,6.50003662109375,0.3600830078125,8.0103515625,1713734085979.0
13.050999999999997,7.408917236328126,0.7750457763671875,8.283105468750001,1713734085988.0
13.060999999999993,7.220950317382813,0.8934783935546876,6.108551025390625,1713734085998.0
13.070999999999998,7.178182983398438,0.9534423828125,4.599880981445313,1713734086008.0
13.081000000000005,6.932196044921875,0.7173248291015626,6.682022094726563,1713734086018.0
13.091,7.329663085937501,0.1742095947265625,7.937078857421875,1713734086028.0
13.101,6.7069946289062505,-0.448309326171875,8.369686889648438,1713734086038.0
13.111000000000004,6.465344238281251,-0.9751251220703124,5.792581176757813,1713734086048.0
13.120999999999997,6.6636291503906255,-1.03658447265625,6.597384643554688,1713734086058.0
13.131,7.539462280273438,-0.323297119140625,7.615277099609376,1713734086068.0
13.141999999999996,7.216613769531251,0.409429931640625,7.219903564453125,1713734086079.0
13.150999999999996,6.856680297851563,0.8453277587890625,6.347360229492188,1713734086088.0
13.161,7.139752197265626,0.7864105224609376,5.1742492675781255,1713734086098.0
13.170999999999992,7.141546630859375,0.7316802978515625,7.70888671875,1713734086108.0
13.180999999999996,7.018777465820313,0.7594940185546876,7.648922729492188,1713734086118.0
13.190999999999995,5.9009948730468755,0.5007965087890626,8.419931030273439,1713734086128.0
13.201999999999998,6.443960571289063,-0.1351806640625,6.234011840820313,1713734086139.0
13.212000000000003,6.987973022460938,-0.6093597412109375,6.956420898437501,1713734086149.0
13.222,7.784252929687501,-0.6993804931640626,6.428408813476563,1713734086159.0
13.232,7.021618652343751,-0.5715270996093751,6.354238891601563,1713734086169.0
13.242000000000004,8.022613525390625,-0.3099884033203125,6.383847045898438,1713734086179.0
13.251999999999995,7.101321411132813,-0.2184722900390625,6.223245239257813,1713734086189.0
13.262,7.411010742187501,0.3979156494140625,7.578192138671875,1713734086199.0
13.271999999999991,5.062246704101563,1.2831695556640623,7.552471923828126,1713734086209.0
13.281999999999996,6.070269775390625,1.5846343994140626,8.245272827148439,1713734086219.0
13.292000000000002,6.899298095703125,0.8946746826171875,8.057156372070313,1713734086229.0
13.301999999999992,7.607800292968751,0.02213134765625,6.259582519531251,1713734086239.0
13.311999999999998,7.955023193359375,0.194097900390625,6.1620849609375,1713734086249.0
13.321999999999996,6.350350952148438,0.14056396484375,5.4132080078125,1713734086259.0
13.332999999999998,7.614828491210938,-0.4086822509765625,7.150668334960938,1713734086270.0
13.342,7.228726196289063,-1.20765380859375,7.949041748046875,1713734086279.0
13.353000000000002,6.445156860351563,-1.0467529296875,6.267956542968751,1713734086290.0
13.363,6.110943603515626,0.042767333984375,7.748065185546875,1713734086300.0
13.373000000000005,7.007113647460938,0.6585571289062501,7.075601196289063,1713734086310.0
13.382999999999996,7.427310180664063,0.9655548095703126,7.847357177734375,1713734086320.0
13.393,7.434786987304688,1.0941558837890626,5.6292877197265625,1713734086330.0
13.402999999999992,6.4871765136718755,1.1964385986328123,5.83310546875,1713734086340.0
13.412999999999997,6.980346679687501,0.7584472656250001,7.125845336914063,1713734086350.0
13.422999999999996,6.939224243164063,-0.1544708251953125,8.254992675781251,1713734086360.0
13.432999999999993,7.108349609375001,-0.8523559570312501,7.426263427734376,1713734086370.0
13.442999999999998,6.3032470703125005,-1.089520263671875,6.065634155273438,1713734086380.0
13.453000000000005,7.087713623046875,-0.641510009765625,6.891073608398438,1713734086390.0
13.463,6.912905883789063,-0.040374755859375,7.685708618164063,1713734086400.0
13.473,7.649520874023438,0.54072265625,6.959262084960938,1713734086410.0
13.483000000000004,7.103115844726563,0.6029296875000001,5.310476684570313,1713734086420.0
13.494,7.628286743164063,0.4403839111328125,5.648428344726563,1713734086431.0
13.504000000000003,6.762173461914063,0.48748779296875,7.4684326171875,1713734086441.0
13.513999999999996,6.617572021484375,0.7016235351562501,8.6384033203125,1713734086451.0
13.524,5.8206939697265625,0.37264404296875,7.86380615234375,1713734086461.0
13.533999999999992,6.567477416992188,-0.2893524169921875,6.478054809570313,1713734086471.0
13.543999999999995,7.052871704101563,-0.530255126953125,6.365304565429688,1713734086481.0
13.553999999999997,7.713671875,-0.26497802734375,6.688302612304688,1713734086491.0
13.563999999999991,7.682418823242188,-0.0103179931640625,6.737799072265625,1713734086501.0
13.573999999999998,7.589407348632813,-0.14056396484375,5.97666015625,1713734086511.0
13.584000000000003,7.671203613281251,0.091217041015625,6.482241821289063,1713734086521.0
13.594,5.136117553710938,0.630743408203125,7.195678710937501,1713734086531.0
13.604,6.344219970703126,1.0337432861328126,8.409463500976564,1713734086541.0
13.614000000000004,6.5066162109375005,0.4936187744140625,9.0212158203125,1713734086551.0
13.623999999999995,7.457516479492188,-0.076861572265625,6.189151000976563,1713734086561.0
13.634,7.3709350585937505,0.3409423828125,6.155056762695313,1713734086571.0
13.644999999999996,7.083676147460938,0.71119384765625,5.340832519531251,1713734086582.0
13.655,7.550527954101563,0.3578399658203125,7.241586303710938,1713734086592.0
13.664999999999992,7.259530639648438,-0.5148529052734375,7.506863403320313,1713734086602.0
13.674999999999995,6.05621337890625,-0.629547119140625,6.655105590820313,1713734086612.0
13.684999999999995,6.266610717773438,-0.0587677001953125,7.945751953125001,1713734086622.0
13.694999999999991,6.4393249511718755,0.383111572265625,7.822235107421876,1713734086632.0
13.704999999999998,7.667913818359375,0.4478607177734375,7.555313110351563,1713734086642.0
13.715000000000003,7.285549926757813,0.44322509765625,5.345767211914063,1713734086652.0
13.725,6.856231689453126,0.5313018798828125,5.233166503906251,1713734086662.0
13.735,7.290484619140625,0.3865509033203125,7.242932128906251,1713734086672.0
13.745000000000005,7.78245849609375,-0.15791015625,7.524060058593751,1713734086682.0
13.757999999999996,6.728228759765625,-0.7046142578125001,6.85294189453125,1713734086695.0
13.765,6.627142333984375,-0.8426361083984376,5.9388275146484375,1713734086702.0
13.775999999999996,6.33853759765625,-0.2447906494140625,7.801898193359375,1713734086713.0
13.786,6.7114807128906255,0.603826904296875,8.450735473632813,1713734086723.0
13.795999999999992,7.065432739257813,0.8528045654296875,7.388729858398438,1713734086733.0
13.805999999999996,7.0733581542968755,0.6386688232421875,5.2505126953125005,1713734086743.0
13.815999999999995,7.560397338867188,0.5689849853515625,5.5226684570312505,1713734086753.0
