time,ax,ay,az,timestamp
0.0,6.778472900390626,0.2606414794921875,7.850497436523438,1713730419298.0
0.0099999999999909,7.384094238281251,0.6177337646484375,7.578790283203125,1713730419308.0
0.019999999999996,5.643942260742188,1.0457061767578126,6.41629638671875,1713730419318.0
0.0300000000000011,6.279470825195313,0.602032470703125,6.563888549804688,1713730419328.0
0.039999999999992,7.491012573242188,-0.3853546142578125,8.331704711914064,1713730419338.0
0.0500000000000042,8.038613891601564,-0.7451385498046875,7.142892456054688,1713730419348.0
0.0600000000000022,6.307882690429688,-0.3470733642578125,6.4647460937500005,1713730419358.0
0.0699999999999931,6.165823364257813,-0.132489013671875,5.435787963867188,1713730419368.0
0.0799999999999983,7.847058105468751,0.2035186767578125,7.926312255859376,1713730419378.0
0.0900000000000034,7.809075927734376,-0.0336456298828125,6.910214233398438,1713730419388.0
0.100999999999999,7.920480346679688,0.27813720703125,5.89471435546875,1713730419399.0
0.1110000000000042,6.062045288085938,0.0765625,5.718112182617188,1713730419409.0
0.1209999999999951,6.386538696289063,0.0968994140625,7.4038330078125005,1713730419419.0
0.1310000000000002,7.055862426757813,0.228790283203125,9.328961181640626,1713730419429.0
0.1409999999999911,7.413253784179688,0.3521575927734375,6.5111022949218755,1713730419439.0
0.1509999999999962,7.083526611328126,0.497357177734375,4.969085693359375,1713730419449.0
0.1610000000000013,7.587463378906251,0.8290283203125001,5.361767578125001,1713730419459.0
0.1709999999999922,7.432394409179688,1.10477294921875,7.671203613281251,1713730419469.0
0.1809999999999973,6.366949462890625,0.5088714599609375,8.2627685546875,1713730419479.0
0.1910000000000025,6.433193969726563,-0.1170867919921875,7.368093872070313,1713730419489.0
0.2009999999999934,6.409866333007813,-0.971685791015625,6.573159790039063,1713730419499.0
0.2109999999999985,6.715518188476563,-0.7961303710937501,7.5144897460937505,1713730419509.0
0.2210000000000036,7.352990722656251,-0.1239654541015625,7.583126831054688,1713730419519.0
0.2309999999999945,7.352392578125,0.0545806884765625,6.537271118164063,1713730419529.0
0.2419999999999902,7.151864624023438,-0.0509918212890625,4.976113891601563,1713730419540.0
0.2519999999999953,7.934237670898438,-0.174957275390625,5.916098022460938,1713730419550.0
0.2620000000000004,7.720550537109376,-0.0979461669921875,6.595889282226563,1713730419560.0
0.2719999999999913,7.338485717773438,0.1078155517578125,6.880007934570313,1713730419570.0
0.2830000000000012,5.726785278320313,0.3090911865234375,7.0524230957031255,1713730419581.0
0.2920000000000016,5.5750061035156255,0.14833984375,7.552471923828126,1713730419590.0
0.3019999999999925,6.116925048828126,0.320306396484375,9.795513916015626,1713730419600.0
0.3119999999999976,7.798757934570313,0.346026611328125,7.950836181640626,1713730419610.0
0.3220000000000027,8.224636840820313,0.4409820556640625,6.0041748046875005,1713730419620.0
0.3319999999999936,6.482989501953125,0.3919342041015625,3.625204467773438,1713730419630.0
0.3419999999999987,6.181823730468751,0.732427978515625,6.525158691406251,1713730419640.0
0.3520000000000038,6.862811279296875,0.6122009277343751,9.425411987304688,1713730419650.0
0.3629999999999995,7.338336181640625,-0.3392974853515625,9.155499267578126,1713730419661.0
0.3719999999999999,6.798361206054688,-0.9194976806640626,5.546295166015625,1713730419670.0
0.3829999999999955,7.178482055664063,-0.4978057861328125,5.323187255859375,1713730419681.0
0.3930000000000007,7.163677978515626,0.5804992675781251,6.969131469726563,1713730419691.0
0.4029999999999916,7.568771362304688,0.9260772705078124,7.522714233398438,1713730419701.0
0.4130000000000038,7.861264038085938,0.5375823974609375,6.276031494140626,1713730419711.0
0.4230000000000018,7.5982299804687505,-0.357989501953125,3.6080078125,1713730419721.0
0.4329999999999927,6.878063964843751,-0.3671112060546875,6.6800781250000005,1713730419731.0
0.4449999999999932,6.248068237304688,0.3061004638671875,9.16357421875,1713730419743.0
0.4530000000000029,5.527752685546876,0.5480499267578125,10.629476928710938,1713730419751.0
0.4629999999999938,6.0071655273437505,0.0127105712890625,7.006365966796875,1713730419761.0
0.472999999999999,7.181472778320313,-0.4412811279296875,5.227932739257813,1713730419771.0
0.4830000000000041,8.05341796875,-0.0478515625,5.485433959960938,1713730419781.0
0.492999999999995,8.080184936523438,0.3698028564453125,6.486129760742188,1713730419791.0
0.5030000000000001,7.388131713867188,0.3626251220703125,7.222744750976563,1713730419801.0
0.512999999999991,6.788940429687501,-0.189312744140625,5.623007202148438,1713730419811.0
0.5240000000000009,6.456671142578125,-0.45758056640625,7.268353271484376,1713730419822.0
0.5339999999999918,6.328070068359375,-0.103179931640625,8.078540039062501,1713730419832.0
0.5450000000000017,6.398800659179688,0.1287506103515625,8.903979492187501,1713730419843.0
0.554000000000002,6.635815429687501,-0.0480010986328125,7.318447875976563,1713730419852.0
0.563999999999993,7.039862060546875,-0.1066192626953125,5.3925720214843755,1713730419862.0
0.5739999999999981,7.705596923828126,0.305950927734375,6.2224975585937505,1713730419872.0
0.5840000000000032,7.394113159179688,0.8118316650390626,6.64957275390625,1713730419882.0
0.5939999999999941,7.0838256835937505,0.7467834472656251,7.328915405273438,1713730419892.0
0.6039999999999992,6.558505249023438,0.1710693359375,6.9746643066406255,1713730419902.0
0.6140000000000043,6.56583251953125,-0.146844482421875,6.9671875000000005,1713730419912.0
0.6239999999999952,6.650619506835938,-0.1819854736328125,7.618118286132813,1713730419922.0
0.6340000000000003,6.691143798828126,-0.478814697265625,7.256539916992188,1713730419932.0
0.6460000000000008,6.788790893554688,-0.8051025390625001,6.831857299804688,1713730419944.0
0.6550000000000011,7.4172912597656255,-0.5211334228515625,6.349154663085938,1713730419953.0
0.664999999999992,6.934140014648438,-0.0393280029296875,6.917242431640625,1713730419963.0
0.6750000000000043,7.812515258789063,0.5737701416015626,7.012646484375001,1713730419973.0
0.6850000000000023,6.993804931640626,1.2408508300781251,7.400842285156251,1713730419983.0
0.6949999999999932,5.617623901367188,1.383209228515625,6.034829711914063,1713730419993.0
0.7049999999999983,7.110891723632813,1.1210723876953126,7.5258544921875,1713730420003.0
0.7150000000000034,7.501779174804688,0.457281494140625,7.311868286132813,1713730420013.0
0.7249999999999943,7.194183349609376,-0.33316650390625,6.722546386718751,1713730420023.0
0.7349999999999994,6.890774536132813,-0.6380706787109376,6.540411376953125,1713730420033.0
0.7449999999999903,6.921279907226563,-0.493170166015625,6.356182861328126,1713730420043.0
0.7549999999999955,6.5918518066406255,-0.34154052734375,7.986276245117188,1713730420053.0
0.7650000000000006,7.146481323242188,-0.375933837890625,6.836492919921875,1713730420063.0
0.7749999999999915,7.202407836914063,-0.212939453125,7.274334716796876,1713730420073.0
0.7850000000000037,6.89122314453125,0.4445709228515625,5.6647277832031255,1713730420083.0
0.7950000000000017,6.760379028320313,1.1204742431640626,7.227828979492188,1713730420093.0
0.8049999999999926,7.449441528320313,1.1315399169921876,7.451834106445313,1713730420103.0
0.8149999999999977,6.55087890625,0.6240142822265625,7.0703674316406255,1713730420113.0
0.8259999999999934,6.650619506835938,0.152227783203125,6.540859985351563,1713730420124.0
0.8359999999999985,6.690246582031251,-0.256903076171875,7.217361450195313,1713730420134.0
0.8460000000000036,7.260876464843751,-0.6613983154296875,7.319046020507813,1713730420144.0
0.8559999999999945,7.414151000976563,-0.843084716796875,6.488970947265625,1713730420154.0
0.8659999999999997,7.8871337890625,-1.0627532958984376,5.498294067382813,1713730420164.0
0.8759999999999906,6.9567199707031255,-0.74588623046875,5.774038696289063,1713730420174.0
0.8859999999999957,7.267904663085938,0.024822998046875,7.214370727539063,1713730420184.0
0.8960000000000008,6.5484863281250005,0.5535827636718751,7.978350830078125,1713730420194.0
0.9059999999999916,6.6995178222656255,0.65137939453125,7.164276123046876,1713730420204.0
0.916000000000004,6.255993652343751,0.8282806396484376,7.347607421875001,1713730420214.0
0.926000000000002,6.36485595703125,1.1180816650390626,7.204052734375001,1713730420224.0
0.9359999999999928,6.959411621093751,1.2345703125,8.113381958007814,1713730420234.0
0.945999999999998,7.120611572265625,0.5070770263671875,6.640151977539063,1713730420244.0
0.9569999999999936,7.260876464843751,-0.3704010009765625,5.825030517578125,1713730420255.0
0.9669999999999987,6.916943359375001,-0.8387481689453126,5.910565185546876,1713730420265.0
0.977000000000004,7.1870056152343755,-0.9930694580078124,7.133621215820313,1713730420275.0
0.9869999999999948,7.543051147460938,-1.0905670166015626,7.354486083984376,1713730420285.0
0.997,8.144186401367188,-1.0370330810546875,6.438577270507813,1713730420295.0
1.0069999999999908,7.276129150390625,-0.326885986328125,5.90069580078125,1713730420305.0
1.016999999999996,5.54599609375,1.1772979736328126,6.9357849121093755,1713730420315.0
1.027000000000001,5.6739990234375,2.229733276367188,9.068170166015626,1713730420325.0
1.036999999999992,7.030142211914063,1.8913330078125,8.619561767578126,1713730420335.0
1.047000000000004,6.859371948242188,0.4127197265625,6.1387573242187505,1713730420345.0
1.0570000000000022,7.8001037597656255,-0.2053131103515625,5.4289093017578125,1713730420355.0
1.066999999999993,6.88583984375,0.1637420654296875,7.051525878906251,1713730420365.0
1.0769999999999982,6.506915283203125,-0.101385498046875,7.746121215820313,1713730420375.0
1.0870000000000033,7.552920532226563,-0.9304138183593752,7.752401733398438,1713730420385.0
1.0969999999999942,7.305438232421875,-1.7736480712890623,4.718762207031251,1713730420395.0
1.106999999999999,7.43553466796875,-1.2092987060546876,5.670111083984375,1713730420405.0
1.117999999999995,6.838885498046875,0.10347900390625,7.529742431640625,1713730420416.0
1.128,6.87327880859375,0.7775878906250001,8.313760375976564,1713730420426.0
1.137999999999991,6.928009033203126,0.892132568359375,7.605856323242188,1713730420436.0
1.147999999999996,6.307583618164063,0.8897399902343751,5.433993530273438,1713730420446.0
1.1580000000000013,6.7054992675781255,1.251467895507813,7.074703979492188,1713730420456.0
1.1679999999999922,7.246371459960938,1.1225677490234376,8.125344848632814,1713730420466.0
1.1780000000000044,6.989767456054688,0.35469970703125,7.689147949218751,1713730420476.0
1.1880000000000024,6.558505249023438,-0.401654052734375,5.9189392089843755,1713730420486.0
1.1979999999999933,6.558206176757813,-0.7615875244140625,6.378164672851563,1713730420496.0
1.2079999999999984,7.270147705078125,-0.4338043212890625,7.723391723632813,1713730420506.0
1.2180000000000035,7.416693115234375,-0.521282958984375,7.567724609375,1713730420516.0
1.2279999999999944,7.521069335937501,-0.6331359863281251,5.6158294677734375,1713730420526.0
1.2390000000000043,7.4157958984375005,-0.499151611328125,4.995852661132813,1713730420537.0
1.2489999999999952,7.066928100585938,0.1021331787109375,6.638058471679688,1713730420547.0
1.2590000000000003,6.892718505859375,0.7158294677734376,8.273385620117189,1713730420557.0
1.2689999999999912,6.4856811523437505,0.7330261230468751,8.316152954101563,1713730420567.0
1.2789999999999964,6.116476440429688,0.5402740478515625,6.552822875976563,1713730420577.0
1.2890000000000017,6.6310302734375,0.5446105957031251,6.957916259765626,1713730420587.0
1.2989999999999924,7.158294677734376,0.7482788085937501,7.293325805664063,1713730420597.0
1.3089999999999975,7.311419677734375,0.3647186279296875,7.245922851562501,1713730420607.0
1.3190000000000026,6.6890502929687505,-0.322698974609375,6.021969604492188,1713730420617.0
1.3289999999999935,7.598379516601563,-0.7751953125000001,5.555865478515625,1713730420627.0
1.3389999999999986,7.450039672851563,-1.0458557128906252,7.105957031250001,1713730420637.0
1.3490000000000038,8.282208251953126,-0.8691040039062501,6.800604248046875,1713730420647.0
1.3589999999999949,6.473568725585938,-0.1801910400390625,7.6954284667968755,1713730420657.0
1.3689999999999998,4.918093872070313,0.6234161376953126,6.081185913085938,1713730420667.0
1.378999999999991,6.407025146484376,1.3573394775390626,9.044094848632811,1713730420677.0
1.3900000000000006,7.318298339843751,1.232476806640625,8.092745971679689,1713730420688.0
1.3999999999999917,7.894012451171876,0.9105255126953126,6.226684570312501,1713730420698.0
1.4100000000000037,6.864605712890626,0.7630828857421875,5.278027343750001,1713730420708.0
1.4200000000000017,7.139303588867188,0.4079345703125,5.3776184082031255,1713730420718.0
1.4299999999999926,7.296615600585938,-0.4209442138671875,8.654403686523438,1713730420728.0
1.4399999999999975,6.8625122070312505,-1.3435821533203125,7.337588500976563,1713730420738.0
1.4500000000000028,6.205899047851563,-1.4017517089843752,7.302297973632813,1713730420748.0
1.4599999999999935,6.420483398437501,-0.755157470703125,6.342575073242188,1713730420758.0
1.4699999999999989,7.230969238281251,0.2859130859375,7.700662231445313,1713730420768.0
1.480000000000004,7.851693725585938,1.0047332763671877,7.265362548828126,1713730420778.0
1.4899999999999949,6.974066162109375,1.301861572265625,5.355935668945313,1713730420788.0
1.5,6.965841674804688,1.2960296630859376,5.7997589111328125,1713730420798.0
1.509999999999991,7.037170410156251,0.7734008789062501,7.280615234375,1713730420808.0
1.519999999999996,6.832455444335938,0.1054229736328125,8.648123168945313,1713730420818.0
1.5309999999999917,6.207095336914063,-0.644500732421875,7.349252319335938,1713730420829.0
1.541000000000004,6.462203979492188,-1.06051025390625,6.609048461914063,1713730420839.0
1.551000000000002,7.051226806640625,-1.01983642578125,6.784304809570313,1713730420849.0
1.5609999999999928,7.786196899414063,-0.3581390380859375,6.994403076171875,1713730420859.0
1.570999999999998,7.5043212890625,0.176751708984375,6.344818115234376,1713730420869.0
1.581000000000003,7.3942626953125,0.533245849609375,5.3391876220703125,1713730420879.0
1.590999999999994,6.943560791015625,0.6434539794921875,6.416445922851563,1713730420889.0
1.600999999999999,6.873428344726563,0.7355682373046876,7.825225830078126,1713730420899.0
1.6110000000000042,6.239395141601563,0.7146331787109376,8.596981811523438,1713730420909.0
1.6209999999999951,6.222946166992188,0.26378173828125,7.3021484375,1713730420919.0
1.6310000000000002,6.572113037109376,-0.1625457763671875,6.956271362304688,1713730420929.0
1.6409999999999911,7.350299072265625,-0.2029205322265625,6.649722290039063,1713730420939.0
1.6509999999999962,7.170108032226563,0.0447113037109375,6.7294250488281255,1713730420949.0
1.6610000000000014,7.208987426757813,-0.1371246337890625,6.100924682617188,1713730420959.0
1.672000000000004,7.339981079101563,-0.455487060546875,6.349453735351563,1713730420970.0
1.6809999999999974,7.762420654296876,-0.5568725585937501,6.143991088867188,1713730420979.0
1.691999999999993,7.451834106445313,-0.1993316650390625,7.401589965820313,1713730420990.0
1.7019999999999982,6.904681396484375,0.2250518798828125,7.0479370117187505,1713730421000.0
1.7120000000000033,5.30673828125,0.772802734375,7.854833984375,1713730421010.0
1.7219999999999942,5.802450561523438,1.088623046875,7.667166137695313,1713730421020.0
1.731999999999999,7.488919067382813,0.8940765380859376,7.987322998046875,1713730421030.0
1.7449999999999903,7.497891235351563,0.0393280029296875,5.975314331054688,1713730421043.0
1.7519999999999951,8.030538940429688,-0.1607513427734375,5.725738525390625,1713730421050.0
1.7620000000000005,6.324481201171875,0.1586578369140625,6.419287109375,1713730421060.0
1.7719999999999914,6.793875122070313,0.12919921875,7.471124267578125,1713730421070.0
1.7820000000000036,7.211529541015626,-0.478814697265625,8.502774047851563,1713730421080.0
1.7920000000000016,7.070965576171876,-1.0675384521484377,5.502481079101563,1713730421090.0
1.8019999999999925,6.759033203125001,-0.4366455078125,6.641796875000001,1713730421100.0
1.8119999999999976,6.6935363769531255,0.38819580078125,6.9208312988281255,1713730421110.0
1.8220000000000027,7.418936157226563,0.7612884521484375,8.16168212890625,1713730421120.0
1.8329999999999984,7.2243896484375005,0.5538818359375001,6.794323730468751,1713730421131.0
1.8449999999999989,6.615029907226563,0.3828125,5.12908935546875,1713730421143.0
1.8529999999999944,6.859371948242188,0.4275238037109375,6.920083618164063,1713730421151.0
1.8629999999999995,7.190145874023438,0.264678955078125,8.0282958984375,1713730421161.0
1.8729999999999905,6.763070678710938,0.1108062744140625,8.391070556640626,1713730421171.0
1.8829999999999956,6.229226684570313,-0.2394073486328125,5.940921020507813,1713730421181.0
1.893000000000001,6.710284423828125,-0.10946044921875,6.637759399414063,1713730421191.0
1.9029999999999916,7.368542480468751,0.1160400390625,7.342523193359376,1713730421201.0
1.913000000000004,7.632473754882813,0.0811981201171875,7.148724365234376,1713730421211.0
1.9230000000000016,7.438076782226563,-0.09510498046875,5.791983032226563,1713730421221.0
1.9329999999999927,7.111340332031251,-0.3279327392578125,5.340832519531251,1713730421231.0
1.9440000000000024,6.6681152343750005,-0.2283416748046875,7.128836059570313,1713730421242.0
1.953000000000003,6.920233154296875,0.150433349609375,8.500082397460938,1713730421251.0
1.9639999999999984,6.419287109375,0.23148193359375,8.251553344726563,1713730421262.0
1.974000000000004,6.5858703613281255,0.115740966796875,5.7798706054687505,1713730421272.0
1.9839999999999949,6.9181396484375,0.4245330810546875,6.878662109375001,1713730421282.0
1.994,7.438674926757813,0.7834197998046876,6.701461791992188,1713730421292.0
2.0039999999999907,7.185659790039063,0.7120910644531251,7.424917602539063,1713730421302.0
2.013999999999996,6.6286376953125,-0.1209747314453125,5.848806762695313,1713730421312.0
2.024000000000001,7.558004760742188,-0.6455474853515626,6.393716430664063,1713730421322.0
2.033999999999992,6.923223876953125,-0.9002075195312501,7.205548095703126,1713730421332.0
2.044000000000004,8.008407592773438,-0.5851348876953125,7.406674194335938,1713730421342.0
2.054000000000002,6.551327514648438,0.0046356201171875,7.463198852539063,1713730421352.0
2.063999999999993,5.221502685546875,0.42109375,5.774935913085938,1713730421362.0
2.073999999999998,6.797613525390625,1.1094085693359377,8.453576660156251,1713730421372.0
2.084000000000003,7.517929077148438,0.9751251220703124,7.777523803710938,1713730421382.0
2.093999999999994,7.670904541015625,0.7789337158203126,6.67947998046875,1713730421392.0
2.103999999999999,6.836791992187501,0.514105224609375,5.432049560546876,1713730421402.0
2.1140000000000043,6.801800537109376,0.35888671875,5.873181152343751,1713730421412.0
2.1239999999999952,7.216763305664063,-0.253314208984375,8.5235595703125,1713730421422.0
2.134999999999991,7.032086181640626,-0.9700408935546876,7.399496459960938,1713730421433.0
2.144999999999996,6.419586181640626,-1.0986419677734376,6.856381225585938,1713730421443.0
2.155000000000001,6.587066650390626,-0.6051727294921876,6.150421142578126,1713730421453.0
2.164999999999992,7.098480224609376,0.2839691162109375,7.65684814453125,1713730421463.0
2.1750000000000043,7.8225341796875005,0.84876708984375,7.454226684570313,1713730421473.0
2.1850000000000023,6.66392822265625,1.1415588378906252,6.023016357421875,1713730421483.0
2.194999999999993,6.661236572265626,0.9989013671875,5.718411254882813,1713730421493.0
2.2049999999999983,7.243231201171875,0.680389404296875,7.491311645507813,1713730421503.0
2.2150000000000034,6.850250244140626,0.060711669921875,8.253497314453126,1713730421513.0
2.2249999999999943,6.477008056640625,-0.375634765625,7.190594482421876,1713730421523.0
2.234999999999999,6.632077026367188,-0.9066375732421876,6.239395141601563,1713730421533.0
2.2449999999999903,7.293923950195313,-0.93131103515625,6.547589111328126,1713730421543.0
2.256,7.604660034179688,-0.45458984375,7.212576293945313,1713730421554.0
2.265999999999991,7.365850830078125,0.065496826171875,6.484335327148438,1713730421564.0
2.275999999999996,7.043600463867188,0.4652069091796875,5.863311767578125,1713730421574.0
2.286000000000002,6.92471923828125,0.457879638671875,6.475662231445313,1713730421584.0
2.2959999999999923,6.807333374023438,0.746185302734375,7.913751220703125,1713730421594.0
2.3059999999999974,6.360818481445313,0.9027496337890626,8.257534790039063,1713730421604.0
2.3160000000000025,6.329864501953126,0.6189300537109376,7.27822265625,1713730421614.0
2.3259999999999934,7.002328491210938,-0.0892730712890625,6.369641113281251,1713730421624.0
2.3359999999999985,7.516583251953126,-0.3386993408203125,6.747518920898438,1713730421634.0
2.3460000000000036,6.983337402343751,-0.1822845458984375,6.549383544921875,1713730421644.0
2.3559999999999945,6.867147827148438,-0.10467529296875,6.87327880859375,1713730421654.0
2.3659999999999997,7.111489868164063,-0.5239746093750001,6.506765747070313,1713730421664.0
2.3759999999999906,7.328616333007813,-0.8151214599609375,6.594543457031251,1713730421674.0
2.3859999999999957,7.507760620117188,-0.19798583984375,6.730471801757813,1713730421684.0
2.396000000000001,7.238595581054688,0.3481201171875,6.953430175781251,1713730421694.0
2.4070000000000036,6.8012023925781255,0.7559051513671875,7.584173583984375,1713730421705.0
2.4170000000000016,5.72244873046875,0.98753662109375,6.8341003417968755,1713730421715.0
2.4269999999999925,6.413604736328126,1.1714660644531252,8.015435791015626,1713730421725.0
2.4369999999999976,7.029693603515626,0.6637908935546876,7.361514282226563,1713730421735.0
2.4470000000000027,7.6574462890625,-0.3025115966796875,6.4542785644531255,1713730421745.0
2.4569999999999936,7.450039672851563,-0.4418792724609375,6.321939086914063,1713730421755.0
2.4669999999999987,6.2120300292968755,-0.172564697265625,6.35947265625,1713730421765.0
2.477000000000004,7.087564086914063,-0.0174957275390625,7.749710083007813,1713730421775.0
2.4869999999999948,7.384841918945313,-0.5674896240234375,7.310671997070313,1713730421785.0
2.497,7.283755493164063,-0.6646881103515625,5.897705078125,1713730421795.0
2.506999999999991,6.7892395019531255,-0.094805908203125,6.048287963867188,1713730421805.0
2.516999999999996,6.731518554687501,0.5662933349609376,7.452581787109375,1713730421815.0
2.527000000000001,7.217361450195313,0.6002380371093751,8.124896240234376,1713730421825.0
2.536999999999992,7.035824584960938,0.438739013671875,7.0449462890625005,1713730421835.0
2.547000000000004,6.208291625976563,0.3760833740234375,5.6816253662109375,1713730421845.0
2.557000000000002,7.0509277343750005,0.4969085693359375,7.124649047851563,1713730421855.0
2.567999999999998,7.193136596679688,0.4355987548828125,7.95592041015625,1713730421866.0
2.578000000000003,6.882101440429688,0.1245635986328125,7.431048583984375,1713730421876.0
2.587999999999994,6.554766845703125,-0.109759521484375,6.158795166015626,1713730421886.0
2.597999999999999,6.901541137695313,-0.2175750732421875,6.314462280273438,1713730421896.0
2.608000000000004,7.364804077148438,-0.1230682373046875,7.535723876953125,1713730421906.0
2.617999999999995,7.405926513671876,-0.359783935546875,7.057806396484375,1713730421916.0
2.628,7.50491943359375,-0.3461761474609375,5.940921020507813,1713730421926.0
2.637999999999991,6.706396484375,-0.4146636962890625,5.6046142578125,1713730421936.0
2.647999999999996,6.905130004882813,0.00059814453125,7.444805908203126,1713730421946.0
2.661000000000002,6.825875854492188,0.5007965087890626,8.498587036132813,1713730421959.0
2.667999999999992,6.560598754882813,0.6593048095703126,7.439422607421876,1713730421966.0
2.679000000000002,6.554019165039063,0.6054718017578126,6.134719848632813,1713730421977.0
2.688999999999993,7.1735473632812505,0.5181427001953125,6.5783935546875005,1713730421987.0
2.698999999999998,7.165472412109375,0.557470703125,7.215567016601563,1713730421997.0
2.709000000000003,6.727630615234376,0.2062103271484375,7.335494995117188,1713730422007.0
2.718999999999994,7.13048095703125,-0.390289306640625,6.2302734375,1713730422017.0
2.728999999999999,7.431796264648438,-1.1152404785156251,6.337939453125,1713730422027.0
2.7390000000000043,8.044296264648438,-1.0172943115234376,6.546841430664063,1713730422037.0
2.7489999999999952,6.9432617187500005,-0.15970458984375,7.456320190429688,1713730422047.0
2.7609999999999957,5.290737915039063,0.5235260009765625,6.843222045898438,1713730422059.0
2.7689999999999912,6.519625854492188,0.9127685546875,7.857077026367188,1713730422067.0
2.7789999999999964,7.00487060546875,0.7826721191406251,8.090054321289063,1713730422077.0
2.7890000000000015,7.873675537109375,0.9177032470703126,6.553570556640626,1713730422087.0
2.7989999999999924,6.703256225585938,1.136474609375,6.295022583007813,1713730422097.0
2.8089999999999975,6.864755249023438,0.6166870117187501,5.3432250976562505,1713730422107.0
2.8190000000000026,7.596435546875001,-0.329278564453125,8.001229858398439,1713730422117.0
2.8299999999999983,6.92471923828125,-1.1488861083984376,6.950140380859375,1713730422128.0
2.8400000000000034,6.515438842773438,-1.0367340087890626,7.4780029296875,1713730422138.0
2.8499999999999943,6.239694213867188,-0.6793426513671875,6.670208740234376,1713730422148.0
2.859999999999999,7.147378540039063,-0.2106964111328125,7.452880859375001,1713730422158.0
2.8699999999999903,7.7675048828125,0.5323486328125,7.347756958007813,1713730422168.0
2.8799999999999955,6.79312744140625,1.104473876953125,5.5066680908203125,1713730422178.0
2.890000000000001,7.061843872070313,1.4107238769531252,6.263470458984376,1713730422188.0
2.8999999999999915,7.126293945312501,0.7369140625,6.824679565429688,1713730422198.0
2.9100000000000037,7.174594116210938,0.10228271484375,8.130279541015625,1713730422208.0
2.9200000000000017,6.262573242187501,-0.438739013671875,7.040161132812501,1713730422218.0
2.9299999999999926,6.360519409179688,-0.7168762207031251,6.935635375976563,1713730422228.0
2.9399999999999977,6.9958984375,-0.8629730224609375,7.10057373046875,1713730422238.0
2.950000000000003,7.782757568359376,-0.68726806640625,7.105508422851563,1713730422248.0
2.9599999999999937,7.169210815429688,0.04605712890625,6.250759887695313,1713730422258.0
2.969999999999999,7.171752929687501,0.5935089111328126,5.434292602539063,1713730422268.0
2.980000000000004,6.941616821289063,0.8197570800781251,7.137359619140626,1713730422278.0
2.989999999999995,7.2378479003906255,0.6537719726562501,7.308428955078125,1713730422288.0
3.0009999999999906,6.335696411132813,0.7092498779296875,8.200860595703126,1713730422299.0
3.0109999999999957,6.2135253906250005,0.3563446044921875,6.52037353515625,1713730422309.0
3.021000000000001,6.876119995117188,-0.0788055419921875,7.620361328125001,1713730422319.0
3.0309999999999917,7.396057128906251,-0.49346923828125,6.666021728515625,1713730422329.0
3.041000000000004,7.186706542968751,-0.26617431640625,6.987823486328126,1713730422339.0
3.051000000000002,6.578991699218751,-0.1275543212890625,5.8700408935546875,1713730422349.0
3.060999999999993,7.433889770507813,-0.238360595703125,6.666021728515625,1713730422359.0
3.070999999999998,7.1810241699218755,-0.3820648193359375,6.916943359375001,1713730422369.0
3.081000000000003,7.649969482421875,-0.12022705078125,6.799258422851563,1713730422379.0
3.090999999999994,6.928906250000001,0.3536529541015625,7.010104370117188,1713730422389.0
3.100999999999999,7.023114013671876,0.5579193115234375,6.976010131835938,1713730422399.0
3.111000000000004,5.481695556640625,0.951947021484375,7.672549438476563,1713730422409.0
3.120999999999995,6.62265625,0.995611572265625,7.5832763671875005,1713730422419.0
3.131,6.983337402343751,0.4299163818359375,7.706344604492188,1713730422429.0
3.141999999999996,7.843020629882813,-0.561956787109375,5.4917144775390625,1713730422440.0
3.152000000000001,7.499685668945313,-0.4400848388671875,6.8415771484375005,1713730422450.0
3.161999999999992,6.144888305664063,0.0668426513671875,6.3107238769531255,1713730422460.0
3.172000000000004,7.0258056640625,0.232080078125,8.046688842773438,1713730422470.0
3.182000000000002,7.261026000976563,-0.421990966796875,7.11552734375,1713730422480.0
3.191999999999993,7.468283081054688,-0.5802001953125,5.7260375976562505,1713730422490.0
3.201999999999998,6.624301147460938,0.03050537109375,6.350799560546876,1713730422500.0
3.213999999999998,6.958364868164063,0.5914154052734375,7.239193725585938,1713730422512.0
3.221999999999994,6.961804199218751,0.4894317626953125,8.594888305664064,1713730422520.0
3.2319999999999993,7.1750427246093755,0.2201171875,6.343771362304688,1713730422530.0
3.2419999999999902,6.216366577148438,0.2583984375,6.09808349609375,1713730422540.0
3.2519999999999953,6.968234252929688,0.283819580078125,6.766958618164063,1713730422550.0
3.262999999999991,7.427310180664063,0.3327178955078125,8.192486572265626,1713730422561.0
3.2719999999999914,6.804342651367188,0.0031402587890625,7.150668334960938,1713730422570.0
3.2830000000000013,6.670059204101563,-0.023626708984375,5.951239013671875,1713730422581.0
3.292999999999992,6.776528930664063,-0.08074951171875,6.494354248046876,1713730422591.0
3.3030000000000044,7.545443725585938,0.075067138671875,7.498040771484376,1713730422601.0
3.3130000000000024,7.05870361328125,-0.1586578369140625,7.590902709960938,1713730422611.0
3.3229999999999933,7.258035278320313,-0.112451171875,5.7409912109375005,1713730422621.0
3.3329999999999984,6.511251831054688,-0.1810882568359375,6.01434326171875,1713730422631.0
3.3430000000000035,7.191342163085938,0.0082244873046875,7.496844482421875,1713730422641.0
3.3529999999999944,6.8774658203125005,0.357989501953125,8.349050903320313,1713730422651.0
3.3629999999999995,6.726135253906251,0.4472625732421875,6.812716674804688,1713730422661.0
3.3729999999999905,6.539663696289063,0.3500640869140625,6.198422241210938,1713730422671.0
3.3829999999999956,7.376318359375,0.203668212890625,6.670358276367188,1713730422681.0
3.3930000000000007,7.137060546875,0.3194091796875,7.337139892578126,1713730422691.0
3.4029999999999916,6.780865478515626,0.1134979248046875,6.994552612304688,1713730422701.0
3.413000000000004,6.782510375976563,-0.3527557373046875,6.3226867675781255,1713730422711.0
3.4239999999999924,7.5760986328125,-0.8336639404296876,6.414651489257813,1713730422722.0
3.4339999999999975,7.457815551757813,-0.6413604736328126,7.108648681640625,1713730422732.0
3.4440000000000026,7.425665283203125,0.1423583984375,7.191940307617188,1713730422742.0
3.4539999999999935,5.4508911132812505,0.6287994384765625,6.978851318359376,1713730422752.0
3.463999999999998,6.3645568847656255,0.8940765380859376,7.060647583007813,1713730422762.0
3.474000000000004,7.1271911621093755,0.8538513183593751,8.43922119140625,1713730422772.0
3.4839999999999947,7.410412597656251,0.678594970703125,6.608898925781251,1713730422782.0
3.494,7.251156616210938,0.4927215576171875,6.433792114257813,1713730422792.0
3.5039999999999907,6.7398925781250005,0.126507568359375,5.474966430664063,1713730422802.0
3.513999999999996,7.440768432617188,-0.31402587890625,7.600473022460938,1713730422812.0
3.524000000000001,6.68785400390625,-0.6691741943359375,7.646380615234375,1713730422822.0
3.533999999999992,6.7997070312500005,-0.6540710449218751,7.105957031250001,1713730422832.0
3.544000000000004,6.4408203125000005,-0.380120849609375,6.871334838867188,1713730422842.0
3.554000000000002,7.10655517578125,0.07177734375,6.727780151367188,1713730422852.0
3.5649999999999977,7.4905639648437505,0.7452880859375001,7.674493408203125,1713730422863.0
3.575000000000003,6.959860229492188,1.038677978515625,6.0962890625,1713730422873.0
3.5849999999999937,6.82542724609375,0.9845458984375,6.405230712890625,1713730422883.0
3.594999999999999,7.099377441406251,0.29967041015625,6.518429565429688,1713730422893.0
3.605000000000004,7.306634521484376,-0.2875579833984375,7.655502319335938,1713730422903.0
3.614999999999995,6.501531982421875,-0.5897705078125001,7.326373291015625,1713730422913.0
3.625,6.560299682617188,-0.6585571289062501,6.888082885742188,1713730422923.0
3.634999999999991,6.678283691406251,-0.632537841796875,6.99290771484375,1713730422933.0
3.644999999999996,7.811318969726563,-0.3171661376953125,6.904531860351563,1713730422943.0
3.655000000000001,7.184912109375,0.3392974853515625,6.712228393554688,1713730422953.0
3.664999999999992,7.090853881835938,0.7835693359375001,5.698672485351563,1713730422963.0
3.675000000000004,6.814511108398438,0.9126190185546876,7.045843505859375,1713730422973.0
3.6850000000000023,7.1346679687500005,0.506927490234375,7.154257202148438,1713730422983.0
3.694999999999993,6.591552734375001,0.3901397705078125,8.145233154296875,1713730422993.0
3.7049999999999983,6.3630615234375005,0.0913665771484375,6.71177978515625,1713730423003.0
3.715999999999994,6.6830688476562505,-0.1622467041015625,7.487124633789063,1713730423014.0
3.725999999999999,7.377963256835938,-0.4876373291015625,6.472970581054688,1713730423024.0
3.736000000000004,7.404730224609375,-0.3194091796875,6.900643920898438,1713730423034.0
3.745999999999995,6.941317749023438,-0.17645263671875,5.674447631835938,1713730423044.0
3.756,7.277474975585938,-0.1036285400390625,6.661236572265626,1713730423054.0
3.765999999999991,7.086666870117188,-0.288604736328125,6.655703735351563,1713730423064.0
3.775999999999996,7.439273071289063,-0.0943572998046875,7.432693481445313,1713730423074.0
3.786000000000002,6.6705078125,0.2308837890625,7.118368530273438,1713730423084.0
3.795999999999992,7.077993774414063,0.5845367431640626,7.390524291992188,1713730423094.0
3.8059999999999974,5.8640594482421875,1.038677978515625,7.315756225585938,1713730423104.0
3.8160000000000025,6.577197265625,0.9939666748046876,7.072311401367188,1713730423114.0
3.8259999999999934,7.184912109375,0.6751556396484375,7.588809204101563,1713730423124.0
3.8359999999999985,7.485031127929688,-0.2740997314453125,5.913555908203126,1713730423134.0
3.846000000000003,7.524807739257813,-0.3512603759765625,6.987973022460938,1713730423144.0
3.8569999999999993,6.423922729492188,-0.2202667236328125,6.359622192382813,1713730423155.0
3.8669999999999902,6.734509277343751,-0.0997406005859375,7.700811767578125,1713730423165.0
3.8769999999999953,7.029095458984376,-0.4445709228515625,7.357327270507813,1713730423175.0
3.887000000000001,7.320541381835938,-0.438140869140625,6.435885620117188,1713730423185.0
3.8969999999999914,6.990066528320313,0.01256103515625,6.209637451171876,1713730423195.0
3.907000000000003,6.94505615234375,0.4511505126953125,6.786996459960938,1713730423205.0
3.9170000000000016,7.072610473632813,0.6039764404296876,7.636959838867188,1713730423215.0
3.926999999999993,7.031338500976563,0.4445709228515625,7.187753295898438,1713730423225.0
3.9369999999999976,6.356930541992188,0.49586181640625,6.477905273437501,1713730423235.0
3.9470000000000023,6.784603881835938,0.423187255859375,6.930401611328126,1713730423245.0
3.9569999999999936,6.98453369140625,0.269464111328125,7.723391723632813,1713730423255.0
3.9669999999999983,7.060348510742188,-0.0480010986328125,7.1690612792968755,1713730423265.0
3.977000000000004,6.7982116699218755,-0.0506927490234375,6.829464721679688,1713730423275.0
3.986999999999995,6.611141967773438,-0.15611572265625,6.1525146484375,1713730423285.0
3.997,7.29796142578125,-0.11962890625,7.405477905273438,1713730423295.0
4.007999999999996,7.770196533203125,-0.4122711181640625,6.5694213867187505,1713730423306.0
4.018000000000001,7.604360961914063,-0.4278228759765625,6.110494995117188,1713730423316.0
4.027999999999992,6.625946044921876,-0.423187255859375,5.483340454101563,1713730423326.0
4.038000000000004,6.969131469726563,-0.0067291259765625,7.661334228515625,1713730423336.0
4.048000000000002,6.454876708984376,0.4661041259765625,8.659786987304688,1713730423346.0
4.060000000000002,6.694882202148438,0.7285400390625001,7.446301269531251,1713730423358.0
4.067999999999998,6.33255615234375,0.732427978515625,6.54190673828125,1713730423366.0
4.078000000000003,7.318597412109376,0.6602020263671875,6.181076049804688,1713730423376.0
4.087999999999994,7.196426391601563,0.6122009277343751,7.1376586914062505,1713730423386.0
4.097999999999999,7.25010986328125,-0.00777587890625,6.705648803710938,1713730423396.0
4.108000000000004,7.197174072265626,-0.6455474853515626,6.202609252929688,1713730423406.0
4.117999999999995,7.1002746582031255,-1.32608642578125,6.3436218261718755,1713730423416.0
4.128,7.402188110351563,-1.0908660888671875,7.279269409179688,1713730423426.0
4.137999999999991,7.082928466796876,-0.075665283203125,7.86978759765625,1713730423436.0
4.149000000000001,5.3477111816406255,0.6389678955078125,7.171603393554688,1713730423447.0
4.160000000000004,6.570318603515625,1.2344207763671875,7.156350708007813,1713730423458.0
4.169000000000004,7.354336547851563,1.3298248291015626,7.51748046875,1713730423467.0
4.179000000000002,7.725634765625,1.239505004882813,6.446353149414063,1713730423477.0
4.188999999999993,7.132873535156251,0.8895904541015626,6.414352416992188,1713730423487.0
4.198999999999998,6.781613159179688,0.0921142578125,5.764617919921875,1713730423497.0
4.209000000000003,6.892269897460938,-0.644500732421875,8.040707397460938,1713730423507.0
4.218999999999994,6.528747558593751,-1.220513916015625,7.630230712890626,1713730423517.0
4.228999999999999,6.8969055175781255,-1.1242126464843751,7.578341674804688,1713730423527.0
4.239000000000004,6.699368286132813,-0.7270446777343751,6.286050415039063,1713730423537.0
4.248999999999995,7.320690917968751,0.192901611328125,6.500335693359376,1713730423547.0
4.260999999999996,7.542602539062501,1.0815948486328126,7.100872802734376,1713730423559.0
4.268999999999991,7.0748535156250005,1.4243316650390625,6.190795898437501,1713730423567.0
4.280000000000001,6.900344848632813,1.3032073974609375,6.607403564453126,1713730423578.0
4.289999999999992,6.814810180664063,0.3650177001953125,6.686508178710938,1713730423588.0
4.300000000000004,6.816903686523438,-0.261688232421875,8.051773071289062,1713730423598.0
4.310000000000002,6.4782043457031255,-0.6634918212890626,7.5701171875,1713730423608.0
4.319999999999993,6.472671508789063,-0.7409515380859375,7.345364379882813,1713730423618.0
4.329999999999998,7.083078002929688,-0.8738891601562501,6.314462280273438,1713730423628.0
4.340000000000003,7.946798706054688,-0.378326416015625,6.639105224609375,1713730423638.0
4.349999999999994,7.300204467773438,0.2480804443359375,5.961407470703126,1713730423648.0
4.361000000000004,7.36375732421875,0.790447998046875,6.2479187011718755,1713730423659.0
4.36999999999999,6.800753784179688,0.68427734375,6.841726684570313,1713730423668.0
4.3799999999999955,6.912158203125,0.437542724609375,7.633370971679688,1713730423678.0
4.390000000000001,6.053671264648438,0.5079742431640626,8.1048583984375,1713730423688.0
4.3999999999999915,6.531738281250001,0.3500640869140625,7.349252319335938,1713730423698.0
4.410000000000004,6.746322631835938,-0.0459075927734375,7.250558471679688,1713730423708.0
4.420999999999992,7.598379516601563,-0.3566436767578125,6.152963256835938,1713730423719.0
4.430999999999997,7.079040527343751,-0.1457977294921875,6.388333129882813,1713730423729.0
4.4410000000000025,7.221847534179688,-0.15611572265625,5.910565185546876,1713730423739.0
4.450999999999993,7.169659423828126,-0.4055419921875,7.014889526367188,1713730423749.0
4.4609999999999985,7.716961669921876,-0.5441619873046876,6.597683715820313,1713730423759.0
4.471000000000004,6.8320068359375,-0.2471832275390625,7.479049682617188,1713730423769.0
4.4809999999999945,7.127938842773438,0.5004974365234376,7.0270019531250005,1713730423779.0
4.491,5.388684082031251,1.2487762451171875,7.736849975585938,1713730423789.0
4.500999999999991,6.234609985351563,1.290347290039063,7.262371826171876,1713730423799.0
4.510999999999996,7.497741699218751,0.7070068359375,7.693634033203126,1713730423809.0
4.521000000000001,7.593743896484376,-0.1867706298828125,5.753552246093751,1713730423819.0
4.530999999999992,7.626342773437501,-0.1700225830078125,6.620114135742188,1713730423829.0
4.541000000000004,6.22489013671875,-0.11484375,6.403137207031251,1713730423839.0
4.551000000000002,7.066479492187501,-0.23148193359375,7.6478759765625,1713730423849.0
4.561999999999998,6.950439453125001,-0.7198669433593751,7.732513427734376,1713730423860.0
4.572000000000003,7.239193725585938,-0.689361572265625,5.70928955078125,1713730423870.0
4.581999999999994,6.722546386718751,-0.048150634765625,6.894064331054688,1713730423880.0
4.591999999999999,7.123004150390625,0.4705902099609375,6.698620605468751,1713730423890.0
4.602000000000004,7.1825195312500005,0.8145233154296876,8.153009033203126,1713730423900.0
4.611999999999995,6.988870239257813,0.6745574951171875,6.350650024414063,1713730423910.0
4.622,6.276480102539063,0.7197174072265625,6.356182861328126,1713730423920.0
4.631999999999991,6.948046875,0.2830718994140625,7.000234985351563,1713730423930.0
4.641999999999996,7.348355102539063,0.0160003662109375,7.80458984375,1713730423940.0
4.652000000000001,6.7697998046875005,-0.3010162353515625,7.195379638671875,1713730423950.0
4.661999999999992,6.613833618164063,-0.30924072265625,6.314013671875,1713730423960.0
4.672000000000004,6.718658447265626,-0.254510498046875,6.735107421875001,1713730423970.0
4.682000000000002,7.687054443359376,-0.0921142578125,7.384094238281251,1713730423980.0
4.691999999999993,7.3583740234375,-0.1003387451171875,6.895111083984376,1713730423990.0
4.701999999999998,7.384841918945313,0.0252716064453125,5.5560150146484375,1713730424000.0
4.712000000000003,6.493606567382813,0.09151611328125,6.276031494140626,1713730424010.0
4.722999999999999,7.1182189941406255,0.2648284912109375,7.805935668945313,1713730424021.0
4.733000000000004,6.647030639648438,0.4457672119140625,8.428155517578126,1713730424031.0
4.742999999999995,6.676788330078126,0.34453125,6.820791625976563,1713730424041.0
4.753,6.525009155273438,0.2412017822265625,6.391024780273438,1713730424051.0
4.762999999999991,7.288241577148438,0.2782867431640625,6.672152709960938,1713730424061.0
4.772999999999996,7.305886840820313,0.370849609375,7.220352172851563,1713730424071.0
4.783000000000001,7.070816040039063,-0.0497955322265625,6.47850341796875,1713730424081.0
4.792999999999992,6.856231689453126,-0.63104248046875,6.074008178710938,1713730424091.0
4.803000000000004,7.508657836914063,-0.7475311279296876,6.672302246093751,1713730424101.0
4.813000000000002,7.053469848632813,-0.5685363769531251,7.6239501953125,1713730424111.0
4.822999999999993,7.900442504882813,0.0614593505859375,7.240988159179688,1713730424121.0
4.832999999999998,5.388833618164063,0.61728515625,6.858175659179688,1713730424131.0
4.8430000000000035,5.98802490234375,1.0738189697265623,6.462203979492188,1713730424141.0
4.852999999999994,7.326223754882813,1.227093505859375,8.840725708007813,1713730424151.0
4.8629999999999995,7.404281616210938,0.6910064697265625,6.9985900878906255,1713730424161.0
4.8729999999999905,7.445553588867188,0.335260009765625,6.2150207519531255,1713730424171.0
4.884,6.471923828125001,0.0536834716796875,5.349954223632813,1713730424182.0
4.893999999999991,7.328466796875,-0.23028564453125,7.149771118164063,1713730424192.0
4.903999999999996,6.87327880859375,-0.7838684082031251,8.4996337890625,1713730424202.0
4.9140000000000015,7.025656127929688,-0.91396484375,6.621459960937501,1713730424212.0
4.923999999999992,6.237899780273438,-0.5852844238281251,6.733761596679688,1713730424222.0
4.9339999999999975,7.039862060546875,0.13936767578125,6.543850708007813,1713730424232.0
4.944000000000003,7.449291992187501,0.9257781982421877,7.932742309570313,1713730424242.0
4.9539999999999935,7.339682006835938,1.1774475097656252,6.635366821289063,1713730424252.0
4.963999999999999,6.366650390625001,1.140960693359375,5.797216796875,1713730424262.0
4.977000000000004,6.9238220214843755,0.49466552734375,6.627590942382813,1713730424275.0
4.983999999999995,7.300204467773438,-0.0465057373046875,7.901040649414063,1713730424282.0
4.994,6.744677734375,-0.5734710693359375,7.748065185546875,1713730424292.0
5.003999999999991,6.735556030273438,-0.8240936279296875,6.299209594726563,1713730424302.0
5.015000000000001,6.635366821289063,-1.0525848388671877,6.326425170898438,1713730424313.0
5.024000000000001,7.859768676757813,-0.5296569824218751,6.9731689453125005,1713730424322.0
5.035000000000004,7.323831176757813,0.1386199951171875,7.257287597656251,1713730424333.0
5.045000000000002,7.053469848632813,0.6391174316406251,5.933444213867188,1713730424343.0
5.054999999999993,6.530841064453125,0.8234954833984376,6.462503051757813,1713730424353.0
5.064999999999998,6.970776367187501,0.8314208984375001,7.6356140136718755,1713730424363.0
5.076999999999998,6.623553466796875,0.8828613281250001,8.160336303710938,1713730424375.0
5.084999999999994,6.771893310546876,0.4580291748046875,7.2483154296875005,1713730424383.0
5.094999999999999,6.571514892578126,-0.188116455078125,6.3869873046875005,1713730424393.0
5.105000000000004,7.234259033203125,-0.524273681640625,6.627441406250001,1713730424403.0
5.114999999999995,7.109695434570313,-0.3186614990234375,7.177734375000001,1713730424413.0
5.125,7.290335083007813,-0.33795166015625,6.478054809570313,1713730424423.0
5.134999999999991,7.0898071289062505,-0.5495452880859375,6.306536865234375,1713730424433.0
5.144999999999996,7.07664794921875,-0.6105560302734375,5.88035888671875,1713730424443.0
5.155000000000001,7.206594848632813,0.0441131591796875,7.470825195312501,1713730424453.0
5.166000000000004,6.98453369140625,0.4768707275390625,7.472320556640626,1713730424464.0
5.1769999999999925,7.542153930664063,0.5778076171875001,7.451385498046876,1713730424475.0
5.185999999999993,6.023764038085938,0.9404327392578126,6.698620605468751,1713730424484.0
5.195999999999998,5.756542968750001,1.2912445068359375,6.893167114257813,1713730424494.0
5.206000000000003,7.237548828125001,1.0874267578125,7.981640625000001,1713730424504.0
5.215999999999994,7.268502807617188,-0.3028106689453125,7.123751831054688,1713730424514.0
5.225999999999999,7.961752319335938,-0.945965576171875,6.156552124023438,1713730424524.0
5.236000000000004,6.363659667968751,-0.4520477294921875,6.087466430664063,1713730424534.0
5.245999999999995,6.304592895507813,0.018841552734375,7.183117675781251,1713730424544.0
5.256,7.848403930664063,-0.15491943359375,8.437576293945312,1713730424554.0
5.265999999999991,7.0883117675781255,-0.6126495361328126,5.978005981445313,1713730424564.0
5.277000000000001,7.233212280273438,-0.0897216796875,5.58726806640625,1713730424575.0
5.286000000000001,6.575851440429688,0.6044250488281251,6.6337219238281255,1713730424584.0
5.297000000000004,7.096984863281251,0.8045043945312501,8.026800537109375,1713730424595.0
5.307000000000002,7.082031250000001,0.5019927978515626,8.632421875,1713730424605.0
5.316999999999993,6.242385864257813,0.2041168212890625,5.341879272460938,1713730424615.0
5.326999999999998,6.512298583984376,0.4140655517578125,6.8221374511718755,1713730424625.0
5.337000000000003,7.1511169433593755,0.3446807861328125,7.431945800781251,1713730424635.0
5.346999999999994,7.646380615234375,0.1039276123046875,7.938125610351563,1713730424645.0
5.356999999999999,6.81107177734375,-0.3141754150390625,5.9762115478515625,1713730424655.0
5.36699999999999,6.784902954101563,-0.301165771484375,5.531939697265625,1713730424665.0
5.376999999999995,6.889877319335938,-0.236566162109375,7.453927612304688,1713730424675.0
5.3870000000000005,7.729373168945313,-0.194696044921875,7.7163635253906255,1713730424685.0
5.396999999999991,7.0353759765625,-0.2095001220703125,7.087265014648438,1713730424695.0
5.407000000000004,6.800006103515625,-0.2307342529296875,4.842428588867188,1713730424705.0
5.417000000000002,6.605010986328126,0.0826934814453125,6.9806457519531255,1713730424715.0
5.4269999999999925,7.384243774414063,0.599041748046875,8.196524047851563,1713730424725.0
5.436999999999998,6.664376831054688,0.7947845458984376,8.499185180664064,1713730424735.0
5.447999999999993,6.350949096679688,0.5987426757812501,5.6542602539062505,1713730424746.0
5.457999999999998,6.779370117187501,0.4415802001953125,6.562094116210938,1713730424756.0
5.4680000000000035,7.4875732421875005,0.1810882568359375,6.87327880859375,1713730424766.0
5.477999999999994,7.433441162109376,-0.024224853515625,7.566976928710938,1713730424776.0
5.4879999999999995,6.643441772460938,-0.7014739990234375,6.07415771484375,1713730424786.0
5.4979999999999905,7.237698364257813,-0.9770690917968752,5.914154052734375,1713730424796.0
5.507999999999996,7.199716186523438,-0.9622650146484376,7.205099487304688,1713730424806.0
5.518000000000001,7.866946411132813,-0.3437835693359375,7.549929809570313,1713730424816.0
5.527999999999992,6.515438842773438,0.7224090576171875,7.640997314453125,1713730424826.0
5.538000000000004,5.181427001953125,1.1783447265625,6.008511352539063,1713730424836.0
5.548000000000002,6.797164916992188,1.5442596435546876,8.105007934570313,1713730424846.0
5.557999999999993,7.59404296875,1.107913208007813,7.837786865234375,1713730424856.0
5.567999999999998,7.582229614257813,0.6317901611328125,6.576599121093751,1713730424866.0
5.5789999999999935,6.913952636718751,0.0551788330078125,5.666970825195313,1713730424877.0
5.588999999999999,6.788342285156251,-0.4080841064453125,5.82413330078125,1713730424887.0
5.599000000000004,7.1600891113281255,-0.8912353515625001,8.390472412109375,1713730424897.0
5.608999999999995,6.867596435546876,-1.13228759765625,7.595837402343751,1713730424907.0
5.619,6.644488525390625,-0.808392333984375,6.842474365234375,1713730424917.0
5.628999999999991,6.581234741210938,-0.082843017578125,6.234909057617188,1713730424927.0
5.638999999999996,7.356430053710938,0.8538513183593751,7.1256958007812505,1713730424937.0
5.649000000000001,7.6116882324218755,1.443023681640625,7.42955322265625,1713730424947.0
5.658999999999992,6.550131225585938,1.3778259277343752,6.192440795898438,1713730424957.0
5.669000000000004,6.79312744140625,0.89063720703125,6.237750244140625,1713730424967.0
5.679000000000002,6.9208312988281255,0.0447113037109375,7.355682373046876,1713730424977.0
5.688999999999993,7.048684692382813,-0.648388671875,7.9720703125,1713730424987.0
5.698999999999998,6.4976440429687505,-0.9494049072265626,7.321737670898438,1713730424997.0
5.709000000000003,6.862960815429688,-1.0726226806640626,6.09808349609375,1713730425007.0
5.718999999999994,7.060498046875001,-0.7977752685546876,6.711032104492188,1713730425017.0
5.728999999999999,8.166766357421876,-0.093310546875,6.58377685546875,1713730425027.0
5.739999999999995,7.070516967773438,0.5550781250000001,6.594244384765625,1713730425038.0
5.75,6.9755615234375,0.822149658203125,5.7694030761718755,1713730425048.0
5.759999999999991,6.698770141601563,0.8877960205078126,7.480245971679688,1713730425058.0
5.769999999999996,6.715817260742188,0.6495849609375001,7.724288940429688,1713730425068.0
5.780000000000001,6.424819946289063,0.6122009277343751,8.447595214843751,1713730425078.0
5.789999999999992,6.308331298828126,0.17884521484375,6.748416137695313,1713730425088.0
5.800000000000004,7.066329956054688,-0.190509033203125,6.900494384765626,1713730425098.0
5.810000000000002,7.5010314941406255,-0.4242340087890625,6.161636352539063,1713730425108.0
5.819999999999993,7.551574707031251,-0.369952392578125,6.577645874023438,1713730425118.0
5.829999999999998,6.941168212890625,-0.42109375,6.097485351562501,1713730425128.0
5.840000000000003,7.123004150390625,-0.529058837890625,6.538467407226563,1713730425138.0
5.849999999999994,7.350149536132813,-0.43843994140625,6.829315185546876,1713730425148.0
5.859999999999999,7.042703247070313,-0.1613494873046875,7.558154296875,1713730425158.0
5.86999999999999,7.185958862304688,0.52457275390625,7.303045654296875,1713730425168.0
5.8799999999999955,6.0221191406250005,1.2547576904296875,7.441815185546876,1713730425178.0
5.890999999999991,5.751010131835938,1.53902587890625,7.003973388671875,1713730425189.0
5.900999999999996,7.424319458007813,1.158306884765625,7.409664916992188,1713730425199.0
5.911000000000001,7.205697631835938,0.0644500732421875,6.933541870117188,1713730425209.0
5.920999999999992,7.948742675781251,-0.5395263671875,6.036325073242188,1713730425219.0
5.930999999999997,6.4722229003906255,-0.433953857421875,6.782211303710938,1713730425229.0
5.9410000000000025,6.466989135742188,-0.45279541015625,6.8834472656250005,1713730425239.0
5.950999999999993,7.441366577148438,-0.6507812500000001,8.171252441406251,1713730425249.0
5.9609999999999985,7.100125122070313,-0.8545989990234376,5.9896697998046875,1713730425259.0
5.971000000000004,7.2842041015625005,-0.128302001953125,6.276181030273438,1713730425269.0
5.9809999999999945,6.725836181640625,0.504833984375,6.390426635742188,1713730425279.0
5.991,7.176687622070313,0.9666015625,7.719952392578126,1713730425289.0
6.000999999999991,7.0353759765625,0.8698516845703126,7.839581298828126,1713730425299.0
6.010999999999996,6.319097900390625,0.7316802978515625,6.328817749023438,1713730425309.0
6.021000000000001,6.390127563476563,0.6114532470703126,6.869390869140625,1713730425319.0
6.030999999999992,7.3488037109375,0.1709197998046875,7.5019287109375,1713730425329.0
6.042000000000002,7.073507690429688,-0.21473388671875,7.641296386718751,1713730425340.0
6.0519999999999925,6.821838378906251,-0.485693359375,6.244030761718751,1713730425350.0
6.061999999999998,6.650619506835938,-0.363970947265625,6.4961486816406255,1713730425360.0
6.072000000000003,7.342074584960938,-0.343035888671875,6.791781616210938,1713730425370.0
6.081999999999994,7.78245849609375,-0.310137939453125,7.170407104492188,1713730425380.0
6.091999999999999,7.3948608398437505,-0.3061004638671875,5.738748168945313,1713730425390.0
6.102000000000004,6.875820922851563,0.058319091796875,6.2003662109375,1713730425400.0
6.111999999999995,6.513046264648438,0.2726043701171875,6.933840942382813,1713730425410.0
6.122,6.877615356445313,0.6105560302734375,8.7388916015625,1713730425420.0
6.131999999999991,6.333453369140625,0.6639404296875,7.922125244140625,1713730425430.0
6.141999999999996,6.503176879882813,0.6836791992187501,6.589608764648438,1713730425440.0
6.152000000000001,7.036871337890625,0.545208740234375,6.194235229492188,1713730425450.0
6.161999999999992,7.710083007812501,0.2253509521484375,6.866400146484375,1713730425460.0
6.172000000000004,7.219454956054688,-0.1710693359375,6.755145263671875,1713730425470.0
6.182999999999993,6.755593872070313,-0.6591552734375,6.252703857421875,1713730425481.0
6.192999999999998,7.236203002929688,-0.8737396240234375,6.393716430664063,1713730425491.0
6.203000000000003,7.317251586914063,-1.0608093261718752,7.3215881347656255,1713730425501.0
6.212999999999994,7.759280395507813,-0.4708892822265625,7.352990722656251,1713730425511.0
6.222999999999999,6.0131469726562505,0.6299957275390625,7.207342529296875,1713730425521.0
6.233000000000004,5.456423950195313,1.429864501953125,6.578692626953125,1713730425531.0
6.242999999999995,7.199417114257813,1.6061676025390623,8.223141479492188,1713730425541.0
6.253,7.362112426757813,0.9099273681640626,7.449740600585938,1713730425551.0
6.262999999999991,7.850347900390625,0.5244232177734376,6.01434326171875,1713730425561.0
6.275999999999996,6.442016601562501,0.246136474609375,6.011502075195313,1713730425574.0
6.283000000000001,6.940420532226563,-0.3294281005859375,6.3675476074218755,1713730425581.0
6.292999999999992,7.259979248046876,-1.0943054199218751,8.597280883789063,1713730425591.0
6.303000000000004,6.793426513671876,-1.3567413330078126,6.734060668945313,1713730425601.0
6.313000000000002,6.578991699218751,-0.6817352294921876,6.926513671875001,1713730425611.0
6.323999999999998,6.682171630859376,0.027813720703125,6.367248535156251,1713730425622.0
6.334000000000003,7.6215576171875,0.8617767333984375,7.495947265625,1713730425632.0
6.343999999999994,7.400543212890626,1.26029052734375,7.12449951171875,1713730425642.0
6.353999999999999,6.537570190429688,1.3972656250000002,5.75714111328125,1713730425652.0
6.364000000000004,6.580337524414063,0.9616668701171877,6.6740966796875005,1713730425662.0
6.375999999999991,7.236950683593751,0.0662445068359375,7.635314941406251,1713730425674.0
6.384,6.916644287109375,-0.6503326416015626,8.136709594726563,1713730425682.0
6.393999999999991,6.572561645507813,-0.9893310546875,6.28470458984375,1713730425692.0
6.403999999999996,6.5275512695312505,-0.983349609375,6.616375732421876,1713730425702.0
6.4140000000000015,7.621707153320313,-0.7273437500000001,6.793276977539063,1713730425712.0
6.423999999999992,7.858871459960938,-0.0943572998046875,7.188052368164063,1713730425722.0
6.4339999999999975,7.011599731445313,0.4628143310546875,5.648876953125001,1713730425732.0
6.444000000000003,6.703555297851563,0.9909759521484376,6.336294555664063,1713730425742.0
6.4539999999999935,6.8619140625,0.9027496337890626,7.24173583984375,1713730425752.0
6.465000000000003,6.862362670898438,0.75665283203125,8.502774047851563,1713730425763.0
6.475999999999999,6.378164672851563,0.4942169189453125,7.5019287109375,1713730425774.0
6.484999999999999,6.255545043945313,0.1048248291015625,6.807931518554688,1713730425783.0
6.49499999999999,7.174295043945313,-0.312530517578125,6.552224731445313,1713730425793.0
6.5049999999999955,7.695578002929688,-0.46954345703125,7.017431640625,1713730425803.0
6.515000000000001,7.187753295898438,-0.4379913330078125,6.394613647460938,1713730425813.0
6.5249999999999915,6.8879333496093755,-0.290399169921875,6.0544189453125,1713730425823.0
6.535000000000004,6.836941528320313,-0.2696136474609375,6.591104125976563,1713730425833.0
6.545000000000002,7.330859375,-0.2492767333984375,7.241586303710938,1713730425843.0
6.554999999999993,7.319644165039063,0.06400146484375,7.40323486328125,1713730425853.0
6.564999999999998,7.291680908203125,0.34931640625,6.641497802734375,1713730425863.0
6.575999999999993,6.695779418945313,0.8378509521484375,7.096685791015625,1713730425874.0
6.584999999999994,5.720654296875001,1.2433929443359375,7.061843872070313,1713730425883.0
6.594999999999999,6.67349853515625,1.1533721923828126,8.019174194335939,1713730425893.0
6.6059999999999945,7.150668334960938,0.2202667236328125,7.310821533203126,1713730425904.0
6.616,7.5713134765625005,-0.8019622802734375,5.9204345703125005,1713730425914.0
6.625999999999991,7.420730590820313,-0.55029296875,6.626693725585938,1713730425924.0
6.635999999999996,5.9772583007812505,-0.0740203857421875,6.878363037109375,1713730425934.0
6.646000000000001,7.374673461914063,0.055926513671875,7.781112670898438,1713730425944.0
6.655999999999992,7.280914306640626,-0.4581787109375,6.8879333496093755,1713730425954.0
6.666000000000004,7.362261962890625,-0.5061798095703125,5.1567535400390625,1713730425964.0
6.676000000000002,7.009805297851563,0.2080047607421875,6.593197631835938,1713730425974.0
6.685999999999993,6.706845092773438,0.5758636474609375,7.498040771484376,1713730425984.0
6.695999999999998,7.073956298828126,0.5438629150390626,8.504867553710938,1713730425994.0
6.706000000000003,6.5448974609375,0.3034088134765625,6.605459594726563,1713730426004.0
6.715999999999994,6.282012939453126,0.43126220703125,6.214422607421875,1713730426014.0
6.725999999999999,7.015188598632813,0.530853271484375,7.412805175781251,1713730426024.0
6.736000000000004,7.444955444335938,0.3213531494140625,7.582528686523438,1713730426034.0
6.747,7.015786743164063,0.0007476806640625,6.919635009765625,1713730426045.0
6.756999999999991,6.842474365234375,-0.303558349609375,5.5096588134765625,1713730426055.0
6.766999999999996,6.769650268554688,-0.1909576416015625,6.960009765625,1713730426065.0
6.777000000000001,7.429403686523438,-0.2794830322265625,7.590005493164063,1713730426075.0
6.786999999999992,7.280764770507813,-0.3632232666015625,7.4803955078125,1713730426085.0
6.797000000000004,7.13646240234375,-0.3599334716796875,5.312869262695313,1713730426095.0
6.807000000000002,6.515737915039063,-0.1064697265625,6.379211425781251,1713730426105.0
6.816999999999993,7.052572631835938,0.42528076171875,7.636810302734376,1713730426115.0
6.826999999999998,6.9516357421875,0.8426361083984376,8.617617797851564,1713730426125.0
6.837000000000003,6.522167968750001,0.68427734375,6.570468139648438,1713730426135.0
6.846999999999994,6.8266235351562505,0.447412109375,6.082232666015625,1713730426145.0
6.856999999999999,7.061843872070313,0.2693145751953125,6.722097778320313,1713730426155.0
6.86699999999999,7.335195922851563,0.2349212646484375,7.48099365234375,1713730426165.0
6.876999999999995,6.70340576171875,-0.261688232421875,7.217959594726563,1713730426175.0
6.8870000000000005,6.966738891601563,-0.95882568359375,5.610296630859375,1713730426185.0
6.897999999999996,7.447946166992188,-1.0160980224609375,6.725686645507813,1713730426196.0
6.908000000000001,7.4684326171875,-0.614593505859375,7.037619018554688,1713730426206.0
6.917999999999992,7.649819946289063,0.2582489013671875,7.5760986328125,1713730426216.0
6.928000000000004,5.593997192382813,0.8315704345703125,6.778622436523438,1713730426226.0
6.938000000000002,5.961407470703126,1.3075439453125002,6.789389038085938,1713730426236.0
6.947999999999993,7.110592651367188,1.3959197998046875,8.518176269531251,1713730426246.0
6.957999999999998,7.294522094726563,0.775494384765625,7.111639404296875,1713730426256.0
6.9680000000000035,7.713671875,0.2325286865234375,6.370986938476563,1713730426266.0
6.977999999999994,6.4976440429687505,-0.233575439453125,5.415750122070313,1713730426276.0
6.9879999999999995,7.304989624023438,-0.4629638671875,6.952981567382813,1713730426286.0
6.9979999999999905,6.935485839843751,-0.8698516845703126,8.204000854492188,1713730426296.0
7.007999999999996,6.9103637695312505,-0.99112548828125,6.838436889648438,1713730426306.0
7.018000000000001,6.573608398437501,-0.5190399169921875,6.833651733398438,1713730426316.0
7.027999999999992,6.762023925781251,0.249127197265625,6.429904174804688,1713730426326.0
7.038000000000004,7.430300903320313,1.167279052734375,7.839132690429688,1713730426336.0
7.048999999999992,7.1908935546875,1.385601806640625,6.961355590820313,1713730426347.0
7.0589999999999975,6.653012084960938,1.149932861328125,5.8221893310546875,1713730426357.0
7.069000000000003,6.91514892578125,0.4801605224609375,6.578692626953125,1713730426367.0
7.0789999999999935,7.217660522460938,-0.2848663330078125,7.339233398437501,1713730426377.0
7.088999999999999,6.804791259765626,-0.77100830078125,8.08631591796875,1713730426387.0
7.099000000000004,6.701162719726563,-1.0430145263671875,6.483139038085938,1713730426397.0
7.108999999999995,6.524111938476563,-0.9180023193359376,6.720303344726563,1713730426407.0
7.119,7.564285278320313,-0.453692626953125,6.637460327148438,1713730426417.0
7.128999999999991,7.643988037109375,0.3599334716796875,7.088012695312501,1713730426427.0
7.138999999999996,7.2243896484375005,0.7765411376953125,5.8431243896484375,1713730426437.0
7.149000000000001,6.747967529296876,0.96600341796875,6.44022216796875,1713730426447.0
7.158999999999992,6.630432128906251,0.858038330078125,7.329513549804688,1713730426457.0
7.169000000000004,6.600674438476563,0.75784912109375,8.474810791015626,1713730426467.0
7.179000000000002,6.483587646484375,0.2594451904296875,7.672998046875,1713730426477.0
7.191999999999993,6.841278076171876,-0.3506622314453125,6.472073364257813,1713730426490.0
7.200000000000003,7.077096557617188,-0.60950927734375,6.383248901367188,1713730426498.0
7.209999999999994,7.442263793945313,-0.357391357421875,6.703854370117188,1713730426508.0
7.219999999999999,7.096685791015625,-0.1804901123046875,6.788641357421875,1713730426518.0
7.230000000000004,7.305139160156251,-0.304156494140625,6.232366943359375,1713730426528.0
7.239999999999995,6.855633544921876,-0.3744384765625,6.353042602539063,1713730426538.0
7.25,7.262969970703126,0.0179443359375,6.811520385742188,1713730426548.0
7.259999999999991,6.861465454101563,0.4305145263671875,7.944406127929688,1713730426558.0
7.269999999999996,7.641595458984376,0.4852447509765625,7.1526123046875005,1713730426568.0
7.280000000000001,5.94017333984375,0.8119812011718751,7.265213012695313,1713730426578.0
7.292000000000002,5.98802490234375,1.1004364013671877,6.382052612304688,1713730426590.0
7.300000000000004,7.12808837890625,0.93011474609375,7.916891479492188,1713730426598.0
7.310000000000002,7.480694580078126,-0.26796875,7.029843139648438,1713730426608.0
7.319999999999993,7.907321166992188,-0.8317199707031251,6.350949096679688,1713730426618.0
7.329999999999998,6.290835571289063,-0.34752197265625,6.1701599121093755,1713730426628.0
7.340999999999994,6.299359130859376,0.11903076171875,7.059451293945313,1713730426639.0
7.350999999999999,7.613333129882813,-0.0731231689453125,8.608645629882814,1713730426649.0
7.361000000000004,7.3344482421875,-0.5133575439453125,6.010305786132813,1713730426659.0
7.370999999999995,7.053619384765626,-0.14415283203125,5.672503662109375,1713730426669.0
7.381,6.856829833984375,0.4735809326171875,6.314910888671876,1713730426679.0
7.391999999999996,6.942364501953126,0.6605010986328126,8.096633911132812,1713730426690.0
7.400999999999996,7.233810424804688,0.40614013671875,8.373126220703126,1713730426699.0
7.411000000000001,6.087615966796875,0.2286407470703125,5.803945922851563,1713730426709.0
7.420999999999992,6.5993286132812505,0.2863616943359375,6.529196166992188,1713730426719.0
7.430999999999997,7.193734741210938,0.35709228515625,7.565631103515625,1713730426729.0
7.441000000000003,7.482189941406251,0.1359283447265625,7.744326782226563,1713730426739.0
7.450999999999993,6.789837646484376,-0.04725341796875,6.454727172851563,1713730426749.0
7.4609999999999985,6.6788818359375,-0.169573974609375,5.5032287597656255,1713730426759.0
7.471000000000004,7.0853210449218755,-0.1371246337890625,7.341027832031251,1713730426769.0
7.481999999999999,7.649520874023438,-0.3129791259765625,7.5402099609375,1713730426780.0
7.49199999999999,7.209585571289063,-0.26258544921875,7.059152221679688,1713730426790.0
7.501999999999995,6.477307128906251,-0.2732025146484375,5.136715698242188,1713730426800.0
7.512,6.791333007812501,0.06220703125,7.19986572265625,1713730426810.0
7.521999999999991,7.170257568359376,0.4629638671875,8.0713623046875,1713730426820.0
7.532000000000004,6.907073974609376,0.6996795654296876,8.051623535156251,1713730426830.0
7.542000000000002,6.348706054687501,0.663641357421875,5.942715454101563,1713730426840.0
7.551999999999992,6.946401977539063,0.5495452880859375,6.363659667968751,1713730426850.0
7.561999999999998,7.293325805664063,0.3195587158203125,7.157546997070313,1713730426860.0
7.572000000000003,7.3942626953125,-0.0324493408203125,7.353887939453125,1713730426870.0
7.581999999999994,6.669461059570313,-0.5327972412109375,6.4662414550781255,1713730426880.0
7.591999999999999,6.8559326171875,-1.039126586914063,5.691195678710938,1713730426890.0
7.602000000000004,7.517630004882813,-0.8776275634765626,7.353887939453125,1713730426900.0
7.611999999999995,7.520620727539063,-0.5402740478515625,7.245773315429688,1713730426910.0
7.622,7.233810424804688,0.417205810546875,7.5399108886718755,1713730426920.0
7.632999999999996,5.397207641601563,1.1683258056640626,6.2338623046875,1713730426931.0
7.643000000000001,6.328369140625001,1.6471405029296875,7.371533203125001,1713730426941.0
7.652999999999992,7.354934692382813,1.4180511474609376,8.317797851562501,1713730426951.0
7.663000000000004,7.403085327148438,0.4631134033203125,6.81944580078125,1713730426961.0
7.673000000000002,7.452581787109375,-0.060113525390625,6.044699096679688,1713730426971.0
7.682999999999993,6.308181762695313,-0.42647705078125,5.652166748046875,1713730426981.0
7.692999999999998,7.394561767578126,-0.6904083251953126,7.6804748535156255,1713730426991.0
7.703000000000003,7.0075622558593755,-1.2003265380859376,8.066128540039063,1713730427001.0
7.712999999999994,6.947897338867188,-1.0343414306640626,6.235656738281251,1713730427011.0
7.722999999999999,6.663031005859375,-0.26258544921875,6.455474853515626,1713730427021.0
7.733000000000004,6.872232055664063,0.7280914306640626,6.9492431640625005,1713730427031.0
7.742999999999995,7.440020751953125,1.5050811767578125,7.934835815429688,1713730427041.0
7.753,6.830062866210938,1.5188385009765626,6.944906616210938,1713730427051.0
7.763999999999996,6.610693359375,1.1112030029296875,5.654858398437501,1713730427062.0
7.774000000000001,6.867596435546876,0.38759765625,7.113284301757813,1713730427072.0
7.783999999999992,7.316354370117188,-0.476123046875,7.462002563476563,1713730427082.0
7.794000000000004,6.845913696289063,-1.0247711181640626,7.923321533203126,1713730427092.0
7.804000000000002,6.6310302734375,-1.3220489501953123,5.8426757812500005,1713730427102.0
7.813999999999993,7.03477783203125,-1.0747161865234376,6.599926757812501,1713730427112.0
7.823999999999998,7.682418823242188,-0.48150634765625,6.754248046875,1713730427122.0
7.834000000000003,7.510302734375,0.4580291748046875,7.0658813476562505,1713730427132.0
7.843999999999994,6.697573852539063,1.0074249267578126,5.979052734375,1713730427142.0
7.853999999999999,6.7309204101562505,1.263580322265625,6.741238403320313,1713730427152.0
7.864000000000004,6.7668090820312505,1.03778076171875,7.743878173828126,1713730427162.0
7.873999999999995,6.624899291992188,0.8538513183593751,8.397052001953126,1713730427172.0
7.884,6.231768798828125,0.410028076171875,7.346112060546876,1713730427182.0
7.893999999999991,6.816754150390626,-0.2818756103515625,6.447399902343751,1713730427192.0
7.903999999999996,7.518676757812501,-0.8707489013671875,6.471325683593751,1713730427202.0
7.914999999999992,7.748663330078125,-0.94566650390625,6.329714965820313,1713730427213.0
7.925000000000004,6.802847290039063,-0.581695556640625,6.694732666015626,1713730427223.0
7.935000000000002,6.950588989257813,-0.308343505859375,6.217114257812501,1713730427233.0
7.944999999999993,7.059750366210938,-0.2109954833984375,7.125247192382813,1713730427243.0
7.954999999999998,7.822384643554688,0.0270660400390625,6.658694458007813,1713730427253.0
7.965000000000003,6.891522216796876,0.626556396484375,7.445404052734376,1713730427263.0
7.974999999999994,6.7028076171875,1.28900146484375,7.180276489257813,1713730427273.0
7.984999999999999,5.3058410644531255,1.534539794921875,7.479946899414063,1713730427283.0
7.99499999999999,6.874176025390626,1.0774078369140625,7.58865966796875,1713730427293.0
8.004999999999995,7.206744384765625,-0.055926513671875,7.441366577148438,1713730427303.0
8.015,7.9529296875,-0.9156097412109376,5.593099975585938,1713730427313.0
8.024999999999991,7.178631591796876,-0.6608001708984376,6.775033569335938,1713730427323.0
8.035000000000004,6.064587402343751,-0.4442718505859375,6.421231079101563,1713730427333.0
8.045000000000002,7.595687866210938,-0.1921539306640625,8.164224243164064,1713730427343.0
8.054999999999993,6.912606811523438,-0.4795623779296875,6.624301147460938,1713730427353.0
8.066000000000003,7.4651428222656255,-0.0677398681640625,5.657550048828125,1713730427364.0
8.075999999999993,6.737948608398438,0.44920654296875,6.608599853515625,1713730427374.0
8.085999999999999,7.072909545898438,0.8245422363281251,7.295867919921876,1713730427384.0
8.096000000000004,6.802398681640626,0.7397552490234376,8.685656738281251,1713730427394.0
8.105999999999995,6.6262451171875005,0.4906280517578125,6.227133178710938,1713730427404.0
8.116,6.2218994140625,0.3404937744140625,6.620114135742188,1713730427414.0
8.12599999999999,7.271493530273438,-0.07117919921875,6.933990478515626,1713730427424.0
8.135999999999996,7.6221557617187505,-0.167779541015625,7.634716796875001,1713730427434.0
8.146,6.843521118164063,-0.339447021484375,6.5170837402343755,1713730427444.0
8.155999999999992,6.67349853515625,-0.17705078125,6.1182708740234375,1713730427454.0
8.166000000000004,6.995300292968751,-0.1472930908203125,6.935186767578125,1713730427464.0
8.176000000000002,7.542453002929688,-0.020635986328125,7.556060791015626,1713730427474.0
8.185999999999993,6.960308837890626,0.0333465576171875,6.879409790039063,1713730427484.0
8.195999999999998,6.788192749023438,0.234771728515625,6.0689239501953125,1713730427494.0
8.206999999999994,6.725686645507813,0.20994873046875,6.562692260742188,1713730427505.0
8.216999999999999,7.154556274414063,0.3194091796875,7.992257690429688,1713730427515.0
8.227000000000004,6.806884765625001,0.4427764892578125,7.773635864257813,1713730427525.0
8.236999999999995,6.6217590332031255,0.401953125,6.531289672851563,1713730427535.0
8.247,6.694583129882813,0.2038177490234375,6.275732421875,1713730427545.0
8.25699999999999,7.688101196289063,-0.009869384765625,7.058255004882813,1713730427555.0
8.266999999999996,7.0090576171875005,-0.1009368896484375,7.044647216796876,1713730427565.0
8.277000000000001,6.858773803710938,-0.198583984375,6.490316772460938,1713730427575.0
8.286999999999992,6.665872192382813,-0.5314514160156251,6.409567260742188,1713730427585.0
8.297000000000004,7.734008789062501,-0.6705200195312501,6.9001953125,1713730427595.0
8.307000000000002,7.207492065429688,-0.3877471923828125,7.423721313476563,1713730427605.0
8.316999999999993,7.463198852539063,0.4074859619140625,6.902288818359375,1713730427615.0
8.326999999999998,5.387786865234375,1.0519866943359375,6.875372314453125,1713730427625.0
8.337000000000003,6.444857788085938,1.2048126220703126,7.0658813476562505,1713730427635.0
8.346999999999994,7.251754760742188,0.9805084228515626,8.565728759765626,1713730427645.0
8.358000000000004,7.346560668945313,0.346026611328125,6.427810668945313,1713730427656.0
8.367999999999995,7.2737365722656255,0.1305450439453125,6.468035888671875,1713730427666.0
8.378,6.57181396484375,-0.229388427734375,5.617922973632813,1713730427676.0
8.387999999999991,7.456768798828126,-0.474627685546875,7.57908935546875,1713730427686.0
8.397999999999996,6.725238037109375,-0.864019775390625,7.85184326171875,1713730427696.0
8.408000000000001,7.0180297851562505,-0.643902587890625,6.552822875976563,1713730427706.0
8.417999999999992,6.465194702148438,-0.1921539306640625,6.68187255859375,1713730427716.0
8.428000000000004,7.2154174804687505,0.44442138671875,6.890176391601563,1713730427726.0
8.438000000000002,7.240539550781251,1.0483978271484375,7.789935302734375,1713730427736.0
8.447999999999993,7.031787109375,1.209149169921875,6.467886352539063,1713730427746.0
8.457999999999998,6.464895629882813,1.00428466796875,6.203805541992188,1713730427756.0
8.468000000000004,7.085919189453126,0.1472930908203125,6.7234436035156255,1713730427766.0
8.477999999999994,7.372879028320313,-0.4581787109375,7.7044006347656255,1713730427776.0
8.491,6.812417602539063,-0.9661529541015624,7.012347412109375,1713730427789.0
8.498999999999995,6.5813842773437505,-0.88046875,6.723294067382813,1713730427797.0
8.509,6.924868774414063,-0.8601318359375001,6.374725341796876,1713730427807.0
8.518999999999991,7.652960205078125,-0.2498748779296875,7.406524658203126,1713730427817.0
8.528999999999996,7.256240844726563,0.428570556640625,6.622357177734376,1713730427827.0
8.539000000000001,6.693237304687501,1.065594482421875,6.3256774902343755,1713730427837.0
8.548999999999992,6.689498901367188,1.1351287841796875,6.616525268554688,1713730427847.0
8.558999999999997,7.054666137695313,0.8611785888671876,7.998089599609376,1713730427857.0
8.569000000000003,6.656900024414063,0.5745178222656251,7.718008422851563,1713730427867.0
8.578999999999994,6.608898925781251,0.155517578125,6.946102905273438,1713730427877.0
8.590999999999994,6.602618408203125,-0.4604217529296875,6.50841064453125,1713730427889.0
8.599999999999994,7.645184326171876,-0.8040557861328126,6.8849426269531255,1713730427898.0
8.608999999999995,7.163528442382813,-0.6904083251953126,6.72972412109375,1713730427907.0
8.619,7.289736938476563,-0.4314117431640625,6.079541015625001,1713730427917.0
8.62899999999999,6.664227294921876,-0.3620269775390625,6.347210693359376,1713730427927.0
8.64,7.539761352539063,-0.206060791015625,6.655703735351563,1713730427938.0
8.649999999999991,7.022216796875001,0.37623291015625,7.970275878906251,1713730427948.0
8.660000000000004,7.296017456054688,0.7542602539062501,6.8918212890625,1713730427958.0
8.670000000000002,6.584524536132813,1.214532470703125,7.483236694335938,1713730427968.0
8.679999999999993,5.569622802734376,1.2975250244140626,6.420932006835938,1713730427978.0
8.691999999999993,6.847857666015625,1.0256683349609377,7.89371337890625,1713730427990.0
8.700000000000003,7.295718383789063,-0.0354400634765625,7.659689331054688,1713730427998.0
8.709999999999994,7.798309326171876,-1.033294677734375,6.0206237792968755,1713730428008.0
8.719999999999999,7.0494323730468755,-0.8225982666015625,6.436184692382813,1713730428018.0
8.730000000000004,6.187805175781251,-0.3482696533203125,6.356182861328126,1713730428028.0
8.739999999999995,7.397702026367188,-0.0521881103515625,8.102166748046876,1713730428038.0
8.75,7.232015991210938,-0.3037078857421875,6.978701782226563,1713730428048.0
8.759999999999991,7.303045654296875,-0.0943572998046875,5.515341186523438,1713730428058.0
8.769999999999996,6.757986450195313,0.4906280517578125,6.473867797851563,1713730428068.0
8.780999999999992,6.690994262695313,0.94088134765625,7.6095947265625,1713730428079.0
8.791000000000004,7.239642333984375,0.8602813720703125,8.689544677734375,1713730428089.0
8.801000000000002,6.329415893554688,0.4269256591796875,6.489270019531251,1713730428099.0
8.810999999999993,6.445755004882813,0.195892333984375,6.063241577148438,1713730428109.0
8.820999999999998,7.252352905273438,0.0623565673828125,7.242483520507813,1713730428119.0
8.831000000000003,7.42177734375,-0.15372314453125,7.445553588867188,1713730428129.0
8.840999999999994,7.063937377929688,-0.287109375,7.132424926757813,1713730428139.0
8.850999999999999,6.799557495117188,-0.5310028076171875,5.33245849609375,1713730428149.0
8.861000000000004,6.915896606445313,-0.26258544921875,6.924569702148438,1713730428159.0
8.870999999999995,7.35,-0.092413330078125,7.4905639648437505,1713730428169.0
8.881,7.390673828125,0.097796630859375,7.3248779296875,1713730428179.0
8.890999999999991,6.772640991210938,0.0554779052734375,5.690298461914063,1713730428189.0
8.900999999999996,6.683218383789063,0.1739105224609375,6.475064086914063,1713730428199.0
8.911000000000001,6.737649536132813,0.5650970458984376,7.956967163085938,1713730428209.0
8.920999999999992,7.031338500976563,0.7988220214843751,8.262020874023438,1713730428219.0
8.932000000000002,6.428707885742188,0.5031890869140625,6.868194580078126,1713730428230.0
8.941999999999993,6.990664672851563,0.110955810546875,5.82891845703125,1713730428240.0
8.951999999999998,7.172650146484376,-0.0154022216796875,6.6666198730468755,1713730428250.0
8.962000000000003,7.574902343750001,-0.069683837890625,7.039114379882813,1713730428260.0
8.971999999999994,6.8565307617187505,-0.466253662109375,7.041656494140626,1713730428270.0
8.982,7.065432739257813,-1.0489959716796875,5.567230224609375,1713730428280.0
8.99199999999999,7.129583740234375,-0.8300750732421875,7.062442016601563,1713730428290.0
9.001999999999995,7.125396728515626,-0.3372039794921875,7.135864257812501,1713730428300.0
9.012,7.563986206054688,0.5136566162109375,7.960107421875,1713730428310.0
9.021999999999991,5.880807495117188,1.1065673828125,6.71776123046875,1713730428320.0
9.032000000000004,5.758187866210938,1.4853424072265626,6.5425048828125005,1713730428330.0
9.044000000000004,7.272540283203125,1.525567626953125,8.333648681640625,1713730428342.0
9.051999999999992,7.494601440429688,0.764129638671875,7.245623779296875,1713730428350.0
9.061999999999998,7.487722778320313,-0.06759033203125,6.206796264648438,1713730428360.0
9.072000000000005,6.678134155273438,-0.578106689453125,5.582632446289063,1713730428370.0
9.082999999999998,6.964495849609375,-0.7233062744140626,6.9671875000000005,1713730428381.0
9.093000000000004,6.910064697265626,-0.9670501708984376,8.368191528320313,1713730428391.0
9.102999999999994,6.954776000976563,-0.8901885986328125,7.1735473632812505,1713730428401.0
9.113,6.715219116210938,-0.357989501953125,6.332257080078126,1713730428411.0
9.12299999999999,6.809277343750001,0.5372833251953125,6.257040405273438,1713730428421.0
9.132999999999996,7.575650024414063,1.34881591796875,7.506863403320313,1713730428431.0
9.143,7.26207275390625,1.5041839599609377,7.324130249023438,1713730428441.0
9.152999999999992,6.321640014648438,1.088922119140625,5.997296142578126,1713730428451.0
9.163000000000004,6.625946044921876,0.4951141357421875,6.9181396484375,1713730428461.0
9.173000000000002,6.9432617187500005,-0.348419189453125,7.703952026367188,1713730428471.0
9.182999999999993,7.071713256835938,-0.8402435302734376,7.934536743164063,1713730428481.0
9.192999999999998,6.747967529296876,-1.1016326904296876,6.252255249023438,1713730428491.0
9.203000000000005,6.978103637695313,-1.011163330078125,6.132028198242188,1713730428501.0
9.212999999999994,7.481741333007813,-0.5247222900390626,6.5329345703125,1713730428511.0
9.224000000000004,7.955023193359375,0.2699127197265625,6.983786010742188,1713730428522.0
9.233999999999996,6.904531860351563,0.57421875,6.093746948242188,1713730428532.0
9.244,6.976309204101563,0.6993804931640626,6.206198120117188,1713730428542.0
9.25399999999999,6.286050415039063,0.7648773193359375,7.74716796875,1713730428552.0
9.263999999999996,6.563589477539063,0.90379638671875,8.538363647460939,1713730428562.0
9.274,6.227432250976563,0.6700714111328125,8.30224609375,1713730428572.0
9.283999999999992,6.9537292480468755,0.0275146484375,6.000286865234376,1713730428582.0
9.294000000000004,7.127340698242188,-0.34273681640625,6.369342041015625,1713730428592.0
9.304000000000002,7.650119018554688,-0.2696136474609375,6.184066772460938,1713730428602.0
9.313999999999991,7.242782592773438,-0.254510498046875,7.053170776367188,1713730428612.0
9.323999999999998,7.12808837890625,-0.74169921875,5.981594848632813,1713730428622.0
9.334000000000003,7.041357421875,-0.92353515625,6.542803955078125,1713730428632.0
9.343999999999994,7.2889892578125,-0.542816162109375,6.805239868164063,1713730428642.0
9.354,6.674395751953125,0.2151824951171875,8.051174926757813,1713730428652.0
9.364999999999997,7.502377319335938,0.9081329345703124,7.649371337890625,1713730428663.0
9.375,5.548687744140626,1.486688232421875,6.880307006835938,1713730428673.0
9.384999999999993,6.130233764648438,1.675103759765625,6.439175415039063,1713730428683.0
9.394999999999996,7.575500488281251,1.1790924072265625,7.835244750976563,1713730428693.0
9.407000000000004,7.496694946289063,-0.1541717529296875,6.7114807128906255,1713730428705.0
9.414999999999992,7.613034057617188,-0.73392333984375,6.7653137207031255,1713730428713.0
9.425000000000004,6.001034545898438,-0.7318298339843751,6.046792602539063,1713730428723.0
9.435000000000002,6.8101745605468755,-0.6087615966796875,7.380654907226563,1713730428733.0
9.444999999999991,7.294671630859376,-0.8127288818359376,8.321984863281251,1713730428743.0
9.454999999999998,7.6430908203125005,-0.7185211181640625,5.6576995849609375,1713730428753.0
9.465000000000003,6.839483642578125,0.0333465576171875,5.993109130859375,1713730428763.0
9.474999999999994,6.985879516601563,0.7720550537109375,6.153561401367188,1713730428773.0
9.485,7.1077514648437505,1.2528137207031251,8.492755126953126,1713730428783.0
9.49499999999999,6.8535400390625005,0.975872802734375,7.752700805664063,1713730428793.0
9.50699999999999,5.933743286132813,0.85953369140625,6.402239990234375,1713730428805.0
9.515999999999991,6.697872924804688,0.400457763671875,6.738845825195313,1713730428814.0
9.525999999999996,7.329064941406251,0.0581695556640625,7.45347900390625,1713730428824.0
9.536,7.092050170898438,-0.433355712890625,7.659689331054688,1713730428834.0
9.545999999999992,7.027450561523438,-0.563751220703125,6.255545043945313,1713730428844.0
9.555999999999996,6.511849975585938,-0.5794525146484375,6.001034545898438,1713730428854.0
9.566000000000004,7.679129028320313,-0.4077850341796875,6.937429809570313,1713730428864.0
9.575999999999992,7.736401367187501,-0.3943267822265625,7.052124023437501,1713730428874.0
9.586,7.558004760742188,-0.1577606201171875,5.92222900390625,1713730428884.0
9.596000000000004,6.141448974609376,0.15372314453125,5.996548461914063,1713730428894.0
9.605999999999996,6.81107177734375,0.4804595947265625,7.670455932617188,1713730428904.0
9.616,6.630282592773438,0.8554962158203125,8.881997680664064,1713730428914.0
9.62599999999999,6.524859619140625,0.8179626464843751,7.547238159179688,1713730428924.0
9.635999999999996,6.400894165039063,0.7565032958984376,6.3346496582031255,1713730428934.0
9.646,7.278970336914063,0.4266265869140625,6.069073486328126,1713730428944.0
9.657000000000004,7.518377685546875,0.1413116455078125,7.09459228515625,1713730428955.0
9.667000000000002,7.3799072265625005,-0.4246826171875,6.62564697265625,1713730428965.0
9.676999999999992,6.680825805664063,-0.97138671875,6.292330932617188,1713730428975.0
9.686999999999998,7.447048950195313,-1.2013732910156252,5.984286499023438,1713730428985.0
9.697000000000005,6.971224975585938,-1.0561737060546876,7.77647705078125,1713730428995.0
9.707999999999998,7.973117065429688,-0.253314208984375,7.13646240234375,1713730429006.0
9.717,5.761328125,1.0039855957031252,7.773486328125,1713730429015.0
9.727000000000004,5.572314453125,1.7488250732421875,6.087765502929688,1713730429025.0
9.736999999999997,7.169210815429688,1.8865478515625,8.392117309570313,1713730429035.0
9.747,7.466937255859375,1.0854827880859377,7.176837158203125,1713730429045.0
9.75699999999999,7.772439575195313,0.400457763671875,6.334350585937501,1713730429055.0
9.766999999999996,6.452932739257813,-0.107965087890625,5.850900268554688,1713730429065.0
9.777,6.949542236328125,-0.7393066406250001,6.4468017578125005,1713730429075.0
9.786999999999992,7.02640380859375,-1.3701995849609376,8.668310546875,1713730429085.0
9.797000000000004,7.084274291992188,-1.43255615234375,6.666171264648438,1713730429095.0
9.807999999999993,6.486129760742188,-0.6627441406250001,6.971823120117188,1713730429106.0
9.817999999999998,6.927410888671876,0.2201171875,5.930453491210938,1713730429116.0
9.828000000000005,7.388430786132813,1.1982330322265626,7.568322753906251,1713730429126.0
9.837999999999994,7.587313842773438,1.5542785644531252,7.035076904296876,1713730429136.0
9.848,6.264068603515626,1.5328948974609375,6.22728271484375,1713730429146.0
9.858000000000004,6.558804321289063,0.8478698730468751,6.583926391601563,1713730429156.0
9.867999999999997,7.233810424804688,-0.0494964599609375,7.8129638671875,1713730429166.0
9.878,6.828717041015626,-0.8514587402343751,7.828366088867188,1713730429176.0
9.887999999999993,6.7398925781250005,-1.1252593994140625,6.431997680664063,1713730429186.0
9.897999999999996,6.616226196289063,-1.2033172607421876,6.353042602539063,1713730429196.0
9.908,7.895208740234375,-0.7666717529296876,6.697723388671876,1713730429206.0
9.917999999999992,7.591650390625,-0.0145050048828125,6.988272094726563,1713730429216.0
9.928000000000004,7.084872436523438,0.6600524902343751,5.947949218750001,1713730429226.0
9.938000000000002,6.511849975585938,1.1002868652343751,6.4782043457031255,1713730429236.0
9.948999999999998,6.960159301757813,1.0355377197265625,7.460357666015626,1713730429247.0
9.959000000000003,6.626544189453125,0.8697021484375,8.346957397460939,1713730429257.0
9.968999999999994,6.495401000976563,0.4909271240234375,7.439572143554688,1713730429267.0
9.979,6.247769165039063,0.0777587890625,6.8942138671875,1713730429277.0
9.989000000000004,7.3470092773437505,-0.3982147216796875,6.4635498046875,1713730429287.0
9.998999999999995,7.5701171875,-0.586181640625,6.958364868164063,1713730429297.0
10.009,7.470077514648438,-0.695343017578125,5.795571899414063,1713730429307.0
10.018999999999991,6.8370910644531255,-0.5132080078125001,6.502279663085938,1713730429317.0
10.028999999999996,6.931747436523438,-0.4813568115234375,6.219805908203125,1713730429327.0
10.039,7.485778808593751,-0.107666015625,7.844515991210938,1713730429337.0
10.048999999999992,7.020123291015626,0.1909576416015625,7.131826782226563,1713730429347.0
10.058999999999996,7.379159545898438,0.7539611816406251,7.176239013671876,1713730429357.0
10.069000000000004,5.640353393554688,1.460818481445313,6.824230957031251,1713730429367.0
10.078999999999994,6.0624938964843755,1.4739776611328126,7.321737670898438,1713730429377.0
10.090000000000003,7.494152832031251,0.8695526123046876,8.170504760742189,1713730429388.0
10.099999999999994,7.245922851562501,-0.4798614501953125,6.305340576171876,1713730429398.0
10.11,7.640399169921875,-0.722259521484375,6.39237060546875,1713730429408.0
10.11999999999999,6.424969482421876,-0.439337158203125,6.246871948242188,1713730429418.0
10.129999999999995,6.732116699218751,-0.338250732421875,7.457366943359376,1713730429428.0
10.14,7.690194702148438,-0.5145538330078125,7.946350097656251,1713730429438.0
10.149999999999991,6.914401245117188,-0.57362060546875,5.653512573242188,1713730429448.0
10.160000000000004,7.088162231445313,0.186322021484375,6.238796997070313,1713730429458.0
10.170000000000002,6.743032836914063,0.7360168457031251,6.964495849609375,1713730429468.0
10.179999999999993,7.227081298828126,0.8631225585937501,8.046987915039063,1713730429478.0
10.189999999999998,6.833502197265625,0.6865203857421875,7.5701171875,1713730429488.0
10.200000000000005,6.07774658203125,0.474627685546875,5.836544799804688,1713730429498.0
10.209999999999994,6.971524047851563,0.4640106201171875,7.208538818359376,1713730429508.0
10.22,7.134368896484376,0.040673828125,7.557855224609376,1713730429518.0
10.230999999999996,7.351196289062501,-0.2268463134765625,7.379757690429688,1713730429529.0
10.241,6.655404663085938,-0.4382904052734375,5.927313232421875,1713730429539.0
10.25099999999999,6.93369140625,-0.32359619140625,6.204104614257813,1713730429549.0
10.260999999999996,7.2447265625,-0.2343231201171875,7.44510498046875,1713730429559.0
10.271,7.707839965820313,-0.286212158203125,7.125845336914063,1713730429569.0
10.280999999999992,7.013244628906251,-0.1203765869140625,6.180178833007813,1713730429579.0
10.291000000000004,6.767855834960938,0.0219818115234375,5.713925170898438,1713730429589.0
10.301000000000002,6.699667358398438,0.291595458984375,7.613333129882813,1713730429599.0
10.310999999999993,7.139004516601563,0.5625549316406251,8.319891357421875,1713730429609.0
10.320999999999998,6.274685668945313,0.7775878906250001,7.84287109375,1713730429619.0
10.331000000000005,6.522616577148438,0.6570617675781251,5.837741088867188,1713730429629.0
10.340999999999994,7.084274291992188,0.4394866943359375,6.890325927734375,1713730429639.0
10.351,7.800552368164063,0.0411224365234375,6.638806152343751,1713730429649.0
10.361000000000004,7.06468505859375,-0.2459869384765625,7.127340698242188,1713730429659.0
10.370999999999997,6.658694458007813,-0.7795318603515625,5.647531127929688,1713730429669.0
10.381,7.347756958007813,-0.9727325439453126,6.926513671875001,1713730429679.0
10.391999999999996,7.255493164062501,-0.9812561035156252,7.223941040039063,1713730429690.0
10.402,7.685110473632813,-0.250323486328125,7.555462646484376,1713730429700.0
10.411999999999992,6.105111694335938,0.8822631835937501,6.833352661132813,1713730429710.0
10.422000000000004,5.398703002929688,1.4183502197265625,6.579589843750001,1713730429720.0
10.432000000000002,7.27403564453125,1.60123291015625,8.488418579101562,1713730429730.0
10.441999999999991,7.477703857421876,1.02581787109375,7.525704956054688,1713730429740.0
10.451999999999998,7.410263061523438,0.5837890625000001,6.0808868408203125,1713730429750.0
10.462000000000003,6.812268066406251,0.0366363525390625,5.610595703125,1713730429760.0
10.471999999999994,7.078143310546875,-0.57840576171875,6.642245483398438,1713730429770.0
10.482,7.158743286132813,-1.101483154296875,8.321536254882814,1713730429780.0
10.49199999999999,6.627590942382813,-1.220513916015625,7.155752563476563,1713730429790.0
10.501999999999995,6.657498168945313,-0.7141845703125,6.670657348632813,1713730429800.0
10.512999999999993,6.781314086914063,0.0192901611328125,6.566729736328125,1713730429811.0
10.522999999999996,7.545443725585938,0.9808074951171876,7.362860107421875,1713730429821.0
10.533,7.4181884765625,1.5645965576171876,7.1481262207031255,1713730429831.0
10.542999999999992,6.468035888671875,1.498651123046875,5.792132568359375,1713730429841.0
10.553000000000004,6.801052856445313,0.9446197509765626,6.677835083007813,1713730429851.0
10.563000000000002,7.059451293945313,-0.052935791015625,7.6275390625,1713730429861.0
10.572999999999992,6.908569335937501,-0.7233062744140626,8.038314819335938,1713730429871.0
10.582999999999998,6.4692321777343755,-1.093109130859375,6.602468872070313,1713730429881.0
10.593000000000004,6.818249511718751,-1.1752044677734377,6.461007690429688,1713730429891.0
10.602999999999994,7.418038940429688,-0.9102264404296876,6.609497070312501,1713730429901.0
10.613,8.07794189453125,-0.0677398681640625,6.860269165039063,1713730429911.0
10.62299999999999,6.9462524414062505,0.5570220947265625,5.842526245117188,1713730429921.0
10.632999999999996,7.125247192382813,0.917852783203125,6.0345306396484375,1713730429931.0
10.643,6.581982421875001,0.902001953125,7.502227783203126,1713730429941.0
10.652999999999992,6.597534179687501,0.91456298828125,8.44400634765625,1713730429951.0
10.664,5.9757629394531255,0.7920928955078126,8.319293212890626,1713730429962.0
10.673000000000002,6.717163085937501,0.2189208984375,6.517233276367188,1713730429971.0
10.683999999999996,7.10057373046875,-0.4047943115234375,6.576300048828125,1713730429982.0
10.694000000000004,7.69871826171875,-0.5132080078125001,6.343322753906251,1713730429992.0
10.706000000000005,7.143939208984375,-0.3300262451171875,6.577496337890626,1713730430004.0
10.714,7.290335083007813,-0.5417694091796875,5.893368530273438,1713730430012.0
10.724000000000004,7.153509521484375,-0.9254791259765626,6.465942382812501,1713730430022.0
10.733999999999996,7.424618530273438,-0.6971374511718751,6.717013549804688,1713730430032.0
10.744,6.529196166992188,0.1526763916015625,8.025604248046875,1713730430042.0
10.75399999999999,7.419683837890625,0.8478698730468751,7.471871948242188,1713730430052.0
10.763999999999996,6.181225585937501,1.3658630371093752,7.5010314941406255,1713730430062.0
10.774,5.732766723632813,1.5997375488281251,6.279919433593751,1713730430072.0
10.783999999999992,7.201510620117188,1.4412292480468751,7.502975463867188,1713730430082.0
10.794000000000004,7.2886901855468755,0.2830718994140625,7.2752319335937505,1713730430092.0
10.807000000000002,7.918685913085938,-0.8556457519531251,6.425418090820313,1713730430105.0
10.814999999999998,6.728527832031251,-0.9455169677734376,6.438427734375001,1713730430113.0
10.825000000000005,6.19139404296875,-0.6413604736328126,6.568673706054688,1713730430123.0
10.834999999999994,7.194033813476563,-0.5374328613281251,8.123849487304689,1713730430133.0
10.845,7.482937622070313,-0.7141845703125,6.821838378906251,1713730430143.0
10.855000000000004,7.305737304687501,-0.251519775390625,5.7514587402343755,1713730430153.0
10.864999999999997,6.753799438476563,0.6540710449218751,5.99161376953125,1713730430163.0
10.875,6.736602783203126,1.3115814208984375,7.733261108398438,1713730430173.0
10.884999999999993,7.402935791015626,1.1303436279296877,8.46673583984375,1713730430183.0
10.894999999999996,6.110195922851563,0.654669189453125,6.662582397460938,1713730430193.0
10.905999999999992,6.440670776367188,0.40255126953125,6.240890502929688,1713730430204.0
10.914999999999992,6.926962280273438,0.169573974609375,7.484133911132813,1713730430213.0
10.925000000000004,7.380804443359375,-0.238360595703125,7.59703369140625,1713730430223.0
10.935000000000002,7.058554077148438,-0.5266662597656251,7.036721801757813,1713730430233.0
10.944999999999991,6.904980468750001,-0.6600524902343751,5.358477783203125,1713730430243.0
10.954999999999998,6.937579345703125,-0.3802703857421875,6.621459960937501,1713730430253.0
10.965999999999994,7.753897094726563,-0.2382110595703125,7.173995971679688,1713730430264.0
10.976,7.718157958984375,-0.1652374267578125,7.0105529785156255,1713730430274.0
10.986000000000004,6.927410888671876,-0.12261962890625,5.272793579101563,1713730430284.0
10.995999999999997,6.159393310546876,0.212042236328125,6.871035766601563,1713730430294.0
11.006,6.699218750000001,0.7408020019531251,8.413351440429688,1713730430304.0
11.015999999999991,6.673648071289063,0.93848876953125,9.011346435546876,1713730430314.0
11.025999999999996,6.514990234375,0.7213623046875001,6.420483398437501,1713730430324.0
11.036,6.837838745117188,0.4589263916015625,5.888882446289063,1713730430334.0
11.045999999999992,7.400842285156251,0.2869598388671875,6.306835937500001,1713730430344.0
11.055999999999996,7.748812866210938,-0.0055328369140625,7.184613037109376,1713730430354.0
11.066000000000004,6.7997070312500005,-0.8154205322265625,6.803295898437501,1713730430364.0
11.075999999999992,7.256390380859376,-1.3123291015625,5.613735961914063,1713730430374.0
11.086,6.816604614257813,-1.222607421875,7.198519897460938,1713730430384.0
11.096000000000004,7.580435180664063,-0.566741943359375,7.430001831054688,1713730430394.0
11.107,7.2124267578125005,0.6733612060546875,8.135214233398438,1713730430405.0
11.11699999999999,5.142098999023438,1.3809661865234375,6.197225952148438,1713730430415.0
11.126999999999995,6.541607666015626,1.8967163085937504,7.0673767089843755,1713730430425.0
11.137,7.39127197265625,1.544558715820313,8.084671020507812,1713730430435.0
11.146999999999991,7.780963134765625,0.6926513671875001,6.739593505859376,1713730430445.0
11.157000000000004,7.201809692382813,-0.0515899658203125,6.386688232421876,1713730430455.0
11.167000000000002,6.404034423828126,-0.6270050048828125,5.314364624023438,1713730430465.0
11.176999999999992,7.135565185546875,-1.027313232421875,8.027398681640626,1713730430475.0
11.186999999999998,6.830960083007813,-1.4078826904296875,7.804739379882813,1713730430485.0
11.197000000000005,7.1122375488281255,-1.0371826171875,7.098031616210938,1713730430495.0
11.206999999999994,6.628787231445313,-0.2136871337890625,5.9747161865234375,1713730430505.0
11.217,7.016384887695313,0.88345947265625,6.503775024414063,1713730430515.0
11.227000000000004,7.687802124023438,1.63831787109375,7.742532348632813,1713730430525.0
11.236999999999997,6.8200439453125,1.5825408935546876,6.806286621093751,1713730430535.0
11.247,6.38638916015625,1.2469818115234377,6.329714965820313,1713730430545.0
11.257999999999996,6.6307312011718755,0.3297271728515625,7.105957031250001,1713730430556.0
11.268,7.177883911132813,-0.515301513671875,7.931546020507813,1713730430566.0
11.277999999999992,6.779519653320313,-1.1183807373046877,7.439273071289063,1713730430576.0
11.288000000000004,7.087414550781251,-1.3244415283203126,6.079541015625001,1713730430586.0
11.298000000000002,6.764266967773438,-1.08802490234375,6.299807739257813,1713730430596.0
11.307999999999993,8.092596435546875,-0.3696533203125,6.567028808593751,1713730430606.0
11.317999999999998,7.288092041015625,0.3692047119140625,6.989318847656251,1713730430616.0
11.328000000000005,7.203903198242188,0.7853637695312501,5.809329223632813,1713730430626.0
11.337999999999994,6.35887451171875,1.036135864257813,6.984683227539063,1713730430636.0
11.348,6.711181640625001,0.9989013671875,7.768252563476563,1713730430646.0
11.358000000000004,6.331060791015625,0.954638671875,8.722741699218751,1713730430656.0
11.367999999999997,6.420184326171875,0.492572021484375,7.374224853515625,1713730430666.0
11.378,6.794174194335938,-0.1040771484375,6.485232543945313,1713730430676.0
11.388999999999996,7.598080444335938,-0.529058837890625,6.039315795898438,1713730430687.0
11.399,7.614828491210938,-0.6015838623046875,6.546691894531251,1713730430697.0
11.408999999999992,7.228576660156251,-0.6458465576171876,6.298013305664063,1713730430707.0
11.419000000000004,6.8580261230468755,-0.6724639892578126,6.548187255859376,1713730430717.0
11.429000000000002,7.028048706054688,-0.6821838378906251,6.349304199218751,1713730430727.0
11.438999999999991,7.256390380859376,-0.2385101318359375,7.776028442382813,1713730430737.0
11.448999999999998,7.362411499023438,0.409429931640625,7.230072021484376,1713730430747.0
11.459000000000003,7.087115478515625,1.227392578125,7.5369201660156255,1713730430757.0
11.468999999999994,5.3536926269531255,1.7850128173828126,6.236553955078126,1713730430767.0
11.479,6.309826660156251,1.6130462646484376,7.419982910156251,1713730430777.0
11.489000000000004,7.351046752929688,0.66812744140625,8.227178955078125,1713730430787.0
11.498999999999995,7.587014770507813,-0.7212127685546875,6.456970214843751,1713730430797.0
11.509999999999993,7.428805541992188,-0.9380401611328124,6.505718994140626,1713730430808.0
11.518999999999991,6.2030578613281255,-0.677398681640625,5.984286499023438,1713730430817.0
11.53,7.126144409179688,-0.48031005859375,7.625445556640625,1713730430828.0
11.539999999999992,7.536621093750001,-0.58558349609375,7.589556884765625,1713730430838.0
11.550000000000004,7.328317260742188,-0.4693939208984375,5.510256958007813,1713730430848.0
11.560000000000002,6.90079345703125,0.2356689453125,6.079840087890625,1713730430858.0
11.569999999999991,6.5410095214843755,0.8945251464843751,7.196575927734376,1713730430868.0
11.579999999999998,7.146481323242188,1.1650360107421875,8.692984008789063,1713730430878.0
11.590000000000003,6.519476318359375,0.959423828125,7.723092651367188,1713730430888.0
11.599999999999994,6.032437133789063,0.5775085449218751,5.67698974609375,1713730430898.0
11.61,7.074404907226563,0.3409423828125,7.141546630859375,1713730430908.0
11.622,7.45347900390625,-0.02213134765625,7.471572875976563,1713730430920.0
11.629999999999995,7.034329223632813,-0.2776885986328125,7.452731323242188,1713730430928.0
11.64,6.983337402343751,-0.6386688232421875,5.495602416992188,1713730430938.0
11.649999999999991,7.0853210449218755,-0.669622802734375,6.255096435546876,1713730430948.0
11.660000000000004,7.3942626953125,-0.5734710693359375,6.9821411132812505,1713730430958.0
11.670000000000002,7.554116821289063,-0.2630340576171875,7.4427124023437505,1713730430968.0
11.679999999999993,6.845166015625001,0.032000732421875,6.260031127929688,1713730430978.0
11.691000000000004,6.6337219238281255,0.208154296875,6.163879394531251,1713730430989.0
11.700999999999992,6.667816162109376,0.5408721923828126,7.627838134765626,1713730430999.0
11.711,6.897952270507813,1.0645477294921877,8.350695800781251,1713730431009.0
11.721999999999994,6.271395874023438,1.0612579345703126,7.729373168945313,1713730431020.0
11.730999999999996,7.028347778320313,0.624462890625,5.8052917480468755,1713730431029.0
11.741,7.140350341796876,0.0605621337890625,6.57420654296875,1713730431039.0
11.75099999999999,7.5144897460937505,-0.1878173828125,6.582580566406251,1713730431049.0
11.760999999999996,6.830960083007813,-0.3659149169921875,7.335345458984375,1713730431059.0
11.771,6.8909240722656255,-1.0673889160156251,5.986080932617188,1713730431069.0
11.780999999999992,7.5617431640625,-1.32728271484375,6.5768981933593755,1713730431079.0
11.791000000000004,7.107302856445313,-1.0116119384765625,6.897952270507813,1713730431089.0
11.801000000000002,7.618417358398438,0.10467529296875,7.3822998046875,1713730431099.0
11.810999999999993,6.340780639648438,1.3000671386718752,7.518676757812501,1713730431109.0
11.822999999999992,5.39586181640625,1.6616455078125,6.613983154296876,1713730431121.0
11.831999999999994,7.00487060546875,1.8213500976562504,8.157046508789064,1713730431130.0
11.842,7.17593994140625,1.1787933349609376,7.254745483398438,1713730431140.0
11.852000000000004,7.723391723632813,0.3739898681640625,6.4874755859375,1713730431150.0
11.861999999999997,6.904681396484375,-0.460272216796875,5.97606201171875,1713730431160.0
11.872,6.938177490234375,-0.9845458984375,6.138906860351563,1713730431170.0
11.88199999999999,6.951934814453126,-1.2060089111328125,8.234506225585939,1713730431180.0
11.891999999999996,6.818997192382813,-1.2308319091796875,7.136013793945313,1713730431190.0
11.902,6.905728149414063,-0.626556396484375,7.204650878906251,1713730431200.0
11.911999999999992,6.740939331054688,0.2196685791015625,5.977856445312501,1713730431210.0
11.922000000000004,7.2602783203125005,1.343133544921875,7.1720520019531255,1713730431220.0
11.932000000000002,7.369589233398438,1.777835083007813,7.331307983398438,1713730431230.0
11.941999999999991,6.617422485351563,1.5077728271484376,6.443511962890626,1713730431240.0
11.951999999999998,6.525906372070313,0.8632720947265625,6.6860595703125005,1713730431250.0
11.962000000000003,6.995449829101563,-0.1951446533203125,7.3215881347656255,1713730431260.0
11.973,6.838137817382813,-0.8385986328125,7.94754638671875,1713730431271.0
11.983000000000004,6.895111083984376,-1.2679168701171877,6.543701171875001,1713730431281.0
11.992999999999997,7.015338134765625,-1.3026092529296875,6.475363159179688,1713730431291.0
12.003,7.408917236328126,-0.9308624267578126,6.127841186523438,1713730431301.0
12.012999999999993,7.669857788085938,0.0465057373046875,7.0015808105468755,1713730431311.0
12.022999999999996,7.13646240234375,0.7228576660156251,6.157000732421875,1713730431321.0
12.033,6.974813842773438,1.0265655517578125,6.647329711914063,1713730431331.0
12.042999999999992,6.716864013671875,0.9196472167968752,6.909616088867188,1713730431341.0
12.053000000000004,6.2823120117187505,0.9933685302734376,8.464193725585938,1713730431351.0
12.063000000000002,6.326275634765626,0.8940765380859376,7.994351196289063,1713730431361.0
12.072999999999992,6.516934204101563,0.216827392578125,7.368243408203125,1713730431371.0
12.082999999999998,7.346710205078126,-0.5456573486328126,6.051876831054688,1713730431381.0
12.093000000000004,7.468582153320313,-0.6488372802734376,6.267807006835938,1713730431391.0
12.102999999999994,7.164425659179688,-0.487188720703125,6.298013305664063,1713730431401.0
12.113,7.301699829101563,-0.494964599609375,6.643890380859376,1713730431411.0
12.123999999999995,7.157247924804688,-0.8433837890625001,6.4587646484375005,1713730431422.0
12.134,7.384243774414063,-0.5819946289062501,6.419586181640626,1713730431432.0
12.143999999999991,6.659292602539063,0.150433349609375,7.581332397460938,1713730431442.0
12.153999999999996,7.390374755859376,0.8942260742187501,7.590603637695313,1713730431452.0
12.164,5.994754028320313,1.4688934326171876,7.990762329101563,1713730431462.0
12.173999999999992,5.716616821289063,1.54859619140625,6.424819946289063,1713730431472.0
12.183999999999996,7.230670166015625,1.270458984375,7.360617065429688,1713730431482.0
12.194000000000004,7.315307617187501,0.0497955322265625,6.95103759765625,1713730431492.0
12.203999999999994,8.233609008789063,-0.7490264892578126,6.566879272460938,1713730431502.0
12.214,6.501382446289063,-0.7819244384765626,6.373080444335938,1713730431512.0
12.224000000000004,6.089260864257813,-0.638519287109375,6.496746826171876,1713730431522.0
12.233999999999996,7.483834838867188,-0.5890228271484376,8.297012329101562,1713730431532.0
12.244,7.22080078125,-0.7363159179687501,6.6726013183593755,1713730431542.0
12.25399999999999,7.3843933105468755,-0.107366943359375,5.948248291015625,1713730431552.0
12.265,6.698321533203125,0.6567626953125001,6.083279418945313,1713730431563.0
12.274999999999991,6.98692626953125,1.1300445556640626,7.386337280273438,1713730431573.0
12.285000000000004,7.261175537109375,1.0516876220703126,8.442062377929688,1713730431583.0
12.295000000000002,6.150271606445313,0.6616973876953125,6.501831054687501,1713730431593.0
12.304999999999993,6.455923461914063,0.4323089599609375,6.582730102539063,1713730431603.0
12.314999999999998,6.940869140625001,-0.002392578125,7.276577758789063,1713730431613.0
12.325000000000005,7.330111694335938,-0.2579498291015625,7.666268920898438,1713730431623.0
12.334999999999994,6.947897338867188,-0.4966094970703125,6.922625732421875,1713730431633.0
12.345,6.8954101562500005,-0.4436737060546875,5.6886535644531255,1713730431643.0
12.355000000000004,6.986029052734375,-0.31043701171875,6.6531616210937505,1713730431653.0
12.364999999999997,8.03726806640625,-0.267669677734375,6.961953735351563,1713730431663.0
12.375,7.3105224609375,-0.11663818359375,6.797164916992188,1713730431673.0
12.384999999999993,6.792529296875,0.0321502685546875,5.762075805664063,1713730431683.0
12.394999999999996,6.208740234375001,0.297576904296875,7.207043457031251,1713730431693.0
12.405,6.945205688476563,0.6099578857421876,8.335891723632812,1713730431703.0
12.416000000000004,6.5592529296875,0.7509704589843751,8.401986694335939,1713730431714.0
12.426000000000002,6.635366821289063,0.7092498779296875,6.216217041015626,1713730431724.0
12.435999999999993,6.889129638671876,0.51739501953125,6.177337646484376,1713730431734.0
12.445999999999998,7.605407714843751,0.09271240234375,6.383847045898438,1713730431744.0
12.456000000000005,7.436282348632813,-0.3049041748046875,7.1466308593750005,1713730431754.0
12.465999999999994,6.913055419921876,-0.8468231201171875,6.270797729492188,1713730431764.0
12.476,7.173397827148438,-1.0826416015625,6.314013671875,1713730431774.0
12.486000000000004,7.017880249023438,-1.0771087646484376,7.090255737304688,1713730431784.0
12.495999999999997,7.712326049804688,-0.2392578125,7.806533813476563,1713730431794.0
12.506,5.927462768554688,1.0156494140625,7.586865234375001,1713730431804.0
12.515999999999991,5.617922973632813,1.6333831787109376,6.357977294921875,1713730431814.0
12.525999999999996,7.182818603515625,1.6809356689453123,7.851095581054688,1713730431824.0
12.536,7.562640380859375,0.98155517578125,6.938476562500001,1713730431834.0
12.545999999999992,7.745223999023438,0.5075256347656251,6.674246215820313,1713730431844.0
12.555999999999996,6.470578002929688,-0.0139068603515625,5.881256103515625,1713730431854.0
12.566999999999991,6.806137084960938,-0.7002777099609375,6.654806518554688,1713730431865.0
12.576999999999998,7.043002319335938,-1.3673583984375002,8.272937011718751,1713730431875.0
12.587000000000003,6.918289184570313,-1.3402923583984376,7.045394897460938,1713730431885.0
12.596999999999994,6.727182006835938,-0.5323486328125,6.938476562500001,1713730431895.0
12.607,6.695181274414063,0.2684173583984375,6.051129150390626,1713730431905.0
12.61699999999999,7.651614379882813,1.1092590332031251,7.334896850585938,1713730431915.0
12.626999999999995,7.384991455078126,1.5040344238281251,6.9671875000000005,1713730431925.0
12.637,6.424221801757813,1.47322998046875,6.248965454101563,1713730431935.0
12.646999999999991,6.596936035156251,0.883160400390625,6.84097900390625,1713730431945.0
12.657000000000004,7.1152282714843755,-0.2444915771484375,7.562490844726563,1713730431955.0
12.667000000000002,6.919186401367188,-0.8833099365234376,7.934536743164063,1713730431965.0
12.676999999999992,6.591702270507813,-1.1185302734375,6.358724975585938,1713730431975.0
12.686999999999998,6.716864013671875,-0.9506011962890626,6.84097900390625,1713730431985.0
12.697999999999992,7.708737182617188,-0.68128662109375,6.310275268554688,1713730431996.0
12.707999999999998,7.909414672851563,0.0432159423828125,7.008609008789063,1713730432006.0
12.718000000000004,6.988870239257813,0.6051727294921876,5.467190551757813,1713730432016.0
12.727999999999994,6.668862915039063,1.0738189697265623,6.813613891601563,1713730432026.0
12.738,6.77518310546875,0.9486572265625,7.460656738281251,1713730432036.0
12.74799999999999,6.6068054199218755,0.7134368896484375,8.5714111328125,1713730432046.0
12.757999999999996,6.278573608398438,0.4646087646484375,7.47501220703125,1713730432056.0
12.768,6.461605834960938,0.0958526611328125,6.6621337890625005,1713730432066.0
12.777999999999992,7.253549194335938,-0.3096893310546875,6.661685180664063,1713730432076.0
12.788000000000004,7.867245483398438,-0.5393768310546876,6.536972045898438,1713730432086.0
12.798000000000002,7.090106201171875,-0.5745178222656251,6.254647827148438,1713730432096.0
12.807999999999993,7.0165344238281255,-0.4981048583984375,5.9458557128906255,1713730432106.0
12.817999999999998,6.955972290039063,-0.5156005859375,6.81705322265625,1713730432116.0
12.828000000000005,7.637408447265625,-0.345428466796875,7.414599609375,1713730432126.0
12.839,7.0195251464843755,0.1281524658203125,7.551724243164063,1713730432137.0
12.849000000000004,6.994702148437501,0.9485076904296876,7.073208618164063,1713730432147.0
12.858999999999996,5.412161254882813,1.681683349609375,6.910961914062501,1713730432157.0
12.869,6.347659301757813,1.5260162353515625,7.362261962890625,1713730432167.0
12.87899999999999,7.607650756835938,0.679791259765625,8.106353759765625,1713730432177.0
12.888999999999996,7.435385131835938,-0.5417694091796875,5.955126953125,1713730432187.0
12.899,7.39127197265625,-0.61728515625,6.482989501953125,1713730432197.0
12.908999999999992,6.3301635742187505,-0.49107666015625,6.493307495117188,1713730432207.0
12.922000000000004,7.067077636718751,-0.5055816650390625,7.567425537109376,1713730432220.0
12.929000000000002,7.394561767578126,-0.7251007080078126,7.629034423828125,1713730432227.0
12.938999999999991,7.1242004394531255,-0.544012451171875,5.3701416015625005,1713730432237.0
12.948999999999998,6.8819519042968755,0.1993316650390625,6.473568725585938,1713730432247.0
12.959000000000003,6.940719604492188,0.8163177490234376,7.1908935546875,1713730432257.0
12.968999999999994,7.066030883789063,1.0633514404296875,8.357574462890625,1713730432267.0
12.979,6.752603149414063,0.8957214355468751,7.0598999023437505,1713730432277.0
12.989999999999997,5.967538452148438,0.6854736328125001,5.969931030273438,1713730432288.0
13.0,7.208538818359376,0.35828857421875,7.322186279296876,1713730432298.0
13.009999999999993,7.31949462890625,-0.076861572265625,7.65086669921875,1713730432308.0
13.021999999999991,7.1191162109375,-0.4086822509765625,7.071414184570313,1713730432320.0
13.03,6.536672973632813,-0.5818450927734375,5.77508544921875,1713730432328.0
13.039999999999992,7.147079467773438,-0.5785552978515626,6.497195434570313,1713730432338.0
13.050000000000004,7.527499389648438,-0.3440826416015625,7.5025268554687505,1713730432348.0
13.060000000000002,7.426712036132813,-0.1804901123046875,6.812268066406251,1713730432358.0
13.069999999999991,6.878363037109375,0.1332366943359375,5.9946044921875,1713730432368.0
13.079999999999998,6.810025024414063,0.2956329345703125,6.121859741210938,1713730432378.0
13.090000000000003,6.805838012695313,0.5052825927734376,8.080484008789064,1713730432388.0
13.099999999999994,6.848754882812501,0.7736999511718751,8.160336303710938,1713730432398.0
13.11,6.148925781250001,0.7914947509765625,7.449441528320313,1713730432408.0
13.122,6.749313354492188,0.4544403076171875,6.021969604492188,1713730432420.0
13.129999999999995,7.357028198242188,0.093011474609375,6.944607543945313,1713730432428.0
13.140999999999991,7.616473388671875,-0.2229583740234375,6.5140930175781255,1713730432439.0
13.150999999999996,6.982739257812501,-0.4119720458984375,6.715069580078126,1713730432449.0
13.161,6.776678466796875,-0.9820037841796876,5.642446899414063,1713730432459.0
13.170999999999992,7.616323852539063,-1.0682861328125002,7.032833862304688,1713730432469.0
13.180999999999996,7.080685424804688,-0.7768402099609376,7.468283081054688,1713730432479.0
13.191000000000004,7.440170288085938,0.213238525390625,7.589706420898438,1713730432489.0
13.200999999999992,5.983837890625001,1.36077880859375,6.998739624023438,1713730432499.0
13.211,5.439825439453125,1.7353668212890627,6.602767944335938,1713730432509.0
13.221999999999994,7.3200927734375005,1.6339813232421876,8.25140380859375,1713730432520.0
13.230999999999996,7.568173217773438,0.7792327880859375,7.274185180664063,1713730432529.0
13.241,7.4935546875,0.1224700927734375,5.988772583007813,1713730432539.0
13.25099999999999,6.778173828125,-0.481805419921875,5.957669067382813,1713730432549.0
13.260999999999996,6.965243530273438,-0.8477203369140626,6.768753051757813,1713730432559.0
13.271999999999991,7.026254272460938,-1.1013336181640625,8.327966308593751,1713730432570.0
13.280999999999992,6.7114807128906255,-1.02880859375,6.957467651367188,1713730432579.0
13.292000000000002,6.885690307617188,-0.407037353515625,6.5155883789062505,1713730432590.0
13.301999999999992,6.814959716796875,0.40255126953125,6.418240356445313,1713730432600.0
13.311999999999998,7.459310913085938,1.2927398681640625,7.417889404296876,1713730432610.0
13.322000000000005,7.297064208984375,1.6115509033203126,7.367495727539063,1713730432620.0
13.331999999999994,6.343173217773438,1.3302734375,6.015240478515626,1713730432630.0
13.342,6.661834716796876,0.6916046142578125,6.7937255859375005,1713730432640.0
13.352000000000004,7.036871337890625,-0.285015869140625,7.588809204101563,1713730432650.0
13.361999999999997,7.057058715820313,-0.9233856201171876,7.937078857421875,1713730432660.0
13.372,6.627291870117188,-1.179541015625,6.390576171875001,1713730432670.0
13.38199999999999,6.969729614257813,-1.035986328125,6.272293090820313,1713730432680.0
13.391999999999996,7.155154418945313,-0.642706298828125,6.718359375,1713730432690.0
13.402,8.19757080078125,0.15013427734375,6.854736328125001,1713730432700.0
13.411999999999992,7.144238281250001,0.5842376708984376,6.0609985351562505,1713730432710.0
13.423000000000002,6.976608276367188,0.7668212890625,5.704653930664063,1713730432721.0
13.432999999999993,6.371286010742188,0.8568420410156251,7.708139038085938,1713730432731.0
13.442999999999998,6.531140136718751,0.881964111328125,8.65814208984375,1713730432741.0
13.453000000000005,6.121411132812501,0.7001281738281251,8.477203369140625,1713730432751.0
13.462999999999994,6.651815795898438,0.0800018310546875,6.2721435546875,1713730432761.0
13.473,7.221847534179688,-0.380120849609375,6.280368041992188,1713730432771.0
13.483000000000004,7.717111206054688,-0.3279327392578125,6.316854858398438,1713730432781.0
13.492999999999997,7.3111206054687505,-0.2141357421875,6.694732666015626,1713730432791.0
13.503,7.0778442382812505,-0.50543212890625,6.131878662109376,1713730432801.0
13.512999999999993,6.968832397460938,-0.8961700439453125,6.337939453125,1713730432811.0
13.522999999999996,7.345663452148438,-0.643902587890625,6.892718505859375,1713730432821.0
13.533,6.908120727539063,0.089422607421875,8.0450439453125,1713730432831.0
13.542999999999992,7.448843383789063,0.696539306640625,7.287942504882813,1713730432841.0
13.553000000000004,5.843572998046875,1.2404022216796875,7.057656860351563,1713730432851.0
13.563000000000002,5.839385986328125,1.5825408935546876,6.582281494140625,1713730432861.0
13.573999999999998,7.343719482421876,1.371246337890625,7.730569458007813,1713730432872.0
13.584000000000003,7.249960327148438,0.100787353515625,7.383795166015625,1713730432882.0
13.593999999999994,7.955023193359375,-0.7841674804687501,6.187954711914063,1713730432892.0
13.604,6.3810058593750005,-0.6705200195312501,6.268405151367188,1713730432902.0
13.614000000000004,6.257339477539063,-0.4098785400390625,6.950439453125001,1713730432912.0
13.623999999999995,7.556808471679688,-0.530853271484375,8.277871704101564,1713730432922.0
13.634,7.447647094726563,-0.8674591064453125,6.278573608398438,1713730432932.0
13.643999999999991,7.192089843750001,-0.3218017578125,5.47960205078125,1713730432942.0
13.653999999999996,6.759033203125001,0.576611328125,6.348257446289063,1713730432952.0
13.664,6.927859497070313,1.1221191406250002,8.029193115234376,1713730432962.0
13.673999999999992,7.252651977539063,0.978564453125,8.553616333007813,1713730432972.0
13.683999999999996,5.987875366210938,0.6820343017578125,6.066232299804688,1713730432982.0
13.694000000000004,6.410165405273438,0.512310791015625,6.437979125976563,1713730432992.0
13.703999999999994,7.2028564453125,0.2835205078125,7.695278930664063,1713730433002.0
13.715000000000003,7.492657470703126,-0.200677490234375,7.652362060546875,1713730433013.0
13.724999999999994,6.845913696289063,-0.4870391845703125,6.581234741210938,1713730433023.0
13.735,6.680825805664063,-0.5866302490234375,5.385992431640625,1713730433033.0
13.74499999999999,7.081433105468751,-0.3816162109375,7.208987426757813,1713730433043.0
13.754999999999995,7.988967895507813,-0.34512939453125,7.338336181640625,1713730433053.0
13.765,7.389178466796875,-0.2277435302734375,6.778024291992188,1713730433063.0
13.774999999999991,6.53831787109375,-0.030206298828125,5.094546508789063,1713730433073.0
13.785000000000004,6.4617553710937505,0.4131683349609375,7.306335449218751,1713730433083.0
