time,ax,ay,az,timestamp
0.0,6.9238220214843755,0.3189605712890625,6.257040405273438,1713726905456.0
0.0090000000000145,8.746966552734376,-0.273052978515625,6.883148193359376,1713726905465.0
0.0190000000000054,8.621057128906251,-0.2097991943359375,6.452334594726563,1713726905475.0
0.0289999999999963,6.234609985351563,0.073272705078125,5.6886535644531255,1713726905485.0
0.0390000000000156,6.285900878906251,-0.018243408203125,5.758486938476563,1713726905495.0
0.0490000000000065,7.079489135742188,-0.3680084228515625,8.755938720703126,1713726905505.0
0.0589999999999975,7.159191894531251,-0.5205352783203125,8.022314453125,1713726905515.0
0.0699999999999931,6.7997070312500005,0.342437744140625,7.26207275390625,1713726905526.0
0.0800000000000125,6.345565795898438,0.8928802490234375,5.4610595703125,1713726905536.0
0.0900000000000034,7.009655761718751,1.0795013427734377,6.909466552734376,1713726905546.0
0.0999999999999943,7.980145263671876,0.9884338378906252,7.548733520507813,1713726905556.0
0.1100000000000136,7.056011962890626,0.7014739990234375,6.689349365234375,1713726905566.0
0.1200000000000045,6.7518554687500005,0.1706207275390625,5.636016845703125,1713726905576.0
0.1299999999999954,6.722695922851563,-0.4687957763671875,6.93668212890625,1713726905586.0
0.1400000000000147,7.018777465820313,-1.113446044921875,8.105157470703126,1713726905596.0
0.1500000000000056,6.792379760742188,-1.0089202880859376,7.942910766601563,1713726905606.0
0.1599999999999966,6.884793090820313,-0.5178436279296875,6.224740600585938,1713726905616.0
0.1700000000000159,6.806735229492188,-0.1543212890625,6.097784423828125,1713726905626.0
0.1800000000000068,7.316802978515626,0.558966064453125,6.805987548828125,1713726905636.0
0.1899999999999977,7.237399291992188,1.221710205078125,7.670306396484375,1713726905646.0
0.2009999999999934,6.528298950195313,1.202569580078125,7.0913024902343755,1713726905657.0
0.2110000000000127,6.35050048828125,0.69085693359375,6.716864013671875,1713726905667.0
0.2210000000000036,6.852642822265626,0.2322296142578125,7.533331298828125,1713726905677.0
0.2309999999999945,7.022964477539063,-0.280230712890625,7.377514648437501,1713726905687.0
0.2410000000000138,7.164276123046876,-0.8092895507812501,6.772940063476563,1713726905697.0
0.2510000000000048,7.443460083007813,-0.8360565185546875,5.64349365234375,1713726905707.0
0.2609999999999957,7.2124267578125005,-0.6356781005859375,6.1092987060546875,1713726905717.0
0.271000000000015,7.580883789062501,-0.2331268310546875,6.7802673339843755,1713726905727.0
0.2810000000000059,6.901092529296876,-0.0729736328125,6.84696044921875,1713726905737.0
0.2909999999999968,6.081036376953126,-0.1066192626953125,7.5318359375,1713726905747.0
0.3010000000000161,6.054269409179688,0.278436279296875,8.0043701171875,1713726905757.0
0.311000000000007,6.414352416992188,1.13468017578125,9.184957885742188,1713726905767.0
0.3209999999999979,6.267657470703125,1.3882934570312502,7.386337280273438,1713726905777.0
0.3310000000000173,7.180874633789063,1.26387939453125,5.975912475585938,1713726905787.0
0.3410000000000082,7.4744140625,0.7120910644531251,5.593548583984376,1713726905797.0
0.3509999999999991,8.025903320312501,0.1858734130859375,6.178085327148438,1713726905807.0
0.3610000000000184,7.195529174804688,-0.2787353515625,7.540658569335938,1713726905817.0
0.3710000000000093,6.415548706054688,-1.0397247314453126,6.882550048828126,1713726905827.0
0.382000000000005,6.515737915039063,-1.1950927734375,7.744625854492188,1713726905838.0
0.3919999999999959,6.233712768554688,-0.9320587158203124,7.150668334960938,1713726905848.0
0.4020000000000152,7.491162109375001,-0.085833740234375,7.49833984375,1713726905858.0
0.4120000000000061,7.412805175781251,0.4403839111328125,5.956921386718751,1713726905868.0
0.421999999999997,7.6933349609375,0.8596832275390626,5.4618072509765625,1713726905878.0
0.4320000000000163,7.507611083984376,1.0821929931640626,6.180776977539063,1713726905888.0
0.4420000000000073,6.565533447265626,0.9411804199218752,7.296316528320313,1713726905898.0
0.4519999999999982,6.171356201171876,0.5265167236328125,8.496942138671876,1713726905908.0
0.4620000000000175,5.671755981445313,-0.0165985107421875,8.248263549804689,1713726905918.0
0.4720000000000084,6.295919799804688,-0.32957763671875,7.852740478515625,1713726905928.0
0.4819999999999993,7.0374694824218755,-0.4729827880859375,6.98692626953125,1713726905938.0
0.4920000000000186,7.303344726562501,-0.5108154296875,6.225936889648438,1713726905948.0
0.5030000000000143,7.825076293945313,-0.6092102050781251,5.8640594482421875,1713726905959.0
0.5130000000000052,7.664324951171875,-0.640911865234375,5.957669067382813,1713726905969.0
0.5229999999999961,7.28599853515625,-0.6225189208984375,6.554168701171876,1713726905979.0
0.5330000000000155,6.709536743164063,-0.0417205810546875,7.41519775390625,1713726905989.0
0.5430000000000064,5.878863525390625,0.6196777343750001,7.920779418945313,1713726905999.0
0.5529999999999973,6.270648193359375,1.1554656982421876,8.255441284179689,1713726906009.0
0.5630000000000166,6.643890380859376,1.3432830810546876,7.491461181640625,1713726906019.0
0.5730000000000075,7.139602661132813,1.18253173828125,6.5574584960937505,1713726906029.0
0.5829999999999984,7.325177001953126,0.7059600830078125,5.967987060546875,1713726906039.0
0.5930000000000177,7.330709838867188,0.0216827392578125,6.432147216796875,1713726906049.0
0.6030000000000086,6.969580078125,-0.5316009521484375,6.876568603515626,1713726906059.0
0.6129999999999995,6.720004272460938,-0.9736297607421877,7.401889038085938,1713726906069.0
0.6230000000000189,6.0749053955078125,-1.4546875,7.591351318359376,1713726906079.0
0.6330000000000098,7.2258850097656255,-1.0965484619140626,7.713522338867188,1713726906089.0
0.6430000000000007,7.0643859863281255,0.0025421142578125,7.559649658203125,1713726906099.0
0.6539999999999964,5.950491333007813,0.8551971435546876,5.749514770507813,1713726906110.0
0.6640000000000157,7.428057861328125,1.5548767089843751,6.767706298828125,1713726906120.0
0.6740000000000066,7.655352783203125,1.3897888183593752,6.78116455078125,1713726906130.0
0.6839999999999975,7.467984008789063,0.81766357421875,6.756491088867188,1713726906140.0
0.6940000000000168,6.463848876953126,0.4508514404296875,7.262969970703126,1713726906150.0
0.7040000000000077,6.109149169921875,-0.017047119140625,6.948794555664063,1713726906160.0
0.7160000000000082,6.721200561523438,-0.4771697998046875,8.3800048828125,1713726906172.0
0.724000000000018,7.225137329101563,-0.8577392578125,6.678732299804688,1713726906180.0
0.7340000000000089,7.365103149414063,-0.7916442871093751,6.6083007812500005,1713726906190.0
0.7439999999999998,6.867596435546876,-0.2938385009765625,5.808132934570313,1713726906200.0
0.7540000000000191,6.882400512695313,0.292193603515625,7.2528015136718755,1713726906210.0
0.76400000000001,7.782608032226563,0.5911163330078125,7.423422241210938,1713726906220.0
0.7740000000000009,6.824380493164063,0.255108642578125,6.159542846679688,1713726906230.0
0.7840000000000202,7.557406616210938,0.0904693603515625,5.688055419921875,1713726906240.0
0.7950000000000159,7.080087280273438,0.0142059326171875,6.483737182617188,1713726906251.0
0.8050000000000068,6.8320068359375,-0.171966552734375,7.614379882812501,1713726906261.0
0.8160000000000025,6.540859985351563,-0.1015350341796875,8.317947387695312,1713726906272.0
0.825000000000017,5.740692138671875,-0.0578704833984375,7.466488647460938,1713726906281.0
0.835000000000008,6.0953918457031255,0.12620849609375,7.561593627929688,1713726906291.0
0.8449999999999989,7.178482055664063,0.402850341796875,7.457366943359376,1713726906301.0
0.8550000000000182,7.486227416992188,0.5507415771484375,6.785351562500001,1713726906311.0
0.8650000000000091,7.556958007812501,0.744091796875,5.770001220703126,1713726906321.0
0.875,6.74168701171875,0.5746673583984375,6.018231201171876,1713726906331.0
0.8850000000000193,7.072012329101563,0.448309326171875,7.386038208007813,1713726906341.0
0.8950000000000102,6.740341186523438,-0.0847869873046875,7.990463256835938,1713726906351.0
0.906000000000006,6.5709167480468755,-0.511114501953125,7.41220703125,1713726906362.0
0.9170000000000016,6.803146362304688,-0.5401245117187501,6.510952758789063,1713726906373.0
0.9250000000000114,6.690396118164063,-0.544012451171875,6.679928588867188,1713726906381.0
0.936000000000007,6.906625366210938,-0.2950347900390625,7.242483520507813,1713726906392.0
0.945999999999998,7.171005249023438,-0.029010009765625,7.3105224609375,1713726906402.0
0.9560000000000172,6.523663330078126,0.545806884765625,7.007711791992188,1713726906412.0
0.9660000000000082,7.764813232421876,1.0648468017578123,6.7721923828125,1713726906422.0
0.9759999999999992,6.941616821289063,1.1300445556640626,6.948046875,1713726906432.0
0.9860000000000184,6.380706787109376,1.03778076171875,6.221600341796876,1713726906442.0
0.9960000000000092,6.760977172851563,0.5749664306640625,7.670156860351563,1713726906452.0
1.0060000000000002,6.47012939453125,-0.3910369873046875,7.393215942382813,1713726906462.0
1.016999999999996,7.548135375976563,-0.8489166259765626,7.58267822265625,1713726906473.0
1.0260000000000105,6.8326049804687505,-0.6066680908203126,6.8864379882812505,1713726906482.0
1.0360000000000014,6.539663696289063,-0.3662139892578125,6.0091094970703125,1713726906492.0
1.0460000000000207,7.352392578125,-0.05443115234375,7.3787109375,1713726906502.0
1.0560000000000116,7.4786010742187505,-0.2417999267578125,6.305191040039063,1713726906512.0
1.0660000000000025,7.476507568359375,-0.103778076171875,6.9103637695312505,1713726906522.0
1.0759999999999934,6.149972534179688,0.467449951171875,6.644787597656251,1713726906532.0
1.0860000000000127,5.9712768554687505,0.632537841796875,8.118466186523438,1713726906542.0
1.0970000000000084,7.094891357421876,0.7137359619140625,8.446847534179689,1713726906553.0
1.106999999999999,7.032235717773438,0.3793731689453125,6.752902221679688,1713726906563.0
1.1170000000000186,7.213174438476563,-0.023028564453125,5.402142333984376,1713726906573.0
1.1270000000000095,7.595388793945313,-0.192901611328125,5.52386474609375,1713726906583.0
1.1370000000000005,7.143939208984375,-0.18841552734375,7.637258911132813,1713726906593.0
1.1470000000000198,6.5927490234375,-0.2471832275390625,7.769448852539063,1713726906603.0
1.157000000000011,6.030792236328125,-0.3075958251953125,7.620361328125001,1713726906613.0
1.1670000000000016,6.535476684570313,-0.1353302001953125,6.703555297851563,1713726906623.0
1.1769999999999925,7.287045288085938,0.320904541015625,7.401440429687501,1713726906633.0
1.1870000000000118,7.257437133789063,0.6521270751953125,6.700115966796876,1713726906643.0
1.1970000000000027,7.27403564453125,0.6838287353515625,6.43663330078125,1713726906653.0
1.2069999999999936,6.931149291992188,0.4678985595703125,6.214123535156251,1713726906663.0
1.217000000000013,6.780715942382813,0.071478271484375,7.002777099609376,1713726906673.0
1.2280000000000086,6.945654296875,-0.15791015625,8.091699218750001,1713726906684.0
1.2379999999999995,6.333901977539063,-0.3732421875,7.280166625976563,1713726906694.0
1.2480000000000189,6.451885986328126,-0.3282318115234375,7.162930297851563,1713726906704.0
1.2580000000000098,6.955673217773438,-0.2065093994140625,6.516784667968751,1713726906714.0
1.268000000000001,7.312316894531251,-0.0871795654296875,6.724041748046876,1713726906724.0
1.27800000000002,7.953976440429688,0.22430419921875,6.224441528320313,1713726906734.0
1.288000000000011,6.847857666015625,0.01016845703125,6.35648193359375,1713726906744.0
1.2980000000000018,8.106951904296876,0.1900604248046875,7.056610107421876,1713726906754.0
1.3080000000000211,6.134121704101563,0.67889404296875,7.928405761718751,1713726906764.0
1.318000000000012,4.698275756835938,0.9263763427734376,7.456918334960938,1713726906774.0
1.328000000000003,6.403137207031251,0.6219207763671876,8.404528808593751,1713726906784.0
1.337999999999994,7.47142333984375,-0.310137939453125,7.237698364257813,1713726906794.0
1.3479999999999848,7.959658813476563,-0.47432861328125,5.9986419677734375,1713726906804.0
1.3580000000000323,7.623202514648438,-0.0085235595703125,5.749664306640625,1713726906814.0
1.3689999999999998,6.639553833007813,0.2890533447265625,5.981146240234375,1713726906825.0
1.378999999999991,7.102368164062501,0.020037841796875,7.930947875976563,1713726906835.0
1.3889999999999816,6.611441040039063,-0.3291290283203125,7.631427001953125,1713726906845.0
1.399000000000029,6.222796630859375,-0.0477020263671875,7.393963623046876,1713726906855.0
1.4090000000000202,6.309976196289063,0.34273681640625,7.3843933105468755,1713726906865.0
1.4190000000000111,7.069769287109375,0.663641357421875,7.351196289062501,1713726906875.0
1.429000000000002,7.5976318359375,0.6099578857421876,6.947000122070313,1713726906885.0
1.438999999999993,6.989468383789063,0.5324981689453125,5.618072509765625,1713726906895.0
1.448999999999984,7.10655517578125,0.361578369140625,6.38878173828125,1713726906905.0
1.4590000000000316,7.202706909179688,-0.1128997802734375,7.239791870117188,1713726906915.0
1.4699999999999989,6.566281127929688,-0.5582183837890625,7.854086303710938,1713726906926.0
1.4790000000000134,6.335546875,-0.64539794921875,7.298110961914063,1713726906935.0
1.4890000000000043,6.471475219726563,-0.394775390625,7.332354736328125,1713726906945.0
1.4989999999999952,6.806735229492188,0.012860107421875,7.147378540039063,1713726906955.0
1.508999999999986,7.4800964355468755,0.3970184326171875,6.778323364257813,1713726906965.0
1.5200000000000102,7.508657836914063,0.545208740234375,5.9518371582031255,1713726906976.0
1.5300000000000011,7.382598876953126,0.42169189453125,5.591156005859375,1713726906986.0
1.539999999999992,7.383047485351563,0.352008056640625,7.051675415039063,1713726906996.0
1.549999999999983,6.117971801757813,0.0705810546875,7.850497436523438,1713726907006.0
1.5600000000000307,6.163131713867188,0.1344329833984375,8.447744750976563,1713726907016.0
1.5700000000000216,5.977407836914063,-0.0261688232421875,7.635763549804688,1713726907026.0
1.5800000000000125,7.071713256835938,-0.236566162109375,6.611441040039063,1713726907036.0
1.5900000000000034,7.5832763671875005,-0.1160400390625,6.472671508789063,1713726907046.0
1.5999999999999943,7.0120483398437505,-0.0321502685546875,5.870190429687501,1713726907056.0
1.6099999999999852,7.710083007812501,0.137274169921875,6.4662414550781255,1713726907066.0
1.620000000000033,7.456619262695313,-0.261688232421875,6.562991333007813,1713726907076.0
1.630000000000024,7.952032470703125,-0.2809783935546875,7.096835327148438,1713726907086.0
1.6400000000000148,5.849554443359375,0.2667724609375,7.521218872070313,1713726907096.0
1.6500000000000057,4.6691162109375,1.0548278808593752,7.78006591796875,1713726907106.0
1.6599999999999966,6.176589965820313,1.1515777587890623,8.949139404296876,1713726907116.0
1.6710000000000207,7.575949096679688,0.16329345703125,7.443759155273438,1713726907127.0
1.6810000000000116,8.092147827148438,-0.3509613037109375,5.257391357421875,1713726907137.0
1.6910000000000025,7.581481933593751,0.0414215087890625,5.262625122070313,1713726907147.0
1.7009999999999934,6.171804809570313,0.375634765625,6.870587158203126,1713726907157.0
1.7109999999999843,7.418936157226563,-0.04306640625,8.456118774414064,1713726907167.0
1.721000000000032,7.35538330078125,-0.9422271728515624,7.08262939453125,1713726907177.0
1.731000000000023,6.331060791015625,-1.1255584716796876,5.286550903320313,1713726907187.0
1.741000000000014,6.386239624023438,-0.0773101806640625,7.441665649414063,1713726907197.0
1.7510000000000048,6.6286376953125,0.855047607421875,8.729171752929688,1713726907207.0
1.7609999999999957,7.077545166015626,1.062005615234375,8.588308715820313,1713726907217.0
1.7709999999999866,7.374523925781251,0.70880126953125,4.789492797851563,1713726907227.0
1.7810000000000343,6.991561889648438,0.5713775634765625,4.955328369140625,1713726907237.0
1.7910000000000252,7.051974487304688,0.4532440185546875,7.226632690429688,1713726907247.0
1.801000000000016,7.275531005859375,-0.00418701171875,8.905325317382813,1713726907257.0
1.811000000000007,6.405380249023438,-0.5941070556640625,7.840628051757813,1713726907267.0
1.8220000000000312,5.833255004882813,-0.942974853515625,5.522219848632813,1713726907278.0
1.832000000000022,6.644488525390625,-0.4021026611328125,7.471572875976563,1713726907288.0
1.842000000000013,7.532583618164063,0.23865966796875,7.973565673828125,1713726907298.0
1.852000000000004,7.590155029296875,0.65137939453125,7.193435668945313,1713726907308.0
1.8619999999999948,7.109396362304688,0.3757843017578125,4.360922241210938,1713726907318.0
1.8719999999999857,7.321737670898438,0.2296875,5.555715942382813,1713726907328.0
1.8820000000000336,6.957467651367188,0.389093017578125,8.374172973632813,1713726907338.0
1.8920000000000243,6.255993652343751,0.3530548095703125,8.880502319335939,1713726907348.0
1.9020000000000152,6.007913208007813,-0.0483001708984375,7.848104858398438,1713726907358.0
1.912000000000006,6.355734252929688,-0.563751220703125,5.805889892578126,1713726907368.0
1.921999999999997,7.577593994140625,-0.2190704345703125,6.880755615234375,1713726907378.0
1.931999999999988,7.5384155273437505,0.44801025390625,7.337887573242188,1713726907388.0
1.9419999999999789,6.9037841796875,0.5191894531250001,6.464596557617188,1713726907398.0
1.9520000000000264,6.797164916992188,0.11903076171875,5.9488464355468755,1713726907408.0
1.962999999999994,7.25609130859375,-0.32598876953125,6.242684936523438,1713726907419.0
1.9729999999999848,7.004721069335938,-0.3177642822265625,8.123849487304689,1713726907429.0
1.9830000000000323,7.326971435546875,-0.079254150390625,7.590454101562501,1713726907439.0
1.9930000000000232,6.669012451171875,0.087628173828125,7.40263671875,1713726907449.0
2.0030000000000143,5.595791625976563,0.374139404296875,5.890676879882813,1713726907459.0
2.0130000000000052,6.843521118164063,0.895123291015625,7.940518188476563,1713726907469.0
2.022999999999996,7.406524658203126,0.7076049804687501,7.748065185546875,1713726907479.0
2.032999999999987,7.702008056640626,0.0061309814453125,6.266311645507813,1713726907489.0
2.043000000000035,6.896456909179688,-0.111553955078125,6.053372192382813,1713726907499.0
2.0530000000000257,6.322387695312501,0.1475921630859375,6.3196960449218755,1713726907509.0
2.0630000000000166,6.8176513671875005,0.195294189453125,9.073403930664064,1713726907519.0
2.0730000000000075,7.194332885742188,-0.4115234375,7.128836059570313,1713726907529.0
2.0829999999999984,6.736602783203126,-0.669921875,6.263021850585938,1713726907539.0
2.0929999999999893,6.832754516601563,-0.1227691650390625,5.773440551757813,1713726907549.0
2.10299999999998,6.942813110351563,0.5555267333984375,7.875469970703126,1713726907559.0
2.1140000000000043,7.1550048828125,0.8451782226562501,8.324975585937501,1713726907570.0
2.1239999999999952,6.724490356445313,0.5573211669921876,6.209188842773438,1713726907580.0
2.133999999999986,6.767855834960938,0.343035888671875,5.964996337890625,1713726907590.0
2.144000000000034,6.8266235351562505,0.153125,6.723294067382813,1713726907600.0
2.154000000000025,7.357177734375001,-0.0494964599609375,8.433688354492189,1713726907610.0
2.1640000000000157,6.6785827636718755,-0.3404937744140625,7.292727661132813,1713726907620.0
2.1740000000000066,6.3182006835937505,-0.62625732421875,5.935687255859375,1713726907630.0
2.1839999999999975,7.221398925781251,-0.423486328125,6.620413208007813,1713726907640.0
2.1939999999999884,7.3230834960937505,-0.1308441162109375,7.386486816406251,1713726907650.0
2.2039999999999793,7.578939819335938,0.369354248046875,7.183566284179688,1713726907660.0
2.214000000000027,6.335696411132813,0.50543212890625,6.182870483398438,1713726907670.0
2.224000000000018,6.524111938476563,0.6066680908203126,6.539962768554688,1713726907680.0
2.234999999999985,6.958663940429688,0.7161285400390626,8.214019775390625,1713726907691.0
2.245000000000033,6.782360839843751,0.46475830078125,7.756289672851563,1713726907701.0
2.255000000000024,6.710882568359375,0.1631439208984375,7.003973388671875,1713726907711.0
2.265000000000015,6.788790893554688,-0.3135772705078125,5.9253692626953125,1713726907721.0
2.2750000000000057,7.166668701171876,-0.3629241943359375,6.854586791992188,1713726907731.0
2.2849999999999966,7.390524291992188,-0.270062255859375,7.32786865234375,1713726907741.0
2.2949999999999875,6.351547241210938,-0.40374755859375,6.869839477539063,1713726907751.0
2.3049999999999784,7.071563720703126,-0.3608306884765625,6.2583862304687505,1713726907761.0
2.318000000000012,7.371084594726563,-0.175555419921875,7.051077270507813,1713726907774.0
2.325000000000017,8.130429077148438,0.2404541015625,6.824530029296875,1713726907781.0
2.335000000000008,6.638058471679688,0.66812744140625,7.455422973632813,1713726907791.0
2.344999999999999,5.262176513671875,1.07247314453125,6.278872680664063,1713726907801.0
2.3549999999999898,6.355734252929688,1.206158447265625,8.552719116210938,1713726907811.0
2.3649999999999807,6.8849426269531255,0.3337646484375,8.135214233398438,1713726907821.0
2.3750000000000284,7.784701538085938,-0.52158203125,6.518878173828125,1713726907831.0
2.3850000000000193,7.105957031250001,-0.3587371826171875,5.938079833984375,1713726907841.0
2.3950000000000102,6.11722412109375,-0.00777587890625,6.0400634765625005,1713726907851.0
2.4060000000000343,7.675241088867188,0.0500946044921875,8.371331787109376,1713726907862.0
2.418000000000035,7.545742797851563,-0.56644287109375,6.8221374511718755,1713726907874.0
2.426000000000016,6.731967163085938,-0.6264068603515626,5.7110839843750005,1713726907882.0
2.436000000000007,6.647778320312501,0.0973480224609375,6.372631835937501,1713726907892.0
2.445999999999998,6.403884887695313,0.5235260009765625,8.342172241210939,1713726907902.0
2.455999999999989,7.227978515625001,0.675604248046875,8.825772094726563,1713726907912.0
2.46599999999998,6.7267333984375,0.5251708984375001,6.197674560546876,1713726907922.0
2.4760000000000275,6.5155883789062505,0.4702911376953125,5.394665527343751,1713726907932.0
2.4860000000000184,7.216763305664063,0.350213623046875,6.882550048828126,1713726907942.0
2.4960000000000093,7.555313110351563,0.0674407958984375,8.228225708007812,1713726907952.0
2.506,6.835296630859376,-0.1519287109375,7.236950683593751,1713726907962.0
2.5180000000000007,5.891275024414063,-0.4257293701171875,5.83310546875,1713726907974.0
2.525999999999982,6.775930786132813,-0.323895263671875,7.068124389648438,1713726907982.0
2.537000000000006,7.631277465820313,-0.055926513671875,8.1311767578125,1713726907993.0
2.5460000000000207,7.0234130859375,0.1383209228515625,7.150518798828125,1713726908002.0
2.556999999999988,6.952383422851563,0.2086029052734375,5.312420654296876,1713726908013.0
2.566999999999979,6.948196411132813,0.1918548583984375,6.263619995117188,1713726908023.0
2.5770000000000266,7.019674682617188,0.375335693359375,7.782308959960938,1713726908033.0
2.5870000000000175,7.037170410156251,0.4807586669921875,8.244375610351563,1713726908043.0
2.5970000000000084,6.114083862304688,0.146844482421875,6.839633178710938,1713726908053.0
2.6069999999999993,6.762771606445313,-0.171368408203125,6.2120300292968755,1713726908063.0
2.6180000000000234,7.0856201171875,-0.0345428466796875,7.400543212890626,1713726908074.0
2.626999999999981,7.14244384765625,0.2579498291015625,7.45706787109375,1713726908083.0
2.637000000000029,6.8942138671875,0.251519775390625,6.909616088867188,1713726908093.0
2.64700000000002,6.543103027343751,-0.3505126953125,5.546893310546875,1713726908103.0
2.6570000000000107,7.7193542480468755,-0.4131683349609375,6.573010253906251,1713726908113.0
2.6670000000000016,7.061843872070313,-0.336456298828125,7.615875244140626,1713726908123.0
2.6769999999999925,7.315008544921875,-0.1607513427734375,7.216015625000001,1713726908133.0
2.6880000000000166,7.190744018554688,0.2284912109375,7.096984863281251,1713726908144.0
2.6980000000000075,5.132229614257813,0.6153411865234375,6.5873657226562505,1713726908154.0
2.7079999999999984,6.665722656250001,1.220513916015625,8.163775634765626,1713726908164.0
2.7179999999999893,7.076199340820313,0.9918731689453124,8.199365234375001,1713726908174.0
2.72799999999998,7.388430786132813,0.1284515380859375,6.091055297851563,1713726908184.0
2.738000000000028,7.410861206054688,-0.191107177734375,5.915499877929688,1713726908194.0
2.748000000000019,6.603515625000001,-0.0538330078125,6.100027465820313,1713726908204.0
2.7580000000000098,7.066629028320313,-0.044561767578125,8.3393310546875,1713726908214.0
2.7680000000000007,6.656600952148438,-0.6688751220703125,7.648773193359376,1713726908224.0
2.7779999999999916,6.742434692382813,-0.7553070068359375,6.555215454101563,1713726908234.0
2.7879999999999825,6.729574584960938,-0.0907684326171875,6.516485595703125,1713726908244.0
2.7980000000000302,6.802996826171875,0.7265960693359376,7.454376220703126,1713726908254.0
2.808000000000021,7.412356567382813,1.0594635009765625,7.699765014648438,1713726908264.0
2.8189999999999884,6.804641723632813,0.7795318603515625,6.419735717773438,1713726908275.0
2.8289999999999793,6.847259521484376,0.6551177978515625,5.886788940429688,1713726908285.0
2.839000000000027,6.957766723632813,0.2642303466796875,7.1615844726562505,1713726908295.0
2.849000000000018,6.976309204101563,-0.301165771484375,7.945602416992188,1713726908305.0
2.859000000000009,6.674694824218751,-0.8245422363281251,7.348205566406251,1713726908315.0
2.869,6.60411376953125,-0.8526550292968751,6.554318237304688,1713726908325.0
2.8789999999999907,6.44859619140625,-0.5127593994140626,6.772491455078126,1713726908335.0
2.8889999999999816,7.675988769531251,0.0656463623046875,7.288839721679688,1713726908345.0
2.8990000000000293,7.57908935546875,0.37025146484375,6.782211303710938,1713726908355.0
2.90900000000002,7.255044555664063,0.4532440185546875,5.310028076171875,1713726908365.0
2.919000000000011,6.667068481445313,0.7125396728515625,6.714022827148438,1713726908375.0
2.929000000000002,6.388333129882813,0.7346710205078125,7.94814453125,1713726908385.0
2.938999999999993,6.630581665039063,0.5304046630859376,8.742330932617188,1713726908395.0
2.948999999999984,6.411959838867188,-0.000897216796875,7.276129150390625,1713726908405.0
2.9590000000000316,6.597235107421875,-0.3677093505859375,6.091653442382813,1713726908415.0
2.9690000000000225,7.328018188476563,-0.131591796875,6.825726318359376,1713726908425.0
2.9790000000000134,7.153359985351563,-0.094207763671875,6.966738891601563,1713726908435.0
2.9899999999999807,7.548733520507813,-0.1902099609375,6.5712158203125,1713726908446.0
3.0000000000000284,6.938327026367188,-0.6087615966796875,5.682373046875,1713726908456.0
3.0100000000000193,7.348056030273438,-0.4646087646484375,6.278424072265626,1713726908466.0
3.0200000000000102,6.924569702148438,-0.1024322509765625,8.020968627929689,1713726908476.0
3.030000000000001,7.225585937500001,0.3832611083984375,8.075549316406251,1713726908486.0
3.039999999999992,5.558407592773438,0.9544891357421876,7.344915771484375,1713726908496.0
3.049999999999983,5.7982635498046875,1.2069061279296875,6.622506713867188,1713726908506.0
3.0600000000000307,7.165472412109375,1.18671875,7.913153076171875,1713726908516.0
3.0700000000000216,7.8763671875,0.3727935791015625,6.901840209960938,1713726908526.0
3.0800000000000125,7.446002197265625,-0.1900604248046875,6.171804809570313,1713726908536.0
3.0900000000000034,6.474615478515625,-0.3425872802734375,5.8266754150390625,1713726908546.0
3.0999999999999943,6.676339721679688,-0.4945159912109375,7.573556518554688,1713726908556.0
3.109999999999985,7.098031616210938,-0.7107452392578125,8.357873535156251,1713726908566.0
3.1210000000000093,7.054965209960938,-0.778485107421875,6.923074340820313,1713726908577.0
3.131,6.632974243164063,-0.3132781982421875,5.7424865722656255,1713726908587.0
3.140999999999991,6.9301025390625,0.3961212158203125,6.497943115234375,1713726908597.0
3.150999999999982,7.403683471679688,0.9033477783203124,8.028744506835938,1713726908607.0
3.16100000000003,7.104611206054688,1.0460052490234375,7.417739868164063,1713726908617.0
3.1710000000000207,6.301901245117188,0.8620758056640626,6.163281250000001,1713726908627.0
3.1810000000000116,6.408670043945313,0.5316009521484375,6.71536865234375,1713726908637.0
3.1910000000000025,7.18431396484375,0.107366943359375,8.032183837890626,1713726908647.0
3.2009999999999934,6.8619140625,-0.192303466796875,7.986874389648438,1713726908657.0
3.2109999999999843,6.4647460937500005,-0.4233367919921875,6.419287109375,1713726908667.0
3.221000000000032,6.798660278320313,-0.5733215332031251,6.356631469726563,1713726908677.0
3.231000000000023,7.369290161132813,-0.3856536865234375,6.881503295898438,1713726908687.0
3.241000000000014,7.766757202148438,-0.195892333984375,7.036871337890625,1713726908697.0
3.2510000000000048,7.37332763671875,-0.0704315185546875,6.067727661132813,1713726908707.0
3.2609999999999957,6.956869506835938,-0.1099090576171875,5.582333374023438,1713726908717.0
3.2709999999999866,6.742584228515626,0.130694580078125,7.412356567382813,1713726908727.0
3.2820000000000107,6.268106079101563,0.5818450927734375,8.629132080078126,1713726908738.0
3.2920000000000016,6.351547241210938,0.8197570800781251,8.366397094726564,1713726908748.0
3.3019999999999925,6.348556518554688,0.5743682861328125,6.705349731445313,1713726908758.0
3.3119999999999834,7.079489135742188,0.3871490478515625,6.3735290527343755,1713726908768.0
3.322000000000031,7.484432983398438,0.5211334228515625,6.812268066406251,1713726908778.0
3.3340000000000316,6.891970825195313,0.2265472412109375,6.932495117187501,1713726908790.0
3.342000000000013,7.258633422851563,-0.5164978027343751,6.1620849609375,1713726908798.0
3.352000000000004,7.404580688476563,-1.2906463623046875,5.958865356445313,1713726908808.0
3.3619999999999948,7.179977416992188,-1.4120697021484376,6.793576049804688,1713726908818.0
3.3719999999999857,7.166668701171876,-0.8230468750000001,7.8488525390625,1713726908828.0
3.3820000000000334,6.94864501953125,0.3381011962890625,7.942462158203125,1713726908838.0
3.3920000000000243,5.000936889648438,1.2218597412109375,7.046890258789063,1713726908848.0
3.4020000000000152,6.46055908203125,1.8114807128906252,7.402487182617188,1713726908858.0
3.412000000000006,7.430450439453126,1.8340606689453127,7.645184326171876,1713726908868.0
3.4230000000000302,7.701110839843751,1.0232757568359376,6.436782836914063,1713726908879.0
3.4350000000000307,7.2617736816406255,0.2244537353515625,6.006268310546876,1713726908891.0
3.443000000000012,6.697125244140626,-0.4750762939453125,6.0185302734375,1713726908899.0
3.453000000000003,6.6426940917968755,-1.0486968994140626,8.343368530273438,1713726908909.0
3.462999999999994,6.624002075195313,-1.4899780273437502,7.775579833984375,1713726908919.0
3.4729999999999848,7.017880249023438,-1.3275817871093751,7.385739135742188,1713726908929.0
3.4830000000000325,6.644338989257813,-0.50064697265625,5.763272094726563,1713726908939.0
3.4930000000000234,7.20823974609375,0.7221099853515626,6.798959350585938,1713726908949.0
3.5030000000000143,7.564883422851563,1.5870269775390626,7.414151000976563,1713726908959.0
3.5130000000000052,6.749163818359375,1.6873657226562502,6.686657714843751,1713726908969.0
3.522999999999996,6.748416137695313,1.3376007080078125,6.486578369140625,1713726908979.0
3.5349999999999966,6.530841064453125,0.5329467773437501,7.042703247070313,1713726908991.0
3.543000000000035,6.726135253906251,-0.302362060546875,8.186654663085939,1713726908999.0
3.5530000000000257,6.6023193359375005,-0.9093292236328124,7.868740844726563,1713726909009.0
3.563999999999993,6.456671142578125,-1.1659332275390626,6.774884033203126,1713726909020.0
3.573999999999984,7.028945922851563,-0.9749755859375,6.339883422851563,1713726909030.0
3.5840000000000316,7.636660766601563,-0.396868896484375,6.668414306640625,1713726909040.0
3.5940000000000225,8.02530517578125,0.1134979248046875,6.073709106445313,1713726909050.0
3.6040000000000134,7.4666381835937505,0.4765716552734375,5.944210815429688,1713726909060.0
3.614000000000004,6.688601684570313,0.5804992675781251,6.074755859375,1713726909070.0
3.6239999999999952,6.551776123046875,0.7394561767578125,8.27532958984375,1713726909080.0
3.633999999999986,5.81217041015625,0.6663330078125,8.720797729492189,1713726909090.0
3.644000000000034,6.231021118164063,0.5046844482421875,8.311965942382812,1713726909100.0
3.654000000000025,6.5140930175781255,0.1395172119140625,6.682620239257813,1713726909110.0
3.664000000000016,7.302896118164063,-0.0192901611328125,6.226834106445313,1713726909120.0
3.6740000000000066,7.641595458984376,0.14176025390625,6.526205444335938,1713726909130.0
3.6839999999999975,6.96060791015625,-0.19798583984375,6.377267456054688,1713726909140.0
3.693999999999989,7.388430786132813,-0.5464050292968751,6.218310546875,1713726909150.0
3.7039999999999793,7.5114990234375005,-0.9398345947265626,6.516186523437501,1713726909160.0
3.7150000000000034,7.174295043945313,-0.9150115966796876,6.909466552734376,1713726909171.0
3.7249999999999943,7.250558471679688,-0.0441131591796875,8.065829467773439,1713726909181.0
3.734999999999985,5.033834838867188,0.8783752441406251,7.45048828125,1713726909191.0
3.745000000000033,6.1043640136718755,1.5290069580078125,7.728027343750001,1713726909201.0
3.755000000000024,6.960308837890626,1.2786834716796875,7.826721191406251,1713726909211.0
3.765000000000015,7.922274780273438,0.60233154296875,5.90787353515625,1713726909221.0
3.7750000000000057,7.6239501953125,0.5034881591796876,6.572262573242188,1713726909231.0
3.7849999999999966,5.939126586914063,0.1472930908203125,5.899349975585938,1713726909241.0
3.794999999999987,7.224688720703125,-0.25181884765625,8.280264282226563,1713726909251.0
3.8049999999999784,6.805987548828125,-1.2236541748046876,7.548583984375001,1713726909261.0
3.815000000000026,7.099227905273438,-1.3304229736328126,6.473269653320313,1713726909271.0
3.825000000000017,6.788043212890625,-0.670819091796875,6.2853027343750005,1713726909281.0
3.835000000000008,6.732864379882813,0.0674407958984375,6.935485839843751,1713726909291.0
3.844999999999999,7.666567993164063,0.6916046142578125,7.868740844726563,1713726909301.0
3.856000000000023,6.995300292968751,0.8767303466796875,6.465643310546875,1713726909312.0
3.866000000000014,6.562542724609376,1.038079833984375,5.849554443359375,1713726909322.0
3.8760000000000048,6.6666198730468755,0.9332550048828124,7.344766235351563,1713726909332.0
3.885999999999996,6.8559326171875,0.5585174560546875,8.259628295898438,1713726909342.0
3.8959999999999866,6.628787231445313,0.137872314453125,7.991360473632813,1713726909352.0
3.9060000000000343,6.126046752929688,-0.2896514892578125,6.374575805664063,1713726909362.0
3.9160000000000257,6.7482666015625,-0.454290771484375,6.838735961914063,1713726909372.0
3.926000000000016,7.664474487304688,-0.39656982421875,7.348355102539063,1713726909382.0
3.936000000000007,7.330111694335938,-0.40255126953125,6.75125732421875,1713726909392.0
3.945999999999998,7.690045166015626,-0.2516693115234375,5.4917144775390625,1713726909402.0
3.955999999999989,6.92113037109375,-0.335858154296875,5.684317016601563,1713726909412.0
3.96599999999998,7.218408203125,-0.1218719482421875,7.087713623046875,1713726909422.0
3.976000000000027,6.766061401367188,0.309539794921875,8.57559814453125,1713726909432.0
3.9860000000000184,6.0041748046875005,0.4161590576171875,7.451385498046876,1713726909442.0
3.9960000000000098,6.309078979492188,0.652874755859375,7.299008178710938,1713726909452.0
4.007000000000033,6.605010986328126,0.7185211181640625,7.101919555664063,1713726909463.0
4.017000000000024,7.28001708984375,0.9413299560546876,7.4086181640625,1713726909473.0
4.027000000000015,6.976309204101563,0.59036865234375,6.683666992187501,1713726909483.0
4.037000000000006,6.997991943359375,-0.3464752197265625,5.484686279296875,1713726909493.0
4.046999999999997,8.013940429687501,-0.8469726562500001,6.49345703125,1713726909503.0
4.056999999999988,7.108200073242188,-1.3905364990234377,6.756491088867188,1713726909513.0
4.066999999999979,7.769598388671875,-0.937890625,7.5832763671875005,1713726909523.0
4.077000000000027,5.694784545898438,-0.145648193359375,7.341775512695313,1713726909533.0
4.0870000000000175,5.256793212890625,0.7083526611328126,7.227230834960938,1713726909543.0
4.097000000000008,6.983486938476563,1.5013427734375,8.722891235351563,1713726909553.0
4.106999999999999,7.313812255859376,1.33685302734375,6.8819519042968755,1713726909563.0
4.11699999999999,7.813861083984375,1.13946533203125,5.875872802734375,1713726909573.0
4.126999999999981,6.859072875976563,0.743194580078125,5.675793457031251,1713726909583.0
4.137000000000029,7.01444091796875,0.229388427734375,6.855184936523438,1713726909593.0
4.14700000000002,6.711929321289063,-0.7674194335937501,8.648123168945313,1713726909603.0
4.157999999999987,6.667666625976563,-1.5197357177734376,7.166220092773438,1713726909614.0
4.168000000000035,6.360220336914063,-1.3516571044921877,7.032534790039063,1713726909624.0
4.178000000000026,6.74228515625,-0.49825439453125,6.810324096679688,1713726909634.0
4.188000000000017,7.298709106445313,0.5395263671875,7.307681274414063,1713726909644.0
4.1980000000000075,7.713223266601563,1.1530731201171875,6.823931884765625,1713726909654.0
4.207999999999998,6.854437255859375,1.308740234375,5.3840484619140625,1713726909664.0
4.217999999999989,7.1227050781250005,1.1123992919921877,6.522317504882813,1713726909674.0
4.22799999999998,6.794473266601563,0.5118621826171875,7.652810668945313,1713726909684.0
4.238000000000028,6.433941650390626,-0.25660400390625,8.3740234375,1713726909694.0
4.248000000000019,6.256442260742188,-0.7240539550781251,7.550228881835938,1713726909704.0
4.25800000000001,6.1405517578125,-0.9274230957031252,6.817950439453125,1713726909714.0
4.268000000000001,7.31351318359375,-0.55567626953125,7.060198974609375,1713726909724.0
4.277999999999992,7.710531616210938,-0.0886749267578125,6.773388671875001,1713726909734.0
4.2879999999999825,7.7672058105468755,0.3050537109375,5.637213134765625,1713726909744.0
4.299000000000007,7.384243774414063,0.523077392578125,5.584725952148438,1713726909755.0
4.3089999999999975,6.799258422851563,0.471038818359375,6.685910034179688,1713726909765.0
4.318999999999988,6.5798889160156255,0.533843994140625,8.51458740234375,1713726909775.0
4.328999999999979,5.903237915039063,0.294586181640625,8.388079833984376,1713726909785.0
4.339000000000027,6.300405883789063,-0.0506927490234375,7.3709350585937505,1713726909795.0
4.349000000000018,7.015637207031251,-0.1849761962890625,6.778921508789063,1713726909805.0
4.359000000000009,7.165472412109375,0.0145050048828125,6.675442504882813,1713726909815.0
4.369,7.389627075195313,0.4335052490234375,6.662432861328125,1713726909825.0
4.378999999999991,6.940869140625001,0.1589569091796875,6.146533203125,1713726909835.0
4.388999999999982,7.4636474609375005,-0.2800811767578125,6.157000732421875,1713726909845.0
4.399000000000029,7.065133666992188,-0.663641357421875,6.701162719726563,1713726909855.0
4.40900000000002,7.0150390625000005,-0.39776611328125,7.731466674804688,1713726909865.0
4.419000000000011,7.154705810546876,-0.1284515380859375,7.47142333984375,1713726909875.0
4.429000000000002,6.2853027343750005,0.28531494140625,7.635015869140625,1713726909885.0
4.438999999999993,5.8446197509765625,0.9604705810546876,6.510653686523438,1713726909895.0
4.450000000000017,6.820492553710938,1.3238433837890626,7.927658081054688,1713726909906.0
4.460000000000008,7.290783691406251,0.871197509765625,6.878811645507813,1713726909916.0
4.469999999999999,7.744476318359376,-0.0231781005859375,6.347509765625,1713726909926.0
4.47999999999999,6.917691040039063,-0.1374237060546875,6.395062255859376,1713726909936.0
4.489999999999981,6.307434082031251,-0.033795166015625,6.941018676757813,1713726909946.0
4.500000000000028,6.789837646484376,-0.2872589111328125,8.616720581054688,1713726909956.0
4.510000000000019,7.1227050781250005,-0.8901885986328125,6.689797973632813,1713726909966.0
4.52000000000001,7.1526123046875005,-0.7629333496093751,6.335995483398438,1713726909976.0
4.530000000000001,6.886886596679688,-0.0282623291015625,5.896359252929688,1713726909986.0
4.539999999999992,7.014291381835938,0.56644287109375,7.605856323242188,1713726909996.0
4.549999999999983,7.29796142578125,0.7227081298828125,7.737149047851563,1713726910006.0
4.560000000000031,6.564187622070313,0.6603515625,6.593496704101563,1713726910016.0
4.570000000000022,6.398800659179688,0.7049133300781251,6.528747558593751,1713726910026.0
4.580999999999989,6.79013671875,0.5767608642578126,7.479049682617188,1713726910037.0
4.59099999999998,7.009655761718751,0.215631103515625,8.137307739257814,1713726910047.0
4.6010000000000275,6.620861816406251,-0.1012359619140625,7.099975585937501,1713726910057.0
4.611000000000018,6.4258666992187505,-0.27813720703125,6.278424072265626,1713726910067.0
4.621000000000009,7.136611938476563,-0.2250518798828125,6.868942260742188,1713726910077.0
4.631,7.387533569335938,-0.3210540771484375,7.2408386230468755,1713726910087.0
4.640999999999991,7.847058105468751,-0.3911865234375,6.305789184570313,1713726910097.0
4.650999999999982,7.289886474609376,-0.4653564453125,5.4323486328125,1713726910107.0
4.66100000000003,6.698321533203125,-0.301165771484375,6.285751342773438,1713726910117.0
4.671000000000021,6.70579833984375,0.29010009765625,8.462698364257813,1713726910127.0
4.681000000000012,6.2045532226562505,0.6012847900390625,8.432492065429688,1713726910137.0
4.6910000000000025,6.373379516601563,0.7261474609375,7.41220703125,1713726910147.0
4.700999999999993,6.6764892578125,0.6525756835937501,6.372781372070313,1713726910157.0
4.710999999999984,7.316802978515626,0.6902587890625,6.633422851562501,1713726910167.0
4.721000000000032,7.326522827148438,0.6981842041015626,7.238296508789063,1713726910177.0
4.734999999999985,6.794772338867188,-0.0396270751953125,6.38040771484375,1713726910191.0
4.74199999999999,7.152313232421876,-0.8738891601562501,6.212777709960938,1713726910198.0
4.751999999999981,7.3320556640625005,-1.2946838378906251,6.5410095214843755,1713726910208.0
4.762000000000029,6.917691040039063,-1.1660827636718751,7.593893432617188,1713726910218.0
4.77200000000002,7.590005493164063,-0.39537353515625,7.659091186523438,1713726910228.0
4.782000000000011,5.8875366210937505,0.506927490234375,7.143191528320313,1713726910238.0
4.792000000000002,5.902041625976563,1.364068603515625,6.4826904296875005,1713726910248.0
4.8019999999999925,6.9875244140625,1.7760406494140626,8.210430908203126,1713726910258.0
4.811999999999983,7.538116455078126,1.3111328125,7.013095092773438,1713726910268.0
4.822000000000031,7.461404418945313,0.599041748046875,6.413754272460938,1713726910278.0
4.835000000000008,6.572113037109376,0.0255706787109375,6.0943450927734375,1713726910291.0
4.842000000000013,6.809576416015625,-0.399261474609375,7.021319580078125,1713726910298.0
4.852000000000004,6.6367126464843755,-1.1086608886718752,8.448492431640625,1713726910308.0
4.861999999999995,7.117919921875001,-1.3435821533203125,6.9372802734375005,1713726910318.0
4.871999999999986,6.641049194335938,-0.9199462890625,6.766659545898438,1713726910328.0
4.88300000000001,6.918588256835938,0.05682373046875,6.0687744140625,1713726910339.0
4.893000000000001,7.276278686523438,1.0178924560546876,7.603314208984376,1713726910349.0
4.902999999999992,7.345962524414063,1.3568908691406252,7.090704345703125,1713726910359.0
4.9129999999999825,6.4931579589843755,1.323245239257813,6.291882324218751,1713726910369.0
4.92300000000003,6.651516723632813,0.93489990234375,6.889727783203125,1713726910379.0
4.935000000000031,6.795370483398438,0.2217620849609375,7.553070068359376,1713726910391.0
4.943000000000012,6.749761962890625,-0.4655059814453125,8.247515869140626,1713726910399.0
4.953000000000003,6.471774291992188,-0.8528045654296875,6.830960083007813,1713726910409.0
4.962999999999994,6.721051025390626,-0.9256286621093752,6.548187255859376,1713726910419.0
4.972999999999985,7.226034545898438,-0.6425567626953126,6.713723754882813,1713726910429.0
4.9830000000000325,7.862011718750001,-0.1484893798828125,6.6935363769531255,1713726910439.0
4.993000000000023,7.669708251953126,0.2169769287109375,6.112887573242188,1713726910449.0
5.003000000000014,6.816604614257813,0.3826629638671875,5.6108947753906255,1713726910459.0
5.013999999999982,6.735107421875001,0.682781982421875,7.524807739257813,1713726910470.0
5.024000000000029,6.179730224609376,0.755157470703125,8.545242309570312,1713726910480.0
5.034999999999997,6.302349853515626,0.62147216796875,8.363406372070314,1713726910491.0
5.044000000000011,6.476260375976563,0.2878570556640625,6.927859497070313,1713726910500.0
5.054000000000002,6.914550781250001,-0.010467529296875,6.371136474609376,1713726910510.0
5.063999999999993,7.554864501953125,0.1114044189453125,6.650619506835938,1713726910520.0
5.073999999999984,7.233511352539063,-0.092413330078125,6.603366088867188,1713726910530.0
5.084000000000032,7.0856201171875,-0.4595245361328125,6.328219604492188,1713726910540.0
5.0940000000000225,6.934887695312501,-0.7793823242187501,6.43125,1713726910550.0
5.104000000000013,7.178781127929688,-0.6518280029296876,7.097732543945313,1713726910560.0
5.114000000000004,7.064535522460938,-0.177349853515625,7.86978759765625,1713726910570.0
5.123999999999995,7.122406005859376,0.34931640625,7.377514648437501,1713726910580.0
5.135000000000019,5.5560150146484375,1.0516876220703126,6.70340576171875,1713726910591.0
5.144000000000034,6.541757202148438,1.4868377685546876,7.166519165039063,1713726910600.0
5.154000000000025,7.175192260742188,1.05572509765625,7.820440673828125,1713726910610.0
5.164000000000016,7.839730834960938,0.117236328125,6.465194702148438,1713726910620.0
5.174999999999983,6.9776550292968755,-0.1879669189453125,6.52037353515625,1713726910631.0
5.185000000000031,5.943911743164063,-0.1903594970703125,6.3376403808593755,1713726910641.0
5.195000000000022,7.057955932617188,-0.34752197265625,8.521914672851564,1713726910651.0
5.2050000000000125,7.172500610351563,-0.8985626220703126,7.440319824218751,1713726910661.0
5.215000000000003,7.274185180664063,-0.7834197998046876,5.946005249023438,1713726910671.0
5.224999999999994,6.809277343750001,-0.1724151611328125,5.668765258789063,1713726910681.0
5.234999999999985,7.101470947265626,0.46834716796875,7.095938110351563,1713726910691.0
5.245000000000033,7.2513061523437505,0.73511962890625,8.3871826171875,1713726910701.0
5.255000000000024,6.722994995117188,0.737213134765625,6.853689575195313,1713726910711.0
5.265000000000015,6.138458251953126,0.6959411621093751,6.311322021484376,1713726910721.0
5.275000000000006,6.656451416015625,0.4370941162109375,7.069470214843751,1713726910731.0
5.28600000000003,7.4361328125,0.3129791259765625,8.364453125,1713726910742.0
5.2949999999999875,6.528149414062501,0.0046356201171875,7.401739501953125,1713726910751.0
5.304999999999978,6.454876708984376,-0.0832916259765625,6.060400390625,1713726910761.0
5.315000000000026,6.820941162109375,-0.2797821044921875,6.778622436523438,1713726910771.0
5.325999999999993,7.850497436523438,-0.376531982421875,7.0658813476562505,1713726910782.0
5.335999999999984,7.628436279296875,-0.34632568359375,7.048983764648438,1713726910792.0
5.346000000000032,6.70340576171875,-0.4009063720703125,5.412310791015625,1713726910802.0
5.356000000000023,6.938327026367188,-0.0764129638671875,6.608749389648438,1713726910812.0
5.366000000000014,6.692190551757813,0.0399261474609375,7.847207641601563,1713726910822.0
5.376000000000005,6.911560058593751,0.4409820556640625,8.195626831054689,1713726910832.0
5.385999999999996,6.269302368164063,0.684576416015625,7.276278686523438,1713726910842.0
5.395999999999987,6.319845581054688,0.7243530273437501,6.254498291015626,1713726910852.0
5.406000000000034,7.309176635742188,0.8125793457031251,7.294821166992188,1713726910862.0
5.416000000000025,7.325625610351563,0.2717071533203125,6.844268798828126,1713726910872.0
5.426000000000016,7.040011596679688,-0.2699127197265625,6.479998779296875,1713726910882.0
5.436000000000007,7.084722900390625,-0.7105957031250001,6.11722412109375,1713726910892.0
5.445999999999998,6.801052856445313,-1.04794921875,7.1570983886718755,1713726910902.0
5.457000000000022,7.9206298828125,-0.7741485595703126,7.721597290039063,1713726910913.0
5.467000000000013,6.735256958007813,-0.000897216796875,7.376168823242188,1713726910923.0
5.477000000000004,5.189352416992188,0.8019622802734375,6.080587768554688,1713726910933.0
5.486999999999995,6.585122680664063,1.2182708740234376,7.919284057617188,1713726910943.0
5.496999999999986,7.738943481445313,1.131988525390625,8.090951538085939,1713726910953.0
5.507000000000033,7.451235961914063,0.8589355468750001,6.693685913085938,1713726910963.0
5.517000000000024,6.5305419921875005,0.5908172607421875,5.807833862304688,1713726910973.0
5.527000000000015,6.868643188476563,0.1777984619140625,5.9877258300781255,1713726910983.0
5.537000000000006,7.102816772460938,-0.633734130859375,8.544644165039063,1713726910993.0
5.546999999999997,7.093096923828125,-1.078005981445313,7.290185546875,1713726911003.0
5.556999999999988,6.379360961914063,-1.0458557128906252,6.920382690429688,1713726911013.0
5.566999999999979,6.548785400390625,-0.5284606933593751,6.133074951171875,1713726911023.0
5.577000000000027,7.328915405273438,0.291595458984375,7.655203247070313,1713726911033.0
5.5870000000000175,7.488470458984375,0.959722900390625,7.527050781250001,1713726911043.0
5.597000000000008,6.582431030273438,1.3444793701171875,6.040811157226563,1713726911053.0
5.6080000000000325,6.683816528320313,1.1864196777343752,6.304293823242188,1713726911064.0
5.618000000000023,7.090106201171875,0.5389282226562501,7.0838256835937505,1713726911074.0
5.628000000000014,7.048983764648438,-0.0634033203125,8.478997802734376,1713726911084.0
5.638000000000005,6.158346557617188,-0.4940673828125,7.1675659179687505,1713726911094.0
5.647999999999996,6.5320373535156255,-0.7475311279296876,6.706097412109376,1713726911104.0
5.657999999999987,6.863558959960938,-0.9136657714843752,6.814810180664063,1713726911114.0
5.668000000000035,8.026052856445313,-0.5411712646484376,6.8116699218750005,1713726911124.0
5.678000000000026,7.645333862304688,-0.047552490234375,6.438876342773438,1713726911134.0
5.688000000000017,6.890475463867188,0.2859130859375,5.24931640625,1713726911144.0
5.6980000000000075,6.860269165039063,0.67410888671875,7.253250122070313,1713726911154.0
5.707999999999998,6.498989868164063,0.6902587890625,8.063137817382813,1713726911164.0
5.717999999999989,6.489419555664063,0.762335205078125,8.3704345703125,1713726911174.0
5.72799999999998,6.111392211914063,0.485992431640625,7.1573974609375,1713726911184.0
5.738000000000028,6.7772766113281255,0.158807373046875,6.580337524414063,1713726911194.0
5.751000000000005,7.3918701171875005,0.11663818359375,7.147827148437501,1713726911207.0
5.758999999999986,7.321438598632813,-0.1377227783203125,6.456820678710938,1713726911215.0
5.769000000000034,7.2842041015625005,-0.31881103515625,6.295620727539063,1713726911225.0
5.779000000000025,6.758135986328125,-0.7775878906250001,6.054867553710938,1713726911235.0
5.789000000000016,6.940719604492188,-0.7295867919921876,7.226931762695313,1713726911245.0
5.799000000000007,7.231417846679688,-0.31043701171875,7.675839233398438,1713726911255.0
5.8089999999999975,6.755444335937501,-0.06998291015625,7.3455139160156255,1713726911265.0
5.818999999999988,7.762420654296876,0.508123779296875,6.68546142578125,1713726911275.0
5.828999999999979,5.7559448242187505,1.2269439697265625,6.6546569824218755,1713726911285.0
5.839000000000027,6.404782104492188,1.7350677490234376,7.450936889648438,1713726911295.0
5.8510000000000275,6.865951538085938,1.1958404541015626,8.06837158203125,1713726911307.0
5.859000000000009,7.185211181640626,-0.256304931640625,6.498092651367188,1713726911315.0
5.869,7.484881591796875,-0.643902587890625,6.7533508300781255,1713726911325.0
5.878999999999991,6.157897949218751,-0.44442138671875,6.734060668945313,1713726911335.0
5.888999999999982,6.872381591796875,-0.17406005859375,7.744775390625,1713726911345.0
5.900000000000006,7.227978515625001,-0.7493255615234375,7.225585937500001,1713726911356.0
5.909999999999997,7.7058959960937505,-0.9084320068359376,5.4049835205078125,1713726911366.0
5.9199999999999875,7.115826416015626,-0.1670318603515625,6.258535766601563,1713726911376.0
5.929999999999978,6.3929687500000005,0.603826904296875,7.162182617187501,1713726911386.0
5.940000000000026,6.960308837890626,1.0274627685546875,8.701358032226564,1713726911396.0
5.952000000000027,6.5260559082031255,0.8107849121093751,7.584622192382813,1713726911408.0
5.960000000000008,6.2123291015625,0.741400146484375,5.9981933593750005,1713726911416.0
5.969999999999999,6.998739624023438,0.7632324218750001,7.130331420898438,1713726911426.0
5.97999999999999,7.206146240234376,0.3940277099609375,7.434487915039063,1713726911436.0
5.989999999999981,7.0868164062500005,-0.045758056640625,7.4756103515625005,1713726911446.0
6.000000000000028,6.40732421875,-0.4939178466796875,6.319097900390625,1713726911456.0
6.010000000000019,6.631777954101563,-0.5307037353515626,6.6053100585937505,1713726911466.0
6.02000000000001,7.379757690429688,-0.4738800048828125,7.651913452148438,1713726911476.0
6.030000000000001,7.465890502929688,-0.5852844238281251,6.666470336914063,1713726911486.0
6.039999999999992,7.8189453125,-0.44920654296875,5.674298095703126,1713726911496.0
6.051000000000016,6.810324096679688,-0.2510711669921875,5.58487548828125,1713726911507.0
6.061000000000007,6.8942138671875,0.2794830322265625,7.312765502929688,1713726911517.0
6.070999999999998,6.4378295898437505,0.8399444580078126,9.050973510742187,1713726911527.0
6.080999999999989,6.1088500976562505,0.8931793212890625,7.768252563476563,1713726911537.0
6.09099999999998,6.370687866210938,0.843084716796875,6.968383789062501,1713726911547.0
6.1010000000000275,6.921728515625,0.5636016845703126,6.3107238769531255,1713726911557.0
6.111000000000018,7.611090087890625,0.4607208251953125,7.1660705566406255,1713726911567.0
6.121000000000009,6.943411254882813,-0.1117034912109375,6.6965270996093755,1713726911577.0
6.131,7.334149169921876,-0.7955322265625001,5.894415283203125,1713726911587.0
6.140999999999991,7.363607788085938,-1.251318359375,6.494802856445313,1713726911597.0
6.150999999999982,7.336990356445313,-1.4092285156250002,6.914999389648438,1713726911607.0
6.16100000000003,7.337588500976563,-0.18482666015625,8.203253173828125,1713726911617.0
6.171000000000021,4.926766967773438,0.7645782470703125,7.181622314453126,1713726911627.0
6.181000000000012,6.054568481445313,1.454986572265625,7.59105224609375,1713726911637.0
6.1910000000000025,7.422076416015625,1.4928192138671876,7.687652587890626,1713726911647.0
6.202000000000027,7.708438110351563,1.126007080078125,6.545944213867188,1713726911658.0
6.2120000000000175,7.483087158203125,0.911572265625,6.011053466796875,1713726911668.0
6.222000000000008,6.500186157226563,0.14654541015625,5.864208984375001,1713726911678.0
6.231999999999999,7.0868164062500005,-0.6328369140625001,7.80638427734375,1713726911688.0
6.24199999999999,6.552523803710938,-1.481753540039063,7.885040283203126,1713726911698.0
6.251999999999981,6.625796508789063,-1.3724426269531251,7.515536499023438,1713726911708.0
6.262000000000029,6.67947998046875,-0.7406524658203125,6.581832885742188,1713726911718.0
6.27200000000002,6.905130004882813,0.16209716796875,6.862661743164063,1713726911728.0
6.282000000000011,7.86021728515625,1.146942138671875,6.835296630859376,1713726911738.0
6.292000000000002,7.031039428710938,1.5209320068359375,6.567776489257813,1713726911748.0
6.3019999999999925,6.541757202148438,1.5257171630859376,6.1033172607421875,1713726911758.0
6.311999999999983,6.894662475585938,0.8469726562500001,7.559799194335938,1713726911768.0
6.322000000000031,6.679779052734376,-0.0162994384765625,8.090652465820312,1713726911778.0
6.332000000000022,6.328219604492188,-0.6249114990234376,7.636062622070313,1713726911788.0
6.342999999999989,6.388333129882813,-0.9236846923828126,7.020870971679688,1713726911799.0
6.35299999999998,6.900643920898438,-0.965704345703125,6.624600219726563,1713726911809.0
6.363000000000028,7.8120666503906255,-0.58438720703125,6.912606811523438,1713726911819.0
6.373000000000019,7.663577270507813,-0.0849365234375,5.860919189453125,1713726911829.0
6.38300000000001,7.599127197265625,0.3019134521484375,5.584725952148438,1713726911839.0
6.393000000000001,7.053768920898438,0.468048095703125,6.367398071289063,1713726911849.0
6.404000000000025,6.563888549804688,0.544012451171875,7.829562377929688,1713726911860.0
6.4129999999999825,6.0475402832031255,0.76083984375,8.808276367187501,1713726911869.0
6.42300000000003,5.668765258789063,0.637921142578125,7.988070678710938,1713726911879.0
6.433000000000021,6.737500000000001,0.3479705810546875,7.254446411132813,1713726911889.0
6.443000000000012,7.4083190917968755,0.063702392578125,6.418539428710938,1713726911899.0
6.453000000000003,7.705148315429688,0.008673095703125,6.104513549804688,1713726911909.0
6.462999999999994,7.163677978515626,0.0034393310546875,6.228179931640626,1713726911919.0
6.472999999999985,6.84696044921875,-0.4891326904296875,6.309378051757813,1713726911929.0
6.484000000000009,7.178631591796876,-0.7367645263671876,7.460208129882813,1713726911940.0
6.494,6.740341186523438,-0.9162078857421876,6.855783081054688,1713726911950.0
6.503999999999991,6.884494018554688,-0.294586181640625,7.849600219726563,1713726911960.0
6.513999999999982,7.614828491210938,0.344830322265625,6.8191467285156255,1713726911970.0
6.524000000000029,6.124102783203125,1.0726226806640626,7.335345458984375,1713726911980.0
6.53400000000002,6.317153930664063,1.6737579345703126,6.406277465820313,1713726911990.0
6.544000000000011,6.763967895507813,1.3361053466796875,7.703503417968751,1713726912000.0
6.554000000000002,7.456021118164063,0.2836700439453125,6.881802368164063,1713726912010.0
6.563999999999993,7.382598876953126,-0.5896209716796875,7.076199340820313,1713726912020.0
6.573999999999984,6.284255981445313,-0.42767333984375,6.838885498046875,1713726912030.0
6.584000000000032,6.216366577148438,-0.2992218017578125,7.1573974609375,1713726912040.0
6.5940000000000225,7.363906860351563,-0.6974365234375001,7.898348999023438,1713726912050.0
6.604000000000013,7.971023559570313,-0.8987121582031251,5.658596801757813,1713726912060.0
6.614000000000004,7.0138427734375,-0.3506622314453125,6.136364746093751,1713726912070.0
6.623999999999995,6.7004150390625,0.6697723388671876,6.148776245117188,1713726912080.0
6.635000000000019,6.700714111328126,0.9072357177734376,8.689096069335939,1713726912091.0
6.64500000000001,6.991262817382813,0.7079040527343751,7.7911315917968755,1713726912101.0
6.655000000000001,6.353042602539063,0.6287994384765625,6.632824707031251,1713726912111.0
6.664999999999992,6.252853393554688,0.5997894287109375,6.524261474609376,1713726912121.0
6.674999999999983,7.33983154296875,0.425579833984375,7.521966552734376,1713726912131.0
6.685000000000031,7.359869384765625,-0.107366943359375,7.810720825195313,1713726912141.0
6.695000000000022,6.536373901367188,-0.343035888671875,6.118121337890625,1713726912151.0
6.7050000000000125,6.598880004882813,-0.3174652099609375,6.555364990234375,1713726912161.0
6.715000000000003,6.912158203125,-0.292193603515625,7.285848999023438,1713726912171.0
6.724999999999994,7.703652954101563,-0.24822998046875,7.393215942382813,1713726912181.0
6.736000000000018,7.38529052734375,-0.37802734375,6.165823364257813,1713726912192.0
6.745000000000033,7.128836059570313,-0.2794830322265625,5.2001190185546875,1713726912201.0
6.756,6.747967529296876,0.1290496826171875,7.213024902343751,1713726912212.0
6.765000000000015,6.553271484375,0.5707794189453126,8.417687988281251,1713726912221.0
6.775999999999982,6.426016235351563,0.7499237060546875,8.479595947265626,1713726912232.0
6.78600000000003,6.372781372070313,0.5351898193359376,6.366201782226563,1713726912242.0
6.796000000000021,6.948345947265626,0.40673828125,6.366351318359375,1713726912252.0
6.806000000000012,7.366448974609376,0.5740692138671876,7.284054565429688,1713726912262.0
6.8160000000000025,6.9899169921875,0.3629241943359375,7.035675048828126,1713726912272.0
6.825999999999993,6.963150024414063,-0.2160797119140625,6.600973510742188,1713726912282.0
6.835999999999984,6.812716674804688,-1.15142822265625,5.66502685546875,1713726912292.0
6.846000000000032,7.711877441406251,-1.1153900146484377,7.195379638671875,1713726912302.0
6.856000000000023,6.795819091796876,-0.7855133056640625,7.466189575195313,1713726912312.0
6.866000000000014,7.633819580078126,-0.0825439453125,7.523910522460938,1713726912322.0
6.876000000000005,5.9156494140625,0.7983734130859376,6.768453979492188,1713726912332.0
6.885999999999996,5.783758544921875,1.368255615234375,6.654357910156251,1713726912342.0
6.895999999999987,7.158892822265625,1.8636688232421876,8.518624877929689,1713726912352.0
6.906000000000034,7.236053466796876,1.0477996826171876,7.11014404296875,1713726912362.0
6.916000000000025,7.491760253906251,0.204864501953125,6.34093017578125,1713726912372.0
6.9269999999999925,6.6292358398437505,-0.2181732177734375,5.8371429443359375,1713726912383.0
6.936999999999983,6.797613525390625,-0.5319000244140626,7.217361450195313,1713726912393.0
6.947000000000031,6.9612060546875005,-1.0075744628906251,8.29566650390625,1713726912403.0
6.957000000000022,7.109097290039063,-1.3699005126953123,6.838885498046875,1713726912413.0
6.967000000000013,6.651068115234375,-0.7532135009765626,6.357528686523438,1713726912423.0
6.977000000000004,6.729275512695313,0.3973175048828125,6.694732666015626,1713726912433.0
6.986999999999995,7.065582275390626,1.227392578125,7.7073913574218755,1713726912443.0
6.996999999999986,7.517630004882813,1.449005126953125,7.377215576171875,1713726912453.0
7.007000000000033,6.257040405273438,1.1421569824218751,5.921032714843751,1713726912463.0
7.017000000000024,6.7662109375,0.8492156982421876,6.663778686523438,1713726912473.0
7.027000000000015,7.002926635742188,0.1344329833984375,8.009304809570313,1713726912483.0
7.037000000000006,6.642095947265625,-0.6198272705078125,7.866796875,1713726912493.0
7.046999999999997,6.815258789062501,-1.0289581298828123,6.7028076171875,1713726912503.0
7.058000000000021,6.4677368164062505,-1.1152404785156251,6.337191772460938,1713726912514.0
7.068000000000012,7.557855224609376,-0.5800506591796876,6.634320068359376,1713726912524.0
7.078000000000003,7.734756469726563,-0.024822998046875,7.308428955078125,1713726912534.0
7.087999999999994,7.344915771484375,0.28172607421875,5.563192749023438,1713726912544.0
7.097999999999985,6.8822509765625,0.6305938720703126,6.42467041015625,1713726912554.0
7.1080000000000325,6.352294921875001,0.817364501953125,7.185061645507813,1713726912564.0
7.118000000000023,6.4243713378906255,1.0304534912109375,9.017477416992188,1713726912574.0
7.128000000000014,6.289041137695313,0.6960906982421875,8.178131103515625,1713726912584.0
7.138000000000005,6.560299682617188,0.0483001708984375,6.300854492187501,1713726912594.0
7.147999999999996,7.296765136718751,-0.154022216796875,6.537719726562501,1713726912604.0
7.157999999999987,7.195230102539063,-0.25660400390625,6.458615112304688,1713726912614.0
7.168000000000035,7.610342407226563,-0.1688262939453125,7.105807495117188,1713726912624.0
7.178000000000026,6.700564575195313,-0.6637908935546876,6.088214111328125,1713726912634.0
7.188000000000017,7.136611938476563,-0.8462249755859376,6.251657104492188,1713726912644.0
7.1980000000000075,6.910513305664063,-0.4311126708984375,7.401141357421875,1713726912654.0
7.209000000000032,6.856381225585938,0.108563232421875,7.8629089355468755,1713726912665.0
7.2190000000000225,7.559500122070313,0.6362762451171875,7.494750976562501,1713726912675.0
7.229000000000013,6.127243041992188,0.9356475830078126,6.456222534179688,1713726912685.0
7.239000000000004,6.0106048583984375,1.4856414794921875,6.5514770507812505,1713726912695.0
7.251000000000005,7.029244995117188,1.30096435546875,8.165270996093751,1713726912707.0
7.258999999999986,7.296914672851563,0.131292724609375,7.381103515625001,1713726912715.0
7.269000000000034,7.574603271484375,-0.6694732666015626,6.417642211914063,1713726912725.0
7.279000000000025,6.132177734375,-0.61549072265625,6.246871948242188,1713726912735.0
7.289000000000016,6.609945678710938,-0.1949951171875,7.323681640625001,1713726912745.0
7.299000000000007,7.334747314453126,-0.4864410400390625,8.286245727539063,1713726912755.0
7.308999999999997,7.518975830078125,-0.707305908203125,6.045297241210938,1713726912765.0
7.318999999999988,7.026553344726563,-0.1885650634765625,5.705252075195313,1713726912775.0
7.328999999999979,6.603366088867188,0.4951141357421875,6.337191772460938,1713726912785.0
7.339000000000027,7.127789306640626,0.9398345947265626,8.478250122070314,1713726912795.0
7.3510000000000275,6.90079345703125,0.693548583984375,8.215664672851563,1713726912807.0
7.359999999999985,6.148626708984375,0.5393768310546876,5.973370361328126,1713726912816.0
7.370000000000033,6.489718627929688,0.424981689453125,6.574954223632813,1713726912826.0
7.380000000000024,7.349252319335938,0.2382110595703125,7.628585815429688,1713726912836.0
7.390000000000015,7.315606689453125,-0.005682373046875,7.885787963867188,1713726912846.0
7.400000000000006,6.3893798828125,-0.246435546875,6.429006958007813,1713726912856.0
7.409999999999997,6.543551635742188,-0.265875244140625,6.051278686523438,1713726912866.0
7.4199999999999875,7.359570312500001,-0.22550048828125,7.553967285156251,1713726912876.0
7.429999999999978,7.485479736328125,-0.263482666015625,7.091003417968751,1713726912886.0
7.440000000000026,7.385739135742188,-0.25361328125,6.440072631835938,1713726912896.0
7.452000000000027,6.609347534179688,-0.2618377685546875,5.4227783203125,1713726912908.0
7.460000000000008,6.965393066406251,0.0562255859375,7.211679077148438,1713726912916.0
7.469999999999999,6.760977172851563,0.4529449462890625,8.597131347656251,1713726912926.0
7.47999999999999,6.498242187500001,0.6077148437500001,7.680325317382813,1713726912936.0
7.489999999999981,6.308929443359376,0.6748565673828125,6.807034301757813,1713726912946.0
7.501000000000005,6.672152709960938,0.567938232421875,6.288891601562501,1713726912957.0
7.510999999999996,7.654156494140626,0.5932098388671876,7.525555419921876,1713726912967.0
7.520999999999987,7.233212280273438,0.0874786376953125,6.682919311523438,1713726912977.0
7.531000000000034,6.6935363769531255,-0.5706298828125,6.087466430664063,1713726912987.0
7.541000000000025,7.063488769531251,-0.940283203125,6.256292724609375,1713726912997.0
7.551999999999992,7.0473388671875,-1.0469024658203123,7.640399169921875,1713726913008.0
7.561000000000007,7.385739135742188,-0.7775878906250001,7.510003662109376,1713726913017.0
7.570999999999998,7.506265258789063,-0.00179443359375,7.035675048828126,1713726913027.0
7.580999999999989,5.4209838867187505,0.9748260498046876,6.309078979492188,1713726913037.0
7.59099999999998,6.199917602539063,1.7343200683593751,7.332653808593751,1713726913047.0
7.6010000000000275,7.263119506835938,1.66702880859375,8.753695678710939,1713726913057.0
7.611000000000018,7.342373657226563,0.8453277587890625,6.7907348632812505,1713726913067.0
7.621000000000009,6.9731689453125005,0.1078155517578125,5.94017333984375,1713726913077.0
7.631,6.7961181640625,-0.151629638671875,5.934640502929688,1713726913087.0
7.640999999999991,7.079190063476563,-0.62625732421875,8.088858032226563,1713726913097.0
7.652000000000015,6.799856567382813,-1.2616363525390626,7.62694091796875,1713726913108.0
7.662000000000006,7.134967041015625,-1.2765899658203126,6.600674438476563,1713726913118.0
7.671999999999997,6.409268188476563,-0.6787445068359376,6.219656372070313,1713726913128.0
7.681999999999988,7.074554443359376,0.55447998046875,7.313064575195313,1713726913138.0
7.691999999999979,7.347308349609375,1.295281982421875,7.957714843750001,1713726913148.0
7.702000000000027,6.757687377929688,1.471435546875,6.5036254882812505,1713726913158.0
7.7120000000000175,6.506167602539063,1.3305725097656251,6.1567016601562505,1713726913168.0
7.722000000000008,6.707891845703125,0.784765625,7.1840148925781255,1713726913178.0
7.731999999999999,7.262222290039063,0.0897216796875,8.230020141601564,1713726913188.0
7.74199999999999,6.341677856445313,-0.735418701171875,7.5234619140625005,1713726913198.0
7.751999999999981,6.778921508789063,-1.167877197265625,5.9757629394531255,1713726913208.0
7.762000000000029,6.927261352539063,-1.203765869140625,6.759033203125001,1713726913218.0
7.77200000000002,7.633071899414063,-0.7928405761718751,6.620413208007813,1713726913228.0
7.782000000000011,7.978500366210938,-0.1203765869140625,7.085919189453126,1713726913238.0
7.792000000000002,6.702209472656251,0.2056121826171875,5.390628051757813,1713726913248.0
7.803000000000026,6.892120361328126,0.805401611328125,6.600524902343751,1713726913259.0
7.813000000000017,6.447399902343751,1.1011840820312502,8.2029541015625,1713726913269.0
7.823000000000008,6.462353515625001,1.114044189453125,8.364453125,1713726913279.0
7.832999999999998,6.182421875,0.893927001953125,8.063586425781251,1713726913289.0
7.842999999999989,6.4156982421875,0.18721923828125,5.974118041992188,1713726913299.0
7.85299999999998,7.54080810546875,-0.0100189208984375,7.064984130859376,1713726913309.0
7.863000000000028,7.402038574218751,-0.474627685546875,6.520672607421876,1713726913319.0
7.873000000000019,7.285400390625001,-0.6673797607421875,6.554318237304688,1713726913329.0
7.88300000000001,6.902139282226563,-0.8391967773437501,6.0950927734375,1713726913339.0
7.893000000000001,6.641049194335938,-0.9667510986328126,6.578244018554688,1713726913349.0
7.904000000000025,7.382000732421876,-0.3940277099609375,7.694381713867188,1713726913360.0
7.9129999999999825,6.8565307617187505,0.009869384765625,7.49833984375,1713726913369.0
7.92300000000003,7.836590576171876,0.6839782714843751,6.7503601074218755,1713726913379.0
7.933000000000021,6.159393310546876,1.4150604248046876,6.807333374023438,1713726913389.0
7.943999999999988,5.763720703125,1.8382476806640624,7.0075622558593755,1713726913400.0
7.953999999999979,6.955972290039063,1.5508392333984375,8.346359252929688,1713726913410.0
7.964000000000027,6.842922973632813,0.0037384033203125,7.164126586914063,1713726913420.0
7.974000000000018,7.639202880859376,-0.9359466552734376,6.326724243164063,1713726913430.0
7.984000000000009,6.727182006835938,-0.9052917480468752,6.734210205078125,1713726913440.0
7.994,6.44859619140625,-0.4822540283203125,6.943859863281251,1713726913450.0
8.00399999999999,7.437179565429688,-0.470440673828125,7.947247314453126,1713726913460.0
8.013999999999982,7.464544677734375,-0.907086181640625,5.60760498046875,1713726913470.0
8.02400000000003,7.422824096679688,-0.276641845703125,6.028399658203125,1713726913480.0
8.03400000000002,6.51439208984375,0.6465942382812501,6.860717773437501,1713726913490.0
8.044000000000011,6.472073364257813,1.2970764160156252,8.337088012695313,1713726913500.0
8.054000000000002,6.751406860351563,1.158755493164063,8.613131713867189,1713726913510.0
8.063999999999993,6.179730224609376,0.6519775390625,6.0609985351562505,1713726913520.0
8.075000000000017,6.8320068359375,0.66094970703125,6.725088500976563,1713726913531.0
8.084000000000032,7.143191528320313,0.3078948974609375,7.191342163085938,1713726913540.0
8.094000000000023,7.251156616210938,-0.1239654541015625,7.589407348632813,1713726913550.0
8.10499999999999,6.754248046875,-0.6264068603515626,6.677835083007813,1713726913561.0
8.11499999999998,6.555215454101563,-0.8146728515625,6.028698730468751,1713726913571.0
8.125000000000028,7.361962890625,-0.5384796142578125,7.332205200195313,1713726913581.0
8.13500000000002,7.307232666015626,-0.463262939453125,7.062442016601563,1713726913591.0
8.14500000000001,7.650717163085938,-0.2956329345703125,6.166122436523438,1713726913601.0
8.155000000000001,7.11552734375,-0.077459716796875,5.6786346435546875,1713726913611.0
8.164999999999992,6.521121215820313,0.311334228515625,6.635366821289063,1713726913621.0
8.174999999999983,6.634320068359376,0.92772216796875,9.068618774414062,1713726913631.0
8.18500000000003,6.043801879882813,1.0371826171875,8.229272460937501,1713726913641.0
8.195000000000022,6.488821411132813,0.9039459228515626,7.147079467773438,1713726913651.0
8.205000000000013,6.663330078125001,0.4844970703125,6.191693115234376,1713726913661.0
8.215000000000003,7.637258911132813,0.2572021484375,6.697872924804688,1713726913671.0
8.224999999999994,7.393515014648438,-0.06519775390625,7.016683959960938,1713726913681.0
8.236000000000018,6.988421630859375,-0.8680572509765626,6.024810791015625,1713726913692.0
8.24600000000001,7.392169189453125,-1.3963684082031251,6.0191284179687505,1713726913702.0
8.256,7.185360717773438,-1.4436218261718752,6.784902954101563,1713726913712.0
8.268,6.810623168945313,-0.7699615478515626,7.968032836914063,1713726913724.0
8.275999999999982,7.183267211914063,0.413616943359375,7.993453979492188,1713726913732.0
8.28600000000003,5.609698486328125,1.54141845703125,7.208389282226563,1713726913742.0
8.29600000000002,5.9971466064453125,2.1561614990234377,6.556411743164063,1713726913752.0
8.306000000000012,7.266558837890625,1.9438201904296877,7.865899658203125,1713726913762.0
8.316000000000003,7.8030944824218755,1.0543792724609375,6.780865478515626,1713726913772.0
8.325999999999993,7.263717651367188,-0.0826934814453125,6.26915283203125,1713726913782.0
8.335999999999984,6.620712280273438,-0.887945556640625,6.157748413085938,1713726913792.0
8.346000000000032,6.844866943359375,-1.332666015625,7.411907958984376,1713726913802.0
8.356000000000023,6.505868530273438,-1.6414581298828126,8.243777465820314,1713726913812.0
8.368000000000023,7.095489501953126,-1.1998779296875002,6.992459106445313,1713726913824.0
8.376999999999981,6.734658813476563,-0.3419891357421875,6.624002075195313,1713726913833.0
8.387000000000029,7.0733581542968755,0.9706390380859377,6.144589233398438,1713726913843.0
8.39700000000002,7.458563232421875,1.9127166748046875,7.359121704101563,1713726913853.0
8.40700000000001,7.031637573242188,1.9554840087890624,7.030291748046875,1713726913863.0
8.417000000000002,6.386538696289063,1.44571533203125,6.56822509765625,1713726913873.0
8.426999999999992,6.490914916992188,0.6024810791015626,7.459909057617188,1713726913883.0
8.436999999999983,6.636264038085938,-0.448309326171875,7.754943847656251,1713726913893.0
8.447000000000031,6.7961181640625,-1.197186279296875,8.1060546875,1713726913903.0
8.457000000000022,6.590057373046876,-1.43973388671875,6.4767089843750005,1713726913913.0
8.469000000000023,7.1406494140625005,-1.110903930664063,6.39775390625,1713726913925.0
8.477000000000004,7.386337280273438,-0.489581298828125,6.362612915039063,1713726913933.0
8.486999999999995,8.165420532226562,0.112750244140625,6.146383666992188,1713726913943.0
8.496999999999986,7.90567626953125,0.4653564453125,5.872732543945313,1713726913953.0
8.507000000000033,6.590505981445313,0.5603118896484376,5.847909545898438,1713726913963.0
8.517000000000024,6.20694580078125,0.9320587158203124,8.345761108398438,1713726913973.0
8.527999999999992,5.5447998046875,0.9945648193359377,9.367691040039062,1713726913984.0
8.537999999999982,6.1581970214843755,0.7289886474609375,8.710330200195314,1713726913994.0
8.54800000000003,6.689797973632813,0.183331298828125,6.5230651855468755,1713726914004.0
8.558000000000021,7.442413330078126,-0.1256103515625,5.535977172851563,1713726914014.0
8.568999999999988,7.720550537109376,0.09390869140625,6.373080444335938,1713726914025.0
8.578000000000003,7.195080566406251,-0.2935394287109375,6.436184692382813,1713726914034.0
8.587999999999994,7.691989135742188,-0.77998046875,6.478802490234376,1713726914044.0
8.597999999999985,6.8320068359375,-1.42298583984375,6.103616333007813,1713726914054.0
8.608000000000033,6.764266967773438,-0.97198486328125,7.176239013671876,1713726914064.0
8.618000000000023,6.627142333984375,0.1413116455078125,8.769097900390626,1713726914074.0
8.628000000000014,6.893167114257813,0.8910858154296876,8.001528930664064,1713726914084.0
8.638000000000005,5.90667724609375,1.62874755859375,6.596786499023438,1713726914094.0
8.647999999999996,6.396408081054688,1.7465820312500002,6.0255584716796875,1713726914104.0
8.657999999999987,7.775430297851563,1.4500518798828126,7.233660888671875,1713726914114.0
8.669000000000011,7.609893798828126,0.190509033203125,7.157696533203126,1713726914125.0
8.679000000000002,7.065731811523438,-0.6993804931640626,6.762472534179688,1713726914135.0
8.688999999999993,5.959912109375001,-0.8824127197265625,6.580636596679688,1713726914145.0
8.698999999999984,6.369940185546875,-1.0457061767578126,7.811169433593751,1713726914155.0
8.709000000000032,7.569967651367188,-0.9455169677734376,7.9900146484375005,1713726914165.0
8.719000000000023,7.339682006835938,-0.7408020019531251,6.209786987304688,1713726914175.0
8.729000000000013,6.955523681640625,0.2133880615234375,5.387786865234375,1713726914185.0
8.739000000000004,7.086965942382813,1.0913146972656251,6.565383911132813,1713726914195.0
8.748999999999995,7.078292846679688,1.29976806640625,8.066427612304688,1713726914205.0
8.758999999999986,6.966290283203126,1.15980224609375,7.8392822265625,1713726914215.0
8.769000000000034,5.707345581054688,0.6682769775390626,6.605908203125001,1713726914225.0
8.779000000000025,6.5066162109375005,0.253314208984375,6.9061767578125,1713726914235.0
8.789000000000016,7.311868286132813,-0.2121917724609375,8.176934814453126,1713726914245.0
8.799999999999983,6.814212036132813,-0.5220306396484375,7.288092041015625,1713726914256.0
8.808999999999997,6.886587524414063,-0.4529449462890625,6.353640747070313,1713726914265.0
8.820000000000022,6.634619140625,-0.39417724609375,6.178833007812501,1713726914276.0
8.830000000000013,7.7052978515625,-0.2139862060546875,6.8086791992187505,1713726914286.0
8.840000000000003,7.961004638671875,-0.1667327880859375,7.052273559570313,1713726914296.0
8.849999999999994,7.147976684570313,-0.2237060546875,5.3689453125,1713726914306.0
8.859999999999985,6.734060668945313,0.004486083984375,6.734658813476563,1713726914316.0
8.870000000000033,6.152813720703126,0.211444091796875,7.658493041992188,1713726914326.0
8.880000000000024,6.53233642578125,0.6147430419921875,9.135760498046876,1713726914336.0
8.890000000000015,6.357827758789063,0.7135864257812501,7.807879638671875,1713726914346.0
8.900000000000006,6.568374633789063,0.5985931396484375,5.930303955078125,1713726914356.0
8.909999999999997,7.407571411132813,0.74110107421875,6.621459960937501,1713726914366.0
8.919999999999987,7.177285766601563,0.450103759765625,6.674545288085938,1713726914376.0
8.929999999999978,7.598828125000001,0.151629638671875,6.987673950195313,1713726914386.0
8.940000000000026,6.721649169921876,-0.859234619140625,6.064138793945313,1713726914396.0
8.950000000000017,6.848455810546875,-1.46724853515625,6.164028930664063,1713726914406.0
8.960000000000008,7.182818603515625,-1.1022308349609375,7.927957153320313,1713726914416.0
8.971000000000032,6.602468872070313,-0.6889129638671876,7.72025146484375,1713726914427.0
8.981000000000023,7.572659301757813,0.2643798828125,7.426861572265626,1713726914437.0
8.991000000000014,6.225039672851563,1.1496337890625,6.277227783203125,1713726914447.0
9.001000000000005,6.249862670898438,2.0037841796875,6.557308959960938,1713726914457.0
9.010999999999996,7.181472778320313,2.1648345947265626,8.210879516601564,1713726914467.0
9.020999999999988,7.0150390625000005,0.8984130859375,7.030590820312501,1713726914477.0
9.031000000000034,7.409515380859376,-0.264080810546875,6.462503051757813,1713726914487.0
9.041000000000023,6.3439208984375,-0.9082824707031252,6.589907836914063,1713726914497.0
9.051000000000016,6.836791992187501,-0.8910858154296876,7.377365112304688,1713726914507.0
9.061000000000009,6.78953857421875,-1.2577484130859375,8.195477294921876,1713726914517.0
9.070999999999998,7.454525756835938,-1.28421630859375,5.975314331054688,1713726914527.0
9.080999999999989,7.006665039062501,-0.447412109375,6.300405883789063,1713726914537.0
9.09099999999998,6.870437622070313,0.8381500244140626,6.561047363281251,1713726914547.0
9.101000000000028,6.9073730468750005,1.8217987060546876,7.928256225585938,1713726914557.0
9.111999999999997,6.969580078125,1.667626953125,7.777972412109375,1713726914568.0
9.121999999999986,6.1070556640625,1.1964385986328123,6.154608154296875,1713726914578.0
9.132000000000032,6.6905456542968755,0.6658843994140625,7.301101684570313,1713726914588.0
9.142000000000024,6.885540771484376,-0.1543212890625,7.5384155273437505,1713726914598.0
9.152000000000015,7.159790039062501,-0.9989013671875,7.617071533203125,1713726914608.0
9.162000000000006,6.967037963867188,-1.4839965820312502,6.184963989257813,1713726914618.0
9.171999999999995,6.886737060546875,-1.3492645263671876,5.901742553710938,1713726914628.0
9.181999999999988,7.486077880859376,-0.6168365478515625,7.00487060546875,1713726914638.0
9.19199999999998,7.508358764648438,0.0524871826171875,6.97257080078125,1713726914648.0
9.202000000000028,7.337289428710938,0.5878265380859375,6.561346435546875,1713726914658.0
9.212000000000018,6.300106811523438,0.9482086181640624,6.157299804687501,1713726914668.0
9.222000000000008,6.525009155273438,1.3905364990234377,7.865301513671875,1713726914678.0
9.232,6.2601806640625,1.34462890625,8.802593994140626,1713726914688.0
9.24199999999999,6.5036254882812505,0.7116424560546876,7.809823608398438,1713726914698.0
9.253000000000014,6.84935302734375,-0.0680389404296875,6.347659301757813,1713726914709.0
9.263000000000003,7.05032958984375,-0.6255096435546875,6.007015991210938,1713726914719.0
9.272999999999996,7.622006225585938,-0.672314453125,6.875521850585938,1713726914729.0
9.282999999999989,7.151266479492188,-0.8095886230468751,6.9001953125,1713726914739.0
9.293000000000037,7.063638305664063,-0.8952728271484376,6.233413696289063,1713726914749.0
9.303000000000026,6.759930419921876,-0.660650634765625,6.536373901367188,1713726914759.0
9.313000000000017,7.043600463867188,-0.1039276123046875,6.9037841796875,1713726914769.0
9.323000000000008,7.147378540039063,0.679791259765625,8.316003417968751,1713726914779.0
9.332999999999998,7.546340942382813,1.0268646240234376,6.868643188476563,1713726914789.0
9.34299999999999,5.62255859375,1.4415283203125,6.87088623046875,1713726914799.0
9.35299999999998,6.0328857421875,1.54141845703125,6.764117431640625,1713726914809.0
9.363000000000028,7.048236083984375,0.8809173583984375,8.3345458984375,1713726914819.0
9.37300000000002,7.545443725585938,-0.487786865234375,7.222146606445313,1713726914829.0
9.38300000000001,7.379159545898438,-1.25789794921875,6.0091094970703125,1713726914839.0
9.393,6.418988037109376,-0.787457275390625,6.276928710937501,1713726914849.0
9.404000000000025,6.513644409179688,-0.2660247802734375,7.521667480468751,1713726914860.0
9.414000000000016,7.549929809570313,-0.275445556640625,8.201010131835938,1713726914870.0
9.424000000000008,7.627389526367188,-0.3859527587890625,5.665475463867188,1713726914880.0
9.433999999999996,6.637310791015626,0.122320556640625,5.636166381835938,1713726914890.0
9.443999999999988,6.718359375,1.0276123046875,7.090853881835938,1713726914900.0
9.45399999999998,6.821688842773438,1.1324371337890626,8.941812133789064,1713726914910.0
9.464000000000029,6.795071411132813,0.7119415283203125,7.962799072265626,1713726914920.0
9.474000000000018,6.2090393066406255,0.23626708984375,5.695980834960938,1713726914930.0
9.484000000000009,6.758435058593751,0.04844970703125,6.408520507812501,1713726914940.0
9.494,7.534378051757813,0.0151031494140625,7.904629516601563,1713726914950.0
9.50399999999999,7.033731079101563,-0.2247528076171875,7.8270202636718755,1713726914960.0
9.513999999999982,6.496896362304688,-0.349615478515625,6.0903076171875,1713726914970.0
9.52400000000003,6.7383972167968755,-0.2980255126953125,6.226684570312501,1713726914980.0
9.53400000000002,7.168911743164063,-0.096002197265625,7.273287963867188,1713726914990.0
9.544000000000011,7.836590576171876,0.0315521240234375,7.463946533203125,1713726915000.0
9.554999999999978,6.973767089843751,-0.0811981201171875,6.161038208007813,1713726915011.0
9.565000000000026,6.908419799804688,-0.1140960693359375,5.507266235351563,1713726915021.0
9.575000000000015,6.630581665039063,0.1090118408203125,7.493704223632813,1713726915031.0
9.585000000000008,6.652413940429688,0.5082733154296876,8.626290893554689,1713726915041.0
9.595,6.459960937500001,0.7509704589843751,8.337686157226564,1713726915051.0
9.60499999999999,6.287545776367188,0.44561767578125,5.972323608398438,1713726915061.0
9.61499999999998,7.413552856445313,0.3629241943359375,6.243881225585938,1713726915071.0
9.625000000000028,7.446899414062501,0.307147216796875,7.030291748046875,1713726915081.0
9.63500000000002,7.048236083984375,0.1727142333984375,7.045394897460938,1713726915091.0
9.64500000000001,6.719555664062501,-0.33795166015625,6.681124877929688,1713726915101.0
9.655,6.830810546875001,-1.1907562255859376,5.8905273437500005,1713726915111.0
9.664999999999992,7.588958740234376,-1.018191528320313,7.431796264648438,1713726915121.0
9.674999999999985,6.93369140625,-0.6304443359375,7.30394287109375,1713726915131.0
9.686000000000009,7.334896850585938,0.28292236328125,7.4744140625,1713726915142.0
9.695999999999998,5.8187500000000005,1.0830902099609376,6.7697998046875005,1713726915152.0
9.705999999999989,6.115728759765625,1.5447082519531252,7.001132202148438,1713726915162.0
9.71599999999998,7.150518798828125,1.7921905517578127,8.164224243164064,1713726915172.0
9.726000000000028,7.126293945312501,0.8164672851562501,6.871334838867188,1713726915182.0
9.736000000000018,7.531088256835938,0.002093505859375,6.340182495117188,1713726915192.0
9.74600000000001,6.623553466796875,-0.518890380859375,6.231619262695313,1713726915202.0
9.756,6.934140014648438,-0.6999786376953125,7.2632690429687505,1713726915212.0
9.768,6.791333007812501,-1.100885009765625,7.829861450195313,1713726915224.0
9.775999999999982,7.083377075195313,-1.2730010986328126,6.761724853515625,1713726915232.0
9.78600000000003,6.840530395507813,-0.4640106201171875,6.613534545898438,1713726915242.0
9.79600000000002,6.614880371093751,0.6639404296875,6.941168212890625,1713726915252.0
9.806000000000012,7.139602661132813,1.4795104980468752,7.387982177734376,1713726915262.0
9.816000000000004,7.229922485351563,1.4401824951171875,7.204351806640625,1713726915272.0
9.825999999999992,6.462353515625001,1.0706787109375,6.011502075195313,1713726915282.0
9.835999999999984,6.83798828125,0.6922027587890626,7.134518432617188,1713726915292.0
9.847000000000008,6.747219848632813,-0.0393280029296875,7.943359375000001,1713726915303.0
9.857,6.638357543945313,-0.7550079345703126,7.6700073242187505,1713726915313.0
9.869,6.738995361328126,-1.1381195068359375,6.823333740234376,1713726915325.0
9.87699999999998,6.740490722656251,-1.0295562744140625,6.267507934570313,1713726915333.0
9.887000000000029,7.612884521484376,-0.4711883544921875,6.7982116699218755,1713726915343.0
9.89700000000002,7.6478759765625,0.0240753173828125,6.6621337890625005,1713726915353.0
9.90700000000001,7.661782836914063,0.3177642822265625,5.6322784423828125,1713726915363.0
9.917000000000002,6.696228027343751,0.5713775634765625,6.530093383789063,1713726915373.0
9.926999999999992,6.4276611328125,0.8421875000000001,7.463348388671876,1713726915383.0
9.936999999999983,6.0968872070312505,0.9944152832031252,9.2820068359375,1713726915393.0
9.947000000000031,6.1686645507812505,0.6006866455078126,7.877713012695313,1713726915403.0
9.957000000000022,6.826773071289063,0.07835693359375,6.615927124023438,1713726915413.0
9.969000000000024,7.344616699218751,-0.23985595703125,6.045297241210938,1713726915425.0
9.97799999999998,7.428356933593751,-0.14833984375,6.556411743164063,1713726915434.0
9.988000000000028,7.209884643554688,-0.099591064453125,7.004272460937501,1713726915444.0
9.99800000000002,6.829763793945313,-0.5523864746093751,6.262722778320313,1713726915454.0
10.00800000000001,7.322933959960938,-0.7891021728515626,6.490316772460938,1713726915464.0
10.018,6.537121582031251,-0.7379608154296875,6.859820556640625,1713726915474.0
10.027999999999992,7.013992309570313,0.0779083251953125,8.061044311523439,1713726915484.0
10.037999999999982,7.012945556640625,0.5543304443359376,7.6595397949218755,1713726915494.0
10.04800000000003,7.050628662109376,0.8677581787109375,6.931597900390625,1713726915504.0
10.05800000000002,6.0121002197265625,1.382611083984375,6.05740966796875,1713726915514.0
10.068999999999988,6.731817626953125,1.428070068359375,7.329513549804688,1713726915525.0
10.078000000000005,7.296017456054688,0.6446502685546875,7.86978759765625,1713726915534.0
10.087999999999994,7.325027465820313,-0.7017730712890625,6.7742858886718755,1713726915544.0
10.097999999999985,6.796566772460938,-0.8167663574218751,6.675442504882813,1713726915554.0
10.108000000000033,5.9874267578125,-0.4320098876953125,6.768154907226563,1713726915564.0
10.118000000000023,7.143939208984375,-0.3518585205078125,8.089007568359376,1713726915574.0
10.12899999999999,7.707241821289063,-0.6256591796875001,6.78714599609375,1713726915585.0
10.138999999999982,7.390823364257813,-0.43245849609375,5.5555664062500005,1713726915595.0
10.14900000000003,6.7354064941406255,0.42408447265625,5.725289916992188,1713726915605.0
10.15900000000002,6.654357910156251,0.949853515625,8.010800170898438,1713726915615.0
10.169000000000011,6.953579711914063,0.8451782226562501,8.639300537109376,1713726915625.0
10.179000000000002,6.40732421875,0.5864807128906251,7.212127685546876,1713726915635.0
10.188999999999991,6.078195190429688,0.5374328613281251,6.08970947265625,1713726915645.0
10.198999999999984,7.1227050781250005,0.416009521484375,7.126593017578125,1713726915655.0
10.209000000000032,7.480245971679688,0.064300537109375,7.816104125976563,1713726915665.0
10.219000000000024,6.829315185546876,-0.2465850830078125,6.8924194335937505,1713726915675.0
10.229000000000012,6.657199096679688,-0.38101806640625,6.002230834960938,1713726915685.0
10.239000000000004,6.687255859375001,-0.4018035888671875,6.818249511718751,1713726915695.0
10.248999999999995,7.6341186523437505,-0.4137664794921875,7.347607421875001,1713726915705.0
10.258999999999986,7.721148681640625,-0.472235107421875,6.9755615234375,1713726915715.0
10.27000000000001,6.969281005859376,-0.3572418212890625,5.259634399414063,1713726915726.0
10.28,6.5963378906250005,0.0817962646484375,6.587066650390626,1713726915736.0
10.289999999999992,6.548187255859376,0.5964996337890626,8.33753662109375,1713726915746.0
10.299999999999985,6.642843627929688,0.9773681640625,8.625094604492189,1713726915756.0
10.31000000000003,6.347210693359376,0.8800201416015626,7.102966308593751,1713726915766.0
10.320000000000022,6.648376464843751,0.61549072265625,5.944958496093751,1713726915776.0
10.330000000000013,7.454974365234375,0.493170166015625,6.893765258789063,1713726915786.0
10.340000000000003,7.1585937500000005,0.1471435546875,7.180426025390625,1713726915796.0
10.349999999999994,7.135116577148438,-0.4352996826171875,6.746173095703125,1713726915806.0
10.359999999999983,6.738546752929688,-1.3525543212890625,5.774935913085938,1713726915816.0
10.370000000000031,7.511050415039063,-1.435546875,6.513195800781251,1713726915826.0
10.380000000000024,6.858624267578126,-0.8842071533203125,7.903582763671875,1713726915836.0
10.390000000000017,7.565930175781251,-0.03050537109375,7.597781372070313,1713726915846.0
10.400000000000006,6.3002563476562505,1.095950317382813,7.114181518554688,1713726915856.0
10.409999999999997,5.394665527343751,1.7356658935546876,6.222348022460938,1713726915866.0
10.42100000000002,7.039114379882813,2.1319366455078126,8.226730346679688,1713726915877.0
10.431000000000012,7.363159179687501,1.353152465820313,7.656100463867188,1713726915887.0
10.441000000000004,7.504171752929688,0.13697509765625,6.324929809570313,1713726915897.0
10.450999999999992,6.717312622070313,-0.557470703125,5.9817443847656255,1713726915907.0
10.460999999999984,6.596487426757813,-0.9458160400390626,6.601123046875,1713726915917.0
10.471000000000032,7.0808349609375005,-1.2643280029296875,8.480044555664064,1713726915927.0
10.481000000000025,7.140948486328125,-1.4904266357421876,6.98453369140625,1713726915937.0
10.491000000000014,6.701760864257813,-0.8634216308593751,6.4662414550781255,1713726915947.0
10.501000000000005,6.8266235351562505,0.48509521484375,6.256442260742188,1713726915957.0
10.510999999999996,6.928756713867188,1.6006347656250002,7.699017333984376,1713726915967.0
10.520999999999988,7.535873413085938,1.888043212890625,7.6191650390625005,1713726915977.0
10.531000000000034,6.227133178710938,1.450799560546875,6.321789550781251,1713726915987.0
10.541000000000023,6.460110473632813,0.8800201416015626,6.450988769531251,1713726915997.0
10.551000000000016,7.0539184570312505,0.093310546875,7.9780517578125005,1713726916007.0
10.561000000000009,6.66392822265625,-0.8309722900390626,8.025604248046875,1713726916017.0
10.572000000000031,6.812268066406251,-1.33206787109375,6.6860595703125005,1713726916028.0
10.582000000000022,6.815856933593751,-1.454388427734375,6.1492248535156255,1713726916038.0
10.592000000000011,7.421328735351563,-0.9006561279296875,6.169711303710938,1713726916048.0
10.602000000000004,7.986575317382813,-0.0538330078125,7.296914672851563,1713726916058.0
10.611999999999997,7.158444213867188,0.41690673828125,6.034829711914063,1713726916068.0
10.62300000000002,6.934140014648438,0.8957214355468751,6.176739501953126,1713726916079.0
10.632000000000032,6.2099365234375,1.108062744140625,7.406524658203126,1713726916088.0
10.642000000000024,6.442016601562501,1.15621337890625,8.682366943359376,1713726916098.0
10.652000000000015,6.302200317382813,0.9120208740234376,8.696572875976564,1713726916108.0
10.662000000000006,6.289489746093751,0.1825836181640625,6.375323486328125,1713726916118.0
10.671999999999995,7.302746582031251,-0.2244537353515625,6.479251098632813,1713726916128.0
10.681999999999988,7.46544189453125,-0.539227294921875,6.261526489257813,1713726916138.0
10.69199999999998,7.470227050781251,-0.5598632812500001,6.816754150390626,1713726916148.0
10.703000000000005,6.996795654296876,-0.6996795654296876,6.36246337890625,1713726916159.0
10.712999999999994,6.698171997070313,-0.8149719238281251,6.351696777343751,1713726916169.0
10.722999999999985,7.14244384765625,-0.4510009765625,7.1570983886718755,1713726916179.0
10.733000000000033,7.107452392578126,0.0366363525390625,7.785299682617188,1713726916189.0
10.743000000000023,7.682119750976563,0.74169921875,7.154556274414063,1713726916199.0
10.753000000000014,5.717214965820313,1.377078247070313,6.9432617187500005,1713726916209.0
10.763000000000003,5.848956298828125,1.6683746337890626,6.74228515625,1713726916219.0
10.772999999999996,7.092050170898438,1.361676025390625,8.345910644531251,1713726916229.0
10.78600000000003,7.229025268554688,-0.076263427734375,7.005767822265626,1713726916242.0
10.793000000000037,7.691540527343751,-0.8605804443359376,6.22489013671875,1713726916249.0
10.803000000000026,6.329714965820313,-0.7686157226562501,6.416445922851563,1713726916259.0
10.813000000000017,6.372781372070313,-0.4206451416015625,7.325924682617188,1713726916269.0
10.823000000000008,7.576397705078126,-0.4675994873046875,8.4278564453125,1713726916279.0
10.832999999999998,7.507611083984376,-0.8871978759765625,5.4323486328125,1713726916289.0
10.84299999999999,7.147976684570313,-0.2896514892578125,5.70330810546875,1713726916299.0
10.85299999999998,6.657498168945313,0.67889404296875,6.7069946289062505,1713726916309.0
10.864000000000004,6.674993896484375,1.2229064941406251,8.649468994140626,1713726916320.0
10.873999999999995,6.803146362304688,1.0950531005859376,8.6216552734375,1713726916330.0
10.88500000000002,5.966043090820313,0.5957519531250001,5.795721435546875,1713726916341.0
10.894000000000034,6.818997192382813,0.5025909423828125,6.595889282226563,1713726916350.0
10.904000000000025,7.330560302734376,0.2767913818359375,7.533779907226563,1713726916360.0
10.914000000000016,7.188949584960938,-0.08134765625,7.733709716796875,1713726916370.0
10.924000000000008,6.633871459960938,-0.4711883544921875,6.532635498046876,1713726916380.0
10.933999999999996,6.463848876953126,-0.70401611328125,5.831311035156251,1713726916390.0
10.943999999999988,7.5144897460937505,-0.46595458984375,7.401889038085938,1713726916400.0
10.95399999999998,7.413851928710938,-0.3985137939453125,7.281811523437501,1713726916410.0
10.964000000000029,7.356579589843751,-0.2438934326171875,6.236105346679688,1713726916420.0
10.974000000000018,6.926962280273438,-0.0261688232421875,5.713775634765625,1713726916430.0
10.986000000000018,6.563140869140626,0.2403045654296875,6.822286987304688,1713726916442.0
10.994,6.804791259765626,0.877178955078125,8.970523071289064,1713726916450.0
11.005000000000024,6.08970947265625,1.00069580078125,8.174542236328126,1713726916461.0
11.015000000000017,6.465942382812501,0.8288787841796875,6.694732666015626,1713726916471.0
11.025000000000006,6.888980102539063,0.423187255859375,6.260031127929688,1713726916481.0
11.034999999999997,7.694381713867188,0.1614990234375,6.8200439453125,1713726916491.0
11.044999999999987,7.211679077148438,-0.0372344970703125,7.131976318359375,1713726916501.0
11.054999999999978,6.618469238281251,-0.7119415283203125,6.237750244140625,1713726916511.0
11.065000000000026,7.017730712890626,-1.1580078125000002,6.340032958984375,1713726916521.0
11.075000000000015,7.470974731445313,-1.2389068603515625,6.886138916015626,1713726916531.0
11.085999999999984,7.022366333007813,-0.7736999511718751,7.464096069335938,1713726916542.0
11.095,7.534378051757813,0.22908935546875,7.213323974609375,1713726916551.0
11.10499999999999,5.7664123535156255,1.2616363525390626,7.194332885742188,1713726916561.0
11.11499999999998,5.8785644531250005,1.9521942138671875,6.9268127441406255,1713726916571.0
11.125000000000028,6.8535400390625005,1.9086791992187504,8.431594848632812,1713726916581.0
11.13500000000002,7.430300903320313,0.9398345947265626,6.8565307617187505,1713726916591.0
11.14500000000001,7.4684326171875,-0.1051239013671875,6.2688537597656255,1713726916601.0
11.156000000000034,6.815109252929688,-0.6045745849609375,6.076251220703125,1713726916612.0
11.166000000000023,6.794473266601563,-0.8228973388671875,7.197174072265626,1713726916622.0
11.176000000000016,6.690695190429688,-1.3414886474609375,7.909713745117188,1713726916632.0
11.186000000000009,7.354486083984376,-1.3244415283203126,6.700265502929688,1713726916642.0
11.195999999999998,6.585421752929688,-0.6136962890625001,6.823782348632813,1713726916652.0
11.205999999999989,6.859371948242188,0.722259521484375,6.522915649414063,1713726916662.0
11.21599999999998,7.033282470703125,1.6357757568359377,7.834796142578125,1713726916672.0
11.226000000000028,7.191342163085938,1.6955902099609377,6.963897705078126,1713726916682.0
11.236000000000018,6.535775756835938,1.2984222412109376,6.239544677734376,1713726916692.0
11.24600000000001,6.632077026367188,0.752166748046875,7.0120483398437505,1713726916702.0
11.256,6.963449096679688,-0.06280517578125,7.801449584960938,1713726916712.0
11.265999999999991,6.711630249023438,-0.9106750488281252,8.021417236328126,1713726916722.0
11.275999999999982,6.535775756835938,-1.3374511718750002,6.332406616210938,1713726916732.0
11.28600000000003,6.9866271972656255,-1.1629425048828126,6.711032104492188,1713726916742.0
11.296999999999995,7.221099853515626,-0.6240142822265625,6.58975830078125,1713726916753.0
11.306999999999988,7.97745361328125,0.08314208984375,6.69742431640625,1713726916763.0
11.31699999999998,7.450787353515626,0.43724365234375,5.881256103515625,1713726916773.0
11.327000000000028,6.892868041992188,0.6747070312500001,5.794375610351563,1713726916783.0
11.337000000000018,6.518878173828125,1.0398742675781252,7.960705566406251,1713726916793.0
11.347000000000008,5.868994140625,1.01624755859375,8.797061157226564,1713726916803.0
11.357,6.251507568359376,0.7511199951171875,8.589505004882813,1713726916813.0
11.36699999999999,6.447698974609375,0.055029296875,6.461007690429688,1713726916823.0
11.37699999999998,7.4277587890625005,-0.3192596435546875,6.0879150390625005,1713726916833.0
11.387000000000029,7.711129760742188,-0.224603271484375,6.569720458984375,1713726916843.0
11.39700000000002,7.035824584960938,-0.381317138671875,6.548785400390625,1713726916853.0
11.40700000000001,7.216613769531251,-0.4257293701171875,6.5051208496093755,1713726916863.0
11.417000000000002,6.873428344726563,-0.8747863769531251,6.24283447265625,1713726916873.0
11.428000000000026,6.9420654296875,-0.7071563720703126,7.108947753906251,1713726916884.0
11.436999999999983,6.837689208984376,0.02213134765625,7.856777954101563,1713726916893.0
11.448000000000008,7.152911376953125,0.5221801757812501,7.638604736328125,1713726916904.0
11.457999999999998,6.960308837890626,1.146343994140625,7.172799682617188,1713726916914.0
11.46799999999999,5.647979736328125,1.4536407470703123,6.05322265625,1713726916924.0
11.47799999999998,6.936383056640626,1.5077728271484376,7.456768798828126,1713726916934.0
11.488000000000028,7.196426391601563,0.52935791015625,7.797711181640626,1713726916944.0
11.49800000000002,7.535125732421876,-0.7717559814453125,6.665423583984375,1713726916954.0
11.50800000000001,6.822586059570313,-0.7891021728515626,6.653909301757813,1713726916964.0
11.518,5.86600341796875,-0.5504425048828125,6.644638061523438,1713726916974.0
11.527999999999992,7.388879394531251,-0.3034088134765625,8.097979736328126,1713726916984.0
11.537999999999982,7.515536499023438,-0.7499237060546875,6.867446899414063,1713726916994.0
11.54800000000003,7.490713500976563,-0.4149627685546875,5.41619873046875,1713726917004.0
11.55800000000002,6.69144287109375,0.46715087890625,6.17344970703125,1713726917014.0
11.568000000000012,6.551327514648438,0.9963592529296876,7.702008056640626,1713726917024.0
11.578000000000005,7.088012695312501,1.014752197265625,8.855081176757814,1713726917034.0
11.589000000000029,6.225189208984376,0.5534332275390625,7.016235351562501,1713726917045.0
11.599000000000018,6.312518310546875,0.4771697998046875,5.993856811523438,1713726917055.0
11.609000000000009,7.099377441406251,0.3419891357421875,7.417889404296876,1713726917065.0
11.619,7.234408569335938,0.0094207763671875,7.559201049804688,1713726917075.0
11.62899999999999,7.134967041015625,-0.221612548828125,7.162332153320313,1713726917085.0
11.638999999999982,6.304144287109375,-0.4726837158203125,5.879611206054688,1713726917095.0
11.64900000000003,7.200912475585938,-0.3515594482421875,6.619366455078126,1713726917105.0
11.65900000000002,7.499237060546876,-0.3864013671875,7.6804748535156255,1713726917115.0
11.669000000000011,7.532434082031251,-0.366363525390625,6.335397338867188,1713726917125.0
11.679000000000002,7.015786743164063,-0.197686767578125,6.09569091796875,1713726917135.0
11.688999999999991,6.3047424316406255,0.0264678955078125,6.329415893554688,1713726917145.0
11.698999999999984,6.823931884765625,0.6540710449218751,8.608346557617189,1713726917155.0
11.709000000000032,6.491513061523438,0.8692535400390625,8.37701416015625,1713726917165.0
11.719000000000024,6.466390991210938,0.7843170166015626,6.7952209472656255,1713726917175.0
11.729000000000012,6.8505493164062505,0.6027801513671875,6.174197387695313,1713726917185.0
11.73999999999998,7.107003784179688,0.360382080078125,6.7339111328125005,1713726917196.0
11.750000000000028,7.451385498046876,0.287109375,7.509854125976563,1713726917206.0
11.76000000000002,6.726882934570313,-0.441131591796875,6.612487792968751,1713726917216.0
11.77000000000001,7.078591918945313,-1.107763671875,5.889630126953126,1713726917226.0
11.78,6.98094482421875,-1.358984375,6.6097961425781255,1713726917236.0
11.789999999999992,7.297064208984375,-0.8027099609375,7.509255981445313,1713726917246.0
11.799999999999985,6.816455078125,-0.198883056640625,7.677484130859376,1713726917256.0
11.81000000000003,7.4651428222656255,0.5031890869140625,6.919934082031251,1713726917266.0
11.820000000000022,5.9492950439453125,1.52825927734375,6.764416503906251,1713726917276.0
11.830000000000013,6.113037109375,2.1232635498046877,7.125994873046875,1713726917286.0
11.840000000000003,7.032534790039063,1.849612426757813,8.291928100585938,1713726917296.0
11.849999999999994,7.2513061523437505,0.33555908203125,6.712677001953126,1713726917306.0
11.859999999999983,7.389328002929688,-0.7923919677734376,6.204702758789063,1713726917316.0
11.870000000000031,6.700714111328126,-0.9024505615234376,6.492260742187501,1713726917326.0
11.881,6.691741943359376,-0.9003570556640625,7.554116821289063,1713726917337.0
11.890999999999991,6.9402709960937505,-1.1630920410156251,7.800701904296876,1713726917347.0
11.900999999999982,7.340728759765626,-1.0065277099609375,6.258236694335938,1713726917357.0
11.91100000000003,6.741088867187501,-0.0369354248046875,6.371585083007813,1713726917367.0
11.92100000000002,6.888381958007813,1.2981231689453123,7.064535522460938,1713726917377.0
11.931000000000012,6.922924804687501,1.8383972167968752,7.908367919921876,1713726917387.0
11.941000000000004,6.9417663574218755,1.5288574218750002,7.194033813476563,1713726917397.0
11.950999999999992,6.401492309570313,0.9346008300781252,6.281414794921876,1713726917407.0
11.960999999999984,6.655703735351563,0.351708984375,7.077395629882813,1713726917417.0
11.971000000000032,7.19986572265625,-0.514404296875,7.732662963867188,1713726917427.0
11.981000000000025,6.843820190429688,-1.3195068359375002,7.512695312500001,1713726917437.0
11.991000000000014,7.051675415039063,-1.4539398193359376,5.8989013671875,1713726917447.0
12.00199999999998,6.741537475585938,-1.03299560546875,6.605459594726563,1713726917458.0
12.012000000000029,7.382598876953126,-0.255706787109375,6.7159667968750005,1713726917468.0
12.020999999999988,7.91405029296875,0.44681396484375,7.335345458984375,1713726917477.0
12.03200000000001,6.8236328125000005,0.6557159423828125,5.699719238281251,1713726917488.0
12.042000000000002,6.573757934570313,1.137820434570313,6.696826171875,1713726917498.0
12.051999999999992,6.3271728515625005,1.272402954101563,8.07315673828125,1713726917508.0
12.061999999999983,6.382351684570313,0.9455169677734376,8.692236328125,1713726917518.0
12.072000000000031,6.646432495117188,0.4098785400390625,7.832104492187501,1713726917528.0
12.082000000000022,6.466690063476563,-0.401654052734375,5.771047973632813,1713726917538.0
12.092000000000011,7.528097534179688,-0.4690948486328125,6.477008056640625,1713726917548.0
12.102000000000004,7.44749755859375,-0.6525756835937501,6.68546142578125,1713726917558.0
12.111999999999997,7.590603637695313,-0.705511474609375,6.667218017578126,1713726917568.0
12.121999999999986,6.777725219726563,-0.7587463378906251,6.0759521484375005,1713726917578.0
12.132000000000032,6.638656616210938,-0.5767608642578126,6.428408813476563,1713726917588.0
12.142000000000024,7.102966308593751,0.241949462890625,8.13775634765625,1713726917598.0
12.152000000000015,6.691891479492188,0.5256195068359375,7.8614135742187505,1713726917608.0
12.162000000000006,7.62095947265625,1.0582672119140626,7.281961059570313,1713726917618.0
12.17300000000003,5.702709960937501,1.4826507568359375,6.087017822265626,1713726917629.0
12.18300000000002,6.179730224609376,1.4895294189453123,6.851147460937501,1713726917639.0
12.193000000000012,7.577145385742188,0.7722045898437501,8.284600830078126,1713726917649.0
12.203000000000005,7.315606689453125,-0.8928802490234375,6.831707763671876,1713726917659.0
12.212999999999994,7.2528015136718755,-1.0884735107421877,6.4363342285156255,1713726917669.0
12.222999999999985,5.799908447265626,-0.7357177734375,6.4782043457031255,1713726917679.0
12.233000000000033,7.0808349609375005,-0.2693145751953125,7.784552001953125,1713726917689.0
12.243000000000023,7.496096801757813,-0.356793212890625,7.910162353515625,1713726917699.0
12.253000000000014,7.420880126953126,-0.3252410888671875,5.184268188476563,1713726917709.0
12.263000000000003,6.858175659179688,0.5565734863281251,5.9014434814453125,1713726917719.0
12.272999999999996,6.534280395507813,1.0204345703125002,7.391122436523438,1713726917729.0
12.28600000000003,7.101620483398438,1.1699707031250002,8.9087646484375,1713726917742.0
12.293000000000037,6.502279663085938,0.651678466796875,7.655352783203125,1713726917749.0
12.303000000000026,5.9163970947265625,0.180938720703125,5.5286499023437505,1713726917759.0
12.313000000000017,7.225735473632813,-0.0083740234375,7.1944824218750005,1713726917769.0
12.323999999999984,7.4561706542968755,-0.2875579833984375,7.581631469726563,1713726917780.0
12.334000000000032,7.133920288085938,-0.3117828369140625,7.3350463867187505,1713726917790.0
12.344000000000024,6.4423156738281255,-0.4152618408203125,5.8893310546875,1713726917800.0
12.354000000000012,6.713574218750001,-0.367559814453125,6.225787353515625,1713726917810.0
12.364000000000004,7.763916015625001,-0.0294586181640625,7.948294067382813,1713726917820.0
12.373999999999995,7.146780395507813,0.014056396484375,6.855783081054688,1713726917830.0
12.385999999999996,7.042553710937501,0.1661346435546875,6.210684204101563,1713726917842.0
12.394000000000034,6.447998046875001,0.1218719482421875,6.1238037109375005,1713726917850.0
12.404000000000025,6.81944580078125,0.43485107421875,8.043399047851564,1713726917860.0
12.414000000000016,6.664825439453126,0.716278076171875,8.664572143554688,1713726917870.0
12.424000000000008,6.4423156738281255,0.485992431640625,6.888980102539063,1713726917880.0
12.433999999999996,6.82841796875,0.268267822265625,6.200665283203126,1713726917890.0
12.443999999999988,7.182669067382813,-0.006878662109375,6.407174682617188,1713726917900.0
12.455000000000013,7.602566528320313,0.0997406005859375,7.287344360351563,1713726917911.0
12.465000000000003,6.774884033203126,-0.2636322021484375,6.957916259765626,1713726917921.0
12.474999999999994,6.781613159179688,-0.8625244140625,5.868246459960938,1713726917931.0
12.486000000000018,7.339682006835938,-0.8508605957031251,6.7697998046875005,1713726917942.0
12.495000000000031,6.654208374023438,-0.597845458984375,7.4397216796875005,1713726917951.0
12.505000000000024,7.460357666015626,0.118731689453125,7.995547485351563,1713726917961.0
12.515000000000017,7.048684692382813,0.94327392578125,7.144985961914063,1713726917971.0
12.525000000000006,5.245129394531251,1.425079345703125,6.061596679687501,1713726917981.0
12.534999999999997,6.807034301757813,1.6538696289062502,7.595687866210938,1713726917991.0
12.544999999999987,7.437628173828125,0.9482086181640624,8.0103515625,1713726918001.0
12.554999999999978,7.430899047851563,0.0491973876953125,6.808529663085938,1713726918011.0
12.565000000000026,6.726284790039063,-0.5939575195312501,6.097634887695313,1713726918021.0
12.575000000000015,6.668713378906251,-0.6491363525390625,6.159841918945313,1713726918031.0
12.587000000000018,7.019973754882813,-0.7820739746093751,8.329760742187501,1713726918043.0
12.595,7.042553710937501,-0.9694427490234376,7.1092468261718755,1713726918051.0
12.606000000000025,7.088760375976563,-0.487188720703125,6.699966430664063,1713726918062.0
12.616000000000014,6.463101196289063,0.260491943359375,6.061297607421875,1713726918072.0
12.626000000000005,6.969430541992188,1.2242523193359376,7.454226684570313,1713726918082.0
12.635999999999996,7.3918701171875005,1.437939453125,8.06298828125,1713726918092.0
12.645999999999988,6.3645568847656255,1.1615966796875,6.423324584960938,1713726918102.0
12.656000000000034,6.659890747070313,0.7582977294921875,6.455474853515626,1713726918112.0
12.666000000000023,6.83499755859375,0.018243408203125,7.1451354980468755,1713726918122.0
12.676000000000016,7.162033081054688,-0.5999389648437501,7.991061401367188,1713726918132.0
12.686000000000009,6.705200195312501,-1.009219360351563,7.241287231445313,1713726918142.0
12.695999999999998,6.688601684570313,-1.0202850341796876,5.965444946289063,1713726918152.0
12.705999999999989,7.054666137695313,-0.679791259765625,6.768154907226563,1713726918162.0
12.71599999999998,7.568621826171875,-0.1520782470703125,6.771893310546876,1713726918172.0
12.726000000000028,7.888031005859376,0.3796722412109375,6.761425781250001,1713726918182.0
12.736000000000018,6.767855834960938,0.5284606933593751,5.6726531982421875,1713726918192.0
12.746999999999986,6.538916015625,0.8602813720703125,7.0015808105468755,1713726918203.0
12.757000000000032,6.145187377929688,1.0433135986328126,8.778518676757812,1713726918213.0
12.767000000000024,6.261227416992188,0.8641693115234376,8.41290283203125,1713726918223.0
12.777000000000015,6.619815063476563,0.3828125,7.313662719726563,1713726918233.0
12.787000000000006,7.021917724609375,-0.3404937744140625,5.589511108398438,1713726918243.0
12.796999999999995,7.649670410156251,-0.332867431640625,6.467288208007813,1713726918253.0
12.806999999999988,7.166519165039063,-0.2905487060546875,6.903634643554688,1713726918263.0
12.81699999999998,7.081134033203125,-0.54371337890625,6.625946044921876,1713726918273.0
12.827000000000028,7.127041625976563,-0.916058349609375,6.294573974609375,1713726918283.0
12.837000000000018,6.907821655273438,-0.8858520507812501,6.3869873046875005,1713726918293.0
12.847000000000008,6.732266235351563,0.105572509765625,8.294619750976564,1713726918303.0
12.857,7.233660888671875,0.8306732177734376,7.815206909179688,1713726918313.0
12.86699999999999,6.471026611328125,1.344180297851563,7.478302001953126,1713726918323.0
12.87699999999998,5.8295166015625,1.5139038085937502,5.66741943359375,1713726918333.0
12.887000000000029,7.088461303710938,1.313226318359375,7.299755859375001,1713726918343.0
12.897999999999996,7.516583251953126,0.3994110107421875,7.810421752929688,1713726918354.0
12.907999999999989,7.549032592773438,-0.7687652587890625,6.833502197265625,1713726918364.0
12.918000000000037,6.368743896484376,-0.8456268310546876,6.348706054687501,1713726918374.0
12.928000000000026,6.05740966796875,-0.7693634033203126,6.6187683105468755,1713726918384.0
12.938000000000017,7.5114990234375005,-0.6436035156250001,8.359967041015626,1713726918394.0
12.948000000000008,7.561444091796876,-0.6159393310546876,6.821090698242188,1713726918404.0
12.957999999999998,6.9659912109375,-0.07596435546875,5.714224243164063,1713726918414.0
12.96799999999999,6.723892211914063,0.8104858398437501,5.897406005859375,1713726918424.0
12.97799999999998,6.854138183593751,1.1605499267578123,8.041305541992188,1713726918434.0
12.988000000000028,7.294522094726563,1.1144927978515626,8.374621582031251,1713726918444.0
12.99800000000002,6.0405120849609375,0.696240234375,6.859222412109376,1713726918454.0
13.00800000000001,6.199468994140625,0.28172607421875,6.0687744140625,1713726918464.0
13.018,7.395608520507813,-0.0605621337890625,7.566528320312501,1713726918474.0
13.027999999999992,7.1361633300781255,-0.4391876220703125,7.82791748046875,1713726918484.0
13.037999999999982,6.9223266601562505,-0.418402099609375,6.667367553710938,1713726918494.0
13.049000000000008,6.4064270019531255,-0.4556365966796875,6.0943450927734375,1713726918505.0
13.058999999999996,7.212576293945313,-0.3093902587890625,6.55028076171875,1713726918515.0
13.068999999999988,8.035025024414063,-0.06160888671875,7.574902343750001,1713726918525.0
13.07899999999998,6.948046875,-0.083441162109375,6.189300537109376,1713726918535.0
13.089000000000029,7.064535522460938,0.185125732421875,6.0270538330078125,1713726918545.0
13.099000000000018,6.0789428710937505,0.2809783935546875,7.313812255859376,1713726918555.0
13.109000000000009,6.7339111328125005,0.6332855224609375,8.458062744140626,1713726918565.0
13.119,6.586468505859376,0.7672698974609375,8.525204467773438,1713726918575.0
13.12899999999999,6.473568725585938,0.36307373046875,5.92821044921875,1713726918585.0
13.138999999999982,7.189846801757813,0.365765380859375,6.39476318359375,1713726918595.0
13.14900000000003,7.152313232421876,0.153424072265625,6.683966064453125,1713726918605.0
13.15900000000002,7.377215576171875,0.0722259521484375,7.208090209960938,1713726918615.0
13.169000000000011,6.9635986328125,-0.64539794921875,6.457418823242188,1713726918625.0
13.179000000000002,6.940719604492188,-1.29378662109375,5.65067138671875,1713726918635.0
13.188999999999991,7.145584106445313,-0.8930297851562501,7.643688964843751,1713726918645.0
13.200000000000015,6.868942260742188,-0.3931304931640625,7.711428833007813,1713726918656.0
13.210000000000008,7.445404052734376,0.7370635986328126,8.032632446289064,1713726918666.0
13.22,5.432199096679688,1.2432434082031252,6.2539001464843755,1713726918676.0
13.22999999999999,6.496896362304688,1.6187286376953127,6.41868896484375,1713726918686.0
13.23999999999998,7.462152099609376,1.5877746582031251,8.269497680664063,1713726918696.0
13.250000000000028,7.442562866210938,0.4490570068359375,6.960308837890626,1713726918706.0
13.26000000000002,7.182070922851563,-0.204864501953125,6.5768981933593755,1713726918716.0
13.27000000000001,6.091653442382813,-0.8118316650390626,5.792581176757813,1713726918726.0
13.28,7.077694702148438,-0.8466735839843751,7.819842529296875,1713726918736.0
13.289999999999992,6.960009765625,-1.15322265625,8.133569335937501,1713726918746.0
13.303000000000026,7.148724365234376,-0.8758331298828126,6.656451416015625,1713726918759.0
13.31000000000003,6.740640258789063,-0.0231781005859375,5.8670501708984375,1713726918766.0
13.320999999999998,6.744528198242188,0.9177032470703126,6.766958618164063,1713726918777.0
13.330000000000013,7.55576171875,1.6214202880859376,7.858572387695313,1713726918786.0
13.34099999999998,6.7533508300781255,1.404144287109375,7.478900146484375,1713726918797.0
13.351000000000028,6.265264892578125,0.9691436767578124,5.870639038085938,1713726918807.0
13.361000000000018,6.811520385742188,0.31282958984375,7.286148071289063,1713726918817.0
13.37100000000001,6.893316650390625,-0.4936187744140625,7.697073364257813,1713726918827.0
13.381,7.016683959960938,-0.9392364501953124,7.825375366210938,1713726918837.0
13.390999999999991,6.632525634765625,-1.0823425292968751,6.503475952148438,1713726918847.0
13.402999999999992,6.677685546875001,-0.8076446533203125,5.9727722167968755,1713726918859.0
13.41100000000003,7.8001037597656255,-0.274249267578125,6.9899169921875,1713726918867.0
13.42100000000002,7.734158325195313,0.1646392822265625,6.592898559570313,1713726918877.0
13.431000000000012,7.431796264648438,0.5459564208984375,6.071017456054688,1713726918887.0
13.441000000000004,6.1477294921875005,0.7239044189453125,6.4874755859375,1713726918897.0
13.450999999999992,6.371286010742188,0.9286193847656252,8.101119995117188,1713726918907.0
13.460999999999984,6.332705688476563,0.8907867431640626,9.10779724121094,1713726918917.0
13.472000000000008,6.3720336914062505,0.3817657470703125,7.44749755859375,1713726918928.0
13.482,6.992459106445313,-0.0563751220703125,6.1327758789062505,1713726918938.0
13.49199999999999,7.246670532226563,-0.31282958984375,6.051278686523438,1713726918948.0
13.503000000000014,7.601071166992188,-0.1882659912109375,6.908120727539063,1713726918959.0
13.512000000000029,7.089657592773438,-0.3132781982421875,6.929953002929688,1713726918968.0
13.52200000000002,6.899597167968751,-0.7739990234375,5.9567718505859375,1713726918978.0
13.53200000000001,6.952832031250001,-0.7318298339843751,6.843222045898438,1713726918988.0
13.542000000000002,6.692340087890625,-0.372943115234375,7.159640502929688,1713726918998.0
13.551999999999992,7.076797485351563,0.4658050537109375,8.447595214843751,1713726919008.0
13.561999999999983,7.505068969726563,0.7476806640625,6.860418701171875,1713726919018.0
13.572000000000031,6.1821228027343755,1.1632415771484377,6.452334594726563,1713726919028.0
13.582000000000022,6.049783325195313,1.5378295898437502,6.550430297851563,1713726919038.0
13.592000000000011,7.006814575195313,1.1144927978515626,8.030838012695312,1713726919048.0
13.604000000000012,7.366748046875,-0.1184326171875,7.777972412109375,1713726919060.0
13.611999999999997,7.283306884765626,-1.191653442382813,6.1058593750000005,1713726919068.0
13.62300000000002,6.509158325195313,-0.7591949462890626,6.48807373046875,1713726919079.0
13.63300000000001,6.342276000976563,-0.2621368408203125,7.350897216796875,1713726919089.0
13.643,7.568023681640626,-0.3105865478515625,7.997042846679688,1713726919099.0
