time,ax,ay,az,timestamp
0.0,-0.132489013671875,7.925265502929688,6.256591796875001,1719169529072.0
0.0099999999999909,-0.6099578857421876,7.601071166992188,6.058905029296875,1719169529082.0
0.0199999999999818,-0.8350097656250001,7.610491943359375,5.61956787109375,1719169529092.0
0.0299999999999727,-0.2788848876953125,7.033880615234375,6.743331909179688,1719169529102.0
0.0399999999999636,-0.0967498779296875,6.813015747070313,7.329214477539063,1719169529112.0
0.0499999999999545,0.7979248046875,6.218310546875,8.121456909179688,1719169529122.0
0.0600000000000591,1.17236328125,7.09818115234375,9.457113647460938,1719169529132.0
0.07000000000005,-0.0898712158203125,6.89481201171875,6.380258178710938,1719169529142.0
0.080000000000048,-0.9171051025390624,6.291433715820313,5.281765747070313,1719169529152.0
0.0900000000000318,-1.3123291015625,8.888876342773438,4.812222290039063,1719169529162.0
0.1000000000000227,0.2893524169921875,9.239837646484377,5.0441528320312505,1719169529172.0
0.1100000000000136,1.1174835205078126,8.103961181640626,3.3958160400390627,1719169529182.0
0.1200000000000045,0.5333953857421876,7.987622070312501,5.415750122070313,1719169529192.0
0.1299999999999954,-0.082244873046875,7.203903198242188,5.734561157226563,1719169529202.0
0.13900000000001,2.1228149414062503,7.166818237304688,7.602267456054688,1719169529211.0
0.1489999999999938,1.846173095703125,4.917645263671876,10.396798706054687,1719169529221.0
0.1599999999999681,0.4200469970703125,5.017385864257813,9.260025024414062,1719169529232.0
0.1689999999999827,0.675604248046875,6.9447570800781255,9.721194458007814,1719169529241.0
0.1789999999999736,0.738409423828125,7.770944213867188,6.604861450195313,1719169529251.0
0.1889999999999645,-1.9783630371093752,8.708236694335938,3.4433685302734376,1719169529261.0
0.1989999999999554,-3.2504669189453126,7.340728759765626,4.218563842773438,1719169529271.0
0.20900000000006,-0.8048034667968751,6.392520141601563,6.775033569335938,1719169529281.0
0.2190000000000509,0.5203857421875,6.326126098632813,9.42959899902344,1719169529291.0
0.2290000000000418,0.364569091796875,5.9563232421875005,9.188995361328123,1719169529301.0
0.2390000000000256,1.1201751708984375,6.163131713867188,8.96439208984375,1719169529311.0
0.2490000000000236,-1.7437408447265623,6.302798461914063,7.299008178710938,1719169529321.0
0.2590000000000145,-0.575115966796875,7.880853271484376,5.389431762695313,1719169529331.0
0.2690000000000054,0.0177947998046875,8.780313110351564,7.624398803710938,1719169529341.0
0.2789999999999963,1.157708740234375,7.54320068359375,4.318154907226563,1719169529351.0
0.2889999999999872,0.9837982177734376,5.970529174804688,5.97247314453125,1719169529361.0
0.2989999999999781,1.26328125,6.126495361328126,8.127587890625001,1719169529371.0
0.3089999999999691,0.790447998046875,6.744827270507813,7.124349975585938,1719169529381.0
0.31899999999996,0.0136077880859375,9.207388305664065,5.321841430664063,1719169529391.0
0.3289999999999509,1.2810760498046876,6.541458129882813,8.505465698242189,1719169529401.0
0.3390000000000555,1.9966064453125,9.80643005371094,5.847012329101563,1719169529411.0
0.3490000000000464,-1.1405120849609376,4.1188232421875,7.424768066406251,1719169529421.0
0.3590000000000373,-1.1601013183593751,0.350811767578125,11.158087158203124,1719169529431.0
0.3690000000000282,-0.48629150390625,8.144635009765626,11.183657836914064,1719169529441.0
0.3790000000000191,0.54251708984375,7.659091186523438,11.753091430664064,1719169529451.0
0.38900000000001,0.57960205078125,9.515582275390626,1.0848846435546875,1719169529461.0
0.3989999999999938,-3.940277099609375,8.900241088867189,-1.8108825683593752,1719169529471.0
0.4089999999999918,-3.157156372070313,5.3212432861328125,13.255181884765626,1719169529481.0
0.4189999999999827,1.5959991455078126,10.568316650390626,4.153814697265625,1719169529491.0
0.4289999999999736,1.307843017578125,5.04654541015625,5.573809814453125,1719169529501.0
0.4389999999999645,2.457177734375,11.021112060546876,-0.0007476806640625,1719169529511.0
0.4489999999999554,2.0226257324218753,11.145077514648438,0.102581787109375,1719169529521.0
0.45900000000006,3.6109985351562504,7.769897460937501,4.410269165039063,1719169529531.0
0.4690000000000509,3.890631103515626,10.185055541992188,0.440234375,1719169529541.0
0.4790000000000418,2.6019287109375,8.921774291992188,4.5496368408203125,1719169529551.0
0.4890000000000256,3.841284179687501,6.670208740234376,5.677438354492188,1719169529561.0
0.4990000000000236,4.726239013671876,9.740335083007814,5.3151123046875,1719169529571.0
0.5090000000000146,1.112548828125,6.603665161132813,8.445950317382813,1719169529581.0
0.5180000000000291,-5.29776611328125,10.835687255859376,5.5759033203125,1719169529590.0
0.52800000000002,-3.5094635009765627,2.2040130615234377,10.96697998046875,1719169529600.0
0.5380000000000109,0.3324188232421875,-3.333609008789063,14.265896606445311,1719169529610.0
0.5480000000000018,-0.5465545654296875,4.8318115234375005,19.683142089843752,1719169529620.0
0.5579999999999998,2.9080291748046876,5.215670776367188,14.566314697265629,1719169529630.0
0.5679999999999836,-2.5908630371093753,7.697521972656251,5.268157958984375,1719169529640.0
0.5779999999999745,-6.0176330566406255,7.316802978515626,-0.16329345703125,1719169529650.0
0.5879999999999654,-4.31322021484375,10.785293579101562,-0.5932098388671876,1719169529660.0
0.5979999999999563,-0.470440673828125,9.445748901367187,4.48668212890625,1719169529670.0
0.6080000000000609,1.789349365234375,9.573602294921876,9.592892456054688,1719169529680.0
0.6180000000000518,0.78177490234375,9.108843994140626,-0.4290191650390625,1719169529690.0
0.6280000000000427,-1.2030181884765625,5.5424072265625,3.7937316894531254,1719169529700.0
0.6380000000000337,0.7925415039062501,4.165179443359375,11.401382446289062,1719169529710.0
0.6480000000000246,6.409716796875,7.5279479980468755,12.556549072265629,1719169529720.0
0.6580000000000155,4.6837707519531255,5.5750061035156255,11.531478881835938,1719169529730.0
0.6680000000000064,0.2537628173828125,4.9469543457031255,4.66552734375,1719169529740.0
0.6779999999999973,-2.742941284179688,7.634268188476563,5.400646972656251,1719169529750.0
0.6879999999999882,-2.126852416992188,9.720446777343753,5.851199340820313,1719169529760.0
0.6979999999999791,-1.8787719726562504,9.792373657226562,3.54161376953125,1719169529770.0
0.70799999999997,-3.481948852539063,7.567724609375,2.804400634765625,1719169529780.0
0.717999999999968,-1.8497619628906252,5.771945190429688,6.87926025390625,1719169529790.0
0.7279999999999518,0.9381896972656252,7.104611206054688,9.63909912109375,1719169529800.0
0.7380000000000564,3.0625,4.82523193359375,10.551568603515626,1719169529810.0
0.7480000000000473,3.85384521484375,6.513345336914063,10.050473022460938,1719169529820.0
0.7580000000000382,1.67001953125,6.151467895507813,7.104013061523438,1719169529830.0
0.7680000000000291,0.0154022216796875,7.456320190429688,4.988076782226563,1719169529840.0
0.77800000000002,-1.529156494140625,9.412252807617188,4.407278442382813,1719169529850.0
0.7880000000000109,-0.5603118896484376,8.544943237304688,3.6953369140625,1719169529860.0
0.7980000000000018,-1.7087493896484376,8.839828491210938,3.7161224365234378,1719169529870.0
0.8079999999999998,-0.9633117675781252,6.8415771484375005,6.085223388671875,1719169529880.0
0.8179999999999836,0.8200561523437501,6.45816650390625,8.56483154296875,1719169529890.0
0.8279999999999745,0.9555358886718752,5.506369018554688,10.745217895507814,1719169529900.0
0.8390000000000555,0.8279815673828126,5.469134521484375,9.25613708496094,1719169529911.0
0.8479999999999563,-0.8242431640625001,7.471871948242188,6.680377197265625,1719169529920.0
0.8580000000000609,-0.7108947753906251,8.025006103515626,5.224194335937501,1719169529930.0
0.8680000000000518,-1.2501220703125,8.673095703125,3.99739990234375,1719169529940.0
0.8780000000000427,0.2376129150390625,8.026351928710938,4.713079833984375,1719169529950.0
0.8880000000000337,1.7277404785156252,6.853240966796876,6.196328735351563,1719169529960.0
0.8980000000000246,1.1213714599609377,7.123452758789063,7.435086059570313,1719169529970.0
0.9070000000000392,0.769512939453125,6.279919433593751,7.894161987304688,1719169529979.0
0.9180000000000064,1.0998382568359375,6.448745727539063,7.860366821289063,1719169529990.0
0.9270000000000208,0.5939575195312501,6.815707397460938,7.909863281250001,1719169529999.0
0.9370000000000118,-0.422589111328125,7.022665405273438,6.917541503906251,1719169530009.0
0.9470000000000028,-0.9586761474609377,7.633370971679688,6.046792602539063,1719169530019.0
0.9569999999999936,-0.2678192138671875,7.520620727539063,5.932247924804688,1719169530029.0
0.967999999999968,-0.351409912109375,7.895059204101563,5.991015625,1719169530040.0
0.9769999999999754,0.1012359619140625,6.946551513671875,6.872680664062501,1719169530049.0
0.9890000000000256,0.6709686279296876,6.758883666992188,7.120462036132813,1719169530061.0
0.9969999999999573,0.9180023193359376,6.984384155273438,6.983486938476563,1719169530069.0
1.0070000000000618,1.1152404785156251,6.877316284179688,7.301101684570313,1719169530079.0
1.0170000000000528,0.496759033203125,7.634716796875001,6.422726440429688,1719169530089.0
1.0270000000000437,-0.3952239990234375,7.230520629882813,6.366201782226563,1719169530099.0
1.0370000000000346,-0.4015045166015625,7.427609252929688,5.9044342041015625,1719169530109.0
1.0470000000000257,-0.631939697265625,7.0090576171875005,6.49644775390625,1719169530119.0
1.0570000000000164,-0.057720947265625,7.173995971679688,6.976309204101563,1719169530129.0
1.0670000000000073,0.3194091796875,8.0211181640625,5.457470703125001,1719169530139.0
1.0769999999999982,-0.4382904052734375,5.9652954101562505,6.477008056640625,1719169530149.0
1.0890000000000557,1.0917633056640623,7.671353149414063,8.505166625976564,1719169530161.0
1.09699999999998,1.233523559570313,7.965640258789063,8.133868408203126,1719169530169.0
1.106999999999971,0.121722412109375,5.7768798828125005,6.338986206054688,1719169530179.0
1.1169999999999618,-0.5378814697265626,6.533233642578126,5.583081054687501,1719169530189.0
1.1269999999999456,-0.248529052734375,8.549578857421876,7.550079345703126,1719169530199.0
1.1370000000000573,-0.4629638671875,7.999584960937501,5.7160186767578125,1719169530209.0
1.1470000000000482,-0.6077148437500001,7.385589599609376,5.618969726562501,1719169530219.0
1.157000000000039,-1.263580322265625,6.583926391601563,4.9294586181640625,1719169530229.0
1.16700000000003,-0.5426666259765626,6.840380859375,9.07205810546875,1719169530239.0
1.177000000000021,0.8803192138671876,6.522616577148438,9.2126220703125,1719169530249.0
1.1870000000000118,0.9351989746093752,7.739242553710938,4.757641601562501,1719169530259.0
1.1970000000000027,0.859234619140625,7.212875366210938,6.153860473632813,1719169530269.0
1.2069999999999936,0.480010986328125,7.101919555664063,6.1641784667968755,1719169530279.0
1.2169999999999843,-0.1040771484375,8.164971923828126,6.695629882812501,1719169530289.0
1.2269999999999754,-0.0261688232421875,7.787243652343751,6.373977661132813,1719169530299.0
1.2369999999999663,-0.1469940185546875,6.892718505859375,4.206301879882813,1719169530309.0
1.2469999999999573,-0.2465850830078125,7.24412841796875,6.848605346679688,1719169530319.0
1.2570000000000618,0.2603424072265625,6.442764282226563,8.660983276367189,1719169530329.0
1.2670000000000528,-0.0538330078125,6.620712280273438,9.001028442382813,1719169530339.0
1.2770000000000437,-0.26497802734375,6.724191284179688,7.05272216796875,1719169530349.0
1.2870000000000346,-0.2250518798828125,7.218258666992188,5.39287109375,1719169530359.0
1.2960000000000491,-0.36068115234375,7.959060668945313,5.722747802734375,1719169530368.0
1.3070000000000164,-0.344232177734375,7.847506713867188,6.321789550781251,1719169530379.0
1.3170000000000073,-0.37264404296875,7.096087646484375,6.058157348632813,1719169530389.0
1.3260000000000218,0.17764892578125,6.5335327148437505,7.289886474609376,1719169530398.0
1.3360000000000127,0.370849609375,7.120162963867188,7.420730590820313,1719169530408.0
1.3460000000000036,0.7274932861328125,6.68486328125,7.671203613281251,1719169530418.0
1.3559999999999943,0.66513671875,7.801150512695313,6.8355957031250005,1719169530428.0
1.3659999999999854,0.2739501953125,7.357177734375001,5.0247131347656255,1719169530438.0
1.3759999999999764,0.1523773193359375,7.642343139648438,5.525808715820313,1719169530448.0
1.3870000000000573,-0.298773193359375,7.483087158203125,6.456970214843751,1719169530459.0
1.3959999999999582,-0.0551788330078125,7.281063842773438,6.8804565429687505,1719169530468.0
1.4060000000000628,0.017645263671875,7.1256958007812505,6.993804931640626,1719169530478.0
1.4160000000000537,-0.06759033203125,6.600524902343751,6.883596801757813,1719169530488.0
1.4260000000000446,-0.3533538818359375,6.912905883789063,7.335195922851563,1719169530498.0
1.4360000000000357,-0.317913818359375,6.309826660156251,7.382748413085938,1719169530508.0
1.4460000000000264,0.0418701171875,7.326223754882813,5.982492065429688,1719169530518.0
1.4560000000000173,1.0095184326171875,7.869488525390626,6.324481201171875,1719169530528.0
1.4660000000000082,0.6271545410156251,8.480194091796875,7.196575927734376,1719169530538.0
1.475999999999999,-0.679791259765625,7.096984863281251,5.73321533203125,1719169530548.0
1.4869999999999663,-0.6721649169921875,5.705401611328125,5.78465576171875,1719169530559.0
1.495999999999981,-0.6670806884765625,7.559649658203125,7.608248901367188,1719169530568.0
1.5059999999999718,0.2211639404296875,7.209136962890626,8.26456298828125,1719169530578.0
1.5159999999999627,1.2466827392578126,8.398248291015626,5.2031097412109375,1719169530588.0
1.5259999999999536,0.5834899902343751,7.167416381835938,5.5720153808593755,1719169530598.0
1.5360000000000582,-0.0527862548828125,6.249264526367188,6.532186889648438,1719169530608.0
1.5460000000000491,-0.6881652832031251,7.535275268554688,8.482437133789062,1719169530618.0
1.55600000000004,0.007177734375,7.476657104492188,7.744027709960938,1719169530628.0
1.566000000000031,0.2250518798828125,7.8632080078125,3.7665161132812504,1719169530638.0
1.5760000000000218,-0.4463653564453125,7.1316772460937505,5.1443420410156255,1719169530648.0
1.586999999999989,-0.5806488037109375,6.7662109375,7.1690612792968755,1719169530659.0
1.5960000000000036,-0.112152099609375,7.532583618164063,9.462496948242189,1719169530668.0
1.6059999999999943,0.7711578369140626,7.032833862304688,7.417141723632813,1719169530678.0
1.6159999999999854,0.7236053466796876,6.764117431640625,3.517837524414063,1719169530688.0
1.6259999999999764,0.4053924560546875,7.009805297851563,6.881802368164063,1719169530698.0
1.6359999999999673,0.3925323486328125,7.448843383789063,8.5080078125,1719169530708.0
1.6459999999999582,-0.0991424560546875,7.083377075195313,7.627987670898438,1719169530718.0
1.6560000000000628,-0.6159393310546876,7.174594116210938,5.537921142578125,1719169530728.0
1.6660000000000537,-1.029705810546875,6.814212036132813,4.973422241210938,1719169530738.0
1.6760000000000446,-0.7739990234375,7.49534912109375,7.3604675292968755,1719169530748.0
1.6870000000000118,0.051739501953125,7.657147216796876,8.585317993164063,1719169530759.0
1.69500000000005,0.1903594970703125,6.987374877929688,6.535626220703126,1719169530767.0
1.705000000000048,0.3811676025390625,6.445904541015626,4.872933959960938,1719169530777.0
1.7150000000000318,0.838299560546875,6.839782714843751,7.711279296875,1719169530787.0
1.7250000000000227,1.0012939453125,7.900442504882813,8.337088012695313,1719169530797.0
1.7350000000000136,0.88944091796875,7.686456298828125,5.851498413085938,1719169530807.0
1.7450000000000043,0.6998291015625,7.5880615234375,4.052578735351563,1719169530817.0
1.7549999999999957,-0.2860626220703125,7.727429199218751,4.800558471679688,1719169530827.0
1.7649999999999864,-0.6045745849609375,7.052871704101563,7.659240722656251,1719169530837.0
1.7749999999999773,-0.8691040039062501,7.257885742187501,8.89381103515625,1719169530847.0
1.7870000000000346,-0.90977783203125,6.244329833984375,6.591253662109375,1719169530859.0
1.794999999999959,-0.3925323486328125,6.6426940917968755,6.2613769531250005,1719169530867.0
1.8050000000000637,-0.053533935546875,6.915896606445313,7.832254028320313,1719169530877.0
1.8150000000000543,0.1227691650390625,7.606005859375,6.564636230468751,1719169530887.0
1.8250000000000457,0.7868591308593751,7.536770629882813,4.8038482666015625,1719169530897.0
1.8350000000000364,1.4964080810546876,7.721597290039063,6.175543212890625,1719169530907.0
1.8450000000000273,1.7323760986328127,8.463595581054689,6.555215454101563,1719169530917.0
1.8550000000000184,0.0898712158203125,5.849404907226563,7.387234497070313,1719169530927.0
1.865000000000009,-0.7716064453125001,5.7499633789062505,8.153158569335938,1719169530937.0
1.8769999999999456,-1.1070159912109376,8.002426147460938,8.0761474609375,1719169530949.0
1.8870000000000573,-1.0917633056640623,7.443460083007813,5.495901489257813,1719169530959.0
1.8949999999999816,-0.765625,7.688101196289063,4.923178100585938,1719169530967.0
1.9049999999999727,-0.48150634765625,7.298410034179688,6.0609985351562505,1719169530977.0
1.9149999999999636,0.036785888671875,7.723541259765626,6.809875488281251,1719169530987.0
1.9249999999999543,0.7137359619140625,6.770846557617188,7.758682250976563,1719169530997.0
1.9350000000000591,0.862225341796875,7.2064453125,5.994903564453125,1719169531007.0
1.94500000000005,1.1252593994140625,7.204501342773438,6.5090087890625,1719169531017.0
1.955000000000048,1.3959197998046875,6.679779052734376,7.387384033203125,1719169531027.0
1.965000000000032,0.2053131103515625,7.705447387695313,7.277175903320313,1719169531037.0
1.9750000000000227,-0.5369842529296875,7.78604736328125,5.8894805908203125,1719169531047.0
1.9869999999999663,-0.5381805419921876,7.45108642578125,4.230975341796875,1719169531059.0
1.9950000000000043,-1.2625335693359376,7.782009887695313,6.084176635742188,1719169531067.0
2.0049999999999955,-1.2042144775390626,6.802249145507813,7.434936523437501,1719169531077.0
2.0149999999999864,-0.3506622314453125,6.2841064453125,8.877062988281251,1719169531087.0
2.0249999999999773,0.1990325927734375,6.510205078125001,7.805636596679688,1719169531097.0
2.034999999999968,0.7101470947265626,6.583029174804688,6.423474121093751,1719169531107.0
2.044999999999959,0.8658142089843751,7.306335449218751,7.0225158691406255,1719169531117.0
2.0550000000000637,1.006378173828125,7.492507934570313,6.793276977539063,1719169531127.0
2.0639999999999645,0.2380615234375,8.121905517578126,5.9054809570312505,1719169531136.0
2.0750000000000455,-0.4077850341796875,7.292877197265626,4.9305053710937505,1719169531147.0
2.086999999999989,-0.5345916748046875,7.265362548828126,5.716766357421875,1719169531159.0
2.0950000000000273,-0.672613525390625,7.031338500976563,8.315704345703125,1719169531167.0
2.104000000000042,-0.466253662109375,6.627142333984375,8.123849487304689,1719169531176.0
2.1140000000000256,-0.304156494140625,7.048684692382813,6.87686767578125,1719169531186.0
2.1240000000000236,0.3482696533203125,7.2378479003906255,5.809628295898438,1719169531196.0
2.1340000000000146,0.4350006103515625,7.557556152343751,6.238348388671875,1719169531206.0
2.1440000000000055,0.21593017578125,7.133770751953126,6.941168212890625,1719169531216.0
2.1539999999999964,0.451898193359375,6.910513305664063,6.864605712890626,1719169531226.0
2.1639999999999873,0.5516387939453126,7.890274047851563,6.166571044921875,1719169531236.0
2.173999999999978,0.9574798583984376,7.399795532226563,5.3705902099609375,1719169531246.0
2.187000000000012,0.25660400390625,7.43314208984375,5.92581787109375,1719169531259.0
2.19399999999996,-0.5730224609375001,6.354388427734375,6.450390625000001,1719169531266.0
2.203999999999951,-0.34871826171875,7.8189453125,7.5402099609375,1719169531276.0
2.2140000000000555,0.107666015625,7.5976318359375,8.5857666015625,1719169531286.0
2.2240000000000464,-0.7288391113281251,6.855783081054688,6.155804443359376,1719169531296.0
2.2340000000000373,-1.18372802734375,5.3481597900390625,6.076849365234375,1719169531306.0
2.244000000000028,-0.804205322265625,7.469778442382813,8.102764892578126,1719169531316.0
2.254000000000019,-0.318212890625,8.2029541015625,7.937527465820313,1719169531326.0
2.26400000000001,1.1210723876953126,8.265908813476564,3.8201995849609376,1719169531336.0
2.273999999999994,1.2550567626953126,8.135064697265626,3.3430297851562503,1719169531346.0
2.283999999999992,0.7798309326171876,5.390927124023438,7.504470825195313,1719169531356.0
2.2939999999999827,-0.36666259765625,7.656250000000001,10.516726684570314,1719169531366.0
2.3039999999999736,0.2770904541015625,6.695480346679688,8.979644775390625,1719169531376.0
2.3139999999999645,0.9509002685546876,8.467034912109376,1.9137634277343751,1719169531386.0
2.323999999999955,0.453692626953125,6.731817626953125,4.156954956054688,1719169531396.0
2.33400000000006,-0.5923126220703125,7.373178100585938,8.36923828125,1719169531406.0
2.344000000000051,-1.3374511718750002,7.266857910156251,9.865197753906251,1719169531416.0
2.354000000000042,-0.4960113525390625,7.084423828125001,7.728475952148438,1719169531426.0
2.3640000000000256,0.485693359375,6.947000122070313,1.8796691894531252,1719169531436.0
2.3740000000000236,0.0336456298828125,7.418338012695313,5.751309204101563,1719169531446.0
2.3840000000000146,0.236865234375,7.413104248046875,9.971667480468753,1719169531456.0
2.3940000000000055,0.4753753662109375,6.898251342773438,8.238992309570314,1719169531466.0
2.4039999999999964,0.693548583984375,6.819744873046876,5.523416137695313,1719169531476.0
2.4139999999999873,0.5924621582031251,6.914251708984375,4.550234985351563,1719169531486.0
2.423999999999978,-0.232977294921875,7.647726440429688,7.673297119140625,1719169531496.0
2.433,-0.3518585205078125,7.784103393554688,7.922125244140625,1719169531505.0
2.44399999999996,-0.3709991455078125,7.338336181640625,5.741738891601563,1719169531516.0
2.4529999999999745,-0.2319305419921875,7.097433471679688,4.423428344726563,1719169531525.0
2.4629999999999654,-0.3709991455078125,6.797613525390625,6.769949340820313,1719169531535.0
2.4729999999999563,-0.19559326171875,6.947149658203125,9.86624450683594,1719169531545.0
2.4840000000000373,0.161199951171875,7.081134033203125,8.010202026367189,1719169531556.0
2.493000000000052,0.7744476318359376,6.837838745117188,4.9230285644531255,1719169531565.0
2.5030000000000427,0.8403930664062501,8.060296630859376,4.805044555664063,1719169531575.0
2.5130000000000337,0.3686065673828125,7.718756103515625,6.133074951171875,1719169531585.0
2.523000000000025,0.0681884765625,7.579537963867188,7.743429565429688,1719169531595.0
2.5330000000000155,-0.3386993408203125,6.75963134765625,6.548934936523438,1719169531605.0
2.5430000000000064,-0.2284912109375,6.636862182617188,5.909368896484375,1719169531615.0
2.5529999999999973,-0.3457275390625,7.222296142578125,7.689297485351563,1719169531625.0
2.562999999999988,-0.0423187255859375,6.913653564453125,7.441366577148438,1719169531635.0
2.572999999999979,-0.41630859375,7.319345092773438,5.614035034179688,1719169531645.0
2.58299999999997,0.3733917236328125,6.678433227539063,5.8441711425781255,1719169531655.0
2.592999999999968,1.490875244140625,7.937826538085938,8.670703125000001,1719169531665.0
2.602999999999952,0.0889739990234375,8.379855346679689,7.216613769531251,1719169531675.0
2.6130000000000564,-1.0762115478515626,5.260232543945313,5.5799407958984375,1719169531685.0
2.6230000000000473,-0.6455474853515626,6.265414428710938,5.7963195800781255,1719169531695.0
2.633000000000038,-0.0880767822265625,8.808276367187501,7.9571166992187505,1719169531705.0
2.643000000000029,0.2178741455078125,8.675936889648439,6.26376953125,1719169531715.0
2.65300000000002,0.026019287109375,6.596636962890625,4.8606719970703125,1719169531725.0
2.663000000000011,-0.3721954345703125,6.7099853515625005,5.5440521240234375,1719169531735.0
2.673000000000002,-0.1099090576171875,7.080087280273438,8.595037841796875,1719169531745.0
2.683,0.9093292236328124,7.017730712890626,9.466085815429688,1719169531755.0
2.6929999999999836,0.687567138671875,7.780364990234376,5.133126831054688,1719169531765.0
2.7029999999999745,0.5794525146484375,6.841726684570313,4.264620971679688,1719169531775.0
2.7129999999999654,-0.097198486328125,7.258932495117188,6.7069946289062505,1719169531785.0
2.7229999999999563,-0.8085418701171876,7.928256225585938,8.389126586914063,1719169531795.0
2.733000000000061,-0.7923919677734376,7.309176635742188,6.994552612304688,1719169531805.0
2.743000000000052,-0.468646240234375,6.8702880859375,4.243536376953125,1719169531815.0
2.7530000000000427,-0.5181427001953125,7.570565795898438,5.6113433837890625,1719169531825.0
2.7630000000000337,0.0943572998046875,7.075152587890625,8.05999755859375,1719169531835.0
2.773000000000025,0.4502532958984375,6.873577880859376,8.821884155273438,1719169531845.0
2.7830000000000155,0.5531341552734376,6.635665893554688,6.528448486328125,1719169531855.0
2.79200000000003,1.057220458984375,6.780416870117188,5.7155700683593755,1719169531864.0
2.8029999999999973,0.796728515625,7.596286010742188,6.961654663085938,1719169531875.0
2.812000000000012,0.3629241943359375,7.413403320312501,7.191790771484375,1719169531884.0
2.8220000000000027,-0.00418701171875,7.80458984375,5.849853515625,1719169531894.0
2.83299999999997,-0.2923431396484375,7.105657958984375,5.9132568359375,1719169531905.0
2.8419999999999845,-0.8399444580078126,7.016983032226563,6.0988311767578125,1719169531914.0
2.851999999999975,-1.050042724609375,7.003375244140625,8.301049804687501,1719169531924.0
2.8619999999999663,-0.5535827636718751,6.988571166992188,7.748513793945313,1719169531934.0
2.8719999999999573,-0.04964599609375,6.854437255859375,6.286050415039063,1719169531944.0
2.882000000000062,0.499151611328125,7.069470214843751,6.374874877929688,1719169531954.0
2.8920000000000528,0.5827423095703126,7.156649780273438,7.171154785156251,1719169531964.0
2.9020000000000437,0.3707000732421875,7.646231079101563,7.108947753906251,1719169531974.0
2.9120000000000346,0.5683868408203125,6.956570434570313,5.9283599853515625,1719169531984.0
2.9220000000000255,0.1649383544921875,7.993603515625001,5.5919036865234375,1719169531994.0
2.9320000000000164,-0.0107666015625,7.422973632812501,5.380459594726563,1719169532004.0
2.9420000000000073,0.1359283447265625,7.306634521484376,6.465493774414063,1719169532014.0
2.9529999999999745,0.082843017578125,7.228277587890625,6.258535766601563,1719169532025.0
2.961999999999989,0.7965789794921876,7.168762207031251,6.547439575195313,1719169532034.0
2.97199999999998,0.6105560302734375,7.583724975585938,8.643786621093751,1719169532044.0
2.981999999999971,-0.8185607910156251,6.762023925781251,7.432992553710938,1719169532054.0
2.991999999999962,-1.054080200195313,6.092550659179688,6.079690551757813,1719169532064.0
3.0019999999999456,-1.0971466064453126,7.590603637695313,6.423773193359375,1719169532074.0
3.0130000000000337,-0.9621154785156252,7.264166259765625,7.229473876953126,1719169532085.0
3.022000000000048,0.1380218505859375,8.072708129882812,5.537173461914063,1719169532094.0
3.032000000000039,0.4065887451171875,7.594940185546876,6.242535400390626,1719169532104.0
3.04200000000003,0.814373779296875,6.085821533203125,6.964944458007813,1719169532114.0
3.052000000000021,0.1167877197265625,7.28958740234375,7.805487060546875,1719169532124.0
3.062000000000012,0.73870849609375,6.784454345703126,7.958462524414063,1719169532134.0
3.0720000000000027,1.11553955078125,8.559597778320313,4.5231689453125,1719169532144.0
3.0819999999999936,0.6090606689453125,7.2483154296875005,5.157052612304688,1719169532154.0
3.0919999999999845,-0.272454833984375,7.305438232421875,6.143991088867188,1719169532164.0
3.101999999999975,-0.8807678222656251,7.093844604492188,7.828067016601563,1719169532174.0
3.1119999999999663,-0.1224700927734375,7.239492797851563,8.348452758789064,1719169532184.0
3.1219999999999573,-0.161798095703125,7.206893920898438,5.164828491210938,1719169532194.0
3.132000000000062,-0.424981689453125,6.576000976562501,6.060549926757813,1719169532204.0
3.1420000000000528,-0.2501739501953125,7.1855102539062505,7.804739379882813,1719169532214.0
3.1520000000000437,-0.07177734375,7.258633422851563,8.105007934570313,1719169532224.0
3.1620000000000346,0.570928955078125,7.112686157226563,6.001483154296875,1719169532234.0
3.1720000000000255,0.4964599609375,7.197174072265626,5.183071899414063,1719169532244.0
3.1820000000000164,0.283819580078125,7.228277587890625,6.6112915039062505,1719169532254.0
3.191000000000031,0.4122711181640625,7.680325317382813,7.4172912597656255,1719169532263.0
3.205000000000048,0.2785858154296875,7.573556518554688,6.394314575195313,1719169532277.0
3.2110000000000127,0.122320556640625,6.892868041992188,5.640203857421875,1719169532283.0
3.2210000000000036,-0.64300537109375,6.8798583984375,6.500186157226563,1719169532293.0
3.2309999999999945,-0.4810577392578125,6.5290466308593755,8.926110839843751,1719169532303.0
3.241999999999962,-0.160003662109375,7.392617797851563,7.972219848632813,1719169532314.0
3.2519999999999456,0.19140625,6.906924438476563,5.5424072265625,1719169532324.0
3.2609999999999673,0.43245849609375,7.898648071289063,5.002133178710938,1719169532333.0
3.270999999999958,0.131292724609375,7.612884521484376,5.921630859375,1719169532343.0
3.2810000000000628,0.3600830078125,7.731018066406251,7.054965209960938,1719169532353.0
3.2910000000000537,0.073870849609375,7.117471313476563,6.444708251953125,1719169532363.0
3.301000000000045,0.21593017578125,6.628936767578126,6.049185180664063,1719169532373.0
3.3110000000000355,0.1003387451171875,7.223193359375,7.482489013671875,1719169532383.0
3.3210000000000264,0.1184326171875,6.834848022460938,7.659240722656251,1719169532393.0
3.3310000000000173,-0.34512939453125,7.174893188476563,5.743832397460938,1719169532403.0
3.341000000000008,0.228192138671875,6.740341186523438,6.301452636718751,1719169532413.0
3.351999999999975,0.954937744140625,8.01812744140625,8.640795898437501,1719169532424.0
3.36099999999999,-0.552685546875,8.094540405273438,6.496298217773438,1719169532433.0
3.370999999999981,-1.4204437255859377,5.38330078125,5.651419067382813,1719169532443.0
3.380999999999972,-0.7239044189453125,6.884643554687501,6.151916503906251,1719169532453.0
3.3909999999999627,-0.034991455078125,8.399594116210938,7.767953491210938,1719169532463.0
3.4009999999999536,0.5326477050781251,8.037866210937501,6.506167602539063,1719169532473.0
3.411000000000058,0.4773193359375,6.705200195312501,5.708242797851563,1719169532483.0
3.421000000000049,0.3084930419921875,6.600973510742188,5.6128387451171875,1719169532493.0
3.43100000000004,0.520086669921875,7.2243896484375005,8.642440795898438,1719169532503.0
3.441000000000031,0.807196044921875,7.202557373046876,8.294769287109375,1719169532513.0
3.451000000000022,0.2444915771484375,7.831207275390626,4.9215332031250005,1719169532523.0
3.4610000000000127,-0.2902496337890625,7.099676513671875,4.859326171875001,1719169532533.0
3.4710000000000036,-0.7107452392578125,6.94266357421875,6.476858520507813,1719169532543.0
3.4809999999999945,-0.929815673828125,8.154504394531251,8.438323974609375,1719169532553.0
3.4909999999999854,-0.4427764892578125,6.909317016601563,6.801351928710938,1719169532563.0
3.5009999999999764,-0.0468048095703125,6.806286621093751,4.7884460449218755,1719169532573.0
3.5109999999999673,0.153424072265625,7.556658935546875,6.433493041992188,1719169532583.0
3.520999999999958,0.649884033203125,7.105657958984375,7.893563842773438,1719169532593.0
3.5310000000000628,0.5950042724609376,6.998291015625001,7.901788330078125,1719169532603.0
3.5410000000000537,0.426177978515625,6.831857299804688,5.85882568359375,1719169532613.0
3.551000000000045,0.3300262451171875,7.132574462890625,5.9578186035156255,1719169532623.0
3.5610000000000355,-0.1816864013671875,7.516433715820313,7.341476440429688,1719169532633.0
3.5710000000000264,-0.385205078125,7.210034179687501,6.989318847656251,1719169532643.0
3.580000000000048,-0.4924224853515625,7.513592529296876,6.234609985351563,1719169532652.0
3.591000000000008,-0.407037353515625,6.622357177734376,6.2703491210937505,1719169532663.0
3.6000000000000227,-0.2585479736328125,6.946401977539063,7.113284301757813,1719169532672.0
3.6100000000000136,0.069683837890625,6.990365600585938,8.485726928710939,1719169532682.0
3.620000000000005,0.516796875,7.063787841796875,6.764266967773438,1719169532692.0
3.630999999999972,0.4517486572265625,7.610342407226563,5.412161254882813,1719169532703.0
3.6399999999999864,0.5012451171875001,7.491012573242188,5.4150024414062505,1719169532712.0
3.6499999999999777,0.01136474609375,7.638305664062501,6.711181640625001,1719169532722.0
3.659999999999968,-0.3234466552734375,7.313961791992188,6.843670654296876,1719169532732.0
3.669999999999959,-0.0049346923828125,7.161883544921875,6.1152801513671875,1719169532742.0
3.680000000000064,0.0620574951171875,7.625744628906251,5.9518371582031255,1719169532752.0
3.6900000000000546,0.362176513671875,6.435137939453125,6.40074462890625,1719169532762.0
3.7000000000000455,0.3072967529296875,6.4396240234375,8.000631713867188,1719169532772.0
3.710000000000037,0.43365478515625,7.748663330078125,7.289437866210938,1719169532782.0
3.7200000000000273,1.0382293701171876,7.7058959960937505,7.174444580078125,1719169532792.0
3.730000000000018,-0.4589263916015625,8.033380126953126,5.463003540039063,1719169532802.0
3.740000000000009,-1.3316192626953125,5.805889892578126,5.056713867187501,1719169532812.0
3.75,-1.251467895507813,6.972869873046876,8.030987548828126,1719169532822.0
3.759999999999991,-1.0935577392578126,7.543798828125,8.926708984375,1719169532832.0
3.769999999999982,0.7795318603515625,7.57669677734375,5.595343017578125,1719169532842.0
3.7799999999999727,0.8815155029296876,8.252151489257812,3.848162841796875,1719169532852.0
3.789999999999963,0.6622955322265626,5.947949218750001,6.715518188476563,1719169532862.0
3.7999999999999545,-0.1051239013671875,7.299307250976563,8.94644775390625,1719169532872.0
3.810000000000059,0.0490478515625,6.6696105957031255,8.942858886718751,1719169532882.0
3.82000000000005,0.94327392578125,8.251852416992188,4.562796020507813,1719169532892.0
3.830000000000048,0.3473724365234375,7.040310668945313,3.7871520996093753,1719169532902.0
3.840000000000032,-0.5821441650390625,7.275082397460938,7.428207397460938,1719169532912.0
3.8500000000000223,-0.7838684082031251,7.294821166992188,8.387033081054689,1719169532922.0
3.8600000000000136,-0.3222503662109375,7.29197998046875,8.060147094726563,1719169532932.0
3.870000000000005,0.5209838867187501,7.164276123046876,3.970333862304688,1719169532942.0
3.879999999999995,0.253912353515625,7.433740234375,4.482794189453125,1719169532952.0
3.8899999999999864,0.2524169921875,7.148873901367188,8.655749511718751,1719169532962.0
3.8999999999999777,0.09091796875,7.359271240234375,8.43204345703125,1719169532972.0
3.909999999999968,0.2923431396484375,6.554916381835938,6.414651489257813,1719169532982.0
3.919999999999959,0.5692840576171876,6.668713378906251,5.14822998046875,1719169532992.0
3.930000000000064,-0.476422119140625,7.58267822265625,7.425216674804688,1719169533002.0
3.9400000000000546,-0.5130584716796875,7.473217773437501,7.727279663085938,1719169533012.0
3.9500000000000455,-0.8765808105468751,7.6086975097656255,5.825329589843751,1719169533022.0
3.960000000000037,-0.0503936767578125,6.75364990234375,5.084378051757813,1719169533032.0
3.9700000000000273,0.5976959228515626,7.382000732421876,6.830511474609375,1719169533042.0
3.980000000000018,0.4478607177734375,6.835894775390625,8.666366577148438,1719169533052.0
3.9890000000000256,0.72196044921875,6.90677490234375,7.847656250000001,1719169533061.0
4.0,0.679791259765625,7.161434936523438,5.521322631835938,1719169533072.0
4.0090000000000146,0.7227081298828125,7.591351318359376,5.3294677734375,1719169533081.0
4.0190000000000055,-0.089422607421875,8.105755615234376,5.938079833984375,1719169533091.0
4.028999999999996,-0.6670806884765625,7.35179443359375,6.657348632812501,1719169533101.0
4.038999999999987,-0.748577880859375,7.125845336914063,6.951187133789063,1719169533111.0
4.048999999999978,-0.8092895507812501,6.640899658203126,6.408520507812501,1719169533121.0
4.058999999999969,-0.2715576171875,6.684115600585938,7.831805419921875,1719169533131.0
4.06899999999996,0.296978759765625,6.738247680664063,7.998538208007813,1719169533141.0
4.078999999999951,0.2089019775390625,6.776528930664063,6.080587768554688,1719169533151.0
4.0890000000000555,0.8632720947265625,7.313214111328126,6.218161010742188,1719169533161.0
4.099000000000046,1.6190277099609376,8.247216796875001,7.160687255859376,1719169533171.0
4.109000000000037,0.8800201416015626,8.694180297851563,5.472573852539063,1719169533181.0
4.119000000000028,-0.75306396484375,6.205151367187501,5.229129028320313,1719169533191.0
4.129000000000019,-1.1740081787109375,6.106008911132813,6.68486328125,1719169533201.0
4.13900000000001,-0.5785552978515626,7.804440307617188,8.744573974609375,1719169533211.0
4.148999999999994,-0.5423675537109376,7.629931640625,7.755841064453126,1719169533221.0
4.158999999999992,-0.8058502197265626,6.572561645507813,6.015988159179688,1719169533231.0
4.168999999999983,-0.745587158203125,7.101022338867188,4.771548461914063,1719169533241.0
4.178999999999974,0.090618896484375,7.6924377441406255,7.025207519531251,1719169533251.0
4.1889999999999645,1.0932586669921875,7.487423706054688,7.879357910156251,1719169533261.0
4.198999999999955,0.937890625,7.779617309570313,5.402890014648438,1719169533271.0
4.20900000000006,1.0621551513671876,6.575701904296875,5.7553466796875,1719169533281.0
4.219000000000051,1.0184906005859375,6.936083984375,7.0105529785156255,1719169533291.0
4.229000000000042,-0.1057220458984375,7.484133911132813,8.695974731445313,1719169533301.0
4.239000000000026,-0.5615081787109375,7.4325439453125,6.832455444335938,1719169533311.0
4.249000000000024,-0.6901092529296875,6.977505493164063,4.315164184570313,1719169533321.0
4.2590000000000146,-0.8590850830078126,7.802047729492188,5.557958984375,1719169533331.0
4.2690000000000055,-0.6234161376953126,7.427609252929688,7.020571899414063,1719169533341.0
4.278999999999996,-0.176751708984375,6.659741210937501,8.429351806640625,1719169533351.0
4.288999999999987,0.2693145751953125,6.734359741210938,7.063040161132813,1719169533361.0
4.298999999999978,0.8098876953125,6.755593872070313,6.0435028076171875,1719169533371.0
4.308999999999969,0.98275146484375,7.32188720703125,7.387832641601563,1719169533381.0
4.31899999999996,0.35828857421875,7.5608459472656255,6.674545288085938,1719169533391.0
4.328999999999951,0.2666229248046875,7.385739135742188,5.783609008789063,1719169533401.0
4.3390000000000555,0.08912353515625,7.592398071289063,6.178533935546875,1719169533411.0
4.349000000000046,-0.456982421875,6.9402709960937505,5.912509155273438,1719169533421.0
4.358000000000061,-0.6506317138671875,7.027301025390625,8.020370483398438,1719169533430.0
4.369000000000028,-0.7125396728515625,7.033282470703125,7.566528320312501,1719169533441.0
4.379000000000019,-0.161199951171875,6.831558227539063,6.50242919921875,1719169533451.0
4.388000000000034,0.0961517333984375,7.62095947265625,6.174346923828126,1719169533460.0
4.398000000000025,0.3031097412109375,7.082031250000001,6.247470092773438,1719169533470.0
4.4080000000000155,0.320306396484375,7.8030944824218755,6.6471801757812505,1719169533480.0
4.418999999999983,0.52158203125,6.885391235351563,6.454876708984376,1719169533491.0
4.427999999999997,0.3910369873046875,7.455422973632813,6.387286376953125,1719169533500.0
4.437999999999988,-0.020037841796875,6.861166381835938,6.236105346679688,1719169533510.0
4.447999999999979,0.4629638671875,6.255694580078125,7.020721435546876,1719169533520.0
4.45799999999997,0.25899658203125,8.66531982421875,6.9522338867187505,1719169533530.0
4.469000000000051,0.3542510986328125,7.278372192382813,6.929354858398438,1719169533541.0
4.479000000000042,-0.6936981201171876,7.840478515625,6.1644775390625,1719169533551.0
4.488000000000056,-1.3304229736328126,5.735159301757813,5.963351440429688,1719169533560.0
4.498000000000047,-0.6033782958984375,6.845764160156251,7.317999267578125,1719169533570.0
4.508000000000038,-0.7582977294921875,7.986126708984376,8.522662353515626,1719169533580.0
4.518000000000029,0.8217010498046876,7.037619018554688,5.4733215332031255,1719169533590.0
4.52800000000002,1.072024536132813,8.371182250976563,4.688107299804688,1719169533600.0
4.538000000000011,0.6401641845703125,6.120364379882813,7.314410400390625,1719169533610.0
4.548000000000002,-0.1818359375,7.0509277343750005,8.31361083984375,1719169533620.0
4.558,-0.434552001953125,7.146929931640625,8.23585205078125,1719169533630.0
4.56899999999996,0.8526550292968751,8.090802001953126,4.002783203125,1719169533641.0
4.578999999999951,0.4924224853515625,7.712475585937501,4.227835083007813,1719169533651.0
4.587999999999965,-0.6784454345703126,7.045245361328125,7.33983154296875,1719169533660.0
4.597999999999956,-0.8417388916015626,6.722845458984375,8.498138427734375,1719169533670.0
4.608000000000061,-0.385504150390625,7.161734008789063,8.760424804687501,1719169533680.0
4.618000000000052,0.5324981689453125,6.775033569335938,4.7260894775390625,1719169533690.0
4.628000000000043,0.1924530029296875,7.434487915039063,5.344271850585938,1719169533700.0
4.638000000000034,-0.026019287109375,7.1765380859375005,7.893264770507813,1719169533710.0
4.648000000000025,0.2800811767578125,7.410412597656251,7.701260375976563,1719169533720.0
4.6580000000000155,0.5221801757812501,7.438076782226563,6.031240844726563,1719169533730.0
4.668000000000006,0.7213623046875001,6.677536010742188,4.4056335449218755,1719169533740.0
4.678999999999974,-0.06041259765625,7.403533935546876,7.585519409179688,1719169533751.0
4.687999999999988,-0.196490478515625,7.171752929687501,8.337387084960938,1719169533760.0
4.697999999999979,-0.14295654296875,7.268951416015626,6.532785034179688,1719169533770.0
4.70799999999997,0.0207855224609375,7.2889892578125,5.093350219726563,1719169533780.0
4.7169999999999845,-0.0889739990234375,6.909915161132813,6.151467895507813,1719169533789.0
4.727999999999952,-0.6413604736328126,7.054217529296875,8.6216552734375,1719169533800.0
4.736999999999966,-0.2308837890625,6.980496215820313,7.913900756835938,1719169533809.0
4.746999999999957,0.4535430908203125,7.419982910156251,5.5926513671875,1719169533819.0
4.758000000000038,0.5701812744140625,7.676885986328125,4.658200073242188,1719169533830.0
4.767000000000053,0.2890533447265625,7.110293579101563,6.6546569824218755,1719169533839.0
4.778999999999996,-0.279034423828125,7.380654907226563,8.142541503906251,1719169533851.0
4.787000000000035,0.034393310546875,6.78953857421875,7.211080932617188,1719169533859.0
4.7970000000000255,0.3321197509765625,7.51329345703125,5.474667358398438,1719169533869.0
4.807000000000016,-0.024224853515625,7.3009521484375,5.342926025390625,1719169533879.0
4.817000000000007,0.0605621337890625,7.152761840820313,7.535873413085938,1719169533889.0
4.826999999999998,0.0095703125,6.769500732421876,7.592846679687501,1719169533899.0
4.836999999999989,-0.0644500732421875,7.188201904296876,5.2218017578125,1719169533909.0
4.84699999999998,1.0012939453125,6.934140014648438,6.7488647460937505,1719169533919.0
4.856999999999971,1.1324371337890626,8.105007934570313,8.657394409179688,1719169533929.0
4.866999999999962,-0.7298858642578125,7.913302612304688,6.296966552734376,1719169533939.0
4.879000000000019,-1.2556549072265626,5.359375,5.594296264648438,1719169533951.0
4.887000000000057,-0.5719757080078125,6.887484741210938,6.170608520507813,1719169533959.0
4.897000000000048,0.1616485595703125,8.558700561523438,7.729373168945313,1719169533969.0
4.907000000000039,-0.02093505859375,7.849749755859375,6.7602294921875,1719169533979.0
4.91700000000003,0.117236328125,6.667666625976563,5.786749267578125,1719169533989.0
4.927000000000021,-0.0847869873046875,7.131378173828126,5.1761932373046875,1719169533999.0
4.937000000000012,0.09749755859375,7.072760009765625,7.796215820312501,1719169534009.0
4.947000000000003,0.661846923828125,7.315756225585938,8.58875732421875,1719169534019.0
4.956999999999994,0.2394073486328125,7.582080078125,5.328869628906251,1719169534029.0
4.9669999999999845,0.2392578125,6.869839477539063,5.775982666015626,1719169534039.0
4.979000000000042,-0.394476318359375,7.017282104492188,6.485232543945313,1719169534051.0
4.986999999999966,-0.7497741699218751,7.592098999023438,8.261422729492189,1719169534059.0
4.996999999999957,-0.347222900390625,7.341925048828125,6.743930053710938,1719169534069.0
5.007000000000062,-0.0892730712890625,6.826025390625,4.8273254394531255,1719169534079.0
5.017000000000053,-0.005084228515625,7.605108642578125,6.209188842773438,1719169534089.0
5.027000000000044,0.2899505615234375,7.2172119140625,7.489218139648438,1719169534099.0
5.037000000000035,0.5117126464843751,6.816754150390626,8.016781616210938,1719169534109.0
5.0470000000000255,0.5013946533203125,7.099377441406251,6.1537109375000005,1719169534119.0
5.057000000000016,0.503936767578125,7.1944824218750005,5.8371429443359375,1719169534129.0
5.067000000000007,0.2480804443359375,7.209136962890626,6.719107055664063,1719169534139.0
5.078999999999951,-0.17705078125,7.571014404296876,6.989318847656251,1719169534151.0
5.086999999999989,0.0095703125,7.320989990234375,6.253302001953125,1719169534159.0
5.09699999999998,-0.1266571044921875,7.290783691406251,6.423324584960938,1719169534169.0
5.106999999999971,-0.5658447265625001,6.617572021484375,6.441717529296875,1719169534179.0
5.1159999999999854,-0.49765625,6.904830932617188,8.438174438476564,1719169534188.0
5.125999999999976,-0.367559814453125,7.031039428710938,7.279718017578125,1719169534198.0
5.135999999999967,0.416607666015625,7.051077270507813,6.260031127929688,1719169534208.0
5.145999999999958,0.509918212890625,7.927209472656251,5.543304443359375,1719169534218.0
5.156000000000063,0.268267822265625,7.033282470703125,6.494204711914063,1719169534228.0
5.16700000000003,-0.0801513671875,7.6933349609375,6.917541503906251,1719169534239.0
5.178999999999974,0.0794036865234375,6.761276245117188,6.578692626953125,1719169534251.0
5.1860000000000355,0.2477813720703125,7.789187622070313,6.0266052246093755,1719169534258.0
5.196000000000026,0.03170166015625,6.627590942382813,5.900546264648438,1719169534268.0
5.206000000000017,0.401055908203125,6.0472412109375,7.713073730468751,1719169534278.0
5.216000000000008,0.0898712158203125,8.040408325195314,7.931246948242188,1719169534288.0
5.225999999999999,0.4000091552734375,7.424468994140626,7.509854125976563,1719169534298.0
5.23599999999999,-0.4813568115234375,8.307330322265626,4.810427856445313,1719169534308.0
5.245999999999981,-0.9667510986328126,6.237301635742188,4.458569335937501,1719169534318.0
5.255999999999972,-0.7991210937500001,7.117620849609375,7.368093872070313,1719169534328.0
5.265999999999963,-0.8985626220703126,7.476208496093751,9.1217041015625,1719169534338.0
5.275999999999954,1.0024902343750002,7.085470581054688,6.607254028320313,1719169534348.0
5.286000000000058,1.0730712890625,8.1407470703125,4.3088836669921875,1719169534358.0
5.296000000000049,1.03179931640625,5.861367797851563,6.590805053710938,1719169534368.0
5.30600000000004,-0.28531494140625,7.597482299804688,8.65455322265625,1719169534378.0
5.316000000000031,-0.5477508544921875,7.037619018554688,8.539111328125001,1719169534388.0
5.326000000000022,0.7189697265625,8.2723388671875,3.900650024414063,1719169534398.0
5.336000000000013,0.1813873291015625,7.393215942382813,3.6474853515625,1719169534408.0
5.346000000000004,-0.7876068115234376,6.816604614257813,7.421328735351563,1719169534418.0
5.3559999999999945,-0.6889129638671876,7.0497314453125,9.555059814453124,1719169534428.0
5.3659999999999854,-0.106768798828125,7.226483154296876,8.88065185546875,1719169534438.0
5.375999999999976,0.7660736083984375,6.827969360351563,3.5151458740234376,1719169534448.0
5.385999999999967,0.5301055908203125,7.543798828125,4.4504943847656255,1719169534458.0
5.395999999999958,0.31163330078125,7.389776611328125,8.514437866210939,1719169534468.0
5.406000000000063,0.2860626220703125,7.472470092773438,8.293572998046876,1719169534478.0
5.416000000000054,0.1697235107421875,7.007263183593751,6.008511352539063,1719169534488.0
5.426000000000045,0.2516693115234375,6.617422485351563,4.138562011718751,1719169534498.0
5.4360000000000355,-0.55567626953125,7.484432983398438,7.814608764648438,1719169534508.0
5.446000000000026,-0.4000091552734375,7.118966674804688,8.421725463867189,1719169534518.0
5.456000000000017,-0.1404144287109375,7.464245605468751,6.793276977539063,1719169534528.0
5.466000000000008,0.1496856689453125,6.967935180664063,5.134771728515625,1719169534538.0
5.475999999999999,0.086431884765625,6.858474731445313,5.8296661376953125,1719169534548.0
5.48599999999999,-0.277239990234375,7.236203002929688,8.772088623046876,1719169534558.0
5.495999999999981,0.1939483642578125,7.05032958984375,7.905526733398438,1719169534568.0
5.505999999999972,0.445916748046875,7.424319458007813,5.402291870117188,1719169534578.0
5.515999999999963,0.42528076171875,7.524060058593751,4.646685791015625,1719169534588.0
5.524999999999977,0.1571624755859375,7.640100097656251,6.283956909179688,1719169534597.0
5.536000000000058,-0.1902099609375,7.666717529296876,7.603762817382813,1719169534608.0
5.544999999999959,0.098394775390625,6.797314453125001,6.848455810546875,1719169534617.0
5.555000000000064,0.0227294921875,7.044198608398438,5.970379638671876,1719169534627.0
5.565000000000055,-0.0705810546875,6.7745849609375,6.5927490234375,1719169534637.0
5.5750000000000455,0.1365264892578125,7.197921752929688,8.404977416992189,1719169534647.0
5.585000000000036,-0.1123016357421875,6.5514770507812505,7.130630493164063,1719169534657.0
5.595000000000027,-0.3605316162109375,6.667367553710938,5.001983642578125,1719169534667.0
5.605000000000018,0.7831207275390626,7.520919799804688,7.540658569335938,1719169534677.0
5.615000000000009,1.0071258544921875,8.869436645507813,8.009603881835938,1719169534687.0
5.625,-0.4203460693359375,7.731765747070313,4.9369354248046875,1719169534697.0
5.635999999999967,-1.067987060546875,5.0561157226562505,4.8243347167968755,1719169534708.0
5.644999999999982,-0.475823974609375,7.351943969726563,7.390075683593751,1719169534717.0
5.654999999999973,0.0171966552734375,8.509353637695312,8.739788818359376,1719169534727.0
5.664999999999964,0.0835906982421875,7.039862060546875,7.030590820312501,1719169534737.0
5.6749999999999545,0.043963623046875,6.848007202148438,4.8696441650390625,1719169534747.0
5.685000000000059,-0.173760986328125,7.359719848632813,5.179483032226563,1719169534757.0
5.69500000000005,0.5342926025390625,7.345214843750001,8.428155517578126,1719169534767.0
5.705000000000048,0.7659240722656251,7.660736083984376,7.447946166992188,1719169534777.0
5.715000000000032,0.483001708984375,7.128536987304688,4.942019653320313,1719169534787.0
5.725000000000023,0.4012054443359375,6.925915527343751,5.890826416015625,1719169534797.0
5.735000000000014,-0.450103759765625,6.966140747070313,7.807730102539063,1719169534807.0
5.7450000000000045,-0.9030487060546876,7.59404296875,8.582476806640626,1719169534817.0
5.7549999999999955,-0.5520874023437501,7.031188964843751,5.787496948242188,1719169534827.0
5.764999999999986,-0.3288299560546875,7.381253051757813,4.413259887695313,1719169534837.0
5.774999999999977,-0.1616485595703125,7.7283264160156255,6.11722412109375,1719169534847.0
5.784999999999968,0.2947357177734375,7.242184448242188,7.66641845703125,1719169534857.0
5.794999999999959,0.658856201171875,6.8505493164062505,8.0294921875,1719169534867.0
5.805000000000064,0.813177490234375,6.849502563476563,5.873480224609375,1719169534877.0
5.815000000000055,0.8182617187500001,6.864456176757813,6.451885986328126,1719169534887.0
5.8250000000000455,0.36666259765625,7.294970703125,7.661932373046875,1719169534897.0
5.835000000000036,-0.234771728515625,7.421627807617188,6.7267333984375,1719169534907.0
5.845000000000027,-0.251220703125,7.327270507812501,6.34451904296875,1719169534917.0
5.855000000000018,-0.8529541015625001,7.244577026367188,5.8606201171875005,1719169534927.0
5.864000000000026,-1.0727722167968752,6.726284790039063,6.572262573242188,1719169534936.0
5.875,-0.6470428466796876,7.306185913085938,8.45477294921875,1719169534947.0
5.8840000000000146,-0.0782073974609375,6.748416137695313,6.761724853515625,1719169534956.0
5.894999999999982,0.6165374755859375,7.166668701171876,6.585720825195313,1719169534967.0
5.903999999999996,0.6739593505859376,7.353289794921875,6.205749511718751,1719169534976.0
5.913999999999987,0.702520751953125,7.312466430664063,6.728677368164063,1719169534986.0
5.923999999999978,0.4828521728515625,7.870236206054688,6.268554687500001,1719169534996.0
5.933999999999969,0.4646087646484375,6.90079345703125,5.812020874023438,1719169535006.0
5.94399999999996,-0.0820953369140625,7.981640625000001,5.893218994140625,1719169535016.0
5.953999999999951,-0.1628448486328125,6.8320068359375,6.295321655273438,1719169535026.0
5.9640000000000555,0.2021728515625,6.386688232421876,7.138406372070313,1719169535036.0
5.974000000000046,0.05203857421875,7.797711181640626,7.0712646484375,1719169535046.0
5.984000000000037,0.3931304931640625,6.878662109375001,8.216561889648439,1719169535056.0
5.994000000000028,-0.8617767333984375,7.916592407226563,7.160986328125,1719169535066.0
6.004000000000019,-1.28182373046875,6.031689453125001,5.3821044921875005,1719169535076.0
6.01400000000001,-0.6890625,7.059750366210938,6.13756103515625,1719169535086.0
6.023999999999994,-0.8919830322265626,7.938275146484376,7.496545410156251,1719169535096.0
6.033999999999992,0.9329559326171876,7.445553588867188,6.006866455078125,1719169535106.0
6.043999999999983,1.2819732666015626,8.68206787109375,5.303598022460938,1719169535116.0
6.053999999999974,1.1520263671875002,5.8162078857421875,6.153411865234376,1719169535126.0
6.0639999999999645,0.31761474609375,6.9881225585937505,8.259179687500001,1719169535136.0
6.073999999999955,-0.6021820068359376,6.719555664062501,9.193780517578126,1719169535146.0
6.08400000000006,0.5396759033203126,8.25260009765625,5.082882690429688,1719169535156.0
6.094000000000051,0.191107177734375,7.530490112304688,4.319052124023438,1719169535166.0
6.104000000000042,-0.6480895996093751,7.0075622558593755,5.832058715820313,1719169535176.0
6.114000000000026,-1.208551025390625,7.0778442382812505,8.249459838867189,1719169535186.0
6.124000000000024,-0.60711669921875,7.581481933593751,9.058599853515624,1719169535196.0
6.1340000000000146,0.94805908203125,6.643441772460938,4.950991821289063,1719169535206.0
6.1440000000000055,0.6027801513671875,7.51688232421875,4.4210357666015625,1719169535216.0
6.153999999999996,0.2758941650390625,6.785351562500001,8.024407958984376,1719169535226.0
6.163999999999987,0.4059906005859375,7.5249572753906255,8.369088745117189,1719169535236.0
6.173999999999978,0.245538330078125,7.226483154296876,6.791333007812501,1719169535246.0
6.183999999999969,0.3261383056640625,6.670358276367188,4.464999389648438,1719169535256.0
6.19399999999996,-0.5100677490234375,7.533929443359376,6.472372436523438,1719169535266.0
6.203999999999951,-0.218023681640625,7.387384033203125,7.777374267578126,1719169535276.0
6.2140000000000555,0.071478271484375,7.84227294921875,6.824978637695313,1719169535286.0
6.224000000000046,0.173162841796875,7.044497680664063,5.31571044921875,1719169535296.0
6.234000000000037,0.0761138916015625,6.49046630859375,5.966342163085938,1719169535306.0
6.244000000000028,-0.542816162109375,6.818399047851563,9.001925659179689,1719169535316.0
6.254000000000019,0.0088226318359375,6.928906250000001,8.717657470703125,1719169535326.0
6.263000000000034,0.271856689453125,7.537667846679688,5.7608795166015625,1719169535335.0
6.273999999999994,0.244940185546875,7.39366455078125,4.1693664550781255,1719169535346.0
6.2830000000000155,-0.0103179931640625,7.546041870117188,5.896807861328125,1719169535355.0
6.293000000000006,-0.27275390625,7.629632568359376,7.855282592773438,1719169535365.0
6.302999999999997,0.3614288330078125,7.0987792968750005,7.269100952148438,1719169535375.0
6.312999999999988,0.4699920654296875,7.144686889648438,5.552725219726563,1719169535385.0
6.322999999999979,0.23626708984375,6.563589477539063,6.082232666015625,1719169535395.0
6.33299999999997,0.1700225830078125,7.120761108398438,8.321536254882814,1719169535405.0
6.342999999999968,-0.2564544677734375,7.140499877929688,7.0195251464843755,1719169535415.0
6.352999999999952,-0.0222808837890625,7.16995849609375,4.93828125,1719169535425.0
6.363000000000056,1.20406494140625,7.373477172851563,7.612435913085938,1719169535435.0
6.373000000000047,0.2702117919921875,8.348004150390626,7.3694396972656255,1719169535445.0
6.383000000000038,-1.1689239501953126,6.698620605468751,6.359323120117188,1719169535455.0
6.393000000000029,-0.9329559326171876,5.175595092773438,6.491213989257813,1719169535465.0
6.40300000000002,-0.3031097412109375,8.11024169921875,6.6764892578125,1719169535475.0
6.413000000000011,-0.2017242431640625,9.145330810546875,6.609646606445313,1719169535485.0
6.423000000000002,-0.0423187255859375,6.880905151367188,5.7421875,1719169535495.0
6.433,0.1422088623046875,6.856829833984375,6.075503540039063,1719169535505.0
6.442999999999984,-0.0037384033203125,7.1570983886718755,6.454727172851563,1719169535515.0
6.4529999999999745,0.8722442626953125,6.357528686523438,9.257781982421877,1719169535525.0
6.462999999999965,1.160699462890625,8.091699218750001,6.843670654296876,1719169535535.0
6.472999999999956,0.8554962158203125,7.036422729492188,5.138211059570313,1719169535545.0
6.483000000000061,0.2322296142578125,7.340579223632813,5.6064086914062505,1719169535555.0
6.493000000000052,-0.8889923095703126,7.096835327148438,7.072760009765625,1719169535565.0
6.503000000000043,-1.07366943359375,7.792926025390625,8.166766357421876,1719169535575.0
6.513000000000034,-0.7005767822265625,6.824380493164063,5.487377929687501,1719169535585.0
6.523000000000025,-0.5090209960937501,7.193734741210938,5.5660339355468755,1719169535595.0
6.5330000000000155,-0.28651123046875,7.307980346679688,6.8116699218750005,1719169535605.0
6.543000000000006,0.232977294921875,6.720602416992188,8.531484985351563,1719169535615.0
6.552999999999997,0.6166870117187501,6.8460632324218755,7.493106079101563,1719169535625.0
6.562999999999988,0.8942260742187501,7.221997070312501,5.7080932617187505,1719169535635.0
6.572999999999979,0.8602813720703125,7.317849731445313,5.807684326171875,1719169535645.0
6.58299999999997,0.378326416015625,7.537667846679688,6.874325561523438,1719169535655.0
6.592999999999968,0.0497955322265625,7.921676635742188,6.264517211914063,1719169535665.0
6.602999999999952,0.24404296875,7.052124023437501,6.260479736328126,1719169535675.0
6.613000000000056,-0.473431396484375,7.2139221191406255,6.037222290039063,1719169535685.0
6.623000000000047,-0.717474365234375,6.23087158203125,7.713671875,1719169535695.0
6.632000000000062,-0.7511199951171875,7.318298339843751,8.814706420898439,1719169535704.0
6.643000000000029,-0.5211334228515625,6.7264343261718755,6.504074096679688,1719169535715.0
6.65300000000002,0.1344329833984375,7.664624023437501,5.522967529296875,1719169535725.0
6.662000000000035,0.111553955078125,7.538714599609375,5.3855438232421875,1719169535734.0
6.6720000000000255,0.419598388671875,7.348355102539063,7.043600463867188,1719169535744.0
6.682000000000016,0.4397857666015625,7.455273437500001,6.920532226562501,1719169535754.0
6.692000000000007,0.8451782226562501,6.900344848632813,6.359622192382813,1719169535764.0
6.7029999999999745,0.68427734375,7.723840332031251,5.5675292968750005,1719169535775.0
6.711999999999989,0.185723876953125,6.32657470703125,6.97257080078125,1719169535784.0
6.72199999999998,-0.1208251953125,6.286349487304688,8.06298828125,1719169535794.0
6.731999999999971,-0.452496337890625,7.846160888671876,7.620809936523438,1719169535804.0
6.741999999999962,-0.0548797607421875,7.700363159179688,6.767108154296875,1719169535814.0
6.753000000000043,-0.8722442626953125,8.288040161132812,4.806240844726563,1719169535825.0
6.762000000000057,-1.0537811279296876,6.0131469726562505,4.93887939453125,1719169535834.0
6.772000000000048,-0.6637908935546876,7.091900634765626,7.607949829101563,1719169535844.0
6.782000000000039,-0.440234375,7.231567382812501,9.349148559570311,1719169535854.0
6.79200000000003,1.2925903320312502,7.093844604492188,6.109896850585938,1719169535864.0
6.802999999999997,1.2278411865234375,8.429501342773438,4.7373046875,1719169535875.0
6.812000000000012,1.2176727294921876,5.857330322265625,6.565533447265626,1719169535884.0
6.822000000000003,-0.1012359619140625,7.4412170410156255,8.234506225585939,1719169535894.0
6.831999999999994,-0.8976654052734375,7.1002746582031255,8.708685302734375,1719169535904.0
6.8419999999999845,0.4595245361328125,8.798556518554689,2.9839935302734375,1719169535914.0
6.852999999999952,0.4128692626953125,7.403085327148438,3.7381042480468754,1719169535925.0
6.861999999999966,-0.6313415527343751,6.665274047851563,7.601818847656251,1719169535934.0
6.871999999999957,-0.8133270263671876,6.812567138671875,9.484329223632812,1719169535944.0
6.882000000000062,-0.0707305908203125,6.935485839843751,9.842767333984376,1719169535954.0
6.892000000000053,0.8134765625000001,6.851296997070313,4.012203979492188,1719169535964.0
6.903999999999996,0.0584686279296875,7.498788452148438,3.8012084960937504,1719169535976.0
6.912000000000035,-0.1748077392578125,7.181771850585938,8.4111083984375,1719169535984.0
6.9220000000000255,-0.1051239013671875,7.818646240234376,8.272637939453126,1719169535994.0
6.932000000000016,0.0468048095703125,7.269998168945313,6.16148681640625,1719169536004.0
6.942000000000007,0.572125244140625,6.639852905273438,3.635372924804688,1719169536014.0
6.951999999999998,-0.1625457763671875,7.359271240234375,7.099826049804688,1719169536024.0
6.961999999999989,0.27095947265625,7.228277587890625,9.26809997558594,1719169536034.0
6.97199999999998,0.4006072998046875,7.4905639648437505,7.194931030273438,1719169536044.0
6.981999999999971,0.46236572265625,6.841278076171876,4.639059448242188,1719169536054.0
6.991999999999962,0.0773101806640625,7.0377685546875,5.482443237304688,1719169536064.0
7.004000000000019,-0.7233062744140626,7.135714721679688,8.84595947265625,1719169536076.0
7.012000000000057,-0.34154052734375,7.080535888671876,8.673544311523438,1719169536084.0
7.022000000000048,-0.1849761962890625,7.353439331054688,5.371487426757813,1719169536094.0
7.031000000000063,0.267669677734375,7.1107421875000005,4.242489624023438,1719169536103.0
7.04200000000003,0.25361328125,7.681222534179688,6.756790161132813,1719169536114.0
7.051000000000045,-0.021234130859375,7.449142456054688,8.304788208007814,1719169536123.0
7.0610000000000355,0.32239990234375,6.923971557617188,7.228726196289063,1719169536133.0
7.071000000000026,0.3052032470703125,7.256390380859376,4.879962158203125,1719169536143.0
7.081000000000017,0.33316650390625,7.248165893554688,5.681027221679688,1719169536153.0
7.091000000000008,0.1706207275390625,7.643838500976563,7.760327148437501,1719169536163.0
7.102999999999952,-0.1048248291015625,6.405828857421875,7.2258850097656255,1719169536175.0
7.11099999999999,-0.3363067626953125,7.266110229492188,5.310177612304688,1719169536183.0
7.120999999999981,0.7855133056640625,6.817950439453125,7.162481689453125,1719169536193.0
7.130999999999972,1.2709075927734377,8.225534057617189,8.68804931640625,1719169536203.0
7.140999999999963,-0.6237152099609375,7.764663696289063,6.534429931640625,1719169536213.0
7.150999999999954,-1.1662322998046877,4.7361083984375005,5.500985717773438,1719169536223.0
7.161000000000058,-1.0403228759765626,7.473965454101563,6.175244140625001,1719169536233.0
7.1720000000000255,-0.183929443359375,8.911605834960938,7.639202880859376,1719169536244.0
7.18100000000004,0.124114990234375,7.749710083007813,6.108251953125,1719169536253.0
7.191000000000031,0.0414215087890625,6.427960205078126,5.56094970703125,1719169536263.0
7.201000000000022,0.2014251708984375,6.929055786132813,6.165374755859376,1719169536273.0
7.211000000000013,0.6581085205078125,7.0942932128906255,8.699114990234376,1719169536283.0
7.221000000000004,1.0772583007812502,7.376617431640626,7.988818359375,1719169536293.0
7.230999999999995,0.6892120361328126,7.683166503906251,4.385745239257813,1719169536303.0
7.2409999999999854,0.0527862548828125,6.965393066406251,5.6707092285156255,1719169536313.0
7.250999999999976,-0.8276824951171876,7.141546630859375,6.912457275390626,1719169536323.0
7.260999999999967,-1.197186279296875,7.638305664062501,8.43802490234375,1719169536333.0
7.270999999999958,-0.6434539794921875,6.901690673828125,6.58018798828125,1719169536343.0
7.281000000000063,-0.338848876953125,7.158743286132813,4.77738037109375,1719169536353.0
7.291000000000054,-0.21114501953125,7.510751342773438,6.514242553710938,1719169536363.0
7.301000000000045,0.2729034423828125,7.204501342773438,7.586865234375001,1719169536373.0
7.3110000000000355,0.5112640380859376,6.977206420898438,7.878610229492188,1719169536383.0
7.321000000000026,0.6886138916015625,6.726135253906251,5.8939666748046875,1719169536393.0
7.331000000000017,0.80689697265625,7.100424194335938,6.470877075195313,1719169536403.0
7.341000000000008,0.4822540283203125,7.402935791015626,7.1361633300781255,1719169536413.0
7.350999999999999,0.0740203857421875,7.493853759765625,6.620562744140625,1719169536423.0
7.36099999999999,-0.0321502685546875,7.568771362304688,5.593099975585938,1719169536433.0
7.370999999999981,-0.1745086669921875,7.268502807617188,5.986828613281251,1719169536443.0
7.380999999999972,-0.5514892578125,6.99290771484375,6.944906616210938,1719169536453.0
7.390999999999963,-0.7765411376953125,6.8080810546875,8.424118041992188,1719169536463.0
7.399999999999977,-0.5833404541015625,6.972122192382813,6.969879150390626,1719169536472.0
7.411000000000058,0.06998291015625,7.267306518554688,5.851498413085938,1719169536483.0
7.419999999999959,0.5462554931640625,7.593295288085938,5.778524780273438,1719169536492.0
7.43100000000004,0.4188507080078125,7.303195190429688,7.039263916015625,1719169536503.0
7.440000000000055,0.159405517578125,7.072311401367188,7.1436401367187505,1719169536512.0
7.450000000000045,0.398663330078125,6.74766845703125,7.021469116210938,1719169536522.0
7.460000000000036,0.3560455322265625,7.736401367187501,5.9971466064453125,1719169536532.0
7.47199999999998,0.2684173583984375,7.0533203125,5.848358154296875,1719169536544.0
7.480000000000018,-0.048150634765625,6.632675170898438,7.230670166015625,1719169536552.0
7.490000000000009,-0.5725738525390626,6.821539306640625,6.916943359375001,1719169536562.0
7.5,0.165386962890625,7.994351196289063,7.369140625000001,1719169536572.0
7.509999999999991,0.455487060546875,8.423370361328125,6.0086608886718755,1719169536582.0
7.519999999999982,-0.5085723876953125,7.275680541992188,4.884896850585938,1719169536592.0
7.529999999999973,-0.8040557861328126,5.760580444335938,6.346762084960938,1719169536602.0
7.539999999999964,-0.8563934326171876,7.023263549804688,8.998486328125,1719169536612.0
7.549999999999955,-0.0142059326171875,7.3081298828125005,8.768948364257813,1719169536622.0
7.560000000000059,1.1444000244140626,8.166018676757814,4.03568115234375,1719169536632.0
7.571000000000026,0.97796630859375,7.885937500000001,4.399053955078125,1719169536643.0
7.580000000000048,0.1806396484375,6.04544677734375,7.276129150390625,1719169536652.0
7.590000000000032,-0.8073455810546876,7.495498657226563,8.972616577148438,1719169536662.0
7.600000000000023,0.2513702392578125,7.174743652343751,7.958163452148438,1719169536672.0
7.610000000000014,1.018341064453125,8.226431274414063,2.5935546875,1719169536682.0
7.6200000000000045,0.2537628173828125,6.657049560546875,5.524313354492188,1719169536692.0
7.6299999999999955,-0.7560546875,6.570468139648438,9.099423217773438,1719169536702.0
7.639999999999986,-1.1539703369140626,7.118368530273438,10.020715332031251,1719169536712.0
7.649999999999977,-0.2112945556640625,7.203005981445313,7.078741455078125,1719169536722.0
7.659999999999968,0.370849609375,7.455422973632813,1.5750640869140626,1719169536732.0
7.671000000000049,-0.0369354248046875,7.44151611328125,6.048886108398438,1719169536743.0
7.680000000000064,0.160601806640625,7.629034423828125,8.903680419921876,1719169536752.0
7.690000000000055,0.2220611572265625,6.880606079101563,8.328414916992188,1719169536762.0
7.700000000000045,0.814373779296875,6.666769409179688,5.7768798828125005,1719169536772.0
7.710000000000036,0.8528045654296875,6.965243530273438,4.82762451171875,1719169536782.0
7.720000000000027,0.104376220703125,7.64847412109375,7.732363891601563,1719169536792.0
7.730000000000018,-0.18243408203125,7.941415405273438,7.230819702148438,1719169536802.0
7.740000000000009,-0.04486083984375,7.767953491210938,4.802502441406251,1719169536812.0
7.75,0.46116943359375,7.143341064453126,4.333258056640625,1719169536822.0
7.759999999999991,-0.1356292724609375,6.735855102539063,7.347457885742188,1719169536832.0
7.772000000000048,-0.6776977539062501,6.1327758789062505,10.884735107421877,1719169536844.0
7.779999999999973,-0.5746673583984375,7.050030517578126,8.537615966796876,1719169536852.0
7.789999999999964,0.0753662109375,6.823333740234376,4.815960693359376,1719169536862.0
7.798999999999978,0.16090087890625,7.939770507812501,4.390081787109375,1719169536871.0
7.808999999999969,-0.42647705078125,7.650717163085938,6.276779174804688,1719169536881.0
7.81899999999996,0.02392578125,7.431945800781251,8.121307373046875,1719169536891.0
7.828999999999951,0.5570220947265625,7.295718383789063,6.591403198242188,1719169536901.0
7.839000000000056,1.0309020996093752,6.960009765625,4.985235595703125,1719169536911.0
7.849000000000046,0.6865203857421875,7.453329467773438,6.37442626953125,1719169536921.0
7.859000000000037,0.5369842529296875,6.868045043945313,7.617071533203125,1719169536931.0
7.870999999999981,0.1179840087890625,7.612884521484376,6.012698364257813,1719169536943.0
7.879000000000019,0.352008056640625,6.750210571289063,6.142346191406251,1719169536951.0
7.88900000000001,0.8529541015625001,7.180725097656251,8.566476440429689,1719169536961.0
7.898999999999994,-1.0898193359375,7.717410278320313,7.707540893554688,1719169536971.0
7.908999999999992,-1.612896728515625,5.477508544921875,7.572210693359375,1719169536981.0
7.918999999999983,-1.414910888671875,6.4916625976562505,5.691195678710938,1719169536991.0
7.928999999999974,-1.086978149414063,8.34351806640625,6.097784423828125,1719169537001.0
7.9389999999999645,0.2020233154296875,9.24552001953125,5.723794555664063,1719169537011.0
7.948999999999955,0.240155029296875,7.112088012695313,4.8273254394531255,1719169537021.0
7.95900000000006,0.6156402587890626,6.346463012695313,6.8655029296875005,1719169537031.0
7.971000000000004,1.3528533935546876,7.060498046875001,7.451834106445313,1719169537043.0
7.979000000000042,1.6396636962890627,6.526205444335938,9.580780029296877,1719169537051.0
7.989000000000026,1.1601013183593751,7.707989501953126,6.397903442382813,1719169537061.0
7.999000000000024,-0.0037384033203125,6.894961547851563,5.299411010742188,1719169537071.0
8.009000000000015,-0.4151123046875,7.410562133789063,5.634970092773438,1719169537081.0
8.019000000000005,-1.3803680419921875,7.687652587890626,7.222894287109376,1719169537091.0
8.028999999999996,-2.1157867431640627,7.773785400390626,7.182070922851563,1719169537101.0
8.038999999999987,-1.11195068359375,6.553271484375,4.91495361328125,1719169537111.0
8.048999999999978,0.0656463623046875,7.527648925781251,6.5320373535156255,1719169537121.0
8.058999999999969,0.09869384765625,6.9277099609375,7.216763305664063,1719169537131.0
8.07000000000005,0.6316406250000001,6.984982299804688,7.805038452148438,1719169537142.0
8.07899999999995,1.4561828613281251,7.307382202148438,6.554766845703125,1719169537151.0
8.089000000000055,1.7168243408203123,7.248614501953125,5.1761932373046875,1719169537161.0
8.099000000000046,1.0757629394531252,7.736401367187501,6.306088256835938,1719169537171.0
8.109000000000037,-0.2189208984375,7.176837158203125,7.135714721679688,1719169537181.0
8.119000000000028,-0.1562652587890625,7.420730590820313,6.294723510742188,1719169537191.0
8.129000000000019,-0.2358184814453125,6.687106323242188,7.239193725585938,1719169537201.0
8.13900000000001,-1.15621337890625,6.649871826171876,7.643240356445313,1719169537211.0
8.148000000000025,-2.0484954833984377,6.279470825195313,8.346060180664063,1719169537220.0
8.158000000000015,-0.8713470458984376,7.179977416992188,7.0832275390625,1719169537230.0
8.168999999999983,0.314324951171875,7.359271240234375,5.4945556640625,1719169537241.0
8.177999999999997,0.3844573974609375,8.115924072265626,5.0303955078125,1719169537250.0
8.187999999999988,0.8976654052734375,7.2148193359375,6.219955444335938,1719169537260.0
8.197999999999979,1.0347900390625,7.651913452148438,7.283755493164063,1719169537270.0
8.20799999999997,0.5603118896484376,7.078741455078125,6.480596923828125,1719169537280.0
8.217999999999968,0.9561340332031252,7.464245605468751,5.934640502929688,1719169537290.0
8.227999999999952,0.2908477783203125,7.192089843750001,6.012399291992188,1719169537300.0
8.238000000000056,-0.3210540771484375,6.3259765625,7.610641479492188,1719169537310.0
8.248000000000047,-0.619976806640625,6.290087890625,8.100372314453125,1719169537320.0
8.258000000000038,-0.3031097412109375,8.288040161132812,6.731219482421875,1719169537330.0
8.268000000000029,0.187518310546875,8.329760742187501,5.6662231445312505,1719169537340.0
8.27800000000002,-0.7928405761718751,8.160336303710938,4.705453491210938,1719169537350.0
8.288000000000011,-1.10477294921875,5.53582763671875,6.1626831054687505,1719169537360.0
8.298000000000002,-0.5921630859375,6.5472900390625,8.199813842773438,1719169537370.0
8.308,-0.110955810546875,7.048684692382813,10.304534912109377,1719169537380.0
8.317999999999984,1.2676177978515626,6.9955993652343755,5.8151611328125,1719169537390.0
8.327999999999975,1.169671630859375,8.774929809570313,3.736160278320313,1719169537400.0
8.337999999999965,0.9295166015625,6.400595092773438,6.739443969726563,1719169537410.0
8.347999999999956,-0.4394866943359375,7.004272460937501,7.693783569335938,1719169537420.0
8.358000000000061,-1.0697814941406252,7.40562744140625,8.775827026367189,1719169537430.0
8.368000000000052,0.4155609130859375,8.747564697265625,3.3851989746093754,1719169537440.0
8.378000000000043,0.9604705810546876,7.339233398437501,2.9377868652343753,1719169537450.0
8.388000000000034,-0.076263427734375,6.686358642578125,8.181271362304688,1719169537460.0
8.398000000000025,-0.6877166748046876,6.162384033203126,10.153054809570314,1719169537470.0
8.408000000000015,0.118731689453125,6.800753784179688,10.338031005859376,1719169537480.0
8.418000000000006,0.8566925048828126,7.4202819824218755,4.205105590820313,1719169537490.0
8.427999999999997,-0.2213134765625,7.445852661132813,2.4069335937500003,1719169537500.0
8.437999999999988,-0.6462951660156251,7.364804077148438,7.514340209960938,1719169537510.0
8.447999999999979,-0.398663330078125,8.130877685546876,8.803341674804688,1719169537520.0
8.45799999999997,0.172265625,7.309176635742188,6.468334960937501,1719169537530.0
8.467999999999968,0.7070068359375,6.579739379882813,3.301010131835938,1719169537540.0
8.477999999999952,0.1054229736328125,6.765164184570313,6.821987915039063,1719169537550.0
8.488000000000056,0.369952392578125,7.2154174804687505,10.537811279296877,1719169537560.0
8.498000000000047,0.192303466796875,7.422225952148438,8.189794921875,1719169537570.0
8.508000000000038,0.2480804443359375,6.733761596679688,4.0576629638671875,1719169537580.0
8.518000000000029,-0.2148834228515625,7.654006958007813,3.69832763671875,1719169537590.0
8.527000000000044,-0.8586364746093751,7.165173339843751,8.490512084960939,1719169537599.0
8.537000000000035,-0.657659912109375,7.426412963867188,9.24417419433594,1719169537609.0
8.547000000000025,-0.2723052978515625,6.894512939453126,5.897406005859375,1719169537619.0
8.557000000000016,0.7213623046875001,7.152462768554688,4.081289672851563,1719169537629.0
8.567000000000007,0.5540313720703125,7.380654907226563,6.619815063476563,1719169537639.0
8.576999999999998,0.44681396484375,6.9866271972656255,9.28724060058594,1719169537649.0
8.586999999999989,0.3219512939453125,7.254745483398438,7.628137207031251,1719169537659.0
8.59699999999998,0.5794525146484375,6.960458374023438,4.619171142578125,1719169537669.0
8.606999999999971,0.4293182373046875,7.960855102539063,4.601226806640625,1719169537679.0
8.616999999999962,-0.231781005859375,7.407421875000001,7.3320556640625005,1719169537689.0
8.626999999999946,-0.31641845703125,6.760379028320313,7.676138305664063,1719169537699.0
8.637000000000057,-0.4293182373046875,7.197772216796875,5.326327514648438,1719169537709.0
8.647000000000048,1.16219482421875,6.487026977539063,7.395458984375001,1719169537719.0
8.657000000000039,0.8424865722656251,8.263516235351563,8.992654418945314,1719169537729.0
8.66700000000003,-1.2580474853515626,7.338336181640625,7.2447265625,1719169537739.0
8.677000000000021,-1.1934478759765623,4.9466552734375,4.9825439453125,1719169537749.0
8.687000000000012,-1.392181396484375,7.612734985351563,5.6692138671875005,1719169537759.0
8.697000000000003,0.3180633544921875,8.816799926757813,7.899844360351563,1719169537769.0
8.706999999999994,0.7188201904296876,7.952780151367188,6.157449340820313,1719169537779.0
8.716999999999985,0.4960113525390625,6.166421508789063,6.078045654296876,1719169537789.0
8.726999999999975,0.3201568603515625,6.871035766601563,5.665774536132813,1719169537799.0
8.736999999999966,0.6581085205078125,7.349102783203126,8.753097534179688,1719169537809.0
8.746999999999957,1.0373321533203126,7.717111206054688,7.677334594726563,1719169537819.0
8.757000000000062,0.0967498779296875,7.544546508789063,4.198077392578125,1719169537829.0
8.767000000000053,-0.4565338134765625,6.642095947265625,5.5619964599609375,1719169537839.0
8.777000000000044,-0.7230072021484375,7.086367797851563,7.47142333984375,1719169537849.0
8.787000000000035,-1.03419189453125,7.880105590820313,9.231912231445314,1719169537859.0
8.797000000000025,-0.39537353515625,6.542654418945313,6.025259399414063,1719169537869.0
8.807000000000016,-0.276043701171875,7.332952880859375,4.137066650390626,1719169537879.0
8.817000000000007,0.11185302734375,7.449291992187501,6.767855834960938,1719169537889.0
8.826999999999998,0.670819091796875,7.629632568359376,7.805935668945313,1719169537899.0
8.836999999999989,0.3844573974609375,6.997543334960938,7.459011840820313,1719169537909.0
8.84699999999998,0.526068115234375,6.5395141601562505,5.418142700195313,1719169537919.0
8.856999999999971,0.447711181640625,7.313363647460938,6.607403564453126,1719169537929.0
8.866999999999962,0.381317138671875,7.252053833007813,7.808776855468751,1719169537939.0
8.876999999999946,-0.094805908203125,7.655651855468751,6.798660278320313,1719169537949.0
8.887000000000057,-0.366961669921875,7.140200805664063,5.276531982421876,1719169537959.0
8.897000000000048,-0.1830322265625,7.118368530273438,6.006716918945313,1719169537969.0
8.907000000000039,-0.6854736328125001,7.2387451171875,7.458114624023438,1719169537979.0
8.916000000000054,-0.518292236328125,6.450390625000001,8.591748046875,1719169537988.0
8.926000000000045,-0.3886444091796875,7.146780395507813,6.866101074218751,1719169537998.0
8.936000000000035,0.273052978515625,7.417739868164063,5.3242340087890625,1719169538008.0
8.946000000000026,0.7210632324218751,8.061642456054688,5.501882934570313,1719169538018.0
8.956000000000017,0.15372314453125,7.311419677734375,6.554916381835938,1719169538028.0
8.966000000000008,0.09510498046875,6.863110351562501,7.033880615234375,1719169538038.0
8.975999999999999,0.3249420166015625,7.161135864257813,7.114331054687501,1719169538048.0
8.98599999999999,0.7668212890625,7.201660156250001,6.18302001953125,1719169538058.0
8.995999999999981,0.7621856689453126,6.173599243164063,6.042755126953125,1719169538068.0
9.005999999999972,0.0788055419921875,8.154504394531251,7.230670166015625,1719169538078.0
9.015999999999964,0.2117431640625,7.774234008789063,6.830511474609375,1719169538088.0
9.025999999999954,-0.05682373046875,8.972018432617189,6.154608154296875,1719169538098.0
9.036000000000058,-0.983648681640625,6.173748779296876,4.637713623046875,1719169538108.0
9.04600000000005,-1.390985107421875,5.387786865234375,6.821389770507813,1719169538118.0
9.05600000000004,-1.7118896484375,7.305737304687501,10.810266113281251,1719169538128.0
9.066000000000033,-0.0681884765625,6.348556518554688,8.737396240234375,1719169538138.0
9.076000000000022,0.9989013671875,9.410159301757814,3.0183868408203125,1719169538148.0
9.086000000000013,1.0199859619140623,7.050628662109376,4.0168395996093755,1719169538158.0
9.096000000000004,0.6450988769531251,6.009707641601563,7.659988403320313,1719169538168.0
9.105999999999996,-0.6791931152343751,7.506713867187501,10.441061401367188,1719169538178.0
9.115999999999984,1.066043090820313,7.931546020507813,6.824530029296875,1719169538188.0
9.125999999999976,1.2552062988281252,8.352490234375,1.1958404541015626,1719169538198.0
9.135999999999967,1.2816741943359375,6.894512939453126,4.518084716796875,1719169538208.0
9.145999999999958,-0.338250732421875,6.2897888183593755,9.518124389648438,1719169538218.0
9.156000000000065,-1.07606201171875,7.216464233398438,12.658383178710938,1719169538228.0
9.166000000000054,-1.2511688232421876,6.913803100585938,6.109896850585938,1719169538238.0
9.176000000000045,-0.0022430419921875,7.364953613281251,0.08194580078125,1719169538248.0
9.186000000000035,-0.91336669921875,6.667218017578126,7.335345458984375,1719169538258.0
9.196000000000026,-0.35888671875,7.852590942382813,10.036566162109375,1719169538268.0
9.206000000000016,0.4565338134765625,7.6191650390625005,8.360116577148439,1719169538278.0
9.216000000000008,0.7155303955078125,6.196029663085938,4.126748657226563,1719169538288.0
9.226,0.8394958496093751,7.135266113281251,3.036032104492188,1719169538298.0
9.23599999999999,0.5535827636718751,7.501181030273438,10.045089721679688,1719169538308.0
9.24599999999998,0.373541259765625,7.870983886718751,9.179275512695312,1719169538318.0
9.255999999999972,0.2740997314453125,7.562490844726563,4.2012176513671875,1719169538328.0
9.265999999999964,0.2103973388671875,7.028198242187501,2.47093505859375,1719169538338.0
9.275999999999954,-0.6591552734375,6.864755249023438,7.82432861328125,1719169538348.0
9.286000000000058,-1.251019287109375,6.919485473632813,11.532376098632811,1719169538358.0
9.29499999999996,-0.4762725830078125,6.965841674804688,7.856927490234376,1719169538367.0
9.305000000000064,0.5085723876953125,6.900643920898438,3.4136108398437504,1719169538377.0
9.315000000000056,0.5314514160156251,7.36973876953125,4.914654541015626,1719169538387.0
9.325000000000044,0.0076263427734375,7.752999877929688,8.324676513671875,1719169538397.0
9.335000000000036,0.2068084716796875,7.240390014648438,8.631524658203126,1719169538407.0
9.345000000000027,0.5374328613281251,7.273287963867188,5.310626220703125,1719169538417.0
9.355000000000018,0.655865478515625,7.086517333984376,3.5196319580078126,1719169538427.0
9.365000000000007,0.4098785400390625,7.242633056640625,7.250558471679688,1719169538437.0
9.375,-0.255108642578125,7.215567016601563,8.032034301757813,1719169538447.0
9.384999999999993,0.2141357421875,6.427810668945313,7.41519775390625,1719169538457.0
9.394999999999982,1.209597778320313,7.45706787109375,8.078689575195312,1719169538467.0
9.404999999999973,-0.4753753662109375,7.942462158203125,6.412857055664063,1719169538477.0
9.414999999999964,-1.3854522705078125,5.9966979980468755,6.234310913085938,1719169538487.0
9.424999999999956,-1.5876251220703126,6.422128295898438,6.158795166015626,1719169538497.0
9.43500000000006,-1.4811553955078125,8.8226318359375,7.139453125,1719169538507.0
9.44500000000005,0.0554779052734375,9.0810302734375,4.278378295898438,1719169538517.0
9.455000000000048,0.6799407958984376,6.6669189453125,4.606610107421876,1719169538527.0
9.465000000000032,1.2287384033203126,5.869741821289063,8.241983032226564,1719169538537.0
9.475000000000025,0.95643310546875,6.840530395507813,9.7820556640625,1719169538547.0
9.485000000000014,1.6597015380859377,7.0479370117187505,9.289932250976562,1719169538557.0
9.495000000000005,1.3304229736328126,8.060296630859376,3.437088012695313,1719169538567.0
9.504999999999995,0.216827392578125,7.040908813476563,3.761431884765625,1719169538577.0
9.514999999999986,-0.7763916015625001,7.584024047851563,7.400393676757813,1719169538587.0
9.524999999999975,-1.8259857177734375,7.804739379882813,8.357424926757814,1719169538597.0
9.534999999999968,-1.6760009765625,7.275830078125001,6.866400146484375,1719169538607.0
9.54499999999996,-0.3512603759765625,6.330313110351563,3.8158630371093754,1719169538617.0
9.555000000000064,-0.3285308837890625,6.981243896484376,7.480844116210938,1719169538627.0
9.565000000000056,0.2803802490234375,7.431945800781251,9.337185668945311,1719169538637.0
9.575000000000044,0.4840484619140625,7.144985961914063,7.352392578125,1719169538647.0
9.585000000000036,0.6522766113281251,6.9522338867187505,4.601077270507813,1719169538657.0
9.595000000000027,1.284365844726563,7.511947631835938,3.989923095703125,1719169538667.0
9.605000000000018,1.0424163818359375,7.626193237304688,8.247964477539064,1719169538677.0
9.615000000000007,0.1626953125,7.476358032226563,8.575448608398439,1719169538687.0
9.625,-0.230584716796875,7.086666870117188,5.309429931640626,1719169538697.0
9.634999999999993,-0.269464111328125,6.618618774414063,5.060003662109375,1719169538707.0
9.644999999999982,-0.7105957031250001,7.463946533203125,7.883993530273438,1719169538717.0
9.653999999999996,-1.6546173095703127,6.541757202148438,9.34585876464844,1719169538726.0
9.663999999999987,-1.1710174560546875,7.103115844726563,6.831857299804688,1719169538736.0
9.673999999999978,0.1185821533203125,6.888232421875,4.5959930419921875,1719169538746.0
9.683999999999967,1.044061279296875,8.034875488281251,5.808132934570313,1719169538756.0
9.69399999999996,1.008172607421875,7.639950561523438,7.059002685546876,1719169538766.0
9.70399999999995,0.69205322265625,6.6905456542968755,7.974313354492188,1719169538776.0
9.714000000000055,0.386700439453125,7.188800048828125,6.0484375,1719169538786.0
9.724000000000046,0.635528564453125,7.300204467773438,5.641848754882813,1719169538796.0
9.734000000000036,0.344830322265625,8.167813110351563,5.765814208984375,1719169538806.0
9.744000000000028,-0.45040283203125,6.813613891601563,6.559701538085938,1719169538816.0
9.75400000000002,-0.5088714599609375,5.969631958007813,7.066030883789063,1719169538826.0
9.76400000000001,-0.1634429931640625,8.047735595703125,7.374822998046875,1719169538836.0
9.773999999999994,0.6362762451171875,7.685858154296875,7.722344970703125,1719169538846.0
9.783999999999992,-0.5525360107421875,8.099923706054689,5.8202453613281255,1719169538856.0
9.793999999999984,-1.2451873779296876,5.4467041015625,4.996450805664063,1719169538866.0
9.803999999999974,-1.0537811279296876,6.871633911132813,7.192239379882813,1719169538876.0
9.813999999999965,-0.441131591796875,7.807730102539063,9.650164794921876,1719169538886.0
9.823999999999955,1.2212615966796876,7.335794067382813,5.807086181640625,1719169538896.0
9.83400000000006,1.2469818115234377,8.522213745117188,3.828125,1719169538906.0
9.844000000000053,1.0878753662109375,5.403338623046875,6.465792846679688,1719169538916.0
9.854000000000042,-0.1443023681640625,7.997491455078125,8.6312255859375,1719169538926.0
9.864000000000026,-0.235369873046875,7.11253662109375,9.256735229492188,1719169538936.0
9.874000000000024,0.8258880615234375,8.23345947265625,2.3403900146484378,1719169538946.0
9.884000000000016,0.2591461181640625,7.088461303710938,4.287051391601563,1719169538956.0
9.894000000000004,-0.696539306640625,6.619216918945313,8.403033447265626,1719169538966.0
9.903999999999996,-0.834112548828125,7.287792968750001,9.776223754882814,1719169538976.0
9.913999999999987,-0.5950042724609376,6.543402099609375,9.204098510742188,1719169538986.0
9.923999999999978,0.2139862060546875,7.08861083984375,2.4984497070312504,1719169538996.0
9.933999999999967,-0.185723876953125,7.421627807617188,5.028750610351563,1719169539006.0
9.94399999999996,0.1218719482421875,7.593594360351563,9.147872924804688,1719169539016.0
9.95399999999995,0.2136871337890625,7.615725708007813,7.864852905273438,1719169539026.0
9.964000000000055,0.375634765625,7.138406372070313,5.39825439453125,1719169539036.0
9.974000000000046,0.8140747070312501,6.567327880859375,3.48299560546875,1719169539046.0
9.984000000000036,0.4151123046875,7.770196533203125,8.147476196289062,1719169539056.0
9.994000000000028,0.36427001953125,7.364654541015626,9.167312622070312,1719169539066.0
10.00400000000002,-0.0657958984375,7.037918090820313,6.035427856445313,1719169539076.0
10.01400000000001,-0.0829925537109375,6.9985900878906255,4.354043579101563,1719169539086.0
10.023999999999994,-0.3303253173828125,7.212576293945313,6.5514770507812505,1719169539096.0
10.033999999999992,-1.0753143310546875,7.2842041015625005,9.1145263671875,1719169539106.0
10.043000000000006,-0.8984130859375,6.827819824218751,7.683016967773438,1719169539115.0
10.052999999999995,-0.062506103515625,7.085919189453126,5.142697143554688,1719169539125.0
10.063999999999965,0.6778472900390625,7.381552124023438,5.106060791015626,1719169539136.0
10.073999999999955,0.8967681884765626,7.514938354492188,7.609146118164063,1719169539146.0
10.08299999999997,0.468048095703125,7.145733642578126,8.163177490234375,1719169539155.0
10.092999999999968,0.581097412109375,6.629983520507813,6.419287109375,1719169539165.0
10.102999999999952,0.5301055908203125,7.673596191406251,5.0800415039062505,1719169539175.0
10.113000000000056,0.1622467041015625,7.606753540039063,5.954977416992188,1719169539185.0
10.123000000000047,-0.066693115234375,7.364654541015626,7.08023681640625,1719169539195.0
10.133000000000038,-0.8474212646484376,6.731369018554688,5.8710876464843755,1719169539205.0
10.143000000000027,-0.0064300537109375,6.385192871093751,7.035824584960938,1719169539215.0
10.15300000000002,1.2556549072265626,8.058502197265625,9.578387451171876,1719169539225.0
10.163000000000013,-0.280230712890625,7.9466491699218755,6.87686767578125,1719169539235.0
10.173000000000002,-1.2018218994140626,5.33963623046875,4.8288208007812505,1719169539245.0
10.183,-1.1841766357421877,6.4512878417968755,6.134719848632813,1719169539255.0
10.192999999999984,-0.0037384033203125,8.779864501953126,8.569317626953126,1719169539265.0
10.202999999999976,0.799420166015625,8.67249755859375,6.3122192382812505,1719169539275.0
10.212999999999964,0.3267364501953125,6.461456298828126,4.3776702880859375,1719169539285.0
10.222999999999956,-0.078656005859375,6.443362426757813,5.284008789062501,1719169539295.0
10.23300000000006,0.41630859375,7.540509033203126,9.092095947265626,1719169539305.0
10.243000000000052,1.128848266601563,7.321438598632813,9.566125488281251,1719169539315.0
10.253000000000045,0.20576171875,7.806234741210938,3.9819976806640622,1719169539325.0
10.263000000000034,-0.276043701171875,6.447399902343751,3.9280151367187504,1719169539335.0
10.273000000000025,-0.48868408203125,7.307382202148438,7.725036621093751,1719169539345.0
10.283000000000015,-0.5896209716796875,7.8010009765625,9.218453979492187,1719169539355.0
10.293000000000006,-0.503338623046875,6.976757812500001,7.583724975585938,1719169539365.0
10.302999999999995,-0.495562744140625,6.239096069335938,3.5555206298828126,1719169539375.0
10.312999999999988,-0.13218994140625,7.606454467773438,6.232815551757813,1719169539385.0
10.32299999999998,0.672613525390625,8.124746704101563,8.233010864257814,1719169539395.0
10.33299999999997,0.5387786865234375,7.053469848632813,7.374075317382813,1719169539405.0
10.342999999999968,0.3234466552734375,6.685910034179688,5.1263977050781255,1719169539415.0
10.352999999999952,0.5866302490234375,7.125247192382813,5.630633544921875,1719169539425.0
10.363000000000056,0.7080535888671875,7.452133178710938,8.2484130859375,1719169539435.0
10.373000000000047,0.12740478515625,7.486676025390626,7.639801025390626,1719169539445.0
10.383000000000038,-0.420794677734375,6.868792724609375,5.279074096679688,1719169539455.0
10.393000000000027,-0.336456298828125,7.108200073242188,5.8534423828125,1719169539465.0
10.40300000000002,-0.8175140380859376,7.485330200195313,7.234857177734376,1719169539475.0
10.413000000000013,-0.6395660400390626,6.543850708007813,8.459109497070314,1719169539485.0
10.423000000000002,-0.7261474609375,7.308728027343751,7.045245361328125,1719169539495.0
10.433,0.1401153564453125,6.514840698242188,5.438330078125,1719169539505.0
10.442999999999984,0.868206787109375,8.218505859375,6.264517211914063,1719169539515.0
10.452999999999976,0.5404235839843751,7.443908691406251,6.68785400390625,1719169539525.0
10.464000000000055,0.480908203125,7.179827880859375,6.357827758789063,1719169539536.0
10.47199999999998,0.1308441162109375,7.430599975585938,6.0191284179687505,1719169539544.0
10.481999999999973,0.6406127929687501,7.033132934570313,6.47850341796875,1719169539554.0
10.491999999999962,0.1054229736328125,7.856777954101563,6.450839233398438,1719169539564.0
10.501999999999946,-0.0031402587890625,5.6123901367187505,6.794921875000001,1719169539574.0
10.512000000000056,0.093310546875,7.348654174804688,7.007113647460938,1719169539584.0
10.522000000000048,0.272454833984375,7.876516723632813,7.819692993164063,1719169539594.0
10.53200000000004,0.1807891845703125,8.639450073242188,6.34691162109375,1719169539604.0
10.54200000000003,-1.1264556884765626,6.816903686523438,4.887289428710938,1719169539614.0
10.55200000000002,-1.188662719726563,5.68297119140625,5.29776611328125,1719169539624.0
10.562999999999988,-1.263580322265625,7.734307861328125,9.139349365234375,1719169539635.0
10.572000000000005,0.098394775390625,6.793426513671876,9.2341552734375,1719169539644.0
10.581999999999994,1.1983825683593752,8.630029296875001,3.8384429931640622,1719169539654.0
10.591999999999985,1.1041748046875002,6.881204223632813,4.852896118164063,1719169539664.0
10.601999999999975,0.8961700439453125,5.579043579101563,7.921377563476563,1719169539674.0
10.611999999999966,-0.625958251953125,7.954574584960938,10.449136352539064,1719169539684.0
10.621999999999955,0.3576904296875,7.654904174804688,6.722546386718751,1719169539694.0
10.632000000000062,1.1692230224609377,8.554962158203125,0.2415008544921875,1719169539704.0
10.642000000000053,0.26976318359375,7.081732177734375,5.620166015625,1719169539714.0
10.652000000000044,-0.8124298095703125,6.391024780273438,8.823080444335938,1719169539724.0
10.662000000000036,-1.398013305664063,7.0165344238281255,11.470916748046877,1719169539734.0
10.672000000000024,0.4424774169921875,6.954327392578126,7.252053833007813,1719169539744.0
10.682000000000016,0.46475830078125,7.1242004394531255,1.0352386474609376,1719169539754.0
10.692000000000007,-0.5025909423828125,7.065582275390626,6.822735595703126,1719169539764.0
10.701999999999998,-0.100189208984375,7.826870727539063,9.524404907226565,1719169539774.0
10.711999999999987,0.186322021484375,7.654306030273438,7.623501586914063,1719169539784.0
10.72199999999998,0.5354888916015625,6.840231323242188,4.101925659179688,1719169539794.0
10.731999999999973,0.2237060546875,6.5589538574218755,4.030148315429688,1719169539804.0
10.741999999999962,-0.2732025146484375,7.462002563476563,9.96748046875,1719169539814.0
10.751999999999946,0.1858734130859375,7.295718383789063,9.277670288085938,1719169539824.0
10.762000000000056,0.2851654052734375,7.225137329101563,5.1074066162109375,1719169539834.0
10.772000000000048,0.1888641357421875,7.1600891113281255,3.286505126953126,1719169539844.0
10.78200000000004,-0.5076751708984375,6.994253540039063,7.252352905273438,1719169539854.0
10.79200000000003,-0.6525756835937501,7.509555053710938,9.685604858398438,1719169539864.0
10.801000000000045,-0.1242645263671875,7.031039428710938,7.091152954101563,1719169539873.0
10.811000000000035,0.5156005859375,7.3129150390625,3.941772460937501,1719169539883.0
10.821000000000026,0.4041961669921875,7.123751831054688,5.336346435546876,1719169539893.0
10.831000000000016,0.2572021484375,7.217361450195313,8.957962036132812,1719169539903.0
10.841000000000008,0.0569732666015625,7.138854980468751,8.680422973632814,1719169539913.0
10.851999999999975,0.38580322265625,6.740490722656251,5.669512939453125,1719169539924.0
10.863000000000056,0.3587371826171875,7.886685180664063,3.843527221679688,1719169539935.0
10.87099999999998,-0.1673309326171875,7.391720581054688,6.68546142578125,1719169539943.0
10.880999999999972,-0.1493865966796875,7.276278686523438,8.080633544921875,1719169539953.0
10.890999999999964,-0.411224365234375,6.5454956054687505,6.448147583007813,1719169539963.0
10.900999999999954,0.399560546875,6.373977661132813,5.889779663085938,1719169539973.0
10.911000000000058,1.4596221923828123,7.723840332031251,9.347952270507813,1719169539983.0
10.92100000000005,0.0179443359375,8.475259399414064,7.932742309570313,1719169539993.0
10.93100000000004,-1.1997283935546876,6.225787353515625,4.464251708984375,1719169540003.0
10.941000000000033,-1.163690185546875,6.271545410156251,4.383053588867188,1719169540013.0
10.951000000000022,-1.0702301025390626,8.538961791992188,7.415496826171876,1719169540023.0
10.962999999999964,0.3002685546875,8.845062255859375,6.909017944335938,1719169540035.0
10.971000000000004,0.3792236328125,6.3080322265625,6.95462646484375,1719169540043.0
10.980999999999996,0.3862518310546875,5.596090698242188,5.845516967773438,1719169540053.0
10.990999999999984,1.0379302978515623,7.051077270507813,8.399295043945314,1719169540063.0
11.000999999999976,1.4675476074218752,7.368093872070313,9.6959228515625,1719169540073.0
11.010999999999967,0.7286895751953125,8.59473876953125,4.116580200195313,1719169540083.0
11.020999999999958,-0.2914459228515625,7.093844604492188,3.2236999511718754,1719169540093.0
11.031000000000065,-0.7750457763671875,7.109097290039063,5.760580444335938,1719169540103.0
11.041000000000054,-1.1046234130859376,7.759878540039063,8.851641845703126,1719169540113.0
11.051000000000045,-0.859234619140625,7.027749633789063,9.570462036132811,1719169540123.0
11.063999999999965,-0.566741943359375,6.189898681640625,4.829119873046875,1719169540136.0
11.071000000000026,-0.3910369873046875,7.01683349609375,5.237203979492188,1719169540143.0
11.081000000000016,0.40733642578125,7.706942749023438,7.999435424804688,1719169540153.0
11.091000000000008,0.6018829345703125,7.460656738281251,7.783654785156251,1719169540163.0
11.101999999999975,0.6078643798828125,6.81705322265625,6.041259765625,1719169540174.0
11.11099999999999,0.817364501953125,7.199716186523438,4.5432067871093755,1719169540183.0
11.12099999999998,0.7108947753906251,7.516433715820313,7.022665405273438,1719169540193.0
11.130999999999972,0.5217315673828126,7.486676025390626,7.982388305664063,1719169540203.0
11.140999999999964,-0.3241943359375,7.329812622070313,6.007015991210938,1719169540213.0
11.150999999999954,-0.3464752197265625,6.66392822265625,6.100625610351563,1719169540223.0
11.161000000000058,-0.8740386962890626,7.234408569335938,6.830810546875001,1719169540233.0
11.17100000000005,-1.0415191650390625,6.553570556640626,8.52774658203125,1719169540243.0
11.18100000000004,-0.8170654296875001,7.190594482421876,7.675540161132813,1719169540253.0
11.191000000000033,-0.16748046875,7.099078369140625,5.157949829101563,1719169540263.0
11.200000000000044,0.9446197509765626,8.055062866210939,5.323037719726563,1719169540272.0
11.210000000000036,0.7873077392578126,7.788290405273438,6.1507202148437505,1719169540282.0
11.220000000000027,0.5953033447265625,6.695779418945313,7.302597045898438,1719169540292.0
11.230000000000018,0.4430755615234375,7.105059814453125,7.133322143554688,1719169540302.0
11.240000000000007,0.7699615478515626,7.129135131835938,6.631777954101563,1719169540312.0
11.25,0.5426666259765626,7.874124145507813,5.4568725585937505,1719169540322.0
11.259999999999993,-0.20635986328125,6.0131469726562505,6.199319458007813,1719169540332.0
11.269999999999982,-0.5718261718750001,7.387234497070313,7.296615600585938,1719169540342.0
11.279999999999973,-0.19619140625,7.881301879882813,7.85244140625,1719169540352.0
11.289999999999964,0.193798828125,8.584121704101562,6.516635131835938,1719169540362.0
11.299999999999956,-0.7614379882812501,6.538916015625,4.5750579833984375,1719169540372.0
11.31000000000006,-1.1955413818359375,5.725140380859376,5.998492431640625,1719169540382.0
11.32000000000005,-1.2161773681640626,7.395309448242188,9.997238159179688,1719169540392.0
11.330000000000048,0.2570526123046875,6.870587158203126,8.842071533203125,1719169540402.0
11.340000000000032,1.1850738525390625,8.874371337890626,3.263177490234375,1719169540412.0
11.350000000000025,1.0757629394531252,7.07664794921875,3.822891235351563,1719169540422.0
11.360000000000014,0.8632720947265625,5.736355590820313,8.247665405273438,1719169540432.0
11.370000000000005,-0.6673797607421875,7.59105224609375,11.1721435546875,1719169540442.0
11.379999999999995,0.36666259765625,7.591351318359376,6.87686767578125,1719169540452.0
11.389999999999986,1.1342315673828125,8.406173706054688,0.274847412109375,1719169540462.0
11.399999999999975,0.500946044921875,7.507760620117188,4.656405639648438,1719169540472.0
11.409999999999968,-0.7500732421875,6.456072998046875,8.701657104492188,1719169540482.0
11.41999999999996,-1.4231353759765626,7.217062377929688,11.50650634765625,1719169540492.0
11.430000000000064,0.4732818603515625,6.641348266601563,7.381103515625001,1719169540502.0
11.440000000000056,0.539825439453125,6.901840209960938,1.3743865966796875,1719169540512.0
11.450000000000044,-0.3707000732421875,7.056460571289063,7.147827148437501,1719169540522.0
11.460000000000036,-0.1108062744140625,7.815805053710938,9.68037109375,1719169540532.0
11.470000000000027,0.0562255859375,7.460806274414063,7.431796264648438,1719169540542.0
11.480000000000018,0.38819580078125,6.818399047851563,4.1862640380859375,1719169540552.0
11.490000000000007,-0.0091217041015625,6.743182373046875,4.057513427734375,1719169540562.0
11.5,-0.34453125,7.6550537109375005,9.530984497070314,1719169540572.0
11.509999999999993,0.22669677734375,7.381851196289063,8.971719360351564,1719169540582.0
11.519999999999982,0.2654266357421875,6.9970947265625005,5.159146118164063,1719169540592.0
11.529999999999973,0.11783447265625,7.069918823242188,3.7997131347656254,1719169540602.0
11.539999999999964,-0.3530548095703125,6.958663940429688,7.711428833007813,1719169540612.0
11.549999999999956,-0.4658050537109375,7.567425537109376,9.471319580078124,1719169540622.0
11.56000000000006,-0.0758148193359375,6.832904052734375,7.000982666015625,1719169540632.0
11.57000000000005,0.22908935546875,7.351644897460938,3.8907806396484377,1719169540642.0
11.57899999999995,0.152825927734375,7.450637817382813,5.1691650390625,1719169540651.0
11.589000000000055,0.4287200927734375,7.650268554687501,8.369686889648438,1719169540661.0
11.599000000000046,0.1404144287109375,7.159939575195313,7.984481811523438,1719169540671.0
11.609000000000036,0.30804443359375,6.130981445312501,6.42467041015625,1719169540681.0
11.619000000000028,0.18961181640625,7.252203369140625,5.570669555664063,1719169540691.0
11.629999999999995,0.0142059326171875,7.406674194335938,7.501779174804688,1719169540702.0
11.63900000000001,0.192303466796875,7.338485717773438,7.151715087890626,1719169540711.0
11.648999999999994,-0.6208740234375001,7.227529907226563,4.458718872070313,1719169540721.0
11.658999999999992,0.4502532958984375,6.902288818359375,6.213973999023438,1719169540731.0
11.668999999999984,1.5130065917968751,8.421725463867189,8.764462280273438,1719169540741.0
11.678999999999974,-0.227593994140625,7.840179443359376,7.489666748046876,1719169540751.0
11.688999999999965,-1.3096374511718751,4.466644287109375,5.621063232421875,1719169540761.0
11.698999999999955,-1.2849639892578126,6.927261352539063,6.138607788085938,1719169540771.0
11.70900000000006,-0.2902496337890625,9.007159423828126,8.653955078125001,1719169540781.0
11.719000000000053,0.39537353515625,8.554064941406251,5.209689331054688,1719169540791.0
11.729000000000042,-0.1861724853515625,6.259283447265625,4.5630950927734375,1719169540801.0
11.739000000000026,0.1084136962890625,6.384893798828125,6.192739868164063,1719169540811.0
11.749000000000024,0.844281005859375,7.328616333007813,9.596929931640624,1719169540821.0
11.759000000000016,1.3277313232421877,7.171453857421875,9.763064575195314,1719169540831.0
11.769000000000004,1.0165466308593751,7.69632568359375,3.191400146484375,1719169540841.0
11.778999999999996,-0.167779541015625,6.4826904296875005,4.5372253417968755,1719169540851.0
11.788999999999987,-0.6249114990234376,7.692886352539063,7.527798461914063,1719169540861.0
11.798999999999978,-0.9592742919921876,8.321087646484376,8.582177734375001,1719169540871.0
11.808999999999967,-1.0669403076171875,6.719256591796875,6.555664062500001,1719169540881.0
11.81899999999996,-0.7947845458984376,6.475363159179688,3.3629180908203127,1719169540891.0
11.82899999999995,-0.2184722900390625,7.290484619140625,7.879357910156251,1719169540901.0
11.839000000000055,0.7855133056640625,7.681820678710938,9.041851806640626,1719169540911.0
11.849000000000046,0.5067779541015626,6.854586791992188,7.330261230468751,1719169540921.0
11.859000000000036,0.5007965087890626,6.464895629882813,4.702313232421876,1719169540931.0
11.869000000000028,0.6308929443359376,7.51329345703125,5.661138916015625,1719169540941.0
11.87900000000002,0.7409515380859375,7.736849975585938,8.264263916015626,1719169540951.0
11.88900000000001,0.2053131103515625,7.76451416015625,6.758734130859375,1719169540961.0
11.898999999999994,-0.2732025146484375,6.976608276367188,4.4639526367187505,1719169540971.0
11.908999999999992,-0.0483001708984375,7.046142578125001,6.123504638671875,1719169540981.0
11.918999999999984,-0.6226684570312501,7.3978515625,8.099176025390626,1719169540991.0
11.928999999999974,-0.6452484130859375,6.149673461914063,9.106900024414063,1719169541001.0
11.938999999999965,-0.7883544921875001,7.151715087890626,6.826473999023438,1719169541011.0
11.948999999999955,-0.0303558349609375,6.704901123046875,5.143145751953125,1719169541021.0
11.95900000000006,0.5695831298828126,8.400042724609376,6.189898681640625,1719169541031.0
11.967999999999968,0.156414794921875,7.407122802734375,6.685012817382813,1719169541040.0
11.979000000000042,0.2223602294921875,7.058554077148438,6.3720336914062505,1719169541051.0
11.988000000000056,0.2770904541015625,7.314559936523438,6.160140991210938,1719169541060.0
11.998000000000047,0.91097412109375,7.139004516601563,6.610394287109376,1719169541070.0
12.008000000000038,0.460272216796875,7.815505981445313,6.279022216796876,1719169541080.0
12.018000000000027,0.4006072998046875,5.203707885742188,6.909317016601563,1719169541090.0
12.02800000000002,0.32000732421875,8.054165649414063,6.977056884765625,1719169541100.0
12.038000000000013,0.4581787109375,8.342620849609375,7.437927246093751,1719169541110.0
12.048000000000002,0.116937255859375,9.12469482421875,5.02740478515625,1719169541120.0
12.058,-1.320703125,6.052624511718751,4.445260620117188,1719169541130.0
12.067999999999984,-1.6344299316406252,5.5208740234375,6.754696655273438,1719169541140.0
12.077999999999976,-2.1630401611328125,7.341177368164063,11.036962890625,1719169541150.0
12.087999999999964,-0.35111083984375,6.236105346679688,9.581826782226564,1719169541160.0
12.097999999999956,0.8511596679687501,8.80767822265625,2.4615142822265628,1719169541170.0
12.10800000000006,1.5931579589843752,7.196725463867188,3.980950927734375,1719169541180.0
12.118000000000052,1.7905456542968752,5.651419067382813,8.697320556640626,1719169541190.0
12.128000000000045,-0.12381591796875,8.015734863281251,11.698809814453126,1719169541200.0
12.138000000000034,0.1413116455078125,8.249459838867189,5.622109985351563,1719169541210.0
12.148000000000025,1.2348693847656251,8.769097900390626,-1.83809814453125,1719169541220.0
12.158000000000015,0.7514190673828125,7.324130249023438,4.4270172119140625,1719169541230.0
12.168000000000006,-0.49466552734375,6.133374023437501,10.385733032226565,1719169541240.0
12.177999999999995,-0.956732177734375,6.6157775878906255,13.385128784179688,1719169541250.0
12.187999999999988,-0.2292388916015625,6.548187255859376,7.673745727539063,1719169541260.0
12.19799999999998,0.2663238525390625,6.853091430664063,-0.0052337646484375,1719169541270.0
12.20799999999997,-0.6075653076171875,7.231567382812501,6.555065917968751,1719169541280.0
12.217999999999968,-0.9978546142578124,8.0354736328125,10.375714111328126,1719169541290.0
12.227999999999952,-0.141461181640625,7.592098999023438,7.411459350585938,1719169541300.0
12.238000000000056,0.6536224365234375,6.891522216796876,3.623260498046875,1719169541310.0
12.248000000000047,0.6503326416015626,6.7294250488281255,3.5405670166015626,1719169541320.0
12.258000000000038,0.34154052734375,7.640399169921875,9.840524291992187,1719169541330.0
12.268000000000027,0.5142547607421876,7.350299072265625,9.703698730468751,1719169541340.0
12.27800000000002,0.581396484375,7.262969970703126,4.8681488037109375,1719169541350.0
12.288000000000013,0.3865509033203125,7.148873901367188,2.9721801757812503,1719169541360.0
12.298000000000002,-0.581695556640625,6.797015380859375,7.484881591796875,1719169541370.0
12.307999999999993,-1.1082122802734375,7.383944702148438,10.479193115234375,1719169541380.0
12.317999999999984,-0.7206146240234376,6.7802673339843755,7.688848876953125,1719169541390.0
12.326999999999998,0.21832275390625,7.411309814453125,3.48179931640625,1719169541399.0
12.336999999999987,0.305950927734375,7.381103515625001,4.48668212890625,1719169541409.0
12.34699999999998,0.284417724609375,7.57669677734375,8.540008544921875,1719169541419.0
12.35800000000006,0.143853759765625,7.232614135742188,8.74786376953125,1719169541430.0
12.366999999999962,0.6452484130859375,6.382202148437501,6.173898315429688,1719169541439.0
12.378000000000045,0.7016235351562501,7.459161376953125,4.4310546875000005,1719169541450.0
12.387000000000056,0.0418701171875,7.229922485351563,7.364953613281251,1719169541459.0
12.397000000000048,-0.2878570556640625,7.566378784179688,8.069418334960938,1719169541469.0
12.40700000000004,-0.4317108154296875,6.640301513671876,6.024212646484376,1719169541479.0
12.41700000000003,-0.0297576904296875,7.465740966796876,3.67978515625,1719169541489.0
12.42700000000002,0.871197509765625,7.219305419921875,7.202557373046876,1719169541499.0
12.437000000000012,0.9583770751953126,8.270693969726564,10.231710815429688,1719169541509.0
12.447000000000005,-0.6377716064453125,7.235006713867188,6.684713745117188,1719169541519.0
12.456999999999994,-1.1937469482421876,4.2958740234375,4.884896850585938,1719169541529.0
12.466999999999985,-0.8516082763671876,7.529592895507813,6.669012451171875,1719169541539.0
12.476999999999975,-0.1700225830078125,9.23056640625,8.185159301757814,1719169541549.0
12.486999999999966,-0.018841552734375,7.952481079101563,6.067129516601563,1719169541559.0
12.496999999999955,-0.06639404296875,6.616824340820313,3.950445556640626,1719169541569.0
12.507000000000062,0.1182830810546875,6.463400268554688,5.378216552734376,1719169541579.0
12.517000000000053,0.9186004638671876,7.11612548828125,10.506857299804688,1719169541589.0
12.527000000000044,1.37393798828125,7.454824829101563,9.45487060546875,1719169541599.0
12.537000000000036,0.6590057373046876,6.993356323242188,4.1159820556640625,1719169541609.0
12.547000000000024,0.2334259033203125,6.967785644531251,3.872088623046875,1719169541619.0
12.557000000000016,-0.7116424560546876,7.318148803710938,7.086367797851563,1719169541629.0
12.567000000000007,-1.0489959716796875,8.395706176757812,9.596780395507814,1719169541639.0
12.576999999999998,-0.8347106933593751,6.680676269531251,6.345266723632813,1719169541649.0
12.586999999999987,-0.7731018066406251,6.731369018554688,3.45009765625,1719169541659.0
12.59699999999998,-0.31402587890625,7.326971435546875,6.891970825195313,1719169541669.0
12.606999999999973,0.6691741943359375,7.514041137695313,9.016580200195314,1719169541679.0
12.616999999999962,0.6434539794921875,6.981243896484376,7.710830688476563,1719169541689.0
12.626999999999953,0.621771240234375,6.90677490234375,5.003628540039063,1719169541699.0
12.637000000000056,0.8164672851562501,7.019226074218751,5.192343139648438,1719169541709.0
12.647000000000048,0.7035675048828125,7.810870361328125,7.845712280273438,1719169541719.0
12.65700000000004,0.161199951171875,7.815655517578126,7.1705566406250005,1719169541729.0
12.66700000000003,-0.11005859375,7.024758911132813,5.244232177734375,1719169541739.0
12.67700000000002,-0.5520874023437501,7.041656494140626,5.829815673828126,1719169541749.0
12.687000000000012,-0.942974853515625,6.676788330078126,7.719952392578126,1719169541759.0
12.697000000000005,-0.9932189941406252,7.109097290039063,9.452627563476565,1719169541769.0
12.706999999999994,-0.64898681640625,6.691741943359376,6.63760986328125,1719169541779.0
12.716000000000008,0.38341064453125,7.2842041015625005,4.974618530273438,1719169541788.0
12.726,0.5528350830078126,7.987771606445313,5.731570434570313,1719169541798.0
12.73599999999999,0.6069671630859376,6.888381958007813,7.477255249023438,1719169541808.0
12.74599999999998,0.2325286865234375,7.778271484375001,7.016235351562501,1719169541818.0
12.755999999999972,0.7415496826171876,6.66751708984375,5.83250732421875,1719169541828.0
12.765999999999964,0.6664825439453126,8.1060546875,5.292980957031251,1719169541838.0
12.775999999999954,0.231182861328125,5.919985961914063,6.374874877929688,1719169541848.0
12.786000000000058,0.1806396484375,7.822833251953125,7.695877075195313,1719169541858.0
12.79600000000005,0.194696044921875,7.797860717773438,7.838684082031251,1719169541868.0
12.80600000000004,0.1782470703125,8.2962646484375,5.8251800537109375,1719169541878.0
12.816000000000033,-0.757550048828125,6.168215942382813,4.8019042968750005,1719169541888.0
12.826000000000022,-1.5989898681640626,5.786450195312501,7.159341430664063,1719169541898.0
12.836000000000013,-1.6075134277343752,7.656399536132813,10.2151123046875,1719169541908.0
12.846000000000004,-0.432757568359375,6.732266235351563,8.111138916015626,1719169541918.0
12.855999999999996,0.867010498046875,9.334494018554688,2.074514770507813,1719169541928.0
12.865999999999984,0.9366943359375,6.865353393554688,3.966744995117187,1719169541938.0
12.875999999999976,0.8384490966796876,5.773141479492188,9.377410888671877,1719169541948.0
12.885999999999967,-0.29847412109375,7.4445068359375,11.490805053710938,1719169541958.0
12.895999999999958,1.0083221435546876,7.715017700195313,6.075204467773438,1719169541968.0
12.906000000000065,1.2169250488281251,8.209982299804688,-0.0315521240234375,1719169541978.0
12.916000000000054,1.0611083984375,7.473217773437501,5.209689331054688,1719169541988.0
12.926000000000045,-0.398065185546875,6.509457397460938,9.255090332031251,1719169541998.0
12.936000000000035,-1.060211181640625,7.396804809570313,12.086856079101564,1719169542008.0
12.946000000000026,-1.0307525634765626,6.615628051757813,5.85882568359375,1719169542018.0
12.956000000000016,0.100787353515625,7.113882446289063,0.204864501953125,1719169542028.0
12.966000000000008,-0.5793029785156251,6.938925170898438,8.623150634765626,1719169542038.0
12.976,-0.246435546875,7.659091186523438,10.128082275390623,1719169542048.0
12.98599999999999,0.2989227294921875,7.219305419921875,7.617819213867188,1719169542058.0
12.99599999999998,0.7858123779296876,6.5215698242187505,3.9861846923828126,1719169542068.0
13.005999999999972,0.5594146728515625,7.126443481445313,3.7068511962890622,1719169542078.0
13.015999999999964,0.2026214599609375,7.940817260742188,9.830953979492188,1719169542088.0
13.025999999999954,0.28172607421875,7.517630004882813,8.594439697265626,1719169542098.0
13.036000000000058,0.1921539306640625,7.368692016601563,4.045999145507813,1719169542108.0
13.04600000000005,0.0808990478515625,7.095040893554688,3.396115112304688,1719169542118.0
13.05600000000004,-0.5251708984375001,6.833950805664063,8.189196777343751,1719169542128.0
13.066000000000033,-0.8085418701171876,7.268502807617188,10.701702880859376,1719169542138.0
13.076000000000022,-0.3778778076171875,6.43663330078125,7.523162841796876,1719169542148.0
13.086000000000013,0.1676300048828125,7.291082763671875,3.5571655273437504,1719169542158.0
13.096000000000004,0.2373138427734375,7.48936767578125,4.9847869873046875,1719169542168.0
13.105999999999996,0.3647186279296875,7.947845458984376,8.287442016601563,1719169542178.0
13.115000000000007,0.075067138671875,7.203604125976563,7.844815063476563,1719169542187.0
13.125999999999976,0.4221405029296875,6.353939819335938,5.8266754150390625,1719169542198.0
13.134999999999993,0.4861419677734375,7.384542846679688,5.1537628173828125,1719169542207.0
13.145999999999958,0.3407928466796875,7.182369995117188,7.905825805664063,1719169542218.0
13.156000000000065,0.2409027099609375,7.194631958007813,7.841525268554688,1719169542228.0
13.166000000000054,-0.6313415527343751,6.746173095703125,5.136416625976563,1719169542238.0
13.174999999999956,0.3994110107421875,6.972421264648438,5.794375610351563,1719169542247.0
13.18500000000006,1.225,8.818444824218751,8.567224121093751,1719169542257.0
13.19500000000005,-0.474029541015625,8.310171508789063,6.84696044921875,1719169542267.0
13.20500000000004,-1.2372619628906252,4.564739990234376,4.654910278320313,1719169542277.0
13.215000000000032,-1.5496429443359376,6.285153198242188,6.617721557617188,1719169542287.0
13.225000000000025,-0.2531646728515625,8.466287231445314,9.594836425781253,1719169542297.0
13.235000000000014,0.661846923828125,8.728723144531251,7.121807861328126,1719169542307.0
13.245000000000005,-0.0330474853515625,6.753948974609376,3.6696166992187504,1719169542317.0
13.254999999999995,0.0351409912109375,6.337042236328125,3.7997131347656254,1719169542327.0
13.264999999999986,0.6077148437500001,7.554116821289063,9.085964965820311,1719169542337.0
13.274999999999975,1.2333740234375,7.440319824218751,10.689590454101562,1719169542347.0
13.284999999999968,1.0597625732421876,7.60660400390625,4.6269470214843755,1719169542357.0
13.29499999999996,0.228192138671875,5.941070556640625,3.713729858398438,1719169542367.0
13.305000000000064,-0.5523864746093751,7.155303955078126,7.585369873046876,1719169542377.0
13.315000000000056,-0.8022613525390626,8.224038696289064,9.677679443359375,1719169542387.0
13.325000000000044,-0.8185607910156251,7.250558471679688,7.376019287109376,1719169542397.0
13.335000000000036,-0.6287994384765625,6.776977539062501,2.51280517578125,1719169542407.0
13.345000000000027,-0.9491058349609376,7.493704223632813,5.165875244140626,1719169542417.0
13.355999999999996,0.3949249267578125,8.12100830078125,8.763116455078126,1719169542428.0
13.365000000000007,0.6220703125,6.851296997070313,8.61148681640625,1719169542437.0
13.375,0.3476715087890625,6.2045532226562505,5.76431884765625,1719169542447.0
13.384999999999993,0.825140380859375,6.906027221679688,5.412908935546875,1719169542457.0
13.394999999999982,1.1031280517578126,7.544247436523438,8.006613159179688,1719169542467.0
13.404999999999973,0.4024017333984375,7.895507812500001,7.351196289062501,1719169542477.0
13.414999999999964,-0.2953338623046875,7.060946655273438,5.176492309570313,1719169542487.0
13.424999999999956,-0.41690673828125,7.005319213867188,5.624502563476563,1719169542497.0
13.43500000000006,-1.0315002441406251,7.300054931640625,7.12509765625,1719169542507.0
13.44500000000005,-0.9654052734375,6.743331909179688,8.84476318359375,1719169542517.0
13.45500000000004,-0.921142578125,7.330859375,6.984234619140626,1719169542527.0
13.465000000000032,0.04964599609375,6.725387573242188,4.816110229492188,1719169542537.0
13.475000000000025,0.9829010009765624,8.026202392578126,6.0943450927734375,1719169542547.0
13.485000000000014,0.8270843505859375,7.287493896484375,7.259829711914063,1719169542557.0
13.494000000000028,0.7599426269531251,6.9686828613281255,7.391571044921876,1719169542566.0
