time,ax,ay,az,timestamp
0.0,6.8595214843750005,0.1200775146484375,6.927560424804688,1719609051950.0
0.0090000000000145,6.7602294921875,0.2086029052734375,7.0593017578125,1719609051959.0
0.0190000000000054,6.955075073242188,0.37384033203125,6.974066162109375,1719609051969.0
0.0289999999999963,7.02939453125,0.5239746093750001,6.961505126953125,1719609051979.0
0.0400000000000204,6.990963745117188,0.5941070556640625,6.778921508789063,1719609051990.0
0.0500000000000113,7.055264282226563,0.5964996337890626,6.709088134765626,1719609052000.0
0.0600000000000022,6.936532592773438,0.4050933837890625,6.955972290039063,1719609052010.0
0.0710000000000263,7.008758544921876,0.13936767578125,6.637310791015626,1719609052021.0
0.0800000000000409,7.099826049804688,-0.256903076171875,6.773538208007813,1719609052030.0
0.0900000000000318,7.055712890625,-0.58917236328125,6.528747558593751,1719609052040.0
0.1000000000000227,7.107452392578126,-0.575115966796875,6.895858764648438,1719609052050.0
0.1100000000000136,6.814511108398438,-0.3922332763671875,7.200314331054688,1719609052060.0
0.1200000000000045,7.0234130859375,0.0477020263671875,7.045095825195313,1719609052070.0
0.1299999999999954,6.453829956054688,0.409429931640625,7.641296386718751,1719609052080.0
0.1399999999999863,6.888381958007813,0.7542602539062501,6.5454956054687505,1719609052090.0
0.1500000000000341,7.167864990234375,1.05093994140625,7.099975585937501,1719609052100.0
0.1600000000000321,7.374075317382813,0.989630126953125,5.930154418945313,1719609052110.0
0.1700000000000159,7.564434814453126,0.7585968017578125,6.342575073242188,1719609052120.0
0.1800000000000068,7.081283569335938,0.5151519775390625,6.885391235351563,1719609052130.0
0.1899999999999977,6.821240234375001,0.34034423828125,6.710284423828125,1719609052140.0
0.2010000000000218,6.572711181640625,-0.009271240234375,7.924368286132813,1719609052151.0
0.2110000000000127,6.862063598632813,-0.561956787109375,7.031787109375,1719609052161.0
0.2210000000000036,7.0916015625,-0.9334045410156252,6.889578247070313,1719609052171.0
0.2309999999999945,7.222894287109376,-0.7434936523437501,6.491064453125,1719609052181.0
0.2410000000000423,7.330560302734376,-0.19439697265625,6.201263427734376,1719609052191.0
0.2510000000000261,7.157696533203126,0.290997314453125,7.039712524414063,1719609052201.0
0.2610000000000241,7.0479370117187505,0.7017730712890625,6.799856567382813,1719609052211.0
0.271000000000015,6.687106323242188,1.01923828125,7.293774414062501,1719609052221.0
0.2810000000000059,6.546542358398438,1.191802978515625,7.065582275390626,1719609052231.0
0.2909999999999968,6.842175292968751,1.0638000488281252,7.395010375976563,1719609052241.0
0.3009999999999877,7.035226440429688,0.624462890625,7.096835327148438,1719609052251.0
0.3110000000000354,7.186257934570313,0.158807373046875,6.355285644531251,1719609052261.0
0.3210000000000264,7.197323608398438,-0.24224853515625,6.314312744140626,1719609052271.0
0.3310000000000173,7.135714721679688,-0.5121612548828125,6.604412841796876,1719609052281.0
0.3410000000000082,7.031188964843751,-0.5700317382812501,7.206594848632813,1719609052291.0
0.3509999999999991,6.784603881835938,-0.347821044921875,7.259530639648438,1719609052301.0
0.3620000000000232,6.7204528808593755,0.067291259765625,7.027450561523438,1719609052312.0
0.3710000000000377,6.9447570800781255,0.6608001708984376,7.002029418945313,1719609052321.0
0.382000000000005,7.047488403320313,1.0543792724609375,6.797314453125001,1719609052332.0
0.3919999999999959,7.068572998046876,1.0098175048828126,6.658694458007813,1719609052342.0
0.4019999999999868,7.096237182617188,0.6163879394531251,6.487774658203126,1719609052352.0
0.4120000000000345,6.926065063476563,0.0370849609375,6.84696044921875,1719609052362.0
0.4220000000000325,6.606655883789063,-0.472235107421875,7.204650878906251,1719609052372.0
0.4320000000000163,6.599777221679688,-0.7393066406250001,7.5641357421875,1719609052382.0
0.4420000000000073,6.68486328125,-0.7240539550781251,7.28958740234375,1719609052392.0
0.4519999999999982,7.201510620117188,-0.4454681396484375,6.999636840820313,1719609052402.0
0.4619999999999891,7.564285278320313,0.1523773193359375,6.593197631835938,1719609052412.0
0.4720000000000368,7.237100219726563,1.0563232421875002,6.345266723632813,1719609052422.0
0.4820000000000277,6.621310424804688,1.5936065673828126,6.536224365234376,1719609052432.0
0.4920000000000186,6.878063964843751,1.5316986083984376,6.984234619140626,1719609052442.0
0.5020000000000095,6.999935913085938,0.902899169921875,7.711877441406251,1719609052452.0
0.5130000000000337,6.939224243164063,0.19200439453125,6.952383422851563,1719609052463.0
0.5219999999999914,7.079937744140626,-0.1478912353515625,6.850100708007813,1719609052472.0
0.5320000000000391,6.854885864257813,-0.3449798583984375,6.344219970703126,1719609052482.0
0.54200000000003,7.546939086914063,-0.71119384765625,6.345416259765625,1719609052492.0
0.5520000000000209,7.474713134765626,-0.8716461181640626,7.06468505859375,1719609052502.0
0.5620000000000118,7.016983032226563,-0.3078948974609375,6.428558349609376,1719609052512.0
0.5730000000000359,6.331509399414063,0.6570617675781251,7.294970703125,1719609052523.0
0.5830000000000268,6.597384643554688,1.2212615966796876,7.539462280273438,1719609052533.0
0.5930000000000177,7.1705566406250005,1.0759124755859375,7.592697143554688,1719609052543.0
0.6030000000000086,6.915896606445313,0.9435729980468752,6.6591430664062505,1719609052553.0
0.6129999999999995,6.885690307617188,0.9197967529296877,6.0370727539062505,1719609052563.0
0.6229999999999905,7.1071533203125,0.5713775634765625,7.050778198242188,1719609052573.0
0.6330000000000382,7.243829345703125,-0.160601806640625,7.237100219726563,1719609052583.0
0.6430000000000291,7.185809326171875,-0.7292877197265626,6.859970092773438,1719609052593.0
0.65300000000002,7.065133666992188,-0.88046875,5.831759643554688,1719609052603.0
0.6630000000000109,7.293325805664063,-0.7358673095703125,6.27872314453125,1719609052613.0
0.6730000000000018,7.552621459960938,-0.4158599853515625,7.063040161132813,1719609052623.0
0.6829999999999998,7.376916503906251,-0.0342437744140625,6.711181640625001,1719609052633.0
0.6930000000000405,6.847409057617188,0.3766815185546875,6.158795166015626,1719609052643.0
0.7030000000000314,6.91514892578125,0.7325775146484376,6.43065185546875,1719609052653.0
0.7130000000000223,6.7985107421875,0.8625244140625,7.752102661132813,1719609052663.0
0.7230000000000132,6.6525634765625,0.9105255126953126,7.953976440429688,1719609052673.0
0.7330000000000041,6.322088623046875,0.8551971435546876,7.468283081054688,1719609052683.0
0.7440000000000282,6.461456298828126,0.6377716064453125,6.873129272460938,1719609052694.0
0.7540000000000191,7.0404602050781255,0.3218017578125,7.098031616210938,1719609052704.0
0.76400000000001,7.371533203125001,0.022430419921875,6.929205322265625,1719609052714.0
0.7740000000000009,7.361215209960938,-0.167779541015625,6.276928710937501,1719609052724.0
0.7839999999999918,7.041058349609376,-0.351708984375,6.1447387695312505,1719609052734.0
0.7940000000000396,7.285101318359375,-0.401654052734375,6.525009155273438,1719609052744.0
0.8040000000000305,7.16995849609375,-0.2699127197265625,7.310223388671876,1719609052754.0
0.8140000000000214,6.7249389648437505,-0.011663818359375,6.961654663085938,1719609052764.0
0.8240000000000123,6.420184326171875,0.2690155029296875,6.652413940429688,1719609052774.0
0.8340000000000032,7.237997436523438,0.37144775390625,6.762921142578126,1719609052784.0
0.8439999999999941,7.252502441406251,0.4065887451171875,7.217062377929688,1719609052794.0
0.8540000000000418,7.647726440429688,0.6522766113281251,6.935635375976563,1719609052804.0
0.8640000000000256,6.627291870117188,0.9003570556640625,6.994851684570313,1719609052814.0
0.8740000000000236,6.011801147460938,0.9685455322265626,6.334500122070313,1719609052824.0
0.8840000000000146,7.084124755859375,0.5834899902343751,7.697970581054688,1719609052834.0
0.8940000000000055,7.251904296875001,-0.246734619140625,7.529891967773438,1719609052844.0
0.9039999999999964,7.634417724609375,-0.6087615966796875,6.145635986328125,1719609052854.0
0.9150000000000204,6.3346496582031255,-0.3416900634765625,6.726882934570313,1719609052865.0
0.9250000000000114,6.758435058593751,0.227294921875,6.262423706054688,1719609052875.0
0.9350000000000024,7.651165771484376,0.185125732421875,8.044296264648438,1719609052885.0
0.9450000000000004,7.551574707031251,-0.1182830810546875,6.544598388671876,1719609052895.0
0.9550000000000408,6.646432495117188,0.2307342529296875,5.8790130615234375,1719609052905.0
0.9650000000000318,6.388632202148438,0.9963592529296876,6.955075073242188,1719609052915.0
0.9750000000000228,6.916494750976563,1.0563232421875002,7.837786865234375,1719609052925.0
0.9850000000000136,7.3009521484375,0.4152618408203125,8.198617553710939,1719609052935.0
0.9950000000000044,7.0404602050781255,-0.072674560546875,5.698822021484375,1719609052945.0
1.0049999999999957,6.600225830078125,-0.0375335693359375,5.8651062011718755,1719609052955.0
1.0149999999999864,7.233361816406251,0.1212738037109375,6.920233154296875,1719609052965.0
1.025000000000034,7.563687133789063,-0.1111053466796875,8.127438354492188,1719609052975.0
1.035000000000032,6.803594970703125,-0.2645294189453125,7.087115478515625,1719609052985.0
1.045000000000016,6.576599121093751,0.0318511962890625,5.2195587158203125,1719609052995.0
1.0550000000000068,6.936981201171876,0.3566436767578125,7.164276123046876,1719609053005.0
1.0649999999999975,7.437628173828125,0.5404235839843751,7.5743041992187505,1719609053015.0
1.0749999999999886,7.172500610351563,0.5136566162109375,7.4564697265625,1719609053025.0
1.0850000000000364,6.634170532226563,0.45159912109375,5.842974853515625,1719609053035.0
1.0960000000000036,6.664227294921876,0.387896728515625,6.2942749023437505,1719609053046.0
1.1059999999999943,7.144836425781251,0.2830718994140625,7.812216186523438,1719609053056.0
1.1160000000000423,7.261923217773438,0.10706787109375,7.615426635742188,1719609053066.0
1.126000000000026,6.784902954101563,-0.1030303955078125,6.645535278320313,1719609053076.0
1.136000000000024,6.744229125976563,-0.13697509765625,5.608203125,1719609053086.0
1.146000000000015,7.136611938476563,0.037384033203125,7.268801879882813,1719609053096.0
1.156000000000006,7.3933654785156255,0.3225494384765625,7.758831787109376,1719609053106.0
1.1659999999999968,6.951486206054688,0.4116729736328125,6.599777221679688,1719609053116.0
1.1759999999999875,6.764566040039063,0.2755950927734375,6.137112426757813,1719609053126.0
1.1860000000000357,7.040161132812501,0.2474822998046875,6.437380981445313,1719609053136.0
1.1960000000000264,7.251904296875001,0.3001190185546875,7.638305664062501,1719609053146.0
1.2060000000000173,6.8939147949218755,0.2486785888671875,7.167864990234375,1719609053156.0
1.2160000000000082,6.478802490234376,-0.01854248046875,6.510653686523438,1719609053166.0
1.225999999999999,7.112088012695313,-0.1924530029296875,6.133673095703125,1719609053176.0
1.23599999999999,7.4038330078125005,-0.2337249755859375,7.2961669921875005,1719609053186.0
1.2460000000000375,7.523760986328125,0.0088226318359375,7.16038818359375,1719609053196.0
1.2560000000000286,7.142742919921876,0.5435638427734375,6.992010498046875,1719609053206.0
1.2660000000000196,5.8322082519531255,0.8438323974609375,6.462054443359375,1719609053216.0
1.2769999999999868,6.797613525390625,1.0276123046875,7.030590820312501,1719609053227.0
1.2870000000000346,7.357925415039063,0.6645385742187501,8.194281005859375,1719609053237.0
1.2970000000000326,7.3978515625,0.1170867919921875,6.376968383789063,1719609053247.0
1.3070000000000164,6.720602416992188,0.0171966552734375,6.403585815429688,1719609053257.0
1.3170000000000073,6.657797241210938,0.10228271484375,6.222946166992188,1719609053267.0
1.3269999999999982,7.410562133789063,-0.121722412109375,7.479498291015625,1719609053277.0
1.336999999999989,7.481292724609376,-0.5117126464843751,7.4890686035156255,1719609053287.0
1.3470000000000368,6.791482543945313,-0.4318603515625,5.919088745117188,1719609053297.0
1.3570000000000275,6.558654785156251,0.2570526123046875,6.6307312011718755,1719609053307.0
1.3670000000000186,6.875521850585938,0.823345947265625,7.389926147460938,1719609053317.0
1.3770000000000095,7.430450439453126,0.7704101562500001,7.822085571289063,1719609053327.0
1.3870000000000005,6.849502563476563,0.612799072265625,6.788641357421875,1719609053337.0
1.400000000000034,6.7892395019531255,0.6581085205078125,5.483639526367188,1719609053350.0
1.407000000000039,7.0255065917968755,0.533245849609375,7.061544799804688,1719609053357.0
1.41700000000003,7.245773315429688,0.1682281494140625,7.831057739257813,1719609053367.0
1.427000000000021,6.820791625976563,-0.2071075439453125,7.376168823242188,1719609053377.0
1.4370000000000118,6.57779541015625,-0.2947357177734375,6.142794799804688,1719609053387.0
1.4470000000000027,6.927560424804688,-0.234771728515625,6.524261474609376,1719609053397.0
1.4580000000000268,7.567425537109376,-0.08074951171875,7.272689819335938,1719609053408.0
1.4680000000000175,7.396057128906251,0.189910888671875,7.022216796875001,1719609053418.0
1.4780000000000086,6.718359375,0.434552001953125,6.121710205078125,1719609053428.0
1.4879999999999995,6.8744750976562505,0.5800506591796876,6.1327758789062505,1719609053438.0
1.5,7.031637573242188,0.47911376953125,7.723541259765626,1719609053450.0
1.5080000000000382,7.217062377929688,0.3808685302734375,7.519573974609376,1719609053458.0
1.518000000000029,6.574954223632813,0.249127197265625,6.848455810546875,1719609053468.0
1.52800000000002,6.621459960937501,0.097796630859375,6.279470825195313,1719609053478.0
1.538000000000011,7.091003417968751,0.0370849609375,7.151266479492188,1719609053488.0
1.5480000000000018,7.352243041992188,0.0557769775390625,7.534527587890626,1719609053498.0
1.5579999999999998,7.095489501953126,0.1526763916015625,6.369342041015625,1719609053508.0
1.5680000000000405,6.85533447265625,0.1341339111328125,6.251358032226563,1719609053518.0
1.5780000000000314,7.12449951171875,0.1891632080078125,6.615179443359375,1719609053528.0
1.5880000000000225,7.150219726562501,0.3288299560546875,7.506115722656251,1719609053538.0
1.6000000000000227,6.856680297851563,0.3482696533203125,7.216165161132813,1719609053550.0
1.6090000000000373,6.686807250976563,0.218621826171875,6.369641113281251,1719609053559.0
1.6190000000000282,6.845016479492188,-0.005682373046875,6.559103393554688,1719609053569.0
1.629000000000019,7.555612182617188,-0.031402587890625,6.796865844726563,1719609053579.0
1.63900000000001,6.94505615234375,-0.200079345703125,7.19627685546875,1719609053589.0
1.649000000000001,7.754495239257813,-0.034393310546875,6.582431030273438,1719609053599.0
1.6589999999999918,6.395361328125,0.3772796630859375,7.1570983886718755,1719609053609.0
1.6690000000000396,6.156103515625,0.7684661865234376,6.546243286132813,1719609053619.0
1.6790000000000305,7.124948120117188,0.9951629638671876,8.087063598632813,1719609053629.0
1.6890000000000214,7.066180419921875,0.4756744384765625,7.201361083984375,1719609053639.0
1.6999999999999886,7.5138916015625,0.207855224609375,5.89830322265625,1719609053650.0
1.7090000000000032,6.577496337890626,0.260491943359375,6.838287353515626,1719609053659.0
1.718999999999994,7.25908203125,0.3246429443359375,6.177188110351563,1719609053669.0
1.7290000000000418,7.005767822265626,-0.124114990234375,7.97147216796875,1719609053679.0
1.7390000000000256,7.2408386230468755,-0.5316009521484375,6.850250244140626,1719609053689.0
1.7490000000000236,6.648974609375,-0.2966796875,6.43125,1719609053699.0
1.7590000000000146,6.584075927734376,0.347222900390625,7.105807495117188,1719609053709.0
1.7690000000000057,7.362860107421875,0.6464447021484375,7.062442016601563,1719609053719.0
1.7789999999999964,7.1361633300781255,0.5175445556640625,7.651614379882813,1719609053729.0
1.7889999999999873,7.164874267578125,0.52158203125,5.447451782226563,1719609053739.0
1.8000000000000114,6.723144531250001,0.610107421875,6.761425781250001,1719609053750.0
1.8100000000000025,7.07066650390625,0.4711883544921875,6.93309326171875,1719609053760.0
1.8200000000000005,7.041207885742188,0.05323486328125,8.135214233398438,1719609053770.0
1.830000000000041,6.686508178710938,-0.184527587890625,6.958813476562501,1719609053780.0
1.840000000000032,6.66990966796875,-0.1419097900390625,5.984585571289063,1719609053790.0
1.8500000000000227,7.1212097167968755,-0.0180938720703125,7.226483154296876,1719609053800.0
1.8600000000000136,7.524508666992188,0.1553680419921875,6.894662475585938,1719609053810.0
1.8700000000000043,7.218109130859376,0.238958740234375,6.836642456054688,1719609053820.0
1.8799999999999957,6.80150146484375,0.3901397705078125,5.8849945068359375,1719609053830.0
1.8899999999999864,6.961953735351563,0.4341033935546875,6.689199829101563,1719609053840.0
1.900000000000034,7.143789672851563,0.3141754150390625,7.613333129882813,1719609053850.0
1.910000000000032,6.959860229492188,0.16090087890625,7.250857543945313,1719609053860.0
1.920000000000016,6.744528198242188,0.034393310546875,6.721200561523438,1719609053870.0
1.9300000000000068,6.675741577148438,0.102581787109375,6.634768676757813,1719609053880.0
1.9399999999999975,7.049880981445313,0.2583984375,7.316055297851563,1719609053890.0
1.9499999999999889,7.236053466796876,0.3177642822265625,7.271942138671876,1719609053900.0
1.9600000000000364,7.242034912109376,0.2468841552734375,6.20634765625,1719609053910.0
1.9700000000000273,6.956570434570313,0.1806396484375,6.241787719726563,1719609053920.0
1.9800000000000184,7.007113647460938,0.2050140380859375,6.789837646484376,1719609053930.0
1.9910000000000423,7.105358886718751,0.2735015869140625,7.578790283203125,1719609053941.0
2.001000000000026,6.912008666992188,0.04246826171875,6.925167846679688,1719609053951.0
2.011000000000024,6.641497802734375,-0.3098388671875,6.373828125,1719609053961.0
2.021000000000015,7.407421875000001,-0.2237060546875,6.1507202148437505,1719609053971.0
2.031000000000006,6.90318603515625,-0.0862823486328125,7.651165771484376,1719609053981.0
2.040999999999997,7.45706787109375,0.1182830810546875,6.888232421875,1719609053991.0
2.0509999999999877,7.393066406250001,0.7512695312500001,7.549630737304688,1719609054001.0
2.0610000000000355,5.496499633789063,1.018191528320313,6.108551025390625,1719609054011.0
2.0710000000000264,6.935635375976563,1.188662719726563,6.632824707031251,1719609054021.0
2.0810000000000173,7.442861938476563,0.7227081298828125,8.718853759765626,1719609054031.0
2.091000000000008,7.4292541503906255,-0.0145050048828125,6.139804077148438,1719609054041.0
2.100999999999999,6.668862915039063,-0.0767120361328125,6.5544677734375005,1719609054051.0
2.11099999999999,6.605758666992188,-0.055328369140625,6.1791320800781255,1719609054061.0
2.1210000000000377,7.442562866210938,-0.34752197265625,7.109695434570313,1719609054071.0
2.1310000000000286,7.510302734375,-0.675604248046875,8.032931518554689,1719609054081.0
2.1410000000000196,6.903933715820313,-0.425579833984375,5.813366699218751,1719609054091.0
2.151999999999987,6.316555786132813,0.4670013427734375,6.586019897460938,1719609054102.0
2.161000000000002,6.912008666992188,1.1186798095703123,7.308728027343751,1719609054111.0
2.172000000000033,7.450338745117188,1.0398742675781252,7.820141601562501,1719609054122.0
2.1820000000000164,6.8460632324218755,0.7905975341796876,6.947897338867188,1719609054132.0
2.1920000000000073,6.823931884765625,0.7333251953125001,5.398703002929688,1719609054142.0
2.201999999999998,6.864605712890626,0.4892822265625,7.1526123046875005,1719609054152.0
2.211999999999989,7.195080566406251,-0.100189208984375,7.822085571289063,1719609054162.0
2.222000000000037,7.016085815429688,-0.483001708984375,7.456768798828126,1719609054172.0
2.2320000000000277,6.553720092773438,-0.5603118896484376,6.135617065429688,1719609054182.0
2.242000000000018,7.018627929687501,-0.45159912109375,6.001034545898438,1719609054192.0
2.2530000000000427,7.641595458984376,-0.136676025390625,7.334298706054688,1719609054203.0
2.2620000000000005,7.490414428710938,0.2260986328125,7.152163696289063,1719609054212.0
2.2719999999999914,6.5873657226562505,0.703717041015625,6.140850830078126,1719609054222.0
2.282000000000039,6.692489624023438,0.9461151123046876,6.387734985351563,1719609054232.0
2.29200000000003,7.018328857421875,0.7894012451171876,7.692138671875001,1719609054242.0
2.302000000000021,7.088162231445313,0.5347412109375,7.723989868164063,1719609054252.0
2.312000000000012,6.721051025390626,0.2806793212890625,6.7847534179687505,1719609054262.0
2.323000000000036,6.5831787109375,-0.033795166015625,6.171804809570313,1719609054273.0
2.3319999999999936,7.117321777343751,-0.2552581787109375,7.039413452148438,1719609054282.0
2.3420000000000414,7.496994018554688,-0.3026611328125,7.4905639648437505,1719609054292.0
2.3530000000000086,7.2483154296875005,-0.1795928955078125,6.423474121093751,1719609054303.0
2.3629999999999995,6.8678955078125,-0.00418701171875,5.940472412109376,1719609054313.0
2.3729999999999905,7.065133666992188,0.2077056884765625,6.514541625976563,1719609054323.0
2.383000000000038,7.17294921875,0.4855438232421875,7.669259643554688,1719609054333.0
2.393000000000029,6.875820922851563,0.6436035156250001,7.301998901367188,1719609054343.0
2.40300000000002,6.292929077148438,0.5154510498046876,6.546691894531251,1719609054353.0
2.413000000000011,6.942962646484376,0.260491943359375,6.353042602539063,1719609054363.0
2.423000000000002,7.22977294921875,-0.019140625,7.7402893066406255,1719609054373.0
2.433,7.891470336914063,-0.0387298583984375,6.752902221679688,1719609054383.0
2.4430000000000405,7.112835693359376,0.15013427734375,6.9761596679687505,1719609054393.0
2.4530000000000314,6.058306884765625,0.2477813720703125,5.43414306640625,1719609054403.0
2.4630000000000223,6.984085083007813,0.424981689453125,7.542602539062501,1719609054413.0
2.473000000000013,7.123303222656251,0.2392578125,8.332452392578126,1719609054423.0
2.483000000000004,7.6072021484375005,0.1170867919921875,6.3854919433593755,1719609054433.0
2.492999999999995,6.2942749023437505,0.22490234375,6.905279541015625,1719609054443.0
2.5030000000000427,6.674545288085938,0.5976959228515626,5.659793090820313,1719609054453.0
2.5130000000000337,7.362860107421875,0.6612487792968751,8.1120361328125,1719609054463.0
2.524000000000001,7.614678955078125,0.098992919921875,7.031637573242188,1719609054474.0
2.533999999999992,6.866699218750001,-0.257501220703125,5.979052734375,1719609054484.0
2.5440000000000396,6.528448486328125,0.02213134765625,6.692340087890625,1719609054494.0
2.5540000000000305,6.721649169921876,0.4146636962890625,7.2034545898437505,1719609054504.0
2.564000000000022,7.327569580078125,0.2917449951171875,8.365499877929688,1719609054514.0
2.5740000000000123,7.054367065429688,-0.055328369140625,6.517831420898438,1719609054524.0
2.584000000000003,6.982888793945313,0.04844970703125,5.292083740234375,1719609054534.0
2.593999999999994,6.98094482421875,0.44442138671875,6.696975708007813,1719609054544.0
2.604000000000042,7.402935791015626,0.54251708984375,7.615426635742188,1719609054554.0
2.6140000000000256,6.965393066406251,0.3031097412109375,7.898498535156251,1719609054564.0
2.6240000000000236,6.489718627929688,0.128302001953125,5.9193878173828125,1719609054574.0
2.6340000000000146,6.746322631835938,0.169573974609375,6.487326049804688,1719609054584.0
2.6440000000000055,7.186706542968751,0.265277099609375,7.550677490234375,1719609054594.0
2.6539999999999964,7.357028198242188,0.2238555908203125,7.449441528320313,1719609054604.0
2.6639999999999873,6.865951538085938,0.1350311279296875,6.638058471679688,1719609054614.0
2.674000000000035,6.877914428710938,0.136376953125,5.502032470703125,1719609054624.0
2.684000000000026,7.043899536132813,0.1208251953125,7.172650146484376,1719609054634.0
2.694000000000017,7.476507568359375,0.1619476318359375,7.506265258789063,1719609054644.0
2.705000000000041,6.943859863281251,0.10347900390625,6.988421630859375,1719609054655.0
2.715000000000032,6.59573974609375,0.085235595703125,6.278125,1719609054665.0
2.7250000000000227,6.720751953125,0.26258544921875,6.816305541992188,1719609054675.0
2.7350000000000136,7.283306884765626,0.4906280517578125,7.846310424804688,1719609054685.0
2.7450000000000045,7.041058349609376,0.545806884765625,7.110443115234376,1719609054695.0
2.7549999999999955,6.821688842773438,0.3727935791015625,6.306536865234375,1719609054705.0
2.7649999999999864,7.024160766601563,0.237762451171875,6.056661987304688,1719609054715.0
2.775000000000034,7.248764038085938,0.136077880859375,7.211679077148438,1719609054725.0
2.785000000000032,7.188800048828125,0.0390289306640625,7.396505737304688,1719609054735.0
2.795000000000016,6.926962280273438,-0.16807861328125,6.438577270507813,1719609054745.0
2.805000000000007,6.569122314453126,-0.4556365966796875,6.151916503906251,1719609054755.0
2.8149999999999977,7.491461181640625,-0.293988037109375,6.502279663085938,1719609054765.0
2.826000000000022,7.0105529785156255,-0.1670318603515625,7.891021728515626,1719609054776.0
2.8350000000000364,7.193136596679688,0.2002288818359375,6.686956787109375,1719609054785.0
2.8450000000000273,7.261325073242188,0.844281005859375,7.616772460937501,1719609054795.0
2.855000000000018,5.927462768554688,1.2113922119140623,6.2703491210937505,1719609054805.0
2.865000000000009,6.8101745605468755,1.4771179199218751,6.694882202148438,1719609054815.0
2.875,7.292279052734376,0.8439819335937501,8.495895385742188,1719609054825.0
2.886000000000024,7.435086059570313,0.0538330078125,5.7997589111328125,1719609054836.0
2.896000000000015,6.711032104492188,-0.34512939453125,7.029244995117188,1719609054846.0
2.906000000000006,6.714321899414063,-0.2543609619140625,6.0953918457031255,1719609054856.0
2.915999999999997,7.219006347656251,-0.491375732421875,7.491162109375001,1719609054866.0
2.9259999999999877,7.423721313476563,-0.7675689697265625,7.485031127929688,1719609054876.0
2.9360000000000355,7.057656860351563,-0.5052825927734376,6.0005859375,1719609054886.0
2.9460000000000264,6.609347534179688,0.4916748046875,6.664077758789063,1719609054896.0
2.9560000000000173,6.8550354003906255,1.3064971923828126,7.0138427734375,1719609054906.0
2.966000000000008,7.238296508789063,1.22559814453125,7.9684814453125,1719609054916.0
2.975999999999999,6.844418334960938,0.90738525390625,6.764117431640625,1719609054926.0
2.98599999999999,6.800604248046875,0.8025604248046876,6.0424560546875,1719609054936.0
2.9960000000000377,6.813763427734376,0.4880859375,6.948944091796876,1719609054946.0
3.0060000000000286,7.210034179687501,-0.1610504150390625,7.640847778320313,1719609054956.0
3.016999999999996,6.987823486328126,-0.6537719726562501,7.487872314453125,1719609054967.0
3.0260000000000105,6.834548950195313,-0.7292877197265626,5.939724731445313,1719609054976.0
3.036000000000002,7.039862060546875,-0.5179931640625001,6.357678222656251,1719609054986.0
3.0459999999999923,7.485479736328125,-0.1712188720703125,7.031188964843751,1719609054996.0
3.0570000000000164,7.539611816406251,0.25660400390625,7.048236083984375,1719609055007.0
3.0670000000000073,6.65555419921875,0.72076416015625,6.450390625000001,1719609055017.0
3.076999999999998,6.601422119140626,1.0847351074218752,6.3047424316406255,1719609055027.0
3.086999999999989,6.754248046875,0.9951629638671876,7.9325927734375,1719609055037.0
3.097000000000037,7.084124755859375,0.745587158203125,7.706195068359375,1719609055047.0
3.1090000000000373,6.631329345703126,0.3313720703125,6.9357849121093755,1719609055059.0
3.117000000000018,6.945504760742188,-0.0466552734375,6.017034912109375,1719609055067.0
3.1270000000000095,7.150369262695313,-0.349017333984375,6.79312744140625,1719609055077.0
3.1370000000000005,7.565930175781251,-0.48031005859375,7.119863891601563,1719609055087.0
3.1469999999999914,7.116424560546876,-0.3871490478515625,6.698919677734375,1719609055097.0
3.157000000000039,6.969729614257813,-0.212640380859375,6.0804382324218755,1719609055107.0
3.16700000000003,7.031787109375,0.04964599609375,6.512896728515625,1719609055117.0
3.177000000000021,7.125396728515626,0.39656982421875,7.454525756835938,1719609055127.0
3.187000000000012,6.72972412109375,0.77698974609375,7.382598876953126,1719609055137.0
3.1970000000000027,6.414950561523438,0.795233154296875,6.483587646484375,1719609055147.0
3.209000000000003,7.118817138671876,0.5262176513671876,6.9582153320312505,1719609055159.0
3.2180000000000177,7.128237915039063,0.1742095947265625,7.185958862304688,1719609055168.0
3.2280000000000086,7.934387207031251,0.276043701171875,7.205548095703126,1719609055178.0
3.2379999999999995,6.237899780273438,0.2474822998046875,6.296368408203126,1719609055188.0
3.2479999999999905,6.5724121093750005,0.0931610107421875,6.1297851562500005,1719609055198.0
3.258000000000038,7.3464111328125,-0.174359130859375,7.918685913085938,1719609055208.0
3.268000000000029,7.322036743164063,-0.35350341796875,7.076947021484376,1719609055218.0
3.27800000000002,7.144985961914063,0.04007568359375,6.916793823242188,1719609055228.0
3.288000000000011,6.131430053710938,0.47911376953125,6.05621337890625,1719609055238.0
3.298000000000002,7.279119873046875,0.8064483642578125,7.118667602539063,1719609055248.0
3.309000000000026,7.310223388671876,0.6506317138671875,7.853039550781251,1719609055259.0
3.3180000000000405,7.237100219726563,0.40972900390625,6.102719116210938,1719609055268.0
3.3280000000000314,6.619366455078126,0.417205810546875,6.598431396484376,1719609055278.0
3.3380000000000223,6.643142700195313,0.35469970703125,6.805239868164063,1719609055288.0
3.348000000000013,7.268951416015626,0.019439697265625,7.794271850585938,1719609055298.0
3.358000000000004,6.9958984375,-0.2636322021484375,7.569818115234376,1719609055308.0
3.367999999999995,7.0533203125,-0.3650177001953125,5.292083740234375,1719609055318.0
3.3780000000000427,6.892568969726563,-0.122320556640625,6.9582153320312505,1719609055328.0
3.3880000000000337,7.450039672851563,0.1766021728515625,6.614880371093751,1719609055338.0
3.398000000000025,7.1215087890625,0.393878173828125,7.8718811035156255,1719609055348.0
3.408999999999992,6.640301513671876,0.5809478759765625,6.453530883789063,1719609055359.0
3.4190000000000396,6.728677368164063,0.6494354248046875,6.267956542968751,1719609055369.0
3.4290000000000305,6.972421264648438,0.5985931396484375,7.61258544921875,1719609055379.0
3.439000000000022,7.173696899414063,0.472235107421875,7.289288330078126,1719609055389.0
3.4490000000000123,6.81107177734375,0.262286376953125,6.997543334960938,1719609055399.0
3.459000000000003,6.805389404296876,0.016448974609375,6.181375122070313,1719609055409.0
3.468999999999994,7.1092468261718755,-0.1661346435546875,6.752005004882813,1719609055419.0
3.479000000000042,7.346560668945313,-0.2127899169921875,7.2770263671875,1719609055429.0
3.4890000000000256,7.16995849609375,-0.16568603515625,6.69383544921875,1719609055439.0
3.4990000000000236,6.897653198242188,-0.07955322265625,6.339733886718751,1719609055449.0
3.5090000000000146,7.069470214843751,0.1529754638671875,6.578842163085938,1719609055459.0
3.5190000000000055,7.005618286132813,0.4293182373046875,7.353439331054688,1719609055469.0
3.5289999999999964,6.9567199707031255,0.6640899658203125,7.410263061523438,1719609055479.0
3.5389999999999873,6.6621337890625005,0.6880157470703125,6.792379760742188,1719609055489.0
3.549000000000035,6.814212036132813,0.5567230224609375,6.68486328125,1719609055499.0
3.559000000000026,7.102667236328125,0.348419189453125,6.904083251953126,1719609055509.0
3.569000000000017,7.272390747070313,0.0668426513671875,6.933541870117188,1719609055519.0
3.5790000000000077,6.895858764648438,-0.30625,6.375323486328125,1719609055529.0
3.588999999999998,7.3787109375,-0.5387786865234375,6.0644378662109375,1719609055539.0
3.6000000000000227,6.894363403320313,-0.7253997802734375,7.30693359375,1719609055550.0
3.6100000000000136,7.3966552734375,-0.29189453125,7.0793395996093755,1719609055560.0
3.620000000000005,7.111489868164063,0.59156494140625,8.050875854492189,1719609055570.0
3.629999999999995,5.7098876953125,1.17535400390625,6.119168090820313,1719609055580.0
3.6399999999999864,6.917691040039063,1.4662017822265625,6.77159423828125,1719609055590.0
3.650000000000034,7.370785522460938,1.0137054443359377,7.955172729492188,1719609055600.0
3.660000000000032,7.780215454101563,0.5564239501953125,6.137710571289063,1719609055610.0
3.670000000000016,6.522018432617188,0.2726043701171875,7.08023681640625,1719609055620.0
3.680000000000007,6.648974609375,-0.0602630615234375,5.67340087890625,1719609055630.0
3.6899999999999977,7.030590820312501,-0.6691741943359375,8.057754516601562,1719609055640.0
3.6999999999999886,7.461553955078125,-0.992620849609375,7.290783691406251,1719609055650.0
3.710000000000037,7.081283569335938,-0.8740386962890626,6.412857055664063,1719609055660.0
3.7200000000000273,6.628936767578126,0.0943572998046875,6.170758056640626,1719609055670.0
3.730000000000018,7.013992309570313,0.8936279296875,6.940869140625001,1719609055680.0
3.740000000000009,7.326821899414063,1.18671875,7.953976440429688,1719609055690.0
3.75,6.95701904296875,1.14664306640625,6.468185424804688,1719609055700.0
3.759999999999991,6.6669189453125,1.0771087646484376,6.360220336914063,1719609055710.0
3.771000000000015,6.707891845703125,0.8224487304687501,6.976907348632813,1719609055721.0
3.781000000000006,7.057955932617188,0.149835205078125,7.940219116210938,1719609055731.0
3.790999999999997,6.96898193359375,-0.3988128662109375,7.3440185546875005,1719609055741.0
3.800999999999988,6.787295532226563,-0.723455810546875,6.046643066406251,1719609055751.0
3.811000000000035,7.1645751953125005,-0.76981201171875,6.237899780273438,1719609055761.0
3.8210000000000264,7.559649658203125,-0.45997314453125,6.836492919921875,1719609055771.0
3.8310000000000177,7.457666015625,-0.031103515625,7.144537353515625,1719609055781.0
3.841000000000008,6.758285522460938,0.4807586669921875,6.229824829101563,1719609055791.0
3.850999999999999,6.806286621093751,0.8596832275390626,6.478353881835938,1719609055801.0
3.86099999999999,6.815557861328125,0.9395355224609376,7.486526489257813,1719609055811.0
3.8710000000000377,6.944158935546875,0.9236846923828126,7.729672241210938,1719609055821.0
3.8810000000000286,6.5873657226562505,0.65616455078125,7.142294311523438,1719609055831.0
3.891000000000019,6.809277343750001,0.26497802734375,6.448147583007813,1719609055841.0
3.9010000000000105,7.01982421875,-0.1030303955078125,6.851296997070313,1719609055851.0
3.9120000000000346,7.441815185546876,-0.321502685546875,7.0494323730468755,1719609055862.0
3.922000000000033,7.184613037109376,-0.3696533203125,6.662283325195313,1719609055872.0
3.93100000000004,7.034628295898438,-0.3156707763671875,6.1372619628906255,1719609055881.0
3.9420000000000073,7.056161499023438,-0.1876678466796875,6.380856323242188,1719609055892.0
3.951999999999998,6.954327392578126,0.1281524658203125,7.2483154296875005,1719609055902.0
3.961999999999989,6.74228515625,0.3455780029296875,7.118966674804688,1719609055912.0
3.972000000000037,7.082778930664063,0.5031890869140625,7.212127685546876,1719609055922.0
3.982000000000028,7.139901733398438,0.6416595458984375,6.75364990234375,1719609055932.0
3.992000000000018,6.9492431640625005,0.8661132812500001,7.190594482421876,1719609055942.0
4.0020000000000095,6.576748657226563,0.93250732421875,6.388183593750001,1719609055952.0
4.0120000000000005,7.024459838867188,0.6507812500000001,7.539462280273438,1719609055962.0
4.021999999999991,6.830511474609375,-0.0686370849609375,6.909466552734376,1719609055972.0
4.032000000000039,7.821636962890626,-0.5443115234375,6.0958404541015625,1719609055982.0
4.04200000000003,6.934738159179688,-0.627752685546875,7.637707519531251,1719609055992.0
4.052000000000021,6.382949829101563,-0.1562652587890625,5.7504119873046875,1719609056002.0
4.062000000000012,7.1810241699218755,0.290399169921875,8.1551025390625,1719609056012.0
4.072000000000003,7.260876464843751,0.1742095947265625,6.634768676757813,1719609056022.0
4.081999999999994,7.295419311523438,0.2483795166015625,6.207394409179688,1719609056032.0
4.092000000000041,6.7697998046875005,0.7807281494140625,6.795968627929688,1719609056042.0
4.102000000000032,6.701760864257813,1.1620452880859375,6.881652832031251,1719609056052.0
4.112000000000023,6.941317749023438,0.799420166015625,8.091998291015626,1719609056062.0
4.122000000000014,6.99649658203125,0.0946563720703125,6.957168579101563,1719609056072.0
4.133000000000038,7.056610107421876,-0.2735015869140625,5.90966796875,1719609056083.0
4.143000000000029,6.759481811523438,-0.24703369140625,6.7997070312500005,1719609056093.0
4.15300000000002,7.431347656250001,-0.23507080078125,6.949093627929688,1719609056103.0
4.163000000000011,7.251754760742188,-0.30684814453125,7.623352050781251,1719609056113.0
4.173000000000002,6.793276977539063,-0.1117034912109375,5.9522857666015625,1719609056123.0
4.183,6.926663208007813,0.3721954345703125,6.369790649414063,1719609056133.0
4.1930000000000405,6.994253540039063,0.7251007080078126,7.305886840820313,1719609056143.0
4.203000000000031,7.1451354980468755,0.7524658203125001,7.503274536132813,1719609056153.0
4.213000000000022,6.849502563476563,0.6421081542968751,7.028048706054688,1719609056163.0
4.223000000000013,6.64598388671875,0.4738800048828125,6.198721313476563,1719609056173.0
4.233000000000004,6.824978637695313,0.289501953125,6.991561889648438,1719609056183.0
4.242999999999995,7.37332763671875,0.0442626953125,7.5737060546875,1719609056193.0
4.253000000000043,7.146481323242188,-0.290399169921875,6.833651733398438,1719609056203.0
4.263000000000034,6.865951538085938,-0.35469970703125,6.102420043945313,1719609056213.0
4.273000000000025,6.955673217773438,-0.137274169921875,6.503475952148438,1719609056223.0
4.283999999999992,7.303494262695313,0.1792938232421875,7.285101318359375,1719609056234.0
4.29400000000004,7.013394165039063,0.404644775390625,7.443609619140625,1719609056244.0
4.3040000000000305,6.818548583984375,0.5490966796875001,6.4931579589843755,1719609056254.0
4.314000000000021,6.748117065429688,0.6105560302734375,6.3899780273437505,1719609056264.0
4.324000000000012,7.081134033203125,0.5390777587890625,7.1215087890625,1719609056274.0
4.334000000000003,7.133023071289063,0.2456878662109375,7.161135864257813,1719609056284.0
4.343999999999994,6.869390869140625,-0.221014404296875,6.472073364257813,1719609056294.0
4.354000000000042,7.36375732421875,-0.448309326171875,6.1133361816406255,1719609056304.0
4.364000000000026,6.711331176757813,-0.6462951660156251,7.236950683593751,1719609056314.0
4.374000000000024,7.7672058105468755,-0.01973876953125,7.496096801757813,1719609056324.0
4.3840000000000146,6.849203491210938,0.6219207763671876,7.579837036132813,1719609056334.0
4.3940000000000055,5.786599731445313,1.08802490234375,5.969482421875,1719609056344.0
4.403999999999996,7.0613952636718755,1.2386077880859376,6.895858764648438,1719609056354.0
4.413999999999987,7.511050415039063,0.771307373046875,7.779916381835938,1719609056364.0
4.424000000000035,7.640249633789063,0.4149627685546875,6.564636230468751,1719609056374.0
4.434000000000026,6.239993286132813,0.20277099609375,6.669012451171875,1719609056384.0
4.444000000000017,6.747070312500001,-0.1215728759765625,5.696279907226563,1719609056394.0
4.454000000000008,7.199716186523438,-0.7466339111328125,8.212823486328126,1719609056404.0
4.463999999999999,7.7776733398437505,-0.9770690917968752,7.190594482421876,1719609056414.0
4.475000000000023,6.579589843750001,-0.4498046875,6.4755126953125,1719609056425.0
4.485000000000014,6.473419189453126,0.570928955078125,6.163430786132813,1719609056435.0
4.4950000000000045,7.171902465820313,1.1052215576171875,7.175341796875,1719609056445.0
4.5049999999999955,7.380206298828125,1.0395751953125,8.269049072265625,1719609056455.0
4.514999999999986,6.987075805664063,1.0922119140625002,5.808880615234376,1719609056465.0
4.525000000000034,6.456072998046875,1.0053314208984376,6.436184692382813,1719609056475.0
4.535000000000032,7.011151123046876,0.3991119384765625,6.816754150390626,1719609056485.0
4.545000000000016,7.186557006835938,-0.3590362548828125,8.325723266601564,1719609056495.0
4.555000000000007,6.899298095703125,-0.6608001708984376,7.145285034179688,1719609056505.0
4.564999999999998,6.6038146972656255,-0.7289886474609375,5.60760498046875,1719609056515.0
4.574999999999989,7.227081298828126,-0.5269653320312501,6.648376464843751,1719609056525.0
4.585000000000036,7.744326782226563,-0.161798095703125,7.177584838867188,1719609056535.0
4.595000000000027,7.246072387695313,0.4577301025390625,7.044198608398438,1719609056545.0
4.605000000000018,6.533084106445313,1.0229766845703123,6.067129516601563,1719609056555.0
4.615000000000009,6.5813842773437505,1.2380096435546877,6.779519653320313,1719609056565.0
4.625,6.985729980468751,0.8725433349609376,7.9466491699218755,1719609056575.0
4.634999999999991,7.0808349609375005,0.5459564208984375,7.534378051757813,1719609056585.0
4.645000000000039,6.633871459960938,0.164190673828125,6.538616943359376,1719609056595.0
4.65500000000003,6.812567138671875,-0.2621368408203125,6.076998901367188,1719609056605.0
4.6650000000000205,7.406076049804688,-0.5725738525390626,7.062591552734376,1719609056615.0
4.675999999999988,7.576995849609376,-0.5912658691406251,7.323532104492188,1719609056626.0
4.6860000000000355,6.967037963867188,-0.2639312744140625,6.074008178710938,1719609056636.0
4.696000000000026,6.782061767578125,0.0907684326171875,6.3765197753906255,1719609056646.0
4.706000000000017,7.166220092773438,0.382513427734375,6.800305175781251,1719609056656.0
4.716000000000008,6.930551147460938,0.634930419921875,7.696923828125,1719609056666.0
4.725999999999999,6.683966064453125,0.7547088623046876,6.790585327148438,1719609056676.0
4.73599999999999,6.857876586914063,0.59156494140625,6.67589111328125,1719609056686.0
4.746000000000038,7.042553710937501,0.2308837890625,7.082479858398438,1719609056696.0
4.756000000000029,7.748663330078125,0.241650390625,7.306185913085938,1719609056706.0
4.7660000000000196,6.435586547851563,0.2355194091796875,6.611740112304688,1719609056716.0
4.7760000000000105,6.719555664062501,0.176751708984375,6.122158813476563,1719609056726.0
4.786000000000001,7.033432006835938,-0.133087158203125,7.6475769042968755,1719609056736.0
4.795999999999992,7.372280883789063,-0.2763427734375,6.979299926757813,1719609056746.0
4.80600000000004,7.222296142578125,0.1111053466796875,7.28599853515625,1719609056756.0
4.819000000000017,6.353341674804688,0.4370941162109375,6.04185791015625,1719609056769.0
4.826000000000022,7.115377807617188,0.67291259765625,6.719256591796875,1719609056776.0
4.836999999999989,7.258782958984376,0.5206848144531251,7.87576904296875,1719609056787.0
4.847000000000037,7.281811523437501,0.32060546875,6.161935424804688,1719609056797.0
4.857000000000028,6.677386474609375,0.2986236572265625,7.014739990234376,1719609056807.0
4.867000000000019,6.594393920898438,0.3327178955078125,6.650918579101563,1719609056817.0
4.8770000000000095,7.216464233398438,0.1878173828125,7.578341674804688,1719609056827.0
4.8870000000000005,7.0284973144531255,-0.0895721435546875,7.505517578125,1719609056837.0
4.896999999999991,7.165621948242188,-0.1398162841796875,5.5590057373046875,1719609056847.0
4.907000000000039,6.747817993164063,0.0251220703125,6.999038696289063,1719609056857.0
4.91900000000004,7.322036743164063,0.246734619140625,6.463998413085938,1719609056869.0
4.927000000000021,7.1191162109375,0.3093902587890625,7.933489990234375,1719609056877.0
4.937000000000012,6.821987915039063,0.2938385009765625,6.516635131835938,1719609056887.0
4.947000000000003,6.848904418945313,0.351708984375,6.230572509765626,1719609056897.0
4.956999999999994,6.923223876953125,0.3856536865234375,7.290335083007813,1719609056907.0
4.967000000000041,7.206744384765625,0.4215423583984375,7.184463500976563,1719609056917.0
4.977000000000032,6.7922302246093755,0.2851654052734375,7.311868286132813,1719609056927.0
4.987000000000023,6.907073974609376,0.1673309326171875,6.205001831054688,1719609056937.0
4.997000000000014,6.961804199218751,0.082843017578125,6.685910034179688,1719609056947.0
5.007000000000005,7.257437133789063,0.0192901611328125,7.163229370117188,1719609056957.0
5.0190000000000055,7.203753662109375,0.019439697265625,6.9253173828125005,1719609056969.0
5.02800000000002,6.885391235351563,-0.023626708984375,6.6262451171875005,1719609056978.0
5.038000000000011,6.86131591796875,0.082843017578125,6.383099365234376,1719609056988.0
5.048000000000002,7.094741821289063,0.2145843505859375,7.236053466796876,1719609056998.0
5.058,7.174893188476563,0.378924560546875,7.280615234375,1719609057008.0
5.0680000000000405,6.766958618164063,0.421392822265625,6.7533508300781255,1719609057018.0
5.078000000000031,6.781015014648438,0.464459228515625,6.6352172851562505,1719609057028.0
5.088000000000022,7.028198242187501,0.4197479248046875,6.824530029296875,1719609057038.0
5.098000000000013,7.211679077148438,0.1748077392578125,7.121807861328126,1719609057048.0
5.108000000000004,6.878811645507813,-0.2050140380859375,6.33494873046875,1719609057058.0
5.119000000000028,7.552322387695313,-0.318212890625,6.306088256835938,1719609057069.0
5.128000000000043,6.507363891601563,-0.544012451171875,7.130331420898438,1719609057078.0
5.138000000000034,7.519125366210938,-0.0853851318359375,7.397402954101563,1719609057088.0
5.149000000000001,7.1645751953125005,0.640911865234375,7.940368652343751,1719609057099.0
5.1580000000000155,5.778973388671876,1.0638000488281252,5.921331787109375,1719609057108.0
5.168000000000006,6.933541870117188,1.1819335937500002,6.633273315429688,1719609057118.0
5.177999999999997,7.503723144531251,0.7750457763671875,7.811917114257813,1719609057128.0
5.187999999999988,7.710980224609376,0.4335052490234375,6.648974609375,1719609057138.0
5.199000000000012,6.320144653320313,0.21533203125,6.88883056640625,1719609057149.0
5.209000000000003,6.664825439453126,-0.0994415283203125,5.579193115234375,1719609057159.0
5.218999999999994,7.045843505859375,-0.6252105712890625,8.222393798828126,1719609057169.0
5.229000000000042,7.738494873046876,-0.823345947265625,7.119564819335938,1719609057179.0
5.239000000000026,6.885092163085938,-0.5700317382812501,6.6980224609375005,1719609057189.0
5.249000000000024,6.544747924804688,0.3381011962890625,5.937033081054688,1719609057199.0
5.2590000000000146,7.0000854492187505,1.0134063720703126,7.012796020507813,1719609057209.0
5.2690000000000055,7.315158081054688,1.0772583007812502,8.2783203125,1719609057219.0
5.278999999999996,7.022964477539063,1.0376312255859377,6.1919921875,1719609057229.0
5.288999999999987,6.538616943359376,0.9380401611328124,6.5592529296875,1719609057239.0
5.299000000000035,6.848007202148438,0.5755645751953126,6.620114135742188,1719609057249.0
5.309000000000026,7.142593383789063,-0.0931610107421875,8.108297729492188,1719609057259.0
5.319000000000017,7.054516601562501,-0.5208343505859375,7.302746582031251,1719609057269.0
5.329000000000008,6.749313354492188,-0.7167266845703125,5.8755737304687505,1719609057279.0
5.338999999999999,7.111788940429688,-0.621771240234375,6.267059326171876,1719609057289.0
5.3489999999999895,7.559500122070313,-0.2824737548828125,7.078442382812501,1719609057299.0
5.360000000000014,7.37392578125,0.2117431640625,7.265362548828126,1719609057310.0
5.3700000000000045,6.658843994140626,0.7596435546875,6.297714233398438,1719609057320.0
5.3799999999999955,6.6456848144531255,1.059912109375,6.542355346679688,1719609057330.0
5.389999999999986,6.840829467773438,0.96121826171875,7.551724243164063,1719609057340.0
5.400000000000034,7.137509155273438,0.73212890625,7.719204711914063,1719609057350.0
5.410000000000032,6.657348632812501,0.38221435546875,6.8565307617187505,1719609057360.0
5.420000000000016,6.800155639648438,-0.018841552734375,6.196029663085938,1719609057370.0
5.430000000000007,7.127041625976563,-0.37025146484375,6.917541503906251,1719609057380.0
5.439999999999998,7.560247802734375,-0.5196380615234375,7.167416381835938,1719609057390.0
5.449999999999989,7.1496215820312505,-0.3709991455078125,6.563739013671875,1719609057400.0
5.460000000000036,6.859820556640625,-0.122918701171875,6.15849609375,1719609057410.0
5.470000000000027,7.064236450195313,0.14534912109375,6.537719726562501,1719609057420.0
5.480000000000018,7.209286499023438,0.4481597900390625,7.493106079101563,1719609057430.0
5.490000000000009,6.904980468750001,0.7008758544921876,7.108798217773438,1719609057440.0
5.5,6.244329833984375,0.712689208984375,6.511849975585938,1719609057450.0
5.509999999999991,7.091152954101563,0.4338043212890625,6.725836181640625,1719609057460.0
5.521000000000015,7.129583740234375,0.0785064697265625,7.827169799804688,1719609057471.0
5.53000000000003,7.686007690429688,0.046954345703125,6.579290771484375,1719609057480.0
5.5400000000000205,6.843222045898438,0.1610504150390625,6.893316650390625,1719609057490.0
5.550999999999988,6.38638916015625,0.1601531982421875,5.81695556640625,1719609057501.0
5.5610000000000355,7.345364379882813,0.1626953125,7.452731323242188,1719609057511.0
5.571000000000026,6.945504760742188,0.02093505859375,7.921826171875001,1719609057521.0
5.581000000000017,7.47142333984375,0.164788818359375,6.189151000976563,1719609057531.0
5.591000000000008,6.250161743164063,0.3031097412109375,7.024459838867188,1719609057541.0
5.600999999999999,6.92711181640625,0.6709686279296876,6.23326416015625,1719609057551.0
5.61099999999999,7.363009643554688,0.659454345703125,7.946798706054688,1719609057561.0
5.621000000000038,7.330560302734376,0.2337249755859375,6.531887817382813,1719609057571.0
5.631000000000029,6.819296264648438,0.0043365478515625,6.275881958007813,1719609057581.0
5.6410000000000196,6.731668090820313,0.1807891845703125,6.9327941894531255,1719609057591.0
5.6510000000000105,6.845465087890625,0.2954833984375,7.289886474609376,1719609057601.0
5.661000000000001,7.217062377929688,0.0538330078125,7.80399169921875,1719609057611.0
5.670999999999992,6.979898071289063,-0.1973876953125,6.244778442382813,1719609057621.0
5.68100000000004,7.012347412109375,-0.004486083984375,6.073110961914063,1719609057631.0
5.691000000000031,7.100723266601563,0.33436279296875,6.706695556640626,1719609057641.0
5.701000000000022,7.296914672851563,0.4188507080078125,7.5608459472656255,1719609057651.0
5.711000000000013,6.900045776367188,0.3413909912109375,7.156649780273438,1719609057661.0
5.722000000000037,6.55985107421875,0.3398956298828125,6.247320556640625,1719609057672.0
5.732000000000028,6.838137817382813,0.4643096923828125,7.070965576171876,1719609057682.0
5.742000000000019,7.010702514648438,0.444720458984375,7.397702026367188,1719609057692.0
5.7520000000000095,7.234408569335938,0.235968017578125,7.30693359375,1719609057702.0
5.7620000000000005,6.907971191406251,0.061309814453125,6.275283813476563,1719609057712.0
5.771999999999991,6.9420654296875,-0.0055328369140625,6.099578857421875,1719609057722.0
5.782000000000039,7.141397094726563,-0.0079254150390625,7.09818115234375,1719609057732.0
5.79200000000003,7.338635253906251,-0.0148040771484375,7.411309814453125,1719609057742.0
5.802000000000021,6.861166381835938,-0.0420196533203125,6.692190551757813,1719609057752.0
5.812000000000012,6.764566040039063,0.093609619140625,6.324331665039063,1719609057762.0
5.822000000000003,6.9208312988281255,0.3768310546875,7.060647583007813,1719609057772.0
5.831999999999994,7.207492065429688,0.596051025390625,7.519125366210938,1719609057782.0
5.842000000000041,6.898999023437501,0.6002380371093751,7.060498046875001,1719609057792.0
5.852000000000032,6.8080810546875,0.4840484619140625,6.356930541992188,1719609057802.0
5.862000000000023,6.944458007812501,0.32060546875,6.517233276367188,1719609057812.0
5.872000000000014,7.259979248046876,0.110955810546875,7.157846069335938,1719609057822.0
5.883000000000038,7.096087646484375,-0.192303466796875,6.930551147460938,1719609057833.0
5.893000000000029,6.840679931640626,-0.56046142578125,6.132925415039063,1719609057843.0
5.90300000000002,7.456918334960938,-0.54730224609375,6.2135253906250005,1719609057853.0
5.913000000000011,6.690994262695313,-0.46475830078125,7.563238525390625,1719609057863.0
5.923000000000002,7.520022583007813,0.2432952880859375,7.364505004882813,1719609057873.0
5.933,6.903634643554688,1.0419677734375,7.7193542480468755,1719609057883.0
5.9430000000000405,5.715719604492188,1.43076171875,6.051278686523438,1719609057893.0
5.953000000000031,7.1095458984375,1.49117431640625,6.728228759765625,1719609057903.0
5.963000000000022,7.495947265625,0.8145233154296876,8.114129638671876,1719609057913.0
5.973000000000013,7.592547607421875,0.20755615234375,5.9981933593750005,1719609057923.0
5.983000000000004,6.397006225585938,-0.2259490966796875,6.99649658203125,1719609057933.0
5.992999999999995,6.771893310546876,-0.5181427001953125,5.797515869140625,1719609057943.0
6.003000000000043,7.2169128417968755,-0.9069366455078126,8.131924438476563,1719609057953.0
6.013000000000034,7.538265991210938,-0.9341522216796876,7.219006347656251,1719609057963.0
6.023000000000025,6.766958618164063,-0.3500640869140625,6.239096069335938,1719609057973.0
6.0330000000000155,6.606506347656251,0.6593048095703126,6.336294555664063,1719609057983.0
6.043000000000006,7.145733642578126,1.386199951171875,7.0539184570312505,1719609057993.0
6.052999999999997,7.220651245117188,1.3965179443359377,8.094091796875,1719609058003.0
6.062999999999988,6.8505493164062505,1.1892608642578126,6.266012573242188,1719609058013.0
6.074000000000012,6.619964599609376,0.8764312744140625,6.4004455566406255,1719609058024.0
6.084000000000003,6.931149291992188,0.29010009765625,7.032086181640626,1719609058034.0
6.093999999999994,7.07425537109375,-0.4116729736328125,7.924816894531251,1719609058044.0
6.104000000000042,6.929055786132813,-0.7965789794921876,7.148275756835938,1719609058054.0
6.114000000000026,6.851895141601563,-0.9060394287109376,5.83489990234375,1719609058064.0
6.124000000000024,7.2513061523437505,-0.6183319091796875,6.369192504882813,1719609058074.0
6.1340000000000146,7.69632568359375,-0.1280029296875,6.945953369140626,1719609058084.0
6.1440000000000055,7.269848632812501,0.4936187744140625,7.053021240234376,1719609058094.0
6.153999999999996,6.560000610351563,1.0172943115234376,6.265563964843751,1719609058104.0
6.163999999999987,6.57181396484375,1.320404052734375,6.960906982421876,1719609058114.0
6.174000000000035,6.834848022460938,1.0099670410156252,7.845562744140626,1719609058124.0
6.184000000000026,7.042703247070313,0.6794921875000001,7.422525024414063,1719609058134.0
6.194000000000017,6.610693359375,0.1984344482421875,6.775930786132813,1719609058144.0
6.204000000000008,6.9552246093750005,-0.268865966796875,6.151617431640625,1719609058154.0
6.213999999999999,7.2243896484375005,-0.5668914794921875,7.073059082031251,1719609058164.0
6.2239999999999895,7.470825195312501,-0.59156494140625,7.09219970703125,1719609058174.0
6.234000000000037,7.045544433593751,-0.37025146484375,6.239395141601563,1719609058184.0
6.2450000000000045,7.0916015625,-0.0945068359375,6.276480102539063,1719609058195.0
6.254000000000019,7.148574829101563,0.2570526123046875,6.620562744140625,1719609058204.0
6.26400000000001,7.027151489257813,0.6107055664062501,7.416842651367188,1719609058214.0
6.275000000000034,6.450091552734375,0.8892913818359376,7.267605590820313,1719609058225.0
6.285000000000032,6.601123046875,0.781475830078125,6.617721557617188,1719609058235.0
6.295000000000016,7.05272216796875,0.3958221435546875,7.388580322265626,1719609058245.0
6.305000000000007,7.417739868164063,0.1054229736328125,6.836193847656251,1719609058255.0
6.314999999999998,7.590304565429688,0.1404144287109375,7.080685424804688,1719609058265.0
6.324999999999989,6.205450439453125,0.161798095703125,5.830264282226563,1719609058275.0
6.335000000000036,6.925616455078125,0.03648681640625,6.755145263671875,1719609058285.0
6.345000000000027,7.196127319335938,-0.2403045654296875,8.090203857421876,1719609058295.0
6.355000000000018,7.441815185546876,-0.2373138427734375,6.526205444335938,1719609058305.0
6.365000000000009,6.686807250976563,0.1691253662109375,7.2411376953125,1719609058315.0
6.375,6.440670776367188,0.63642578125,5.789889526367188,1719609058325.0
6.384999999999991,7.387982177734376,0.83082275390625,7.643838500976563,1719609058335.0
6.395000000000039,7.29556884765625,0.551788330078125,7.347906494140625,1719609058345.0
6.40500000000003,7.080535888671876,0.2983245849609375,5.931201171875,1719609058355.0
6.4150000000000205,6.611889648437501,0.2989227294921875,6.983786010742188,1719609058365.0
6.425000000000011,6.7578369140625005,0.3043060302734375,6.912158203125,1719609058375.0
6.4360000000000355,7.166519165039063,0.0136077880859375,8.077642822265625,1719609058386.0
6.446000000000026,6.972271728515626,-0.245538330078125,6.846212768554688,1719609058396.0
6.456000000000017,7.108798217773438,-0.248828125,5.551678466796876,1719609058406.0
6.466000000000008,6.986328125000001,0.0399261474609375,6.915447998046876,1719609058416.0
6.475999999999999,7.464544677734375,0.3096893310546875,6.890176391601563,1719609058426.0
6.48599999999999,6.981243896484376,0.386102294921875,7.643688964843751,1719609058436.0
6.496000000000038,6.665722656250001,0.4314117431640625,6.234310913085938,1719609058446.0
6.506000000000029,6.814810180664063,0.4804595947265625,6.658395385742188,1719609058456.0
6.5160000000000196,6.98094482421875,0.50064697265625,7.521966552734376,1719609058466.0
6.528999999999996,7.113583374023438,0.44202880859375,7.378860473632813,1719609058479.0
6.536000000000001,6.765014648437501,0.2555572509765625,6.813613891601563,1719609058486.0
6.545999999999992,6.88524169921875,0.0740203857421875,6.146832275390626,1719609058496.0
6.55600000000004,7.130929565429688,-0.035888671875,6.992758178710938,1719609058506.0
6.566000000000031,7.3822998046875,-0.0737213134765625,7.090405273437501,1719609058516.0
6.576000000000022,7.0898071289062505,-0.1160400390625,6.680825805664063,1719609058526.0
6.586000000000013,6.864605712890626,-0.1160400390625,6.329864501953126,1719609058536.0
6.596000000000004,6.99649658203125,0.0880767822265625,6.755145263671875,1719609058546.0
6.607000000000028,7.034179687500001,0.3928314208984375,7.487722778320313,1719609058557.0
6.616000000000042,6.920233154296875,0.557769775390625,7.249960327148438,1719609058566.0
6.629000000000019,6.762472534179688,0.6186309814453126,6.720153808593751,1719609058579.0
6.6370000000000005,6.855484008789063,0.5701812744140625,6.642245483398438,1719609058587.0
6.646999999999991,7.070217895507813,0.4705902099609375,7.017880249023438,1719609058597.0
6.657000000000039,7.216464233398438,0.234771728515625,6.967935180664063,1719609058607.0
6.66700000000003,7.051376342773438,-0.213836669921875,6.433642578125,1719609058617.0
6.677000000000021,6.853390502929688,-0.5956024169921875,6.096737670898438,1719609058627.0
6.687000000000012,7.549630737304688,-0.5689849853515625,6.860269165039063,1719609058637.0
6.697000000000003,6.786697387695313,-0.5241241455078125,7.424768066406251,1719609058647.0
6.706999999999994,7.491909790039063,0.124114990234375,7.310223388671876,1719609058657.0
6.717000000000041,6.500784301757813,0.91097412109375,7.238446044921876,1719609058667.0
6.729000000000042,6.03946533203125,1.46485595703125,6.237899780273438,1719609058679.0
6.737000000000023,7.296017456054688,1.5705780029296876,7.500433349609375,1719609058687.0
6.747000000000014,7.484582519531251,0.829327392578125,7.208987426757813,1719609058697.0
6.757000000000005,7.326522827148438,0.221612548828125,6.175543212890625,1719609058707.0
6.766999999999996,6.447250366210938,-0.0533843994140625,6.682620239257813,1719609058717.0
6.776999999999987,6.898251342773438,-0.3931304931640625,6.5155883789062505,1719609058727.0
6.787000000000035,7.09818115234375,-0.9573303222656252,8.07435302734375,1719609058737.0
6.798000000000002,7.5593505859375005,-1.1055206298828126,6.884643554687501,1719609058748.0
6.808,6.687106323242188,-0.432757568359375,6.060549926757813,1719609058758.0
6.8180000000000405,6.8026977539062505,0.7034179687500001,6.621609497070313,1719609058768.0
6.829000000000008,7.195230102539063,1.3809661865234375,7.220950317382813,1719609058779.0
6.838000000000022,7.129434204101563,1.271356201171875,7.81236572265625,1719609058788.0
6.848000000000013,6.826324462890626,1.194644165039063,5.958865356445313,1719609058798.0
6.858000000000004,6.527700805664063,1.0343414306640626,6.786398315429688,1719609058808.0
6.867999999999995,6.984982299804688,0.3757843017578125,7.21781005859375,1719609058818.0
6.878000000000043,7.093545532226563,-0.3923828125,8.019024658203126,1719609058828.0
6.888000000000034,6.8864379882812505,-0.8327667236328126,6.679031372070313,1719609058838.0
6.898000000000025,6.855184936523438,-0.8907867431640626,5.756094360351563,1719609058848.0
6.9080000000000155,7.377066040039063,-0.6072662353515625,6.710733032226563,1719609058858.0
6.918000000000006,7.709335327148438,-0.1786956787109375,7.165621948242188,1719609058868.0
6.9290000000000305,7.118667602539063,0.391485595703125,6.629684448242188,1719609058879.0
6.937999999999988,6.577346801757813,0.9375915527343752,6.1884033203125,1719609058888.0
6.948000000000036,6.742733764648438,1.2190185546875,7.03238525390625,1719609058898.0
6.959000000000003,6.957916259765626,1.0325469970703125,7.976107788085938,1719609058909.0
6.968000000000018,6.857128906250001,0.6941467285156251,7.3948608398437505,1719609058918.0
6.978000000000009,6.567178344726563,0.276641845703125,6.534579467773438,1719609058928.0
6.989000000000026,6.859222412109376,-0.1232177734375,6.524859619140625,1719609058939.0
6.999000000000024,7.324279785156251,-0.4305145263671875,7.1421447753906255,1719609058949.0
7.0090000000000146,7.412805175781251,-0.5490966796875001,7.118069458007813,1719609058959.0
7.0190000000000055,7.262371826171876,-0.41630859375,5.9074249267578125,1719609058969.0
7.028999999999996,6.928158569335938,-0.1710693359375,6.212628173828126,1719609058979.0
7.038999999999987,7.111938476562501,0.219219970703125,6.926364135742188,1719609058989.0
7.049000000000035,7.089059448242188,0.6051727294921876,7.591949462890626,1719609058999.0
7.059000000000026,6.544598388671876,0.720166015625,6.957318115234376,1719609059009.0
7.069000000000017,6.562094116210938,0.5872283935546876,6.329864501953126,1719609059019.0
7.079000000000008,7.157247924804688,0.36845703125,7.330859375,1719609059029.0
7.088999999999999,7.281661987304688,0.2332763671875,7.321289062500001,1719609059039.0
7.0989999999999895,7.603314208984376,0.33795166015625,7.079040527343751,1719609059049.0
7.109000000000037,6.109597778320313,0.2193695068359375,5.943014526367188,1719609059059.0
7.119000000000028,6.920083618164063,0.1069183349609375,6.4755126953125,1719609059069.0
7.129000000000019,7.2291748046875,-0.0632537841796875,8.206094360351564,1719609059079.0
7.139999999999986,7.475759887695313,-0.1435546875,6.51439208984375,1719609059090.0
7.149000000000001,6.769650268554688,0.062506103515625,7.31351318359375,1719609059099.0
7.160000000000032,6.393118286132813,0.3935791015625,5.6143341064453125,1719609059110.0
7.170000000000016,7.352392578125,0.7170257568359375,7.608847045898438,1719609059120.0
7.180000000000007,7.201660156250001,0.4948150634765625,7.54918212890625,1719609059130.0
7.189999999999998,7.285549926757813,0.2959320068359375,5.9836883544921875,1719609059140.0
7.199999999999989,6.499887084960938,0.2947357177734375,6.969281005859376,1719609059150.0
7.210000000000036,6.723144531250001,0.4729827880859375,6.641049194335938,1719609059160.0
7.220000000000027,7.191192626953126,0.2624359130859375,8.109643554687501,1719609059170.0
7.230000000000018,7.069320678710938,-0.1362274169921875,7.068722534179688,1719609059180.0
7.240000000000009,7.132424926757813,-0.292791748046875,5.4224792480468755,1719609059190.0
7.25,6.794024658203125,-0.0593658447265625,7.00487060546875,1719609059200.0
7.259999999999991,7.397552490234376,0.2519683837890625,6.683666992187501,1719609059210.0
7.270000000000039,7.0284973144531255,0.2875579833984375,8.031884765625001,1719609059220.0
7.28000000000003,6.780865478515626,0.32718505859375,6.294125366210938,1719609059230.0
7.2900000000000205,6.761126708984375,0.4143646240234375,6.309527587890625,1719609059240.0
7.300000000000011,6.943411254882813,0.5580688476562501,7.33145751953125,1719609059250.0
7.310000000000002,7.266857910156251,0.5387786865234375,7.410113525390625,1719609059260.0
7.32,6.826324462890626,0.290399169921875,7.152911376953125,1719609059270.0
7.331000000000017,6.832156372070313,0.1182830810546875,5.858227539062501,1719609059281.0
7.341000000000008,6.951336669921876,-0.0275146484375,6.9357849121093755,1719609059291.0
7.350999999999999,7.335644531250001,-0.081048583984375,7.165472412109375,1719609059301.0
7.36099999999999,7.128387451171876,-0.1565643310546875,7.090106201171875,1719609059311.0
7.371000000000038,6.9994873046875,-0.1487884521484375,6.269451904296876,1719609059321.0
7.381000000000029,6.775930786132813,0.0704315185546875,6.370986938476563,1719609059331.0
7.3910000000000196,7.1550048828125,0.385504150390625,7.439273071289063,1719609059341.0
7.401000000000011,7.0045715332031255,0.6642395019531251,7.619763183593751,1719609059351.0
7.411000000000001,6.736453247070313,0.666632080078125,6.679330444335938,1719609059361.0
7.420999999999992,6.756640625,0.5435638427734375,6.408071899414063,1719609059371.0
7.43100000000004,7.189398193359375,0.3144744873046875,6.789987182617188,1719609059381.0
7.441000000000031,7.242034912109376,-0.0001495361328125,7.068572998046876,1719609059391.0
7.451000000000022,7.085171508789063,-0.407635498046875,6.2628723144531255,1719609059401.0
7.461000000000013,7.321737670898438,-0.6002380371093751,6.360968017578125,1719609059411.0
7.471000000000004,6.480746459960938,-0.7977752685546876,6.963299560546876,1719609059421.0
7.480999999999995,7.763916015625001,-0.0898712158203125,7.8847412109375,1719609059431.0
7.491000000000042,6.912008666992188,0.8662628173828125,7.704550170898438,1719609059441.0
7.501000000000026,5.674896240234375,1.4023498535156251,5.7384490966796875,1719609059451.0
7.512,6.983187866210938,1.4108734130859375,7.222445678710938,1719609059462.0
7.521999999999991,7.701409912109376,0.9562835693359376,7.318298339843751,1719609059472.0
7.532000000000039,7.565631103515625,0.5715270996093751,6.737649536132813,1719609059482.0
7.54200000000003,6.29307861328125,0.1795928955078125,6.627291870117188,1719609059492.0
7.552000000000021,6.813015747070313,-0.4358978271484375,5.851348876953125,1719609059502.0
7.562000000000012,6.923522949218751,-0.9812561035156252,8.286843872070314,1719609059512.0
7.572000000000003,7.784552001953125,-0.9993499755859376,7.085919189453126,1719609059522.0
7.581999999999994,6.744528198242188,-0.5453582763671876,6.697274780273438,1719609059532.0
7.592000000000041,6.558206176757813,0.4050933837890625,5.9024902343750005,1719609059542.0
7.602000000000032,7.265811157226563,1.17176513671875,7.022964477539063,1719609059552.0
7.612000000000023,7.231567382812501,1.305450439453125,8.108447265625001,1719609059562.0
7.622000000000014,6.996347045898438,1.3253387451171876,6.116177368164063,1719609059572.0
7.632000000000005,6.403884887695313,1.062005615234375,6.757089233398438,1719609059582.0
7.641999999999996,6.8565307617187505,0.4897308349609375,6.7279296875000005,1719609059592.0
7.651999999999987,7.132424926757813,-0.2669219970703125,8.2866943359375,1719609059602.0
7.662000000000035,6.935934448242188,-0.6856231689453125,6.963150024414063,1719609059612.0
7.672000000000033,6.843820190429688,-0.9036468505859376,5.9578186035156255,1719609059622.0
7.682000000000016,7.157546997070313,-0.699530029296875,6.380258178710938,1719609059632.0
7.69300000000004,7.717559814453126,-0.2355194091796875,6.907223510742188,1719609059643.0
7.703000000000031,7.268801879882813,0.29249267578125,7.206594848632813,1719609059653.0
7.713000000000022,6.723294067382813,0.8243927001953125,5.912210083007813,1719609059663.0
7.723000000000013,6.705200195312501,1.1264556884765626,6.896456909179688,1719609059673.0
7.733000000000004,6.886288452148438,0.9680969238281252,7.622305297851563,1719609059683.0
7.742999999999995,6.919784545898438,0.75067138671875,7.710382080078125,1719609059693.0
7.753000000000043,6.54190673828125,0.366961669921875,6.977056884765625,1719609059703.0
7.763000000000034,6.830361938476563,-0.0453094482421875,6.245376586914063,1719609059713.0
7.773000000000025,7.209735107421875,-0.38460693359375,7.063040161132813,1719609059723.0
7.783000000000016,7.599575805664063,-0.5075256347656251,6.974215698242188,1719609059733.0
7.793000000000006,7.152911376953125,-0.3552978515625,6.24283447265625,1719609059743.0
7.802999999999997,6.942364501953126,-0.1377227783203125,6.242385864257813,1719609059753.0
7.812999999999988,7.057357788085938,0.111553955078125,6.622357177734376,1719609059763.0
7.823000000000036,7.285250854492188,0.3665130615234375,7.422824096679688,1719609059773.0
7.833000000000027,6.621609497070313,0.545806884765625,7.020123291015626,1719609059783.0
7.843999999999994,6.429754638671875,0.572125244140625,6.606506347656251,1719609059794.0
7.854000000000042,7.078591918945313,0.512908935546875,7.404281616210938,1719609059804.0
7.863,7.1215087890625,0.4299163818359375,7.366448974609376,1719609059813.0
7.8729999999999905,7.518826293945313,0.4059906005859375,6.806436157226563,1719609059823.0
7.8840000000000146,6.507812500000001,0.330474853515625,6.1267944335937505,1719609059834.0
7.894000000000005,6.943411254882813,0.1818359375,6.493307495117188,1719609059844.0
7.903999999999996,7.182220458984376,-0.058319091796875,7.661483764648438,1719609059854.0
7.913999999999987,7.310073852539063,-0.2761932373046875,6.997692871093751,1719609059864.0
7.924000000000035,6.84935302734375,-0.1543212890625,7.08023681640625,1719609059874.0
7.934000000000026,6.455624389648438,0.2548095703125,6.132028198242188,1719609059884.0
7.944000000000017,7.1974731445312505,0.65018310546875,7.366448974609376,1719609059894.0
7.954000000000008,7.262969970703126,0.593658447265625,7.268502807617188,1719609059904.0
7.963999999999999,7.324429321289063,0.3835601806640625,6.132626342773438,1719609059914.0
7.973999999999989,6.680825805664063,0.398065185546875,6.748117065429688,1719609059924.0
7.985000000000014,6.766659545898438,0.5555267333984375,6.812866210937501,1719609059935.0
7.994000000000028,6.965542602539063,0.3222503662109375,7.9625,1719609059944.0
8.004000000000019,7.062142944335938,-0.1136474609375,7.167266845703126,1719609059954.0
8.01400000000001,6.979898071289063,-0.3512603759765625,5.9234252929687505,1719609059964.0
8.024000000000001,6.968234252929688,-0.13458251953125,6.613235473632813,1719609059974.0
8.035000000000032,7.358673095703126,0.13458251953125,6.747070312500001,1719609059985.0
8.045000000000016,7.147976684570313,0.203668212890625,7.686904907226563,1719609059995.0
8.055000000000007,6.845913696289063,0.2833709716796875,6.366949462890625,1719609060005.0
8.064999999999998,6.770697021484375,0.4725341796875,6.428558349609376,1719609060015.0
8.074999999999989,6.901690673828125,0.6287994384765625,7.223641967773438,1719609060025.0
8.085000000000036,7.093545532226563,0.5782562255859376,7.581481933593751,1719609060035.0
8.095000000000027,6.872531127929688,0.354400634765625,7.0748535156250005,1719609060045.0
8.105000000000018,6.802099609375,0.188116455078125,6.276031494140626,1719609060055.0
8.115000000000009,6.920681762695313,0.0650482177734375,6.682022094726563,1719609060065.0
8.125,7.330261230468751,-0.0897216796875,7.131527709960938,1719609060075.0
8.134999999999991,7.378860473632813,-0.222509765625,7.004122924804688,1719609060085.0
8.145000000000039,6.9635986328125,-0.2715576171875,6.133822631835938,1719609060095.0
8.15500000000003,6.881802368164063,-0.046356201171875,6.395510864257813,1719609060105.0
8.16500000000002,7.0314880371093755,0.3249420166015625,7.4181884765625,1719609060115.0
8.175000000000011,7.0270019531250005,0.5804992675781251,7.661633300781251,1719609060125.0
8.186000000000035,6.649722290039063,0.694744873046875,6.823782348632813,1719609060136.0
8.195,6.788192749023438,0.6461456298828125,6.378912353515625,1719609060145.0
8.205000000000041,7.151715087890626,0.4795623779296875,6.736154174804688,1719609060155.0
8.215000000000032,7.094442749023438,0.0634033203125,6.837838745117188,1719609060165.0
8.225999999999999,7.612435913085938,-0.3264373779296875,6.2853027343750005,1719609060176.0
8.238,6.779669189453125,-0.8145233154296876,6.718060302734376,1719609060188.0
8.246000000000038,6.889279174804688,-0.7502227783203126,6.806585693359375,1719609060196.0
8.256000000000029,7.5832763671875005,0.1356292724609375,8.383444213867188,1719609060206.0
8.26600000000002,6.387734985351563,0.9036468505859376,7.241436767578126,1719609060216.0
8.27600000000001,6.160739135742188,1.4512481689453125,5.49814453125,1719609060226.0
8.286000000000001,7.131976318359375,1.254608154296875,7.837338256835938,1719609060236.0
8.295999999999992,7.937377929687501,0.90858154296875,6.532785034179688,1719609060246.0
8.30600000000004,7.102218627929688,0.5615081787109375,7.311718750000001,1719609060256.0
8.316000000000031,6.327471923828125,0.18243408203125,5.9383789062500005,1719609060266.0
8.326000000000022,6.703555297851563,-0.5504425048828125,6.880905151367188,1719609060276.0
8.338000000000022,7.300054931640625,-1.08563232421875,7.802496337890625,1719609060288.0
8.346000000000004,7.694232177734375,-1.1476898193359375,7.116873168945313,1719609060296.0
8.355999999999995,6.658245849609376,-0.365765380859375,6.134869384765626,1719609060306.0
8.366000000000042,6.532785034179688,0.6820343017578125,6.282461547851563,1719609060316.0
8.376000000000026,7.4038330078125005,1.1924011230468752,7.487124633789063,1719609060326.0
8.386000000000024,7.228726196289063,1.2528137207031251,7.531536865234376,1719609060336.0
8.396999999999991,6.817501831054688,1.33924560546875,6.344219970703126,1719609060347.0
8.407000000000039,6.353042602539063,1.1494842529296876,6.4901672363281255,1719609060357.0
8.41700000000003,6.983935546875,0.380120849609375,7.355682373046876,1719609060367.0
8.427000000000021,7.209735107421875,-0.442626953125,8.036819458007812,1719609060377.0
8.437999999999988,6.987823486328126,-0.9124694824218752,6.460409545898438,1719609060388.0
8.447000000000003,6.82542724609375,-0.9203948974609376,5.857778930664063,1719609060397.0
8.456999999999994,7.223193359375,-0.6984832763671875,6.6609375,1719609060407.0
8.467000000000041,7.830459594726563,-0.201873779296875,7.27164306640625,1719609060417.0
8.477000000000032,6.984234619140626,0.3892425537109375,6.872531127929688,1719609060427.0
8.487000000000023,6.662881469726563,1.0938568115234375,5.94974365234375,1719609060437.0
8.497000000000014,6.4572692871093755,1.3696014404296877,7.225286865234375,1719609060447.0
8.507000000000005,7.050628662109376,1.164288330078125,7.997192382812501,1719609060457.0
8.516999999999996,6.853390502929688,0.8067474365234376,7.514041137695313,1719609060467.0
8.526999999999987,6.697723388671876,0.2483795166015625,6.4273620605468755,1719609060477.0
8.538000000000011,6.98154296875,-0.30325927734375,5.968884277343751,1719609060488.0
8.548000000000002,7.362411499023438,-0.7427459716796876,7.296914672851563,1719609060498.0
8.557000000000016,7.559948730468751,-0.7735504150390625,7.017880249023438,1719609060507.0
8.567000000000007,6.917990112304688,-0.4625152587890625,6.354388427734375,1719609060517.0
8.576999999999998,6.859371948242188,-0.1428070068359375,6.115429687500001,1719609060527.0
8.588000000000022,7.202557373046876,0.246136474609375,6.959561157226563,1719609060538.0
8.598000000000013,7.261325073242188,0.7239044189453125,7.534228515625,1719609060548.0
8.608000000000004,6.4396240234375,0.9344512939453126,6.491513061523438,1719609060558.0
8.617999999999995,6.7865478515625,0.8249908447265626,6.584524536132813,1719609060568.0
8.628000000000043,6.823333740234376,0.319110107421875,7.444955444335938,1719609060578.0
8.638000000000034,7.577893066406251,0.093310546875,7.318447875976563,1719609060588.0
8.648000000000025,7.273886108398438,0.2232574462890625,7.402786254882813,1719609060598.0
8.658000000000015,6.138607788085938,0.0928619384765625,5.4139556884765625,1719609060608.0
8.668000000000006,7.157546997070313,-0.0370849609375,6.754098510742188,1719609060618.0
8.677999999999997,7.2124267578125005,-0.208154296875,8.123849487304689,1719609060628.0
8.687999999999988,7.647277832031251,0.019439697265625,6.4976440429687505,1719609060638.0
8.698000000000036,6.246273803710938,0.335260009765625,7.310223388671876,1719609060648.0
8.708000000000027,6.6130859375,0.6866699218750001,5.6019226074218755,1719609060658.0
8.718000000000018,7.323831176757813,0.7659240722656251,8.127438354492188,1719609060668.0
8.728000000000009,7.399945068359376,0.4326080322265625,6.974514770507813,1719609060678.0
8.738,6.993505859375,0.24404296875,6.211730957031251,1719609060688.0
8.749000000000024,6.595291137695313,0.192303466796875,6.621160888671875,1719609060699.0
8.759000000000015,6.867596435546876,0.14415283203125,6.922177124023438,1719609060709.0
8.769000000000005,7.298709106445313,-0.090618896484375,8.184262084960938,1719609060719.0
8.778999999999996,6.944906616210938,-0.2711090087890625,6.486578369140625,1719609060729.0
8.788999999999987,6.929504394531251,-0.1655364990234375,5.911163330078125,1719609060739.0
8.799000000000035,6.972271728515626,0.2516693115234375,6.800604248046875,1719609060749.0
8.809000000000026,7.376916503906251,0.44501953125,7.249511718750001,1719609060759.0
8.819000000000017,7.011151123046876,0.5579193115234375,7.50791015625,1719609060769.0
8.829000000000008,6.54788818359375,0.5441619873046876,6.1596923828125005,1719609060779.0
8.838999999999999,6.804791259765626,0.5393768310546876,6.782809448242188,1719609060789.0
8.84899999999999,7.079489135742188,0.41571044921875,7.436880493164063,1719609060799.0
8.859000000000037,7.23814697265625,0.195294189453125,7.402038574218751,1719609060809.0
8.869000000000028,6.771444702148438,-0.01016845703125,6.522467041015625,1719609060819.0
8.879000000000019,6.887634277343751,-0.1088623046875,6.1070556640625,1719609060829.0
8.88900000000001,7.098330688476563,-0.0991424560546875,7.099227905273438,1719609060839.0
8.899000000000001,7.277774047851563,-0.03529052734375,7.331158447265626,1719609060849.0
8.908999999999992,7.044049072265626,0.0360382080078125,6.652713012695313,1719609060859.0
8.91900000000004,6.9507385253906255,0.1523773193359375,6.21591796875,1719609060869.0
8.92900000000003,6.895559692382813,0.3168670654296875,6.694583129882813,1719609060879.0
8.939999999999998,7.248165893554688,0.5351898193359376,7.473217773437501,1719609060890.0
8.949999999999989,6.836492919921875,0.5818450927734375,7.425814819335938,1719609060900.0
8.960000000000036,6.676937866210938,0.4541412353515625,6.455624389648438,1719609060910.0
8.970000000000027,6.860418701171875,0.253314208984375,6.602917480468751,1719609060920.0
8.980000000000018,7.269100952148438,0.0557769775390625,7.018927001953125,1719609060930.0
8.990000000000009,7.0135437011718755,-0.1870697021484375,6.769351196289063,1719609060940.0
9.0,7.568920898437501,-0.3120819091796875,6.182720947265626,1719609060950.0
9.009999999999993,6.618917846679688,-0.5639007568359375,6.775930786132813,1719609060960.0
9.02000000000004,7.351345825195313,-0.2201171875,6.873577880859376,1719609060970.0
9.03000000000003,7.130331420898438,0.5979949951171876,8.330508422851564,1719609060980.0
9.04000000000002,5.826077270507813,1.038677978515625,6.522766113281251,1719609060990.0
9.050000000000011,6.938626098632813,1.2103454589843752,6.596188354492188,1719609061000.0
9.060000000000002,7.031637573242188,0.7397552490234376,7.749859619140626,1719609061010.0
9.07,7.884890747070313,0.5531341552734376,6.0719146728515625,1719609061020.0
9.08000000000004,6.882101440429688,0.3381011962890625,7.259829711914063,1719609061030.0
9.090000000000032,6.6788818359375,-0.073272705078125,5.677288818359376,1719609061040.0
9.100000000000025,6.966439819335938,-0.5443115234375,7.591201782226563,1719609061050.0
9.110000000000014,7.156500244140625,-0.7031188964843751,7.454376220703126,1719609061060.0
9.121000000000038,7.127340698242188,-0.5266662597656251,6.8191467285156255,1719609061071.0
9.131000000000029,6.640750122070313,0.0829925537109375,6.682171630859376,1719609061081.0
9.14100000000002,7.059600830078126,0.7243530273437501,6.399847412109375,1719609061091.0
9.15100000000001,7.292727661132813,1.0253692626953126,7.633969116210938,1719609061101.0
9.161,7.06468505859375,1.0310516357421875,6.324032592773438,1719609061111.0
9.170999999999992,6.8834472656250005,0.8710479736328126,6.879110717773438,1719609061121.0
9.18100000000004,6.6525634765625,0.5950042724609376,6.726882934570313,1719609061131.0
9.191000000000033,6.8535400390625005,0.116937255859375,7.700363159179688,1719609061141.0
9.201000000000022,6.880007934570313,-0.2705108642578125,7.5997253417968755,1719609061151.0
9.211000000000013,6.922177124023438,-0.5179931640625001,6.419735717773438,1719609061161.0
9.221000000000004,7.1137329101562505,-0.509918212890625,6.347808837890626,1719609061171.0
9.230999999999996,7.536322021484375,-0.2630340576171875,6.362164306640626,1719609061181.0
9.241000000000042,7.410562133789063,0.091815185546875,6.955075073242188,1719609061191.0
9.251000000000026,6.808380126953126,0.447711181640625,6.571963500976563,1719609061201.0
9.261000000000024,6.842623901367188,0.7155303955078125,6.761874389648438,1719609061211.0
9.271000000000017,6.743182373046875,0.6883148193359375,7.32786865234375,1719609061221.0
9.281000000000006,6.956570434570313,0.6003875732421875,7.332205200195313,1719609061231.0
9.29200000000003,6.720153808593751,0.4990020751953125,7.264315795898438,1719609061242.0
9.30200000000002,6.833801269531251,0.2875579833984375,6.596038818359376,1719609061252.0
9.312000000000012,6.948345947265626,0.05203857421875,6.807781982421876,1719609061262.0
9.322000000000005,7.40263671875,-0.1806396484375,6.857876586914063,1719609061272.0
9.331999999999994,7.368542480468751,-0.267669677734375,6.520822143554688,1719609061282.0
9.34200000000004,6.989318847656251,-0.21593017578125,6.4752136230468755,1719609061292.0
9.352000000000032,6.898550415039063,-0.015850830078125,6.5828796386718755,1719609061302.0
9.362000000000023,6.967486572265625,0.1990325927734375,7.308428955078125,1719609061312.0
9.372000000000014,6.875372314453125,0.3844573974609375,7.222146606445313,1719609061322.0
9.382000000000003,6.427212524414063,0.4230377197265625,6.647778320312501,1719609061332.0
9.391999999999996,7.342822265625,0.43724365234375,6.7369018554687505,1719609061342.0
9.401999999999989,7.080984497070313,0.3464752197265625,7.230969238281251,1719609061352.0
9.412000000000036,7.835842895507813,0.3614288330078125,6.553271484375,1719609061362.0
9.422000000000033,6.475811767578126,0.3919342041015625,7.1765380859375005,1719609061372.0
9.432000000000016,6.335995483398438,0.459075927734375,6.165225219726563,1719609061382.0
9.442000000000007,7.2363525390625005,0.26258544921875,7.719952392578126,1719609061392.0
9.451999999999998,6.984234619140626,-0.28531494140625,7.518676757812501,1719609061402.0
9.463000000000022,7.648773193359376,-0.232977294921875,6.273489379882813,1719609061413.0
9.472000000000037,6.285003662109376,0.12979736328125,6.719107055664063,1719609061422.0
9.482000000000028,7.009655761718751,0.605023193359375,6.301303100585938,1719609061432.0
9.492999999999997,7.435833740234376,0.472235107421875,7.871282958984375,1719609061443.0
9.503000000000045,7.268203735351563,0.0988433837890625,6.627441406250001,1719609061453.0
9.513000000000034,6.695480346679688,0.27095947265625,6.235208129882813,1719609061463.0
9.523000000000025,6.490017700195313,0.62625732421875,7.253549194335938,1719609061473.0
9.533000000000015,7.0593017578125,0.5045349121093751,7.380505371093751,1719609061483.0
9.543000000000006,7.280316162109376,0.0354400634765625,7.80040283203125,1719609061493.0
9.552999999999995,7.117321777343751,-0.181536865234375,5.5814361572265625,1719609061503.0
9.562999999999988,6.759033203125001,-0.011962890625,6.252703857421875,1719609061513.0
9.573000000000036,7.245025634765626,0.189013671875,6.9001953125,1719609061523.0
9.583000000000029,7.336990356445313,0.10467529296875,7.993304443359375,1719609061533.0
9.593000000000018,6.6609375,0.10228271484375,6.911709594726563,1719609061543.0
9.603000000000009,6.6471801757812505,0.331072998046875,5.747271728515625,1719609061553.0
9.613,7.00546875,0.473431396484375,7.328915405273438,1719609061563.0
9.62299999999999,7.321139526367188,0.4831512451171875,7.353289794921875,1719609061573.0
9.633000000000038,7.075900268554688,0.3686065673828125,7.186557006835938,1719609061583.0
9.644000000000004,6.690246582031251,0.26497802734375,6.0569610595703125,1719609061594.0
9.653999999999996,6.830212402343751,0.1727142333984375,6.562094116210938,1719609061604.0
9.663999999999987,7.181472778320313,0.0394775390625,7.601669311523438,1719609061614.0
9.674000000000037,7.326672363281251,-0.088525390625,7.180874633789063,1719609061624.0
9.684000000000026,6.811968994140625,-0.1184326171875,6.379061889648438,1719609061634.0
9.694000000000017,6.801052856445313,0.0064300537109375,6.0950927734375,1719609061644.0
9.704000000000008,7.097433471679688,0.28292236328125,7.424319458007813,1719609061654.0
9.714,7.262521362304688,0.480010986328125,7.610641479492188,1719609061664.0
9.72399999999999,6.8520446777343755,0.5088714599609375,6.557608032226563,1719609061674.0
9.734000000000036,6.702957153320313,0.414215087890625,6.240292358398438,1719609061684.0
9.744000000000028,7.089657592773438,0.3494659423828125,6.847259521484376,1719609061694.0
9.75400000000002,7.186706542968751,0.226995849609375,7.422525024414063,1719609061704.0
9.76400000000001,6.928009033203126,-0.11484375,6.7473693847656255,1719609061714.0
9.774,7.1406494140625005,-0.38819580078125,6.006417846679688,1719609061724.0
9.783999999999992,7.022665405273438,-0.557171630859375,6.7087890625,1719609061734.0
9.79400000000004,7.149172973632813,-0.32239990234375,7.240240478515625,1719609061744.0
9.805000000000009,7.5378173828125,0.483599853515625,8.107400512695314,1719609061755.0
9.81400000000002,5.916845703125,0.9914245605468752,6.632525634765625,1719609061764.0
9.824999999999989,6.405529785156251,1.304852294921875,5.906527709960938,1719609061775.0
9.835000000000036,7.403384399414063,0.9936676025390626,8.390023803710939,1719609061785.0
9.845000000000027,7.721148681640625,0.5800506591796876,6.255245971679688,1719609061795.0
9.855000000000018,6.949542236328125,0.25301513671875,6.979000854492188,1719609061805.0
9.865000000000007,6.4468017578125005,-0.0677398681640625,5.72125244140625,1719609061815.0
9.875,7.036273193359375,-0.5160491943359375,7.281063842773438,1719609061825.0
9.884999999999993,7.264016723632813,-0.8049530029296875,8.064782714843751,1719609061835.0
9.89500000000004,7.320541381835938,-0.6600524902343751,6.572711181640625,1719609061845.0
9.90500000000003,6.477905273437501,-0.02572021484375,6.319546508789063,1719609061855.0
9.91500000000002,6.909466552734376,0.7908966064453126,6.4856811523437505,1719609061865.0
9.925000000000011,7.440917968750001,1.1352783203125,7.719802856445313,1719609061875.0
9.935000000000002,7.00487060546875,1.1206237792968752,7.079040527343751,1719609061885.0
9.948000000000036,6.795819091796876,1.00069580078125,6.1432434082031255,1719609061898.0
9.95500000000004,6.591552734375001,0.6838287353515625,6.8789611816406255,1719609061905.0
9.965000000000032,7.126293945312501,0.1064697265625,7.3703369140625,1719609061915.0
9.975000000000025,6.978103637695313,-0.4239349365234375,8.014389038085938,1719609061925.0
9.985000000000014,6.813015747070313,-0.5800506591796876,6.2302734375,1719609061935.0
9.995000000000005,6.891372680664063,-0.6015838623046875,6.2090393066406255,1719609061945.0
10.006000000000029,7.556060791015626,-0.33197021484375,6.657049560546875,1719609061956.0
10.01600000000002,7.626043701171875,0.0650482177734375,7.1780334472656255,1719609061966.0
10.02600000000001,6.80509033203125,0.5247222900390626,6.473568725585938,1719609061976.0
10.036,6.703256225585938,0.9319091796875,6.3211914062500005,1719609061986.0
10.048000000000002,6.784454345703126,0.8840576171875001,7.478900146484375,1719609061998.0
10.05600000000004,7.0673767089843755,0.6841278076171875,7.595687866210938,1719609062006.0
10.066000000000033,6.779818725585938,0.4559356689453125,7.221249389648438,1719609062016.0
10.076000000000022,6.698620605468751,0.1377227783203125,6.308929443359376,1719609062026.0
10.086000000000013,6.909616088867188,-0.1359283447265625,6.793426513671876,1719609062036.0
10.096000000000004,7.507012939453125,-0.3180633544921875,7.210183715820313,1719609062046.0
10.105999999999996,7.282260131835938,-0.327783203125,6.712826538085938,1719609062056.0
10.116000000000042,7.0284973144531255,-0.198883056640625,6.049185180664063,1719609062066.0
10.126000000000026,6.933242797851563,0.0474029541015625,6.548336791992188,1719609062076.0
10.136000000000024,7.0643859863281255,0.32838134765625,7.306335449218751,1719609062086.0
10.148000000000025,7.007113647460938,0.58917236328125,7.405029296875001,1719609062098.0
10.15700000000004,6.494503784179688,0.5695831298828126,6.622805786132813,1719609062107.0
10.165999999999997,6.728378295898438,0.4056915283203125,6.518429565429688,1719609062116.0
10.175999999999988,7.424319458007813,0.250921630859375,7.075451660156251,1719609062126.0
10.186000000000035,7.1735473632812505,0.0291595458984375,7.3335510253906255,1719609062136.0
10.197000000000005,7.643838500976563,0.0611602783203125,6.563739013671875,1719609062147.0
10.206999999999994,6.238497924804688,0.186920166015625,6.725238037109375,1719609062157.0
10.21700000000004,6.530990600585938,0.376531982421875,6.459063720703125,1719609062167.0
10.227000000000032,7.368093872070313,0.3760833740234375,8.057754516601562,1719609062177.0
10.237000000000023,7.237249755859375,-0.024822998046875,6.892120361328126,1719609062187.0
10.24799999999999,7.124948120117188,0.1057220458984375,6.505270385742188,1719609062198.0
10.257000000000003,6.348706054687501,0.5010955810546875,6.330014038085938,1719609062207.0
10.266999999999996,7.22080078125,0.70880126953125,7.028347778320313,1719609062217.0
10.276999999999989,7.374822998046875,0.222210693359375,7.793075561523438,1719609062227.0
10.287000000000036,7.068423461914063,-0.1281524658203125,6.336892700195313,1719609062237.0
10.297000000000033,6.586767578125,0.1263580322265625,6.444708251953125,1719609062247.0
10.307000000000016,6.639254760742188,0.4556365966796875,7.0240112304687505,1719609062257.0
10.317000000000007,7.409963989257813,0.2420989990234375,7.653857421875,1719609062267.0
10.326999999999998,7.156051635742188,-0.0563751220703125,7.417141723632813,1719609062277.0
10.336999999999987,6.942214965820313,0.051739501953125,5.184268188476563,1719609062287.0
10.348000000000011,6.721051025390626,0.3288299560546875,6.832305908203126,1719609062298.0
10.358000000000004,7.409963989257813,0.38341064453125,7.223492431640626,1719609062308.0
10.367999999999997,7.090106201171875,0.1846771240234375,7.921377563476563,1719609062318.0
10.378000000000045,6.608450317382813,0.1780975341796875,6.348706054687501,1719609062328.0
10.388000000000034,6.681124877929688,0.33914794921875,6.075054931640626,1719609062338.0
10.398000000000025,7.088760375976563,0.3158203125,7.521817016601563,1719609062348.0
10.408000000000015,7.472021484375,0.2633331298828125,7.427609252929688,1719609062358.0
10.418000000000006,6.828567504882813,0.16090087890625,6.795370483398438,1719609062368.0
10.427999999999995,6.755444335937501,0.1981353759765625,5.586370849609375,1719609062378.0
10.437999999999988,6.947448730468751,0.130694580078125,7.286447143554688,1719609062388.0
10.448000000000036,7.43314208984375,0.063104248046875,7.456918334960938,1719609062398.0
10.458000000000029,7.079040527343751,0.0273651123046875,6.935336303710938,1719609062408.0
10.468000000000018,6.731817626953125,-0.0318511962890625,6.138607788085938,1719609062418.0
10.478000000000009,6.8224365234375,0.1682281494140625,6.5933471679687505,1719609062428.0
10.488,7.2019592285156255,0.3925323486328125,7.808776855468751,1719609062438.0
10.49799999999999,7.064535522460938,0.51141357421875,7.283905029296876,1719609062448.0
10.508000000000038,6.765911865234376,0.4122711181640625,6.334799194335938,1719609062458.0
10.518000000000027,6.987823486328126,0.2714080810546875,6.147280883789063,1719609062468.0
10.52800000000002,7.127340698242188,0.1395172119140625,6.908120727539063,1719609062478.0
10.538000000000013,7.061993408203126,-0.0348419189453125,7.282708740234376,1719609062488.0
10.549000000000037,7.409515380859376,-0.194097900390625,6.53233642578125,1719609062499.0
10.559000000000026,6.34691162109375,-0.5804992675781251,6.878363037109375,1719609062509.0
10.569000000000017,7.710083007812501,-0.076861572265625,6.78714599609375,1719609062519.0
10.579000000000008,6.840829467773438,0.6802398681640626,8.048333740234376,1719609062529.0
10.589,6.150570678710938,1.0253692626953126,6.041259765625,1719609062539.0
10.59899999999999,7.173846435546875,0.9383392333984376,7.1720520019531255,1719609062549.0
10.609000000000036,7.127340698242188,0.441729736328125,6.996646118164063,1719609062559.0
10.619000000000028,7.594940185546876,0.4625152587890625,6.645236206054688,1719609062569.0
10.62900000000002,6.5200744628906255,0.4077850341796875,7.318597412109376,1719609062579.0
10.63900000000001,6.814212036132813,0.048748779296875,5.898602294921876,1719609062589.0
10.649,6.955673217773438,-0.5426666259765626,7.724588012695313,1719609062599.0
10.658999999999992,7.540509033203126,-0.6108551025390625,6.766958618164063,1719609062609.0
10.66900000000004,6.93369140625,-0.2899505615234375,6.9223266601562505,1719609062619.0
10.67900000000003,6.613983154296876,0.3218017578125,6.552523803710938,1719609062629.0
10.68900000000002,7.184463500976563,0.66334228515625,6.6636291503906255,1719609062639.0
10.699000000000012,7.023861694335938,0.7469329833984375,7.922573852539063,1719609062649.0
10.710000000000036,7.1215087890625,0.8860015869140626,5.992810058593751,1719609062660.0
10.718999999999994,6.652862548828126,0.8665618896484376,7.331008911132813,1719609062669.0
10.730000000000018,6.872381591796875,0.5404235839843751,6.34093017578125,1719609062680.0
10.740000000000007,6.984384155273438,0.0638519287109375,8.075698852539062,1719609062690.0
10.75,6.912606811523438,-0.2190704345703125,6.891073608398438,1719609062700.0
10.759999999999993,6.950140380859375,-0.3476715087890625,6.365304565429688,1719609062710.0
10.77000000000004,7.050628662109376,-0.3949249267578125,6.6788818359375,1719609062720.0
10.78000000000003,7.597183227539063,-0.2524169921875,6.495251464843751,1719609062730.0
10.79000000000002,7.1167236328125005,0.0031402587890625,7.149322509765626,1719609062740.0
10.800000000000011,6.92471923828125,0.4355987548828125,6.082681274414063,1719609062750.0
10.810000000000002,6.896456909179688,0.6285003662109375,7.099227905273438,1719609062760.0
10.82,6.8924194335937505,0.6033782958984375,7.186557006835938,1719609062770.0
10.83000000000004,6.8894287109375005,0.6104064941406251,7.341476440429688,1719609062780.0
10.840000000000032,6.592300415039063,0.526068115234375,7.113583374023438,1719609062790.0
10.850000000000025,6.868194580078126,0.3366058349609375,6.532635498046876,1719609062800.0
10.860000000000014,7.180874633789063,0.003289794921875,7.1316772460937505,1719609062810.0
10.871000000000038,7.453628540039063,-0.1855743408203125,6.677386474609375,1719609062821.0
10.879999999999995,7.0060668945312505,-0.1751068115234375,6.459661865234375,1719609062830.0
10.89100000000002,6.862063598632813,-0.05562744140625,6.6486755371093755,1719609062841.0
10.90100000000001,7.077395629882813,0.014056396484375,6.772491455078126,1719609062851.0
10.911,7.217361450195313,0.0629547119140625,7.3368408203125,1719609062861.0
10.920999999999992,6.646282958984376,0.2172760009765625,6.552374267578125,1719609062871.0
10.93100000000004,6.625347900390626,0.3877471923828125,6.712228393554688,1719609062881.0
10.941000000000033,7.288540649414063,0.4888336181640625,7.30693359375,1719609062891.0
10.951000000000022,7.26566162109375,0.390289306640625,7.248165893554688,1719609062901.0
10.961000000000013,7.255792236328125,0.4544403076171875,6.751107788085938,1719609062911.0
10.971000000000004,6.251058959960938,0.57242431640625,6.1022705078125,1719609062921.0
10.980999999999996,7.0114501953125,0.490179443359375,7.129882812500001,1719609062931.0
10.991000000000042,7.093994140625001,0.046356201171875,7.874722290039063,1719609062941.0
11.001000000000026,7.488021850585938,-0.3378021240234375,6.461306762695313,1719609062951.0
11.011000000000024,6.805838012695313,-0.21533203125,6.895709228515625,1719609062961.0
11.021000000000017,6.4796997070312505,0.193798828125,5.991314697265626,1719609062971.0
11.031000000000006,7.440618896484375,0.4828521728515625,7.705746459960938,1719609062981.0
11.040999999999997,7.241885375976563,0.2627349853515625,7.3368408203125,1719609062991.0
11.050999999999988,7.038815307617188,0.1897613525390625,5.8860412597656255,1719609063001.0
11.061000000000035,6.578543090820313,0.5307037353515626,6.980795288085938,1719609063011.0
11.072000000000005,6.821838378906251,0.766522216796875,6.9387756347656255,1719609063022.0
11.081999999999994,7.232614135742188,0.4556365966796875,7.976705932617188,1719609063032.0
11.09200000000004,7.003674316406251,-0.039178466796875,6.848605346679688,1719609063042.0
11.102000000000032,6.985580444335938,-0.1825836181640625,5.466891479492188,1719609063052.0
11.112000000000023,6.819296264648438,-0.055029296875,7.097882080078126,1719609063062.0
11.122000000000014,7.4899658203125,0.0611602783203125,7.180725097656251,1719609063072.0
11.132000000000003,6.960308837890626,-0.0112152099609375,7.674194335937501,1719609063082.0
11.141999999999996,6.685760498046876,0.1033294677734375,5.92462158203125,1719609063092.0
11.151999999999989,6.945205688476563,0.3991119384765625,6.504971313476563,1719609063102.0
11.162000000000036,7.149771118164063,0.5636016845703126,7.409066772460938,1719609063112.0
11.172000000000033,7.238296508789063,0.590069580078125,7.31351318359375,1719609063122.0
11.182000000000016,6.711032104492188,0.4281219482421875,6.928607177734375,1719609063132.0
11.192000000000007,6.7028076171875,0.303857421875,5.919088745117188,1719609063142.0
11.201999999999998,6.958813476562501,0.1601531982421875,7.496844482421875,1719609063152.0
11.211999999999987,7.314559936523438,-0.006878662109375,7.349252319335938,1719609063162.0
11.222000000000037,7.096685791015625,-0.1628448486328125,6.590655517578125,1719609063172.0
11.232000000000028,6.915597534179688,-0.2316314697265625,6.147579956054688,1719609063182.0
11.24200000000002,6.968533325195313,-0.0195892333984375,6.576000976562501,1719609063192.0
11.253000000000045,7.245025634765626,0.3028106689453125,7.585220336914063,1719609063203.0
11.263000000000034,6.965243530273438,0.4825531005859375,7.202706909179688,1719609063213.0
11.273000000000025,6.7369018554687505,0.4744781494140625,6.435437011718751,1719609063223.0
11.283000000000015,6.909466552734376,0.45040283203125,6.4850830078125,1719609063233.0
11.293000000000006,7.079040527343751,0.4305145263671875,7.1215087890625,1719609063243.0
11.302999999999995,6.977206420898438,0.2217620849609375,7.213323974609375,1719609063253.0
11.312999999999988,7.03836669921875,-0.131591796875,6.31700439453125,1719609063263.0
11.323000000000036,7.315756225585938,-0.4897308349609375,6.50003662109375,1719609063273.0
11.333000000000029,6.7961181640625,-0.5423675537109376,6.901690673828125,1719609063283.0
11.343000000000018,7.682269287109375,0.1532745361328125,7.636660766601563,1719609063293.0
11.353000000000009,6.459960937500001,0.7331756591796875,7.372131347656251,1719609063303.0
11.363,6.202758789062501,1.0144531250000002,5.930752563476563,1719609063313.0
11.37299999999999,7.102667236328125,0.914862060546875,7.763018798828125,1719609063323.0
11.383000000000038,7.524060058593751,0.6739593505859376,6.672152709960938,1719609063333.0
11.393000000000027,7.311718750000001,0.51141357421875,7.234408569335938,1719609063343.0
11.40300000000002,6.478802490234376,0.2382110595703125,6.0180816650390625,1719609063353.0
11.413000000000013,6.864157104492188,-0.183929443359375,6.538467407226563,1719609063363.0
11.424000000000037,7.206893920898438,-0.6477905273437501,7.851095581054688,1719609063374.0
11.433,7.521069335937501,-0.6914550781250001,6.853240966796876,1719609063383.0
11.44300000000004,6.58377685546875,-0.3354095458984375,6.871932983398438,1719609063393.0
11.454000000000008,6.631179809570313,0.4744781494140625,6.103018188476563,1719609063404.0
11.464,7.278073120117188,0.85355224609375,7.39366455078125,1719609063414.0
11.47399999999999,7.195080566406251,0.9619659423828124,7.571163940429688,1719609063424.0
11.484000000000036,7.038815307617188,0.96002197265625,6.067727661132813,1719609063434.0
11.494000000000028,6.585272216796875,0.84278564453125,6.792379760742188,1719609063444.0
11.50400000000002,6.994403076171875,0.441131591796875,6.724639892578126,1719609063454.0
11.51400000000001,6.993954467773438,-0.136676025390625,8.294320678710939,1719609063464.0
11.524,6.936981201171876,-0.4580291748046875,6.702209472656251,1719609063474.0
11.533999999999992,6.79312744140625,-0.5670410156250001,6.314163208007813,1719609063484.0
11.54400000000004,7.1944824218750005,-0.433355712890625,6.410165405273438,1719609063494.0
11.555000000000009,7.638156127929688,-0.0886749267578125,7.087713623046875,1719609063505.0
11.56400000000002,6.975112915039063,0.3028106689453125,7.024459838867188,1719609063514.0
11.574000000000012,6.811370849609376,0.780279541015625,6.1078033447265625,1719609063524.0
11.584000000000003,6.765014648437501,0.8768798828125001,7.094442749023438,1719609063534.0
11.593999999999994,7.028347778320313,0.741400146484375,7.307980346679688,1719609063544.0
11.604000000000042,6.915298461914063,0.5449096679687501,7.469180297851563,1719609063554.0
11.615000000000007,6.733163452148438,0.254510498046875,6.713574218750001,1719609063565.0
11.625,6.772940063476563,-0.043963623046875,6.454876708984376,1719609063575.0
11.634999999999993,7.243231201171875,-0.3141754150390625,7.174743652343751,1719609063585.0
11.64500000000004,7.437628173828125,-0.328082275390625,6.9238220214843755,1719609063595.0
11.65700000000004,7.017132568359376,-0.204266357421875,6.371884155273438,1719609063607.0
11.66500000000002,7.016085815429688,0.029010009765625,6.310275268554688,1719609063615.0
11.675000000000011,7.001730346679688,0.262884521484375,6.970925903320313,1719609063625.0
11.685000000000002,7.128536987304688,0.5206848144531251,7.380206298828125,1719609063635.0
11.695,6.742733764648438,0.6258087158203125,6.866549682617188,1719609063645.0
11.70500000000004,6.474615478515625,0.5181427001953125,6.682171630859376,1719609063655.0
11.715000000000032,6.926214599609375,0.3114837646484375,6.757388305664063,1719609063665.0
11.725000000000025,7.476657104492188,0.0447113037109375,7.427011108398438,1719609063675.0
11.735000000000014,7.266558837890625,-0.1413116455078125,6.710733032226563,1719609063685.0
11.745000000000005,7.39964599609375,-0.0251220703125,6.55386962890625,1719609063695.0
11.757000000000003,6.231619262695313,0.2205657958984375,6.621908569335938,1719609063707.0
11.76600000000002,6.882699584960938,0.54132080078125,7.0234130859375,1719609063716.0
11.77600000000001,7.105657958984375,0.37742919921875,7.97745361328125,1719609063726.0
11.785000000000032,7.369140625000001,0.068487548828125,6.254498291015626,1719609063735.0
11.795999999999992,6.764865112304688,0.268267822265625,7.113284301757813,1719609063746.0
11.80600000000004,6.553271484375,0.6916046142578125,6.074307250976563,1719609063756.0
11.816000000000033,7.3009521484375,0.639715576171875,7.549481201171876,1719609063766.0
11.826000000000022,7.41759033203125,-0.0348419189453125,7.278820800781251,1719609063776.0
11.836000000000013,6.992309570312501,-0.306549072265625,5.981295776367188,1719609063786.0
11.846000000000004,6.592599487304688,0.1254608154296875,6.9851318359375005,1719609063796.0
11.857000000000028,6.740042114257813,0.4510009765625,7.005767822265626,1719609063807.0
11.866000000000042,7.360317993164063,0.126507568359375,7.818496704101563,1719609063816.0
11.876000000000026,7.150070190429688,-0.078057861328125,6.848605346679688,1719609063826.0
11.886000000000024,6.906326293945313,0.201275634765625,5.349804687500001,1719609063836.0
11.896000000000017,6.78116455078125,0.5446105957031251,6.9941040039062505,1719609063846.0
11.906000000000006,7.388580322265626,0.5175445556640625,7.550527954101563,1719609063856.0
11.91700000000003,6.996347045898438,0.198883056640625,7.721746826171875,1719609063867.0
11.925999999999988,6.553121948242188,0.14833984375,5.8773681640625,1719609063876.0
11.937000000000012,6.790435791015626,0.2585479736328125,6.634768676757813,1719609063887.0
11.946000000000026,7.1550048828125,0.273052978515625,7.533630371093751,1719609063896.0
11.958000000000029,7.374374389648438,0.161199951171875,7.388729858398438,1719609063908.0
11.96700000000004,6.820492553710938,0.099591064453125,6.554019165039063,1719609063917.0
11.977000000000032,6.836941528320313,0.1466949462890625,5.534033203125,1719609063927.0
11.987000000000023,7.126144409179688,0.116937255859375,7.377963256835938,1719609063937.0
11.997000000000014,7.447348022460938,0.1275543212890625,7.473815917968751,1719609063947.0
12.007000000000003,6.865203857421876,0.0925628662109375,6.798062133789063,1719609063957.0
12.016999999999996,6.627441406250001,0.11544189453125,6.165374755859376,1719609063967.0
12.026999999999989,6.857278442382813,0.2525665283203125,6.979000854492188,1719609063977.0
12.037000000000036,7.259829711914063,0.43365478515625,7.814309692382813,1719609063987.0
12.047000000000033,6.96658935546875,0.4936187744140625,7.028198242187501,1719609063997.0
12.057000000000016,6.856979370117188,0.34752197265625,6.215469360351563,1719609064007.0
12.067000000000007,6.9958984375,0.194696044921875,6.220852661132813,1719609064017.0
12.076999999999998,7.274783325195313,0.073870849609375,7.1490234375,1719609064027.0
12.086999999999987,6.884194946289063,-0.1040771484375,7.18431396484375,1719609064037.0
12.097000000000037,7.257736206054688,-0.27095947265625,6.211880493164063,1719609064047.0
12.107000000000028,6.721051025390626,-0.5214324951171876,6.830960083007813,1719609064057.0
12.11700000000002,7.2387451171875,-0.2169769287109375,6.920681762695313,1719609064067.0
12.12700000000001,7.565780639648438,0.7092498779296875,8.17005615234375,1719609064077.0
12.137,5.8266754150390625,1.1793914794921876,6.584973144531251,1719609064087.0
12.148000000000025,6.672003173828125,1.2622344970703123,6.0475402832031255,1719609064098.0
12.158000000000015,7.359420776367188,0.7041656494140626,7.944406127929688,1719609064108.0
12.168000000000006,7.767355346679688,0.3132781982421875,6.242535400390626,1719609064118.0
12.177999999999995,6.838137817382813,0.140863037109375,7.508358764648438,1719609064128.0
12.187999999999988,6.360369873046875,-0.0521881103515625,5.493508911132813,1719609064138.0
12.198000000000036,7.02879638671875,-0.5492462158203125,7.636660766601563,1719609064148.0
12.208000000000029,7.429403686523438,-0.7867095947265625,7.588510131835938,1719609064158.0
12.218000000000018,7.246072387695313,-0.423187255859375,6.548187255859376,1719609064168.0
12.228000000000009,6.5200744628906255,0.3419891357421875,6.365005493164063,1719609064178.0
12.238,6.8684936523437505,0.9482086181640624,6.536373901367188,1719609064188.0
12.24799999999999,7.39725341796875,0.9975555419921877,7.868890380859376,1719609064198.0
12.258000000000038,6.984982299804688,0.9223388671875,6.879559326171876,1719609064208.0
12.268000000000027,6.736453247070313,0.8317199707031251,6.226684570312501,1719609064218.0
12.27800000000002,6.707443237304688,0.5102172851562501,6.893167114257813,1719609064228.0
12.288000000000013,7.104461669921876,-0.0961517333984375,7.528097534179688,1719609064238.0
12.298000000000002,6.979299926757813,-0.4239349365234375,7.720401000976563,1719609064248.0
12.309000000000026,6.820492553710938,-0.450103759765625,6.14713134765625,1719609064259.0
12.31800000000004,6.987225341796876,-0.3790740966796875,6.258984375000001,1719609064268.0
12.329000000000008,7.562191772460938,-0.1927520751953125,6.780117797851563,1719609064279.0
12.339,7.536322021484375,0.1472930908203125,7.078143310546875,1719609064289.0
12.34899999999999,6.6770874023437505,0.59036865234375,6.467587280273438,1719609064299.0
12.359000000000036,6.693386840820313,0.8686553955078126,6.513793945312501,1719609064309.0
12.369000000000028,6.838885498046875,0.7292877197265626,7.625296020507813,1719609064319.0
12.37900000000002,7.098928833007813,0.5226287841796875,7.504620361328126,1719609064329.0
12.38900000000001,6.739593505859376,0.3683074951171875,6.929653930664063,1719609064339.0
12.399,6.719107055664063,0.131292724609375,6.331210327148438,1719609064349.0
12.408999999999992,7.116275024414063,-0.1164886474609375,6.8789611816406255,1719609064359.0
12.41900000000004,7.462600708007813,-0.246734619140625,7.23216552734375,1719609064369.0
12.42900000000003,7.1932861328125,-0.2406036376953125,6.459960937500001,1719609064379.0
12.43900000000002,6.928457641601563,-0.0749176025390625,6.248367309570313,1719609064389.0
12.449000000000012,7.034179687500001,0.10946044921875,6.723144531250001,1719609064399.0
12.459000000000003,7.006515502929688,0.335260009765625,7.454376220703126,1719609064409.0
12.468999999999994,6.912606811523438,0.5486480712890626,7.174594116210938,1719609064419.0
12.480000000000018,6.54190673828125,0.554180908203125,6.651217651367188,1719609064430.0
12.489000000000026,6.6127868652343755,0.3823638916015625,6.548037719726563,1719609064439.0
12.5,7.680325317382813,0.1981353759765625,7.117770385742188,1719609064450.0
12.509999999999993,7.165173339843751,-0.076263427734375,7.1585937500000005,1719609064460.0
12.52000000000004,7.754495239257813,-0.032598876953125,6.2577880859375,1719609064470.0
12.53000000000003,6.2841064453125,0.180340576171875,6.893017578125001,1719609064480.0
12.54000000000002,6.401492309570313,0.4430755615234375,6.7129760742187505,1719609064490.0
12.550000000000011,7.204650878906251,0.4951141357421875,8.055062866210939,1719609064500.0
12.560000000000002,7.205398559570313,0.02332763671875,7.002777099609376,1719609064510.0
12.57,7.285549926757813,0.11484375,6.314312744140626,1719609064520.0
12.58000000000004,6.300704956054688,0.5763122558593751,6.5514770507812505,1719609064530.0
12.590000000000032,7.200164794921876,0.8560943603515626,6.681723022460938,1719609064540.0
12.600000000000025,7.352841186523438,0.240753173828125,7.857675170898438,1719609064550.0
12.610000000000014,7.23037109375,-0.3195587158203125,6.369192504882813,1719609064560.0
12.620000000000005,6.589608764648438,-0.0653472900390625,6.534429931640625,1719609064570.0
12.629999999999995,6.507214355468751,0.4448699951171875,7.030889892578125,1719609064580.0
12.639999999999986,7.251156616210938,0.2821746826171875,7.555612182617188,1719609064590.0
12.650000000000034,7.328915405273438,-0.1134979248046875,7.685559082031251,1719609064600.0
12.660000000000032,7.117022705078125,-0.0082244873046875,4.930056762695313,1719609064610.0
12.670999999999992,6.664974975585938,0.403448486328125,6.6935363769531255,1719609064621.0
12.68100000000004,7.331307983398438,0.5310028076171875,7.099826049804688,1719609064631.0
12.691000000000033,7.218856811523438,0.2639312744140625,8.156747436523439,1719609064641.0
12.701000000000022,6.533383178710938,0.174658203125,6.720004272460938,1719609064651.0
12.711000000000013,6.512896728515625,0.3258392333984375,5.79901123046875,1719609064661.0
12.721000000000004,7.045993041992188,0.3552978515625,7.601968383789063,1719609064671.0
12.730999999999996,7.524807739257813,0.2165283203125,7.468881225585938,1719609064681.0
12.741000000000042,7.112088012695313,0.0644500732421875,6.803594970703125,1719609064691.0
12.751000000000026,6.704602050781251,0.084637451171875,5.4498443603515625,1719609064701.0
12.761000000000024,6.96060791015625,0.1111053466796875,6.815408325195313,1719609064711.0
12.771000000000017,7.341177368164063,0.0746185302734375,7.825973510742188,1719609064721.0
12.781000000000006,7.140200805664063,0.049346923828125,7.084872436523438,1719609064731.0
12.790999999999997,6.613385009765626,0.06160888671875,6.330313110351563,1719609064741.0
12.800999999999988,6.723294067382813,0.26318359375,6.367248535156251,1719609064751.0
12.811000000000035,7.171902465820313,0.48868408203125,7.647726440429688,1719609064761.0
12.821000000000026,7.194781494140625,0.5585174560546875,7.618417358398438,1719609064771.0
12.831000000000016,6.869091796875001,0.4246826171875,6.185711669921876,1719609064781.0
12.84200000000004,6.8774658203125005,0.19080810546875,6.0016326904296875,1719609064792.0
12.851,7.119863891601563,0.0483001708984375,6.993356323242188,1719609064801.0
12.862000000000023,7.0138427734375,-0.1389190673828125,7.317700195312501,1719609064812.0
12.872000000000014,7.611538696289063,-0.2528656005859375,6.51199951171875,1719609064822.0
12.882000000000003,6.3361450195312505,-0.6114532470703126,6.536224365234376,1719609064832.0
12.891999999999996,7.146182250976563,-0.34752197265625,6.646881103515626,1719609064842.0
12.901999999999989,7.682269287109375,0.6959411621093751,8.47510986328125,1719609064852.0
12.912000000000036,5.8893310546875,1.2200653076171877,6.803894042968751,1719609064862.0
12.922000000000033,6.747219848632813,1.3015625000000002,6.09927978515625,1719609064872.0
12.932000000000016,7.0464416503906255,0.7062591552734375,7.519424438476563,1719609064882.0
12.942000000000007,7.931246948242188,0.467449951171875,6.282760620117188,1719609064892.0
12.951999999999998,6.832754516601563,0.3028106689453125,7.733261108398438,1719609064902.0
12.961999999999987,6.6411987304687505,-0.1093109130859375,5.4603118896484375,1719609064912.0
12.972000000000037,6.768603515625,-0.6916046142578125,7.621408081054688,1719609064922.0
12.982000000000028,7.363607788085938,-0.8222991943359376,7.116424560546876,1719609064932.0
12.99200000000002,7.269250488281251,-0.4137664794921875,7.120162963867188,1719609064942.0
13.00200000000001,6.68187255859375,0.215631103515625,6.474615478515625,1719609064952.0
13.012,6.895709228515625,0.8276824951171876,6.268704223632813,1719609064962.0
13.023000000000025,7.134967041015625,1.044061279296875,7.820141601562501,1719609064973.0
13.033000000000015,7.127938842773438,1.1384185791015626,6.563290405273438,1719609064983.0
13.043000000000006,6.802099609375,0.9615173339843752,7.051824951171875,1719609064993.0
13.052999999999995,6.695330810546875,0.5007965087890626,6.504672241210938,1719609065003.0
13.062999999999988,6.952383422851563,-0.0611602783203125,7.376467895507813,1719609065013.0
13.073000000000036,6.939523315429688,-0.36845703125,7.742532348632813,1719609065023.0
13.083000000000029,6.9671875000000005,-0.484796142578125,6.30504150390625,1719609065033.0
13.093000000000018,7.0673767089843755,-0.527264404296875,6.618618774414063,1719609065043.0
13.103000000000009,7.496844482421875,-0.3626251220703125,6.065036010742188,1719609065053.0
13.113,7.461703491210938,0.0945068359375,7.08262939453125,1719609065063.0
13.12299999999999,6.791333007812501,0.58438720703125,6.57779541015625,1719609065073.0
13.133000000000038,6.826922607421875,0.8825622558593751,6.82542724609375,1719609065083.0
13.143000000000027,6.743780517578125,0.7439422607421875,7.413253784179688,1719609065093.0
13.15300000000002,6.972122192382813,0.6204254150390626,7.133621215820313,1719609065103.0
13.163000000000013,6.705648803710938,0.500946044921875,7.301998901367188,1719609065113.0
13.173000000000002,6.859970092773438,0.2130889892578125,6.561495971679688,1719609065123.0
13.183,7.073507690429688,-0.1030303955078125,6.927410888671876,1719609065133.0
13.19300000000004,7.429104614257813,-0.350213623046875,6.731369018554688,1719609065143.0
13.203000000000031,7.12509765625,-0.310137939453125,6.483438110351563,1719609065153.0
13.214,7.077993774414063,-0.119329833984375,6.5688232421875,1719609065164.0
13.22399999999999,7.036721801757813,0.069384765625,6.710882568359375,1719609065174.0
13.234000000000036,6.921728515625,0.1730133056640625,7.0464416503906255,1719609065184.0
13.244000000000028,6.786697387695313,0.3222503662109375,6.926962280273438,1719609065194.0
13.25400000000002,6.999038696289063,0.4466644287109375,6.799557495117188,1719609065204.0
13.26400000000001,6.789389038085938,0.418701171875,7.273138427734375,1719609065214.0
13.274,7.61258544921875,0.4308135986328125,6.824230957031251,1719609065224.0
13.283999999999992,6.990664672851563,0.5585174560546875,7.392468261718751,1719609065234.0
13.29400000000004,6.106607055664063,0.6166870117187501,5.89830322265625,1719609065244.0
13.30400000000003,7.27403564453125,0.46356201171875,7.3320556640625005,1719609065254.0
13.31400000000002,7.003375244140625,-0.159405517578125,7.615127563476563,1719609065264.0
13.324000000000012,7.727877807617188,-0.3330169677734375,6.237600708007813,1719609065274.0
13.334000000000003,6.393865966796875,-0.082244873046875,7.225436401367188,1719609065284.0
13.343999999999994,6.782061767578125,0.3361572265625,5.8326568603515625,1719609065294.0
13.354000000000042,7.348205566406251,0.2693145751953125,7.992706298828126,1719609065304.0
13.36700000000002,7.301101684570313,0.074169921875,6.856979370117188,1719609065317.0
13.375,6.879110717773438,0.3189605712890625,6.239096069335938,1719609065325.0
13.384999999999993,6.5006347656250005,0.7248016357421876,6.981842041015626,1719609065335.0
13.39500000000004,7.099078369140625,0.72913818359375,6.976010131835938,1719609065345.0
13.40500000000003,7.149472045898438,0.29010009765625,8.171551513671876,1719609065355.0
13.41500000000002,7.0329833984375005,0.0112152099609375,5.824282836914063,1719609065365.0
13.425000000000011,6.744079589843751,0.0180938720703125,6.471475219726563,1719609065375.0
13.435000000000002,7.082031250000001,0.037384033203125,6.794174194335938,1719609065385.0
13.445,7.316952514648438,-0.060113525390625,7.811618041992188,1719609065395.0
13.45500000000004,6.929205322265625,-0.0538330078125,6.967037963867188,1719609065405.0
13.46700000000004,6.789837646484376,0.1502838134765625,5.6965789794921875,1719609065417.0
13.475000000000025,6.9994873046875,0.3052032470703125,7.098330688476563,1719609065425.0
13.485000000000014,7.342074584960938,0.459075927734375,7.10057373046875,1719609065435.0
13.495000000000005,7.049581909179688,0.477618408203125,7.478900146484375,1719609065445.0
13.504999999999995,6.5679260253906255,0.465057373046875,6.244180297851563,1719609065455.0
13.514999999999986,6.770846557617188,0.3297271728515625,6.644787597656251,1719609065465.0
13.525000000000034,7.193585205078126,0.1568634033203125,7.516433715820313,1719609065475.0
13.535000000000032,7.2387451171875,0.039178466796875,7.127938842773438,1719609065485.0
13.545000000000016,6.8370910644531255,-0.091815185546875,6.408670043945313,1719609065495.0
13.555000000000009,6.968084716796875,-0.1072174072265625,6.1970764160156255,1719609065505.0
13.567000000000007,7.111190795898438,0.0186920166015625,7.261624145507813,1719609065517.0
13.576000000000022,7.2028564453125,0.2548095703125,7.3365417480468755,1719609065526.0
13.586000000000013,6.835147094726563,0.364569091796875,6.688751220703126,1719609065536.0
13.596000000000004,6.908120727539063,0.342138671875,6.389230346679688,1719609065546.0
13.605999999999996,7.054815673828125,0.3019134521484375,6.625048828125,1719609065556.0
13.616000000000042,6.890325927734375,0.192303466796875,7.27403564453125,1719609065566.0
13.626000000000026,7.391571044921876,0.191107177734375,6.696228027343751,1719609065576.0
13.636000000000024,6.494802856445313,-0.2056121826171875,7.111041259765625,1719609065586.0
13.646000000000017,7.251904296875001,-0.2636322021484375,6.4348388671875005,1719609065596.0
13.656000000000006,7.697521972656251,0.357391357421875,7.96190185546875,1719609065606.0
13.66700000000003,5.824282836914063,0.7134368896484375,6.443661499023438,1719609065617.0
13.675999999999988,7.050479125976563,0.8375518798828125,6.072662353515625,1719609065626.0
13.686000000000035,7.083078002929688,0.3210540771484375,8.291329956054689,1719609065636.0
