time,ax,ay,az,timestamp
0.0,6.514840698242188,0.41212158203125,7.39366455078125,1720757690717.0
0.0099999999999909,6.602468872070313,0.369354248046875,7.503573608398438,1720757690727.0
0.0199999999999818,6.745574951171876,0.2361175537109375,7.359719848632813,1720757690737.0
0.0300000000000295,6.922476196289063,0.2356689453125,6.773538208007813,1720757690747.0
0.0400000000000204,7.187454223632813,0.192901611328125,6.528598022460938,1720757690757.0
0.0500000000000113,7.100723266601563,0.113946533203125,6.688153076171876,1720757690767.0
0.0600000000000022,6.822586059570313,-0.1431060791015625,6.6277404785156255,1720757690777.0
0.0699999999999931,6.960009765625,-0.5229278564453126,6.86131591796875,1720757690787.0
0.0830000000000268,6.883297729492188,-0.9251800537109376,7.057806396484375,1720757690800.0
0.0899999999999749,7.1122375488281255,-1.0113128662109376,7.00546875,1720757690807.0
0.1000000000000227,6.7865478515625,-0.4245330810546875,7.727429199218751,1720757690817.0
0.1100000000000136,5.9264160156250005,0.2214630126953125,7.298410034179688,1720757690827.0
0.1209999999999809,6.863558959960938,0.8160186767578126,6.952383422851563,1720757690838.0
0.1310000000000286,7.557257080078125,0.8572906494140625,6.6980224609375005,1720757690848.0
0.1410000000000195,7.874423217773438,0.8318695068359375,5.726187133789063,1720757690858.0
0.1510000000000104,7.509106445312501,0.8385986328125,6.343173217773438,1720757690868.0
0.1610000000000013,6.700714111328126,0.5049835205078126,6.688601684570313,1720757690878.0
0.1709999999999922,6.773538208007813,0.0668426513671875,7.597332763671876,1720757690888.0
0.1829999999999927,6.813613891601563,-0.6201263427734376,7.468582153320313,1720757690900.0
0.1910000000000309,7.159042358398438,-0.96121826171875,6.433642578125,1720757690908.0
0.2010000000000218,6.974066162109375,-0.9257781982421877,6.800903320312501,1720757690918.0
0.2110000000000127,7.139004516601563,-0.413018798828125,6.628488159179688,1720757690928.0
0.2210000000000036,6.960906982421876,0.0801513671875,7.323382568359375,1720757690938.0
0.2309999999999945,7.195828247070313,0.2166778564453125,6.529196166992188,1720757690948.0
0.2409999999999854,7.2632690429687505,0.334063720703125,6.341079711914063,1720757690958.0
0.2509999999999763,6.978402709960938,0.49107666015625,6.8131652832031255,1720757690968.0
0.2610000000000241,6.711630249023438,0.734222412109375,7.284503173828125,1720757690978.0
0.271000000000015,6.447399902343751,0.4797119140625,7.699914550781251,1720757690988.0
0.2830000000000154,6.567626953125001,-0.0145050048828125,7.139303588867188,1720757691000.0
0.29200000000003,6.779519653320313,-0.5640502929687501,7.013394165039063,1720757691009.0
0.3020000000000209,7.158294677734376,-0.7022216796875,7.095339965820313,1720757691019.0
0.3120000000000118,7.143490600585938,-0.5957519531250001,6.767706298828125,1720757691029.0
0.3220000000000027,7.002777099609376,-0.418402099609375,6.6397033691406255,1720757691039.0
0.3319999999999936,6.995748901367188,-0.0321502685546875,6.491064453125,1720757691049.0
0.3419999999999845,6.898849487304688,0.23387451171875,6.925018310546876,1720757691059.0
0.3519999999999754,6.704602050781251,0.5459564208984375,7.297512817382813,1720757691069.0
0.3620000000000232,6.521121215820313,0.5390777587890625,7.048535156250001,1720757691079.0
0.3720000000000141,6.674844360351563,0.413616943359375,7.582977294921876,1720757691089.0
0.3829999999999813,7.165771484375001,0.2080047607421875,6.925167846679688,1720757691100.0
0.3919999999999959,7.769000244140625,0.1287506103515625,7.040011596679688,1720757691109.0
0.4019999999999868,6.893615722656251,0.1975372314453125,6.356033325195313,1720757691119.0
0.4119999999999777,6.294424438476563,0.2023223876953125,6.280218505859375,1720757691129.0
0.4220000000000254,6.861166381835938,0.15133056640625,7.442562866210938,1720757691139.0
0.4320000000000163,7.317102050781251,-0.2585479736328125,7.346112060546876,1720757691149.0
0.4420000000000073,7.458264160156251,-0.4514495849609375,6.773089599609375,1720757691159.0
0.4519999999999982,6.804342651367188,-0.11903076171875,6.47850341796875,1720757691169.0
0.4619999999999891,6.661834716796876,0.279034423828125,6.723593139648438,1720757691179.0
0.47199999999998,7.254446411132813,0.1966400146484375,7.2124267578125005,1720757691189.0
0.4839999999999804,7.776327514648438,-0.232977294921875,6.420932006835938,1720757691201.0
0.492999999999995,7.333401489257813,-0.224603271484375,5.8416290283203125,1720757691210.0
0.5029999999999859,6.31700439453125,0.30445556640625,6.996646118164063,1720757691220.0
0.5129999999999768,6.523663330078126,0.6400146484375,8.134915161132813,1720757691230.0
0.5230000000000246,6.878811645507813,0.286810302734375,8.087661743164062,1720757691240.0
0.5330000000000155,7.1974731445312505,-0.0028411865234375,6.212179565429688,1720757691250.0
0.5430000000000064,7.023712158203126,-0.0794036865234375,5.78106689453125,1720757691260.0
0.5529999999999973,6.962252807617188,-0.0418701171875,6.760079956054688,1720757691270.0
0.5629999999999882,7.283905029296876,-0.1673309326171875,7.7387939453125005,1720757691280.0
0.5729999999999791,7.071115112304688,-0.322998046875,7.180725097656251,1720757691290.0
0.5830000000000268,6.840231323242188,-0.3479705810546875,5.728878784179688,1720757691300.0
0.5930000000000177,6.992010498046875,-0.323297119140625,6.54788818359375,1720757691310.0
0.6030000000000086,7.234109497070313,-0.046954345703125,7.460656738281251,1720757691320.0
0.6129999999999995,6.797613525390625,0.1160400390625,7.772290039062501,1720757691330.0
0.6229999999999905,6.501083374023438,0.304156494140625,6.750210571289063,1720757691340.0
0.6329999999999814,6.567028808593751,0.3760833740234375,6.486129760742188,1720757691350.0
0.6430000000000291,7.112387084960938,0.442626953125,7.417440795898438,1720757691360.0
0.6539999999999964,7.261325073242188,0.3935791015625,7.2856994628906255,1720757691371.0
0.6639999999999873,7.225585937500001,0.0970489501953125,6.081036376953126,1720757691381.0
0.6739999999999782,7.227828979492188,-0.264080810546875,5.9343414306640625,1720757691391.0
0.6840000000000259,6.782958984375001,-0.3114837646484375,7.199566650390626,1720757691401.0
0.6940000000000168,6.551327514648438,-0.1245635986328125,8.148672485351563,1720757691411.0
0.7040000000000077,6.404183959960938,0.0139068603515625,7.669259643554688,1720757691421.0
0.7139999999999986,6.902438354492188,-0.06878662109375,6.362612915039063,1720757691431.0
0.7239999999999895,7.474264526367188,0.04366455078125,6.279919433593751,1720757691441.0
0.7339999999999804,7.013992309570313,0.3392974853515625,6.923074340820313,1720757691451.0
0.7440000000000282,6.4722229003906255,0.448309326171875,7.131228637695313,1720757691461.0
0.7540000000000191,6.577346801757813,-0.18363037109375,7.03477783203125,1720757691471.0
0.76400000000001,7.462750244140626,-0.8284301757812501,6.661087036132813,1720757691481.0
0.7740000000000009,7.517779541015625,-0.8384490966796876,7.293325805664063,1720757691491.0
0.7839999999999918,6.99649658203125,-0.082843017578125,7.063937377929688,1720757691501.0
0.7939999999999827,6.024960327148438,0.82484130859375,6.950140380859375,1720757691511.0
0.8040000000000305,6.645086669921875,1.1879150390625002,7.126593017578125,1720757691521.0
0.8140000000000214,7.893264770507813,0.624761962890625,6.411660766601563,1720757691531.0
0.8249999999999886,7.885189819335938,-0.228192138671875,5.8414794921875,1720757691542.0
0.8349999999999795,7.065582275390626,-0.4104766845703125,6.698620605468751,1720757691552.0
0.8450000000000273,5.5041259765625,-0.20277099609375,7.701260375976563,1720757691562.0
0.8550000000000182,6.6516662597656255,-0.344232177734375,8.673095703125,1720757691572.0
0.8650000000000091,7.534378051757813,-0.9166564941406252,7.024310302734375,1720757691582.0
0.875,7.619314575195313,-0.8369537353515626,4.5885162353515625,1720757691592.0
0.8849999999999909,7.154855346679688,0.280230712890625,6.4276611328125,1720757691602.0
0.8949999999999818,6.600524902343751,1.101931762695313,7.431347656250001,1720757691612.0
0.9050000000000296,7.153808593750001,0.91396484375,8.051473999023438,1720757691622.0
0.9150000000000204,7.027899169921875,0.41929931640625,6.906027221679688,1720757691632.0
0.9250000000000114,6.723144531250001,0.1598541259765625,5.310177612304688,1720757691642.0
0.9350000000000024,6.741238403320313,0.1769012451171875,7.547686767578125,1720757691652.0
0.9449999999999932,6.919036865234376,-0.031103515625,8.091400146484375,1720757691662.0
0.954999999999984,6.6830688476562505,-0.521881103515625,7.674194335937501,1720757691672.0
0.964999999999975,6.965093994140625,-0.5964996337890626,5.603567504882813,1720757691682.0
0.9759999999999992,7.224688720703125,-0.30625,6.228179931640626,1720757691693.0
0.9850000000000136,7.329364013671875,0.09390869140625,7.195230102539063,1720757691702.0
0.9950000000000044,7.422076416015625,0.1090118408203125,6.835446166992188,1720757691712.0
1.0060000000000286,6.956271362304688,0.1081146240234375,6.617721557617188,1720757691723.0
1.0160000000000196,6.465942382812501,0.0719268798828125,6.127990722656251,1720757691733.0
1.0260000000000105,6.6068054199218755,0.284716796875,8.105307006835938,1720757691743.0
1.0360000000000014,6.832305908203126,0.2875579833984375,8.370883178710939,1720757691753.0
1.0459999999999925,6.806735229492188,0.1290496826171875,6.708190917968751,1720757691763.0
1.0559999999999832,6.900643920898438,0.114544677734375,5.868844604492188,1720757691773.0
1.066000000000031,7.1615844726562505,0.11663818359375,6.598880004882813,1720757691783.0
1.0760000000000218,7.490264892578126,0.092413330078125,7.244876098632813,1720757691793.0
1.0860000000000127,7.0434509277343755,-0.16329345703125,7.128985595703125,1720757691803.0
1.0960000000000036,6.725836181640625,-0.3159698486328125,6.123504638671875,1720757691813.0
1.1059999999999943,6.818249511718751,-0.480010986328125,6.527999877929688,1720757691823.0
1.1159999999999854,6.988870239257813,-0.3952239990234375,7.400244140625,1720757691833.0
1.1259999999999764,7.052871704101563,-0.45877685546875,7.217510986328126,1720757691843.0
1.136000000000024,6.8191467285156255,-0.284716796875,6.578244018554688,1720757691853.0
1.146000000000015,7.1810241699218755,0.1263580322265625,6.400595092773438,1720757691863.0
1.156000000000006,7.5369201660156255,0.5483489990234376,7.463796997070313,1720757691873.0
1.1659999999999968,7.1466308593750005,0.947760009765625,7.0120483398437505,1720757691883.0
1.177000000000021,5.906826782226563,1.0174438476562502,6.94505615234375,1720757691894.0
1.1870000000000118,6.480447387695313,0.8481689453125001,7.158743286132813,1720757691904.0
1.1960000000000264,7.0673767089843755,0.0478515625,7.446749877929688,1720757691913.0
1.2069999999999936,7.380505371093751,-0.575714111328125,6.877316284179688,1720757691924.0
1.2169999999999843,7.333999633789063,-0.841290283203125,6.679180908203126,1720757691934.0
1.2269999999999754,6.303097534179688,-0.4182525634765625,6.130233764648438,1720757691944.0
1.2370000000000232,7.319046020507813,-0.441131591796875,7.217062377929688,1720757691954.0
1.247000000000014,7.585220336914063,-0.6424072265625,7.012197875976563,1720757691964.0
1.257000000000005,7.131826782226563,-0.0480010986328125,6.454428100585938,1720757691974.0
1.266999999999996,6.2838073730468755,0.7669708251953126,7.107003784179688,1720757691984.0
1.2769999999999868,6.184515380859375,1.3245910644531251,7.601968383789063,1720757691994.0
1.2869999999999775,7.358523559570313,0.7920928955078126,7.613781738281251,1720757692004.0
1.2970000000000257,7.343121337890626,0.2887542724609375,6.377566528320313,1720757692014.0
1.3070000000000164,6.7219482421875005,0.182733154296875,5.99400634765625,1720757692024.0
1.3170000000000073,6.741238403320313,-0.1724151611328125,7.128237915039063,1720757692034.0
1.3269999999999982,7.141845703125001,-0.60950927734375,7.744625854492188,1720757692044.0
1.3380000000000225,7.100872802734376,-0.9646575927734377,7.362411499023438,1720757692055.0
1.34699999999998,6.691293334960938,-0.5456573486328126,5.801852416992188,1720757692064.0
1.358000000000004,6.91514892578125,-0.2211639404296875,6.614730834960938,1720757692075.0
1.367999999999995,7.630828857421876,0.0749176025390625,7.1840148925781255,1720757692085.0
1.377999999999986,7.296017456054688,0.3440826416015625,6.999337768554688,1720757692095.0
1.3879999999999768,6.615328979492188,0.6690246582031251,6.449044799804688,1720757692105.0
1.3980000000000246,6.15550537109375,0.8163177490234376,6.913204956054688,1720757692115.0
1.4080000000000157,6.926663208007813,0.49586181640625,8.202056884765625,1720757692125.0
1.4180000000000064,7.167266845703126,0.07716064453125,7.374822998046875,1720757692135.0
1.4279999999999973,6.836492919921875,-0.234771728515625,5.97606201171875,1720757692145.0
1.4379999999999882,7.0987792968750005,-0.528759765625,5.956173706054688,1720757692155.0
1.447999999999979,7.390524291992188,-0.6317901611328125,7.153060913085938,1720757692165.0
1.4580000000000268,7.128536987304688,-0.47373046875,7.684811401367188,1720757692175.0
1.4680000000000175,6.641049194335938,-0.1087127685546875,6.633871459960938,1720757692185.0
1.4780000000000086,6.972720336914063,-0.0886749267578125,6.007015991210938,1720757692195.0
1.4879999999999995,7.355682373046876,0.0973480224609375,7.008609008789063,1720757692205.0
1.4979999999999905,7.088760375976563,0.4433746337890625,7.2871948242187505,1720757692215.0
1.5079999999999814,6.519625854492188,0.7047637939453125,7.203604125976563,1720757692225.0
1.518000000000029,6.1227569580078125,0.461468505859375,6.8370910644531255,1720757692235.0
1.5289999999999964,6.898849487304688,-0.133984375,6.8044921875,1720757692246.0
1.5389999999999873,7.7178588867187505,-0.4711883544921875,7.3559814453125005,1720757692256.0
1.5489999999999782,7.440768432617188,-0.4804595947265625,6.620114135742188,1720757692266.0
1.559000000000026,7.389776611328125,-0.148638916015625,6.427511596679688,1720757692276.0
1.5690000000000168,6.280218505859375,0.019439697265625,6.439025878906251,1720757692286.0
1.5790000000000075,6.733163452148438,0.457281494140625,7.40263671875,1720757692296.0
1.5889999999999986,6.846661376953126,0.3641204833984375,8.163476562500001,1720757692306.0
1.5989999999999895,7.29796142578125,0.0521881103515625,6.197674560546876,1720757692316.0
1.6089999999999804,6.945205688476563,0.1777984619140625,6.979598999023438,1720757692326.0
1.6190000000000282,6.347808837890626,0.521881103515625,6.705947875976563,1720757692336.0
1.629000000000019,7.123004150390625,0.4988525390625,7.585369873046876,1720757692346.0
1.63900000000001,7.4053283691406255,-0.3327178955078125,6.952832031250001,1720757692356.0
1.649000000000001,7.542153930664063,-0.750372314453125,5.31810302734375,1720757692366.0
1.6589999999999918,6.624301147460938,-0.3563446044921875,7.1182189941406255,1720757692376.0
1.6689999999999827,6.247769165039063,0.10946044921875,7.632324218750001,1720757692386.0
1.6790000000000305,7.106405639648438,0.042767333984375,8.290133666992189,1720757692396.0
1.6899999999999975,7.060498046875001,-0.1233673095703125,6.509457397460938,1720757692407.0
1.6999999999999886,7.214669799804688,0.24105224609375,5.128790283203125,1720757692417.0
1.7090000000000032,6.914550781250001,0.5164978027343751,7.176239013671876,1720757692426.0
1.718999999999994,7.344168090820313,0.3976165771484375,7.133770751953126,1720757692436.0
1.7300000000000182,6.966290283203126,0.029010009765625,7.821188354492188,1720757692447.0
1.740000000000009,6.375323486328125,-0.1230682373046875,6.176739501953126,1720757692457.0
1.75,6.54130859375,-0.1063201904296875,6.833352661132813,1720757692467.0
1.759999999999991,7.123602294921875,-0.1586578369140625,8.024557495117188,1720757692477.0
1.7699999999999818,7.4361328125,-0.28890380859375,6.65794677734375,1720757692487.0
1.7800000000000296,7.008160400390626,-0.1604522705078125,6.310125732421875,1720757692497.0
1.7930000000000064,6.806286621093751,0.0853851318359375,5.751309204101563,1720757692510.0
1.8000000000000114,6.968383789062501,0.2595947265625,7.742532348632813,1720757692517.0
1.8100000000000025,7.221847534179688,0.21951904296875,7.861264038085938,1720757692527.0
1.8199999999999932,6.8490539550781255,0.0976470947265625,6.371734619140626,1720757692537.0
1.829999999999984,6.840829467773438,-0.075665283203125,6.06578369140625,1720757692547.0
1.839999999999975,6.872531127929688,0.036785888671875,7.132873535156251,1720757692557.0
1.8500000000000227,6.989318847656251,0.136376953125,8.102764892578126,1720757692567.0
1.86099999999999,6.7922302246093755,0.0895721435546875,7.117620849609375,1720757692578.0
1.8700000000000043,6.914251708984375,-0.0518890380859375,5.84805908203125,1720757692587.0
1.8799999999999957,7.293774414062501,-0.185125732421875,6.491213989257813,1720757692597.0
1.891999999999996,7.357028198242188,-0.0282623291015625,6.966439819335938,1720757692609.0
1.9010000000000105,6.782809448242188,0.03648681640625,7.513442993164063,1720757692618.0
1.9110000000000016,6.5448974609375,-0.1368255615234375,6.469979858398438,1720757692628.0
1.9209999999999925,6.8702880859375,-0.4041961669921875,6.397006225585938,1720757692638.0
1.9309999999999832,7.158892822265625,-0.338250732421875,7.423272705078125,1720757692648.0
1.941000000000031,7.422375488281251,-0.130096435546875,7.0832275390625,1720757692658.0
1.9510000000000216,7.378860473632813,0.19918212890625,6.949841308593751,1720757692668.0
1.9610000000000127,6.655703735351563,0.5055816650390625,6.295022583007813,1720757692678.0
1.9710000000000036,6.232366943359375,0.8288787841796875,7.057208251953125,1720757692688.0
1.9809999999999943,6.754696655273438,0.8320190429687501,7.872329711914063,1720757692698.0
1.992999999999995,7.151416015625,0.0862823486328125,7.281811523437501,1720757692710.0
2.0009999999999764,7.328765869140626,-0.4711883544921875,6.148776245117188,1720757692718.0
2.011000000000024,6.878512573242188,-0.289501953125,6.718807983398438,1720757692728.0
2.021000000000015,6.594692993164063,0.0118133544921875,7.085919189453126,1720757692738.0
2.031000000000006,7.2961669921875005,-0.30625,7.308728027343751,1720757692748.0
2.040999999999997,7.403384399414063,-0.5985931396484375,6.588262939453125,1720757692758.0
2.0509999999999877,7.002178955078126,-0.2501739501953125,5.986380004882813,1720757692768.0
2.062000000000012,6.435137939453125,0.493170166015625,7.452581787109375,1720757692779.0
2.0710000000000264,6.767257690429688,0.7182220458984375,7.789337158203126,1720757692788.0
2.0819999999999936,7.182669067382813,0.3811676025390625,7.401889038085938,1720757692799.0
2.0930000000000177,6.986178588867188,0.2902496337890625,5.796469116210938,1720757692810.0
2.101999999999975,6.77518310546875,0.365167236328125,6.563589477539063,1720757692819.0
2.112000000000023,6.9283081054687505,0.2268463134765625,7.591201782226563,1720757692829.0
2.122000000000014,7.051077270507813,-0.2163787841796875,7.572659301757813,1720757692839.0
2.132000000000005,6.879110717773438,-0.387896728515625,6.869839477539063,1720757692849.0
2.141999999999996,6.786099243164063,-0.4281219482421875,5.8920227050781255,1720757692859.0
2.151999999999987,7.155752563476563,-0.335260009765625,7.056610107421876,1720757692869.0
2.1619999999999777,7.627389526367188,-0.265875244140625,7.131826782226563,1720757692879.0
2.1720000000000255,7.038516235351563,-0.192303466796875,6.390127563476563,1720757692889.0
2.1820000000000164,6.818698120117188,0.0746185302734375,6.132925415039063,1720757692899.0
2.1929999999999836,6.6202636718750005,0.2349212646484375,7.182369995117188,1720757692910.0
2.201999999999998,7.0703674316406255,0.3243438720703125,7.982986450195313,1720757692919.0
2.211999999999989,6.829315185546876,0.3369049072265625,7.42357177734375,1720757692929.0
2.223000000000013,6.68546142578125,0.2779876708984375,6.161935424804688,1720757692940.0
2.2320000000000277,6.904083251953126,0.2223602294921875,6.773687744140625,1720757692949.0
2.242999999999995,7.118817138671876,0.2062103271484375,7.330261230468751,1720757692960.0
2.252999999999986,6.9970947265625005,-0.0094207763671875,7.387832641601563,1720757692970.0
2.262999999999977,6.992309570312501,-0.241949462890625,6.311172485351563,1720757692980.0
2.273000000000025,7.219155883789063,-0.561956787109375,5.949893188476563,1720757692990.0
2.2830000000000155,7.270596313476563,-0.457879638671875,7.144985961914063,1720757693000.0
2.2930000000000064,6.887783813476563,-0.149835205078125,7.295269775390626,1720757693010.0
2.3029999999999973,6.505270385742188,0.111553955078125,7.165023803710938,1720757693020.0
2.312999999999988,6.783407592773438,0.04964599609375,6.352743530273438,1720757693030.0
2.322999999999979,6.943859863281251,0.00657958984375,6.836492919921875,1720757693040.0
2.333000000000027,7.283157348632813,0.104376220703125,7.2139221191406255,1720757693050.0
2.3430000000000177,7.473367309570313,0.192303466796875,6.961056518554688,1720757693060.0
2.3530000000000086,7.264465332031251,0.3210540771484375,6.7721923828125,1720757693070.0
2.3629999999999995,6.469381713867188,0.331671142578125,6.45517578125,1720757693080.0
2.3729999999999905,6.205001831054688,0.5764617919921875,7.457516479492188,1720757693090.0
2.382999999999982,6.905578613281251,0.269464111328125,7.842123413085938,1720757693100.0
2.393000000000029,7.2647644042968755,-0.47552490234375,6.7099853515625005,1720757693110.0
2.4039999999999964,7.526901245117188,-0.6904083251953126,6.195132446289063,1720757693121.0
2.4139999999999873,6.676638793945313,-0.013458251953125,6.855184936523438,1720757693131.0
2.423999999999978,6.436782836914063,0.4864410400390625,7.446450805664063,1720757693141.0
2.434000000000026,7.453778076171876,0.0817962646484375,7.109844970703126,1720757693151.0
2.444000000000017,7.538714599609375,-0.399261474609375,6.0687744140625,1720757693161.0
2.4540000000000077,6.841726684570313,-0.0112152099609375,6.318350219726563,1720757693171.0
2.463999999999998,6.226535034179688,0.67291259765625,7.710830688476563,1720757693181.0
2.4739999999999895,6.677685546875001,0.4741790771484375,8.181719970703126,1720757693191.0
2.4839999999999804,7.24173583984375,-0.0892730712890625,7.222296142578125,1720757693201.0
2.494000000000028,7.319046020507813,-0.2364166259765625,5.135220336914063,1720757693211.0
2.504000000000019,6.978402709960938,-0.0064300537109375,6.4453063964843755,1720757693221.0
2.51400000000001,6.974215698242188,0.0820953369140625,7.544546508789063,1720757693231.0
2.524000000000001,7.079937744140626,-0.2121917724609375,7.680923461914063,1720757693241.0
2.533999999999992,6.765463256835938,-0.1997802734375,6.872232055664063,1720757693251.0
2.5439999999999827,6.504672241210938,-0.031103515625,5.9178924560546875,1720757693261.0
2.5540000000000305,7.0258056640625,0.192303466796875,7.51090087890625,1720757693271.0
2.564000000000022,7.561444091796876,0.0524871826171875,7.282409667968751,1720757693281.0
2.5740000000000123,7.158294677734376,0.014654541015625,6.449493408203126,1720757693291.0
2.5849999999999795,6.577047729492188,0.1407135009765625,6.060549926757813,1720757693302.0
2.593999999999994,6.566131591796876,0.1939483642578125,7.254745483398438,1720757693311.0
2.605000000000018,7.205398559570313,0.1064697265625,8.299703979492188,1720757693322.0
2.615000000000009,6.9911132812500005,-0.0363372802734375,6.967935180664063,1720757693332.0
2.625,6.839035034179688,-0.10706787109375,5.692391967773438,1720757693342.0
2.634999999999991,7.020123291015626,-0.1093109130859375,6.500335693359376,1720757693352.0
2.644999999999982,7.294223022460938,0.0814971923828125,7.414898681640626,1720757693362.0
2.6550000000000296,6.977804565429688,0.016748046875,7.746719360351563,1720757693372.0
2.6650000000000205,6.6621337890625005,0.0303558349609375,6.285601806640625,1720757693382.0
2.6750000000000114,6.93369140625,-0.083740234375,6.138458251953126,1720757693392.0
2.6850000000000023,7.199716186523438,-0.0490478515625,7.475311279296876,1720757693402.0
2.694999999999993,7.149920654296875,0.0895721435546875,7.395309448242188,1720757693412.0
2.704999999999984,6.651217651367188,0.154022216796875,6.769351196289063,1720757693422.0
2.714999999999975,6.684414672851563,0.0474029541015625,6.244778442382813,1720757693432.0
2.7250000000000227,6.983935546875,-0.0055328369140625,7.089956665039063,1720757693442.0
2.7350000000000136,7.0868164062500005,-0.1329376220703125,7.26805419921875,1720757693452.0
2.7450000000000045,7.029244995117188,-0.28172607421875,6.626544189453125,1720757693462.0
2.7549999999999955,7.308279418945313,-0.4007568359375,6.438577270507813,1720757693472.0
2.7660000000000196,7.60361328125,-0.218621826171875,6.788641357421875,1720757693483.0
2.7749999999999773,6.720004272460938,0.4460662841796875,7.488470458984375,1720757693492.0
2.7869999999999777,5.786898803710938,0.867010498046875,7.303045654296875,1720757693504.0
2.7959999999999923,6.840231323242188,0.7929901123046875,7.234707641601563,1720757693513.0
2.805999999999983,7.254296875,0.011663818359375,6.808380126953126,1720757693523.0
2.816000000000031,7.903134155273438,-0.2283416748046875,6.204254150390626,1720757693533.0
2.826000000000022,6.639404296875001,0.100189208984375,7.196725463867188,1720757693543.0
2.8360000000000127,6.152963256835938,0.0776092529296875,6.708190917968751,1720757693553.0
2.8460000000000036,7.499984741210938,-0.49227294921875,7.481442260742188,1720757693563.0
2.8559999999999945,7.430300903320313,-0.9589752197265624,6.4752136230468755,1720757693573.0
2.8659999999999854,6.958813476562501,-0.182135009765625,6.445904541015626,1720757693583.0
2.8759999999999764,6.215618896484376,0.5034881591796876,7.436730957031251,1720757693593.0
2.886000000000024,6.91514892578125,0.6066680908203126,7.293475341796875,1720757693603.0
2.896000000000015,7.451385498046876,0.359185791015625,7.4086181640625,1720757693613.0
2.906000000000006,7.00546875,0.4403839111328125,5.620614624023438,1720757693623.0
2.915999999999997,6.62803955078125,0.503936767578125,6.758135986328125,1720757693633.0
2.9259999999999877,6.884494018554688,0.1203765869140625,7.680624389648438,1720757693643.0
2.935999999999978,7.1974731445312505,-0.3261383056640625,7.472320556640626,1720757693653.0
2.9460000000000264,6.6429931640625,-0.484197998046875,7.018179321289063,1720757693663.0
2.9569999999999936,6.709088134765626,-0.346923828125,5.7788238525390625,1720757693674.0
2.9669999999999845,7.2513061523437505,-0.320306396484375,7.336990356445313,1720757693684.0
2.976999999999975,7.679129028320313,-0.2906982421875,6.863558959960938,1720757693694.0
2.987000000000023,7.1137329101562505,-0.0387298583984375,6.380258178710938,1720757693704.0
2.997000000000014,6.562692260742188,0.250323486328125,6.225787353515625,1720757693714.0
3.007000000000005,6.720901489257813,0.3276336669921875,7.220352172851563,1720757693724.0
3.016999999999996,7.078292846679688,0.3144744873046875,8.368341064453126,1720757693734.0
3.026999999999987,6.825726318359376,0.27813720703125,6.913055419921876,1720757693744.0
3.0369999999999777,6.6247497558593755,0.200079345703125,6.182272338867188,1720757693754.0
3.0470000000000255,7.012945556640625,0.095703125,6.774435424804688,1720757693764.0
3.0570000000000164,7.286148071289063,0.012860107421875,7.386486816406251,1720757693774.0
3.0670000000000073,6.979449462890625,-0.0921142578125,7.296316528320313,1720757693784.0
3.076999999999998,6.859820556640625,-0.174359130859375,6.0654846191406255,1720757693794.0
3.086999999999989,7.183865356445313,-0.452496337890625,6.32059326171875,1720757693804.0
3.09699999999998,7.339682006835938,-0.325390625,7.1705566406250005,1720757693814.0
3.1070000000000277,6.678433227539063,-0.030804443359375,7.375421142578125,1720757693824.0
3.117999999999995,6.275732421875,0.1332366943359375,6.8774658203125005,1720757693835.0
3.127999999999986,6.8819519042968755,-0.0955535888671875,6.583926391601563,1720757693845.0
3.137999999999977,7.659390258789063,-0.002093505859375,7.204052734375001,1720757693855.0
3.148000000000025,7.435833740234376,0.2811279296875,6.821090698242188,1720757693865.0
3.1569999999999823,6.650021362304688,0.6533233642578126,6.948196411132813,1720757693874.0
3.1680000000000064,6.0903076171875,0.7122406005859375,6.638357543945313,1720757693885.0
3.1779999999999973,7.147378540039063,0.4143646240234375,7.787841796875001,1720757693895.0
3.187999999999988,7.088461303710938,-0.225201416015625,7.27164306640625,1720757693905.0
3.197999999999979,7.6275390625,-0.542218017578125,5.677587890625,1720757693915.0
3.208000000000027,6.570617675781251,-0.476123046875,7.245922851562501,1720757693925.0
3.2180000000000177,6.461456298828126,-0.0557769775390625,6.698171997070313,1720757693935.0
3.2280000000000086,7.414001464843751,0.011065673828125,8.237197875976562,1720757693945.0
3.2379999999999995,7.1765380859375005,-0.25899658203125,6.194534301757813,1720757693955.0
3.2479999999999905,7.3230834960937505,0.0602630615234375,5.400796508789063,1720757693965.0
3.257999999999982,6.567178344726563,0.49765625,7.569070434570313,1720757693975.0
3.268000000000029,6.773538208007813,0.741400146484375,7.480245971679688,1720757693985.0
3.27800000000002,6.681723022460938,0.3923828125,8.552569580078126,1720757693995.0
3.288000000000011,7.0748535156250005,0.00059814453125,5.514743041992188,1720757694005.0
3.298999999999978,7.031936645507813,-0.24822998046875,6.2404418945312505,1720757694016.0
3.309000000000026,7.2722412109375005,-0.317913818359375,7.096087646484375,1720757694026.0
3.319000000000017,7.355682373046876,-0.3955230712890625,6.988421630859375,1720757694036.0
3.3290000000000077,6.696975708007813,-0.4424774169921875,7.306784057617188,1720757694046.0
3.338999999999998,6.812716674804688,-0.19559326171875,5.645138549804688,1720757694056.0
3.3489999999999895,6.916494750976563,-0.0064300537109375,7.652661132812501,1720757694066.0
3.3589999999999804,7.202108764648438,0.3158203125,7.220053100585938,1720757694076.0
3.369000000000028,6.828268432617188,0.4272247314453125,6.984832763671876,1720757694086.0
3.379000000000019,6.709686279296876,0.4616180419921875,6.4916625976562505,1720757694096.0
3.38900000000001,6.904232788085938,0.405841064453125,6.737200927734375,1720757694106.0
3.399000000000001,7.0344787597656255,0.2543609619140625,7.963098144531251,1720757694116.0
3.408999999999992,7.045843505859375,-0.0222808837890625,6.772341918945313,1720757694126.0
3.4189999999999827,6.744528198242188,-0.3171661376953125,6.489419555664063,1720757694136.0
3.4290000000000305,7.108200073242188,-0.476123046875,6.286499023437501,1720757694146.0
3.439000000000022,7.25968017578125,-0.4071868896484375,7.253848266601563,1720757694156.0
3.4490000000000123,6.973617553710938,-0.1786956787109375,7.391421508789063,1720757694166.0
3.459000000000003,6.795819091796876,0.0411224365234375,6.589608764648438,1720757694176.0
3.468999999999994,6.812118530273438,0.16209716796875,6.530392456054688,1720757694186.0
3.478999999999985,7.349850463867188,0.1915557861328125,6.59873046875,1720757694196.0
3.490000000000009,6.90079345703125,-0.0943572998046875,6.855184936523438,1720757694207.0
3.502999999999986,6.97496337890625,-0.16090087890625,6.613235473632813,1720757694220.0
3.509999999999991,6.537121582031251,-0.268267822265625,7.684063720703126,1720757694227.0
3.519999999999982,7.585968017578126,-0.2196685791015625,7.337738037109376,1720757694237.0
3.5300000000000296,7.869488525390626,0.34393310546875,6.942364501953126,1720757694247.0
3.5400000000000205,5.372384643554688,0.6129486083984376,5.979800415039063,1720757694257.0
3.5500000000000114,6.487924194335938,0.9069366455078126,6.714620971679688,1720757694267.0
3.5600000000000023,7.549630737304688,0.3186614990234375,8.705096435546876,1720757694277.0
3.569999999999993,7.538565063476563,-0.0820953369140625,6.687704467773438,1720757694287.0
3.579999999999984,6.659292602539063,-0.02572021484375,6.695928955078125,1720757694297.0
3.589999999999975,6.231619262695313,0.1434051513671875,6.015390014648438,1720757694307.0
3.601999999999975,7.331906127929688,-0.13876953125,7.462899780273438,1720757694319.0
3.6100000000000136,7.654006958007813,-0.743194580078125,7.415945434570313,1720757694327.0
3.620000000000005,7.3200927734375005,-0.6377716064453125,5.736056518554688,1720757694337.0
3.629999999999995,6.184963989257813,-0.05203857421875,6.850997924804688,1720757694347.0
3.641000000000019,6.462802124023438,0.54132080078125,7.571014404296876,1720757694358.0
3.6499999999999777,7.440768432617188,0.5103668212890625,8.194430541992189,1720757694367.0
3.661000000000002,6.885092163085938,0.43544921875,6.444110107421875,1720757694378.0
3.670999999999992,6.778173828125,0.5612091064453125,5.514294433593751,1720757694388.0
3.680999999999983,7.054067993164063,0.4652069091796875,7.291232299804688,1720757694398.0
3.691000000000031,7.326821899414063,0.0303558349609375,7.608547973632813,1720757694408.0
3.7030000000000314,6.788641357421875,-0.317913818359375,7.608847045898438,1720757694420.0
3.7110000000000127,6.562393188476563,-0.478216552734375,5.87138671875,1720757694428.0
3.721000000000003,6.756939697265626,-0.5585174560546875,6.712527465820313,1720757694438.0
3.7309999999999945,7.427609252929688,-0.5117126464843751,7.569219970703125,1720757694448.0
3.7409999999999854,7.497592163085938,-0.24942626953125,6.890176391601563,1720757694458.0
3.750999999999976,6.506466674804688,0.1909576416015625,6.3199951171875,1720757694468.0
3.761000000000024,6.658993530273438,0.5970977783203125,6.287545776367188,1720757694478.0
3.771000000000015,7.105657958984375,0.66693115234375,7.925265502929688,1720757694488.0
3.781000000000006,7.453628540039063,0.3841583251953125,7.183715820312501,1720757694498.0
3.790999999999997,6.984085083007813,0.1200775146484375,6.15550537109375,1720757694508.0
3.802000000000021,6.553720092773438,-0.2325286865234375,6.228927612304688,1720757694519.0
3.812000000000012,6.763519287109376,-0.2388092041015625,7.571762084960938,1720757694529.0
3.8220000000000023,6.916494750976563,-0.3494659423828125,8.3991455078125,1720757694539.0
3.8310000000000177,7.129882812500001,-0.3886444091796875,6.3137145996093755,1720757694548.0
3.841999999999985,7.1899963378906255,-0.4077850341796875,5.5914550781250005,1720757694559.0
3.851999999999975,7.12509765625,0.05562744140625,6.611441040039063,1720757694569.0
3.862000000000023,7.07066650390625,0.5176940917968751,7.521517944335938,1720757694579.0
3.872000000000014,6.791482543945313,0.5443115234375,7.487274169921876,1720757694589.0
3.882000000000005,6.7862487792968755,0.1831817626953125,6.1522155761718755,1720757694599.0
3.891999999999996,6.504672241210938,-0.2346221923828125,6.491363525390626,1720757694609.0
3.90300000000002,6.912905883789063,-0.1806396484375,7.555014038085938,1720757694620.0
3.9119999999999777,7.241436767578126,-0.2127899169921875,8.180374145507812,1720757694629.0
3.9220000000000255,7.620211791992188,-0.2666229248046875,6.32059326171875,1720757694639.0
3.932000000000016,7.281961059570313,-0.2546600341796875,5.329617309570313,1720757694649.0
3.9420000000000073,6.331060791015625,0.402850341796875,6.770547485351563,1720757694659.0
3.951999999999998,6.894512939453126,0.8765808105468751,7.895059204101563,1720757694669.0
3.961999999999989,6.754248046875,0.3204559326171875,8.381051635742189,1720757694679.0
3.97199999999998,7.4265625,-0.2280426025390625,5.69852294921875,1720757694689.0
3.982000000000028,6.4133056640625,0.0874786376953125,6.93369140625,1720757694699.0
3.992000000000018,6.270797729492188,0.6569122314453125,7.210333251953125,1720757694709.0
4.002999999999986,7.626641845703125,0.23267822265625,7.780364990234376,1720757694720.0
4.012999999999977,7.553668212890625,-0.7079040527343751,6.456970214843751,1720757694730.0
4.023000000000025,7.547537231445313,-0.8707489013671875,4.3398376464843755,1720757694740.0
4.0330000000000155,6.443063354492188,-0.1160400390625,7.774533081054688,1720757694750.0
4.043000000000006,6.324032592773438,0.3303253173828125,8.205047607421875,1720757694760.0
4.052999999999997,7.0712646484375,-0.049945068359375,8.564083862304688,1720757694770.0
4.062999999999988,7.157247924804688,-0.0369354248046875,5.261727905273438,1720757694780.0
4.072999999999979,6.7099853515625005,0.3409423828125,5.465396118164063,1720757694790.0
4.083000000000027,7.178631591796876,0.7206146240234376,7.8001037597656255,1720757694800.0
4.093000000000018,7.51927490234375,0.416607666015625,7.685559082031251,1720757694810.0
4.103000000000009,6.602767944335938,-0.0011962890625,7.233511352539063,1720757694820.0
4.1129999999999995,6.3854919433593755,-0.1088623046875,5.28221435546875,1720757694830.0
4.1229999999999905,6.7028076171875,-0.216229248046875,7.707092285156251,1720757694840.0
4.132999999999981,7.491311645507813,-0.34871826171875,7.98343505859375,1720757694850.0
4.143000000000029,7.229922485351563,-0.468048095703125,6.712826538085938,1720757694860.0
4.15300000000002,6.836492919921875,-0.223406982421875,5.400796508789063,1720757694870.0
4.163000000000011,6.844866943359375,0.0321502685546875,6.326126098632813,1720757694880.0
4.173000000000002,7.278521728515625,0.383111572265625,8.20355224609375,1720757694890.0
4.184000000000026,7.018478393554688,0.3542510986328125,7.648175048828126,1720757694901.0
4.194000000000017,6.573757934570313,0.29847412109375,6.005819702148438,1720757694911.0
4.204000000000008,6.709835815429688,0.1389190673828125,6.204104614257813,1720757694921.0
4.213999999999999,7.145883178710938,0.1757049560546875,7.882049560546876,1720757694931.0
4.2239999999999895,6.944009399414063,0.137274169921875,8.036819458007812,1720757694941.0
4.2339999999999804,6.796566772460938,-0.0563751220703125,6.272293090820313,1720757694951.0
4.244000000000028,7.155902099609375,-0.5203857421875,5.362814331054688,1720757694961.0
4.254000000000019,7.4681335449218755,-0.5725738525390626,6.736453247070313,1720757694971.0
4.26400000000001,6.9597106933593755,-0.42647705078125,7.315756225585938,1720757694981.0
4.274000000000001,6.774734497070313,-0.279632568359375,7.408767700195313,1720757694991.0
4.283999999999992,6.548037719726563,-0.105572509765625,6.854287719726563,1720757695001.0
4.293999999999983,7.313214111328126,0.11065673828125,6.725985717773438,1720757695011.0
4.3040000000000305,7.631875610351563,0.8553466796875001,7.630679321289063,1720757695021.0
4.314000000000021,6.15550537109375,1.146792602539063,6.609197998046875,1720757695031.0
4.324000000000012,6.285153198242188,1.06888427734375,6.553421020507813,1720757695041.0
4.334000000000003,7.253549194335938,0.0862823486328125,7.2124267578125005,1720757695051.0
4.343999999999994,7.723690795898438,-0.6702209472656251,7.015637207031251,1720757695061.0
4.353999999999985,6.982440185546875,-0.52457275390625,7.481591796875,1720757695071.0
4.363999999999976,5.979052734375,-0.3273345947265625,6.321939086914063,1720757695081.0
4.375,7.02939453125,-0.4119720458984375,7.102966308593751,1720757695092.0
4.384999999999991,7.819692993164063,-0.6462951660156251,6.839483642578125,1720757695102.0
4.394999999999982,7.514340209960938,-0.1341339111328125,6.171206665039063,1720757695112.0
4.40500000000003,6.508709716796876,0.51739501953125,6.99888916015625,1720757695122.0
4.4150000000000205,6.3361450195312505,0.98992919921875,7.062142944335938,1720757695132.0
4.425000000000011,7.061544799804688,0.7345214843750001,8.063885498046876,1720757695142.0
4.435000000000002,6.985430908203125,0.3850555419921875,6.9875244140625,1720757695152.0
4.444999999999993,6.739144897460938,0.338250732421875,6.174945068359375,1720757695162.0
4.454999999999984,6.739743041992188,0.0438140869140625,7.057955932617188,1720757695172.0
4.464999999999975,7.201510620117188,-0.285614013671875,7.163827514648438,1720757695182.0
4.475000000000023,7.175790405273438,-0.6948944091796876,7.479348754882813,1720757695192.0
4.485000000000014,6.927560424804688,-0.5199371337890626,5.960211181640625,1720757695202.0
4.4950000000000045,6.97496337890625,-0.4466644287109375,6.406875610351563,1720757695212.0
4.5049999999999955,7.341326904296875,-0.3584381103515625,7.032235717773438,1720757695222.0
4.514999999999986,7.480545043945313,-0.1463958740234375,6.8206420898437505,1720757695232.0
4.524999999999977,6.635516357421875,0.2086029052734375,6.776977539062501,1720757695242.0
4.535000000000025,6.384146118164063,0.5613586425781251,6.685311889648438,1720757695252.0
4.545999999999992,6.686956787109375,0.728240966796875,8.068670654296875,1720757695263.0
4.555999999999983,7.157696533203126,0.5259185791015626,7.462899780273438,1720757695273.0
4.566000000000031,7.018179321289063,0.377130126953125,6.529495239257813,1720757695283.0
4.576000000000022,6.750958251953126,0.152825927734375,6.140701293945313,1720757695293.0
4.586000000000013,6.940869140625001,-0.0782073974609375,6.933242797851563,1720757695303.0
4.596000000000004,7.2746337890625,-0.4164581298828125,7.741635131835938,1720757695313.0
4.6059999999999945,7.111788940429688,-0.686370849609375,6.482839965820313,1720757695323.0
4.6159999999999854,7.055264282226563,-0.7138854980468751,6.098681640625,1720757695333.0
4.625999999999976,6.958663940429688,-0.4018035888671875,6.681274414062501,1720757695343.0
4.636000000000024,7.129733276367188,0.0620574951171875,7.323681640625001,1720757695353.0
4.646000000000015,6.9926086425781255,0.2827728271484375,7.165472412109375,1720757695363.0
4.656000000000006,6.5329345703125,0.453094482421875,6.392071533203126,1720757695373.0
4.665999999999997,6.358126831054688,0.3267364501953125,6.635067749023438,1720757695383.0
4.675999999999988,7.329364013671875,0.3093902587890625,7.869189453125,1720757695393.0
4.685999999999979,7.331158447265626,0.088226318359375,7.663278198242188,1720757695403.0
4.696000000000026,7.942761230468751,-0.0466552734375,5.989520263671875,1720757695413.0
4.706000000000017,6.373678588867188,-0.0459075927734375,5.7912353515625,1720757695423.0
4.7169999999999845,6.260629272460938,0.22430419921875,6.903485107421876,1720757695434.0
4.726999999999975,7.171005249023438,0.1280029296875,8.654403686523438,1720757695444.0
4.737000000000023,6.961953735351563,-0.4828521728515625,7.40921630859375,1720757695454.0
4.747000000000014,7.302297973632813,-0.2914459228515625,5.8132171630859375,1720757695464.0
4.757000000000005,6.064736938476563,0.3668121337890625,6.89481201171875,1720757695474.0
4.766999999999996,6.986477661132813,0.9894805908203126,7.238446044921876,1720757695484.0
4.776999999999987,7.797561645507813,0.24404296875,7.817749023437501,1720757695494.0
4.786999999999978,7.449441528320313,-0.370550537109375,5.057012939453125,1720757695504.0
4.7970000000000255,6.747518920898438,-0.244342041015625,6.125,1720757695514.0
4.807000000000016,5.981146240234375,0.1837799072265625,8.229122924804688,1720757695524.0
4.817000000000007,7.217959594726563,-0.174359130859375,8.188299560546875,1720757695534.0
4.826999999999998,6.939523315429688,-0.5700317382812501,7.781710815429688,1720757695544.0
4.836999999999989,7.118667602539063,-0.1595550537109375,4.124057006835938,1720757695554.0
4.84699999999998,6.709237670898438,0.3533538818359375,7.025656127929688,1720757695564.0
4.857000000000028,7.450936889648438,0.502142333984375,7.601669311523438,1720757695574.0
4.867000000000019,7.528097534179688,0.22550048828125,7.634716796875001,1720757695584.0
4.877999999999986,6.400595092773438,0.1673309326171875,6.034231567382813,1720757695595.0
4.887999999999977,6.103616333007813,0.246435546875,6.015390014648438,1720757695605.0
4.898000000000025,6.969879150390626,0.035589599609375,8.769396972656251,1720757695615.0
4.9080000000000155,7.659390258789063,-0.3180633544921875,7.44749755859375,1720757695625.0
4.918000000000006,6.743780517578125,-0.3111846923828125,6.243731689453125,1720757695635.0
4.927999999999997,6.682470703125,-0.1622467041015625,5.3151123046875,1720757695645.0
4.937999999999988,7.131976318359375,0.046954345703125,7.40562744140625,1720757695655.0
4.947999999999979,7.5847717285156255,0.088226318359375,8.178280639648438,1720757695665.0
4.958000000000027,6.992010498046875,0.102581787109375,6.375173950195313,1720757695675.0
4.968000000000018,6.603067016601563,0.0136077880859375,5.540164184570313,1720757695685.0
4.978000000000009,6.798809814453126,0.0466552734375,7.074105834960938,1720757695695.0
4.9879999999999995,7.248614501953125,0.121124267578125,8.2436279296875,1720757695705.0
4.9979999999999905,6.828717041015626,0.0931610107421875,7.600921630859376,1720757695715.0
5.0120000000000005,6.609197998046875,-0.0294586181640625,5.682821655273438,1720757695729.0
5.018000000000029,7.057806396484375,-0.133685302734375,6.305340576171876,1720757695735.0
5.02800000000002,7.39127197265625,0.1033294677734375,7.4427124023437505,1720757695745.0
5.038000000000011,7.000234985351563,0.1105072021484375,7.462002563476563,1720757695755.0
5.048000000000002,6.633422851562501,-0.04844970703125,6.185711669921876,1720757695765.0
5.057999999999993,6.641946411132813,-0.4203460693359375,6.002529907226563,1720757695775.0
5.067999999999984,7.296765136718751,-0.3530548095703125,7.69273681640625,1720757695785.0
5.079000000000008,7.358673095703126,-0.12860107421875,7.783953857421875,1720757695796.0
5.088999999999999,7.182818603515625,0.0832916259765625,6.431997680664063,1720757695806.0
5.0989999999999895,6.847259521484376,0.2343231201171875,6.102420043945313,1720757695816.0
5.1089999999999804,6.276779174804688,0.640911865234375,7.004272460937501,1720757695826.0
5.119000000000028,6.971374511718751,0.9329559326171876,8.061791992187501,1720757695836.0
5.129000000000019,6.961804199218751,0.2926422119140625,7.615875244140626,1720757695846.0
5.13900000000001,7.473068237304688,-0.374139404296875,5.415301513671875,1720757695856.0
5.149000000000001,6.677536010742188,-0.255108642578125,6.950439453125001,1720757695866.0
5.158999999999992,6.471774291992188,0.161798095703125,7.179379272460938,1720757695876.0
5.168999999999983,7.374673461914063,-0.2175750732421875,7.811767578125001,1720757695886.0
5.1790000000000305,7.428506469726563,-0.8495147705078125,6.419137573242188,1720757695896.0
5.189000000000021,7.272988891601563,-0.6032287597656251,5.3018035888671875,1720757695906.0
5.199000000000012,6.399398803710938,0.4246826171875,7.590603637695313,1720757695916.0
5.211999999999989,6.579589843750001,0.8818145751953126,7.832553100585938,1720757695929.0
5.218999999999994,7.275680541992188,0.3102874755859375,7.900741577148438,1720757695936.0
5.228999999999985,7.126293945312501,0.1846771240234375,5.3272247314453125,1720757695946.0
5.238999999999976,6.565383911132813,0.506927490234375,6.519027709960938,1720757695956.0
5.25,6.707144165039063,0.5842376708984376,8.075848388671876,1720757695967.0
5.259999999999991,7.307980346679688,-0.045159912109375,7.529891967773438,1720757695977.0
5.269999999999982,6.890176391601563,-0.5130584716796875,6.684713745117188,1720757695987.0
5.28000000000003,6.852792358398438,-0.637921142578125,5.2310729980468755,1720757695997.0
5.2900000000000205,7.099676513671875,-0.4358978271484375,7.369290161132813,1720757696007.0
5.300000000000011,7.550976562500001,-0.3925323486328125,7.686306762695313,1720757696017.0
5.312000000000012,7.063040161132813,-0.27813720703125,6.619216918945313,1720757696029.0
5.319999999999993,6.670358276367188,0.044561767578125,5.7444305419921875,1720757696037.0
5.329999999999984,6.570019531250001,0.384307861328125,6.938027954101563,1720757696047.0
5.339999999999975,7.123153686523438,0.667828369140625,8.373873901367189,1720757696057.0
5.350000000000023,6.941616821289063,0.5923126220703125,7.503872680664063,1720757696067.0
5.360000000000014,6.75364990234375,0.350213623046875,5.820394897460938,1720757696077.0
5.3700000000000045,6.8744750976562505,0.1018341064453125,6.372631835937501,1720757696087.0
5.3799999999999955,7.119564819335938,0.0542816162109375,7.519125366210938,1720757696097.0
5.389999999999986,6.955523681640625,-0.2277435302734375,7.938723754882813,1720757696107.0
5.399999999999977,7.026702880859376,-0.5073760986328125,6.235656738281251,1720757696117.0
5.411999999999978,7.184613037109376,-0.7849151611328126,5.573361206054688,1720757696129.0
5.420999999999992,7.181771850585938,-0.4140655517578125,7.137359619140626,1720757696138.0
5.430999999999983,6.965542602539063,0.1667327880859375,7.610940551757813,1720757696148.0
5.441000000000031,6.558505249023438,0.3541015625,7.111639404296875,1720757696158.0
5.451000000000022,6.652413940429688,0.244940185546875,6.146981811523438,1720757696168.0
5.461000000000013,6.7010131835937505,0.13817138671875,6.915298461914063,1720757696178.0
5.471000000000004,7.595986938476563,0.2995208740234375,7.539013671875001,1720757696188.0
5.4809999999999945,7.366000366210938,0.3503631591796875,7.386486816406251,1720757696198.0
5.4909999999999854,6.981393432617188,0.116339111328125,6.064587402343751,1720757696208.0
5.500999999999976,6.661685180664063,0.054132080078125,6.131878662109376,1720757696218.0
5.5120000000000005,6.222048950195313,0.3117828369140625,8.002874755859375,1720757696229.0
5.521000000000015,7.232763671875,0.006878662109375,7.731466674804688,1720757696238.0
5.531000000000006,7.358224487304688,-0.7907470703125,6.5173828125,1720757696248.0
5.540999999999997,7.597781372070313,-0.8599822998046875,5.584725952148438,1720757696258.0
5.550999999999988,6.282760620117188,0.1471435546875,7.150369262695313,1720757696268.0
5.560999999999979,6.219357299804688,0.9966583251953126,8.253497314453126,1720757696278.0
5.571000000000026,7.700512695312501,0.384906005859375,7.39366455078125,1720757696288.0
5.581000000000017,7.64488525390625,-0.4702911376953125,4.98074951171875,1720757696298.0
5.591000000000008,6.91275634765625,0.14534912109375,6.1387573242187505,1720757696308.0
5.600999999999999,5.880807495117188,0.95882568359375,8.339480590820314,1720757696318.0
5.612000000000023,6.740789794921875,0.3668121337890625,8.713619995117188,1720757696329.0
5.622000000000014,7.259381103515626,-0.4637115478515625,6.971224975585938,1720757696339.0
5.632000000000005,7.589556884765625,-0.8481689453125001,4.092205810546876,1720757696349.0
5.641999999999996,6.810324096679688,-0.2726043701171875,6.728677368164063,1720757696359.0
5.651999999999987,7.263119506835938,0.0695343017578125,7.932293701171876,1720757696369.0
5.661999999999978,7.148873901367188,-0.2319305419921875,8.026351928710938,1720757696379.0
5.6720000000000255,6.594992065429688,-0.1676300048828125,5.6587463378906255,1720757696389.0
5.682000000000016,6.48209228515625,0.21951904296875,5.9448089599609375,1720757696399.0
5.692000000000007,7.029693603515626,0.6661834716796875,8.416790771484376,1720757696409.0
5.701999999999998,7.282858276367188,0.5043853759765625,7.850796508789063,1720757696419.0
5.713000000000022,6.867446899414063,0.2899505615234375,6.3884826660156255,1720757696430.0
5.72199999999998,6.634170532226563,0.091217041015625,5.2958221435546875,1720757696439.0
5.732000000000028,6.8131652832031255,-0.0330474853515625,7.535873413085938,1720757696449.0
5.742000000000019,7.448693847656251,-0.1398162841796875,8.32437744140625,1720757696459.0
5.7520000000000095,6.89481201171875,-0.48988037109375,6.885092163085938,1720757696469.0
5.7620000000000005,6.967935180664063,-0.5932098388671876,5.079144287109376,1720757696479.0
5.773000000000025,7.093695068359375,-0.4284210205078125,6.544598388671876,1720757696490.0
5.7830000000000155,7.3096252441406255,0.1398162841796875,7.783505249023438,1720757696500.0
5.793000000000006,6.717611694335938,0.4083831787109375,8.0115478515625,1720757696510.0
5.802999999999997,6.477456665039063,0.48330078125,6.154757690429688,1720757696520.0
5.812999999999988,7.055712890625,0.2498748779296875,6.02989501953125,1720757696530.0
5.822999999999979,7.168313598632813,0.2666229248046875,7.519125366210938,1720757696540.0
5.833000000000027,7.0353759765625,0.175555419921875,7.326672363281251,1720757696550.0
5.843000000000018,6.616226196289063,-0.389093017578125,6.490765380859376,1720757696560.0
5.853000000000009,7.024160766601563,-0.8688049316406251,6.014193725585938,1720757696570.0
5.8629999999999995,7.371832275390625,-0.8007659912109376,7.330261230468751,1720757696580.0
5.8729999999999905,7.695129394531251,-0.249127197265625,7.571014404296876,1720757696590.0
5.882999999999981,6.920083618164063,0.438739013671875,6.81944580078125,1720757696600.0
5.8940000000000055,5.752655029296875,0.8347106933593751,6.3675476074218755,1720757696611.0
5.90300000000002,6.582431030273438,1.184625244140625,7.1813232421875,1720757696620.0
5.913000000000011,7.424618530273438,0.9308624267578126,8.381799316406251,1720757696630.0
5.923000000000002,7.265213012695313,0.2666229248046875,6.475363159179688,1720757696640.0
5.934000000000026,6.926065063476563,-0.19798583984375,6.0927001953125,1720757696651.0
5.944000000000017,6.516036987304688,-0.335858154296875,6.505270385742188,1720757696661.0
5.954000000000008,7.270895385742188,-0.6077148437500001,7.502825927734375,1720757696671.0
5.963999999999999,7.425216674804688,-1.1046234130859376,7.577593994140625,1720757696681.0
5.9739999999999895,7.093545532226563,-0.907086181640625,5.669961547851563,1720757696691.0
5.9839999999999804,6.460858154296876,0.04127197265625,6.981842041015626,1720757696701.0
5.994000000000028,6.565234375,0.8907867431640626,7.485928344726563,1720757696711.0
6.004000000000019,7.400244140625,1.0229766845703123,7.781112670898438,1720757696721.0
6.01400000000001,7.024609375000001,0.7953826904296876,6.535177612304688,1720757696731.0
6.024000000000001,6.675442504882813,0.7191192626953126,5.417095947265626,1720757696741.0
6.033999999999992,6.890774536132813,0.464459228515625,7.740438842773438,1720757696751.0
6.043999999999983,7.046890258789063,-0.170770263671875,7.977902221679688,1720757696761.0
6.0540000000000305,6.781314086914063,-0.6794921875000001,7.302896118164063,1720757696771.0
6.064000000000021,6.701312255859375,-0.8647674560546875,5.795123291015625,1720757696781.0
6.074000000000012,7.067974853515626,-0.8157196044921876,6.409716796875,1720757696791.0
6.084000000000003,7.672549438476563,-0.4702911376953125,7.39127197265625,1720757696801.0
6.093999999999994,7.413552856445313,-0.0928619384765625,6.737799072265625,1720757696811.0
6.103999999999985,6.6038146972656255,0.385205078125,6.190646362304688,1720757696821.0
6.113999999999976,6.510504150390625,0.6776977539062501,6.648825073242188,1720757696831.0
6.124000000000024,7.005618286132813,0.789251708984375,8.115475463867188,1720757696841.0
6.134999999999991,6.934887695312501,0.5627044677734375,7.786944580078125,1720757696852.0
6.144999999999982,6.821987915039063,0.22191162109375,6.0106048583984375,1720757696862.0
6.15500000000003,6.960458374023438,-0.224005126953125,6.330014038085938,1720757696872.0
6.1650000000000205,7.074105834960938,-0.340643310546875,7.199267578125,1720757696882.0
6.175000000000011,6.878363037109375,-0.32598876953125,7.924517822265625,1720757696892.0
6.185000000000002,6.964645385742188,-0.3715972900390625,6.507812500000001,1720757696902.0
6.194999999999993,7.338037109375,-0.59156494140625,5.617623901367188,1720757696912.0
6.204999999999984,7.326522827148438,-0.318212890625,6.7234436035156255,1720757696922.0
6.214999999999975,6.930999755859376,0.3007171630859375,7.267007446289063,1720757696932.0
6.225000000000023,6.374575805664063,0.588873291015625,7.645632934570313,1720757696942.0
6.235000000000014,6.5200744628906255,0.36307373046875,6.676937866210938,1720757696952.0
6.2450000000000045,7.006216430664063,-0.09031982421875,6.545944213867188,1720757696962.0
6.2549999999999955,7.380056762695313,-0.0569732666015625,7.235455322265626,1720757696972.0
6.264999999999986,7.338934326171875,0.1508819580078125,7.0473388671875,1720757696982.0
6.274999999999977,7.177136230468751,0.0634033203125,6.8355957031250005,1720757696992.0
6.285000000000025,6.642095947265625,0.034991455078125,6.228329467773438,1720757697002.0
6.295999999999992,6.338238525390626,0.31103515625,7.383197021484375,1720757697013.0
6.305000000000007,7.111788940429688,0.246435546875,7.619015502929688,1720757697022.0
6.316000000000031,7.194183349609376,-0.3620269775390625,6.868792724609375,1720757697033.0
6.326000000000022,7.462600708007813,-0.4493560791015625,6.243582153320313,1720757697043.0
6.336000000000013,6.3017517089843755,0.23028564453125,6.853240966796876,1720757697053.0
6.346000000000004,6.581832885742188,0.59635009765625,7.576397705078126,1720757697063.0
6.3559999999999945,7.760476684570313,0.0372344970703125,7.112985229492188,1720757697073.0
6.3659999999999854,7.360018920898438,-0.5160491943359375,5.837741088867188,1720757697083.0
6.375999999999976,6.771743774414063,0.0919647216796875,6.445455932617188,1720757697093.0
6.386000000000024,6.0400634765625005,0.581396484375,7.811767578125001,1720757697103.0
6.396000000000015,6.969729614257813,0.2884552001953125,8.287442016601563,1720757697113.0
6.406000000000006,7.386337280273438,-0.2376129150390625,7.079638671875,1720757697123.0
6.415999999999997,7.197174072265626,-0.2636322021484375,4.673901367187501,1720757697133.0
6.425999999999988,6.791033935546875,0.0372344970703125,6.692788696289063,1720757697143.0
6.437000000000012,7.217062377929688,0.1167877197265625,7.787094116210938,1720757697154.0
6.447000000000003,7.075003051757813,-0.22490234375,7.820291137695313,1720757697164.0
6.456000000000017,6.563140869140626,-0.213238525390625,6.2299743652343755,1720757697173.0
6.4669999999999845,6.563739013671875,0.0644500732421875,6.052325439453125,1720757697184.0
6.476999999999975,7.046890258789063,0.220416259765625,7.886685180664063,1720757697194.0
6.487000000000023,7.580584716796875,0.1592559814453125,7.294372558593751,1720757697204.0
6.497000000000014,6.868344116210938,0.1591064453125,6.589459228515626,1720757697214.0
6.507000000000005,6.595889282226563,0.162994384765625,5.601773071289063,1720757697224.0
6.516999999999996,6.7907348632812505,0.166583251953125,7.597482299804688,1720757697234.0
6.526999999999987,7.1735473632812505,0.028411865234375,8.292526245117188,1720757697244.0
6.536999999999978,7.035675048828126,-0.24703369140625,6.596487426757813,1720757697254.0
6.5470000000000255,6.958663940429688,-0.3790740966796875,5.631680297851563,1720757697264.0
6.557000000000016,7.005618286132813,-0.2489776611328125,6.557159423828126,1720757697274.0
6.567000000000007,7.1789306640625,0.0817962646484375,7.808926391601563,1720757697284.0
6.576999999999998,6.7578369140625005,0.2404541015625,7.663128662109376,1720757697294.0
6.586999999999989,6.763070678710938,0.1614990234375,6.134121704101563,1720757697304.0
6.59699999999998,7.158743286132813,-0.043963623046875,6.12559814453125,1720757697314.0
6.607000000000028,7.165621948242188,0.1987335205078125,7.355084228515626,1720757697324.0
6.617000000000019,6.787594604492188,0.243145751953125,7.667913818359375,1720757697334.0
6.6270000000000095,6.537719726562501,-0.0097198486328125,6.576599121093751,1720757697344.0
6.6370000000000005,7.107003784179688,-0.5887237548828126,5.895611572265626,1720757697354.0
6.646999999999991,7.260577392578125,-0.763531494140625,7.076797485351563,1720757697364.0
6.6580000000000155,7.490414428710938,-0.286212158203125,7.286746215820313,1720757697375.0
6.668000000000006,7.219604492187501,0.2154815673828125,7.420132446289063,1720757697385.0
6.677999999999997,6.589309692382813,0.5004974365234376,6.393865966796875,1720757697395.0
6.687999999999988,6.095989990234376,0.8674591064453125,6.587664794921875,1720757697405.0
6.697999999999979,6.746322631835938,1.0337432861328126,8.032931518554689,1720757697415.0
6.708000000000027,7.300802612304688,0.380419921875,7.419384765625001,1720757697425.0
6.718000000000018,7.334747314453126,-0.3386993408203125,6.186459350585938,1720757697435.0
6.728000000000009,7.021469116210938,-0.448907470703125,6.315658569335938,1720757697445.0
6.7379999999999995,6.55087890625,-0.1463958740234375,6.895858764648438,1720757697455.0
6.7479999999999905,7.092050170898438,-0.3828125,7.717709350585938,1720757697465.0
6.757999999999981,7.436730957031251,-0.8394958496093751,6.776678466796875,1720757697475.0
6.768000000000029,7.08023681640625,-0.4681976318359375,6.052624511718751,1720757697485.0
6.77800000000002,6.402389526367188,0.5514892578125,7.088162231445313,1720757697495.0
6.788000000000011,6.6023193359375005,1.074566650390625,7.992556762695313,1720757697505.0
6.798000000000002,7.391720581054688,0.6567626953125001,7.205398559570313,1720757697515.0
6.807999999999993,7.160238647460938,0.3297271728515625,5.930453491210938,1720757697525.0
6.817999999999984,6.721798706054688,0.3856536865234375,6.228179931640626,1720757697535.0
6.829000000000008,6.703704833984376,0.214434814453125,7.629483032226563,1720757697546.0
6.838999999999999,7.037020874023438,-0.3620269775390625,7.975509643554688,1720757697556.0
6.8489999999999895,6.850100708007813,-0.6769500732421876,7.106704711914063,1720757697566.0
6.8589999999999804,6.710134887695313,-0.5286102294921875,5.642895507812501,1720757697576.0
6.869000000000028,7.117321777343751,-0.2513702392578125,6.851745605468751,1720757697586.0
6.879000000000019,7.673745727539063,-0.1075164794921875,7.213323974609375,1720757697596.0
6.88900000000001,7.307083129882813,-0.0028411865234375,6.634619140625,1720757697606.0
6.899000000000001,6.665573120117188,0.317315673828125,6.053372192382813,1720757697616.0
6.908999999999992,6.296966552734376,0.441729736328125,7.007412719726563,1720757697626.0
6.9220000000000255,6.970626831054688,0.391485595703125,8.379257202148438,1720757697639.0
6.9290000000000305,7.021618652343751,0.1661346435546875,7.642791748046876,1720757697646.0
6.939000000000021,6.762771606445313,0.017047119140625,5.720355224609375,1720757697656.0
6.949000000000012,7.135266113281251,-0.177349853515625,6.12320556640625,1720757697666.0
6.959000000000003,7.363159179687501,-0.15850830078125,7.185061645507813,1720757697676.0
6.968999999999994,6.958663940429688,-0.1395172119140625,7.882498168945313,1720757697686.0
6.978999999999985,6.616973876953126,-0.0231781005859375,6.584823608398438,1720757697696.0
6.988999999999976,7.024310302734375,-0.2926422119140625,5.81815185546875,1720757697706.0
6.999000000000024,7.413104248046875,-0.311334228515625,7.149920654296875,1720757697716.0
7.0090000000000146,7.132275390625001,0.093011474609375,7.312466430664063,1720757697726.0
7.021999999999991,6.408670043945313,0.4595245361328125,7.3368408203125,1720757697739.0
7.03000000000003,6.53233642578125,0.4212432861328125,6.605609130859375,1720757697747.0
7.0400000000000205,7.282708740234376,0.1024322509765625,6.778323364257813,1720757697757.0
7.050000000000011,7.297363281250001,-0.00299072265625,6.946701049804688,1720757697767.0
7.060000000000002,6.491812133789063,0.012860107421875,6.708190917968751,1720757697777.0
7.069999999999993,6.618469238281251,-0.260491943359375,6.694284057617188,1720757697787.0
7.079999999999984,7.576248168945313,-0.7995697021484376,7.062442016601563,1720757697797.0
7.089999999999975,8.080633544921875,-0.669622802734375,6.892868041992188,1720757697807.0
7.100000000000023,7.208538818359376,0.072674560546875,6.742733764648438,1720757697817.0
7.110000000000014,5.419189453125,0.94805908203125,6.662731933593751,1720757697827.0
7.122000000000014,6.354986572265625,1.12630615234375,7.861114501953126,1720757697839.0
7.1299999999999955,7.578640747070313,0.4278228759765625,7.642193603515626,1720757697847.0
7.139999999999986,7.484133911132813,0.0148040771484375,6.0834289550781255,1720757697857.0
7.149999999999977,6.599029541015626,0.298773193359375,6.820791625976563,1720757697867.0
7.160000000000025,6.266012573242188,0.1846771240234375,6.773388671875001,1720757697877.0
7.170999999999992,7.578939819335938,-0.2914459228515625,7.8608154296875,1720757697888.0
7.180000000000007,7.445852661132813,-0.9900787353515624,6.642095947265625,1720757697897.0
7.189999999999998,7.135565185546875,-0.7808776855468751,5.2614288330078125,1720757697907.0
7.201000000000022,6.434988403320313,-0.1117034912109375,7.420880126953126,1720757697918.0
7.211000000000013,6.79312744140625,0.3096893310546875,7.806234741210938,1720757697928.0
7.22199999999998,7.222146606445313,0.398663330078125,8.025155639648439,1720757697939.0
7.230999999999995,6.868194580078126,0.4795623779296875,5.714224243164063,1720757697948.0
7.2409999999999854,6.893765258789063,0.6939971923828125,5.8695922851562505,1720757697958.0
7.250999999999976,7.146929931640625,0.5007965087890626,7.4923583984375,1720757697968.0
7.261000000000024,7.150668334960938,0.04844970703125,7.417440795898438,1720757697978.0
7.271000000000015,6.629385375976563,-0.306549072265625,7.554116821289063,1720757697988.0
7.281000000000006,6.397604370117188,-0.41212158203125,5.84686279296875,1720757697998.0
7.290999999999997,6.842773437500001,-0.4744781494140625,7.277774047851563,1720757698008.0
7.300999999999988,7.601519775390625,-0.385504150390625,7.552322387695313,1720757698018.0
7.310999999999979,7.364205932617188,-0.2645294189453125,6.204852294921875,1720757698028.0
7.322000000000003,6.855184936523438,0.126507568359375,5.9814453125,1720757698039.0
7.331000000000017,6.7054992675781255,0.405242919921875,6.625048828125,1720757698048.0
7.341000000000008,7.115826416015626,0.5284606933593751,8.113980102539063,1720757698058.0
7.350999999999999,6.874774169921875,0.3859527587890625,7.618865966796876,1720757698068.0
7.36099999999999,6.573159790039063,0.2035186767578125,6.176589965820313,1720757698078.0
7.372000000000014,6.806137084960938,0.0118133544921875,6.624002075195313,1720757698089.0
7.382000000000005,7.1720520019531255,-0.0681884765625,7.349252319335938,1720757698099.0
7.391999999999996,7.128836059570313,-0.21951904296875,7.459011840820313,1720757698109.0
7.401999999999987,7.093545532226563,-0.334661865234375,6.210833740234375,1720757698119.0
7.411999999999978,7.005319213867188,-0.4146636962890625,5.9398742675781255,1720757698129.0
7.4220000000000255,7.112088012695313,-0.207257080078125,7.183865356445313,1720757698139.0
7.432000000000016,6.984085083007813,0.0536834716796875,7.395907592773438,1720757698149.0
7.442000000000007,6.714321899414063,0.011065673828125,6.715817260742188,1720757698159.0
7.451999999999998,6.884194946289063,-0.2041168212890625,6.148327636718751,1720757698169.0
7.461999999999989,6.874774169921875,-0.0791046142578125,7.351196289062501,1720757698179.0
7.47199999999998,7.3126159667968755,0.2770904541015625,7.5976318359375,1720757698189.0
7.482000000000028,7.426712036132813,0.410626220703125,7.202706909179688,1720757698199.0
7.492000000000019,6.561047363281251,0.5250213623046875,6.118420410156251,1720757698209.0
7.5020000000000095,6.154010009765625,0.4921234130859375,6.318051147460938,1720757698219.0
7.512,7.219454956054688,0.4701416015625,8.080783081054689,1720757698229.0
7.521999999999991,7.079040527343751,-0.145050048828125,7.658941650390625,1720757698239.0
7.531999999999982,7.243380737304688,-0.5013946533203125,6.169711303710938,1720757698249.0
7.543000000000006,6.603665161132813,-0.29129638671875,6.441418457031251,1720757698260.0
7.552999999999997,6.747817993164063,0.079254150390625,6.9073730468750005,1720757698270.0
7.562999999999988,7.555462646484376,-0.092413330078125,7.624099731445313,1720757698280.0
7.572999999999979,7.316653442382813,-0.393878173828125,6.600375366210938,1720757698290.0
7.583000000000027,6.888980102539063,-0.0237762451171875,5.861218261718751,1720757698300.0
7.593000000000018,6.322088623046875,0.5613586425781251,7.507162475585938,1720757698310.0
7.603000000000009,6.855783081054688,0.6799407958984376,7.791729736328126,1720757698320.0
7.613,7.200015258789063,0.235369873046875,7.596884155273438,1720757698330.0
7.6229999999999905,6.912307739257813,0.036187744140625,5.535678100585938,1720757698340.0
7.632999999999981,6.763668823242188,0.1613494873046875,6.59873046875,1720757698350.0
7.643000000000029,7.053768920898438,0.1413116455078125,7.69871826171875,1720757698360.0
7.65300000000002,7.1062561035156255,-0.1734619140625,7.482339477539063,1720757698370.0
7.663000000000011,6.798959350585938,-0.2893524169921875,6.772042846679688,1720757698380.0
7.673000000000002,6.828567504882813,-0.3126800537109375,5.675793457031251,1720757698390.0
7.682999999999993,7.1454345703125,-0.235369873046875,7.2172119140625,1720757698400.0
7.692999999999984,7.532882690429688,-0.1748077392578125,7.384991455078126,1720757698410.0
7.703000000000031,6.918438720703126,-0.051141357421875,6.689947509765625,1720757698420.0
7.713999999999999,6.543252563476563,0.1254608154296875,6.1345703125,1720757698431.0
7.723999999999989,6.663031005859375,0.30325927734375,7.296615600585938,1720757698441.0
7.7339999999999804,7.127041625976563,0.3617279052734375,8.081829833984376,1720757698451.0
7.744000000000028,6.966290283203126,0.32120361328125,7.015338134765625,1720757698461.0
7.754000000000019,6.803295898437501,0.1550689697265625,5.897256469726563,1720757698471.0
7.76400000000001,7.207342529296875,-0.0937591552734375,6.476559448242188,1720757698481.0
7.774000000000001,7.258932495117188,-0.1146942138671875,7.338784790039063,1720757698491.0
7.783999999999992,6.7683044433593755,-0.163592529296875,7.60361328125,1720757698501.0
7.793999999999983,6.764566040039063,-0.2684173583984375,6.432595825195313,1720757698511.0
7.8040000000000305,7.17235107421875,-0.4701416015625,6.218310546875,1720757698521.0
7.814000000000021,7.238446044921876,-0.17764892578125,7.155752563476563,1720757698531.0
7.824000000000012,6.838287353515626,0.2296875,7.420730590820313,1720757698541.0
7.834000000000003,6.6486755371093755,0.551190185546875,6.965542602539063,1720757698551.0
7.843999999999994,6.897952270507813,0.3043060302734375,6.428408813476563,1720757698561.0
7.853999999999985,7.148275756835938,0.14893798828125,6.827520751953125,1720757698571.0
7.863999999999976,6.573159790039063,0.1377227783203125,7.131976318359375,1720757698581.0
7.874000000000024,6.721051025390626,-0.100189208984375,7.233660888671875,1720757698591.0
7.884999999999991,7.515386962890625,-0.460870361328125,6.863409423828125,1720757698602.0
7.894000000000005,7.767355346679688,-0.6225189208984375,6.270199584960938,1720757698611.0
7.90500000000003,6.984683227539063,-0.1634429931640625,6.6726013183593755,1720757698622.0
7.9150000000000205,6.123654174804688,0.5570220947265625,7.111190795898438,1720757698632.0
7.925000000000011,6.514242553710938,0.7734008789062501,7.979098510742188,1720757698642.0
7.935000000000002,7.404132080078125,0.079852294921875,7.019674682617188,1720757698652.0
7.944999999999993,7.748065185546875,-0.1972381591796875,5.801403808593751,1720757698662.0
7.954999999999984,6.448745727539063,0.3046051025390625,7.062741088867188,1720757698672.0
7.964999999999975,5.924771118164063,0.75306396484375,7.381552124023438,1720757698682.0
7.975000000000023,7.470077514648438,0.1149932861328125,8.033978271484376,1720757698692.0
7.985000000000014,7.767803955078126,-0.90738525390625,5.938528442382813,1720757698702.0
7.9950000000000045,7.255493164062501,-0.7316802978515625,5.288494873046876,1720757698712.0
8.004999999999995,6.168963623046875,0.2262481689453125,7.556808471679688,1720757698722.0
8.014999999999986,6.627291870117188,0.334661865234375,8.117718505859376,1720757698732.0
8.024999999999977,7.346710205078126,-0.1949951171875,8.120111083984376,1720757698742.0
8.035000000000025,7.282409667968751,-0.06280517578125,4.723696899414063,1720757698752.0
8.045000000000016,6.657049560546875,0.3611297607421875,6.234909057617188,1720757698762.0
8.055000000000007,7.025057983398438,0.5214324951171876,7.696026611328126,1720757698772.0
8.064999999999998,7.553219604492188,0.1257598876953125,7.760327148437501,1720757698782.0
8.076000000000022,6.483587646484375,-0.133087158203125,7.052124023437501,1720757698793.0
8.086000000000013,6.23984375,0.001495361328125,5.352496337890625,1720757698803.0
8.096000000000004,6.842474365234375,0.0204864501953125,8.157196044921875,1720757698813.0
8.105999999999995,7.700363159179688,-0.1667327880859375,7.595538330078125,1720757698823.0
8.115999999999985,7.1899963378906255,-0.3240447998046875,6.359622192382813,1720757698833.0
8.125999999999976,6.864157104492188,-0.0871795654296875,5.313467407226563,1720757698843.0
8.136000000000024,6.675292968750001,0.097198486328125,6.8684936523437505,1720757698853.0
8.146000000000015,7.274783325195313,0.1739105224609375,8.537017822265625,1720757698863.0
8.156000000000006,6.941018676757813,0.112750244140625,7.437478637695313,1720757698873.0
8.165999999999997,6.538916015625,0.0662445068359375,5.705700683593751,1720757698883.0
8.175999999999988,6.818249511718751,0.1170867919921875,6.420932006835938,1720757698893.0
8.185999999999979,7.354486083984376,0.2715576171875,7.758682250976563,1720757698903.0
8.196000000000026,7.0210205078125005,0.1806396484375,7.749560546875,1720757698913.0
8.206000000000017,6.718060302734376,0.0509918212890625,6.1701599121093755,1720757698923.0
8.216000000000008,6.955523681640625,-0.2492767333984375,5.7145233154296875,1720757698933.0
8.225999999999999,7.277175903320313,-0.262286376953125,7.508508300781251,1720757698943.0
8.23599999999999,7.150668334960938,-0.143255615234375,7.586715698242188,1720757698953.0
8.247000000000014,6.574057006835938,-0.1302459716796875,6.565383911132813,1720757698964.0
8.257000000000005,6.6292358398437505,-0.3644195556640625,5.948098754882813,1720757698974.0
8.266999999999996,7.132723999023438,-0.289501953125,7.1873046875,1720757698984.0
8.276999999999987,7.544396972656251,0.0880767822265625,7.771990966796875,1720757698994.0
8.286999999999978,7.221548461914063,0.36785888671875,6.8699890136718755,1720757699004.0
8.297000000000025,6.871633911132813,0.5419189453125001,6.127990722656251,1720757699014.0
8.307000000000016,6.218609619140626,0.5962005615234376,6.599627685546875,1720757699024.0
8.317000000000007,6.839035034179688,0.725250244140625,8.042651367187501,1720757699034.0
8.326999999999998,7.028646850585938,0.1816864013671875,8.024707031250001,1720757699044.0
8.336999999999989,7.196575927734376,-0.5586669921875,5.675942993164063,1720757699054.0
8.34699999999998,7.080685424804688,-0.6416595458984375,6.494503784179688,1720757699064.0
8.357000000000028,6.633572387695313,-0.0674407958984375,6.889578247070313,1720757699074.0
8.367000000000019,7.19627685546875,-0.0049346923828125,7.685858154296875,1720757699084.0
8.37700000000001,7.293923950195313,-0.40972900390625,7.005618286132813,1720757699094.0
8.387,7.223492431640626,-0.3037078857421875,5.247821044921875,1720757699104.0
8.396999999999991,6.552224731445313,0.5142547607421876,7.697821044921875,1720757699114.0
8.406999999999982,6.409866333007813,0.984844970703125,7.694082641601563,1720757699124.0
8.41700000000003,7.1789306640625,0.491375732421875,7.735354614257813,1720757699134.0
8.427999999999997,7.145285034179688,-0.019140625,5.9537811279296875,1720757699145.0
8.437999999999988,6.918588256835938,0.040972900390625,5.8561340332031255,1720757699155.0
8.447999999999979,6.762921142578126,0.194097900390625,7.8240295410156255,1720757699165.0
8.458000000000027,7.0853210449218755,-0.1661346435546875,7.627090454101563,1720757699175.0
8.468000000000018,6.916046142578126,-0.456085205078125,7.224987792968751,1720757699185.0
8.478000000000009,6.860119628906251,-0.3677093505859375,5.445806884765625,1720757699195.0
8.488,6.906475830078126,-0.12919921875,6.860568237304688,1720757699205.0
8.49799999999999,7.498190307617188,0.0076263427734375,7.618118286132813,1720757699215.0
8.507999999999981,7.332952880859375,-0.0530853271484375,6.778323364257813,1720757699225.0
8.518000000000029,6.716415405273438,0.045458984375,5.991912841796875,1720757699235.0
8.52800000000002,6.582281494140625,0.217425537109375,6.59573974609375,1720757699245.0
8.538000000000011,6.790435791015626,0.2851654052734375,8.182916259765626,1720757699255.0
8.548000000000002,6.995748901367188,0.1592559814453125,7.884591674804688,1720757699265.0
8.557999999999993,6.800305175781251,0.1586578369140625,6.344369506835938,1720757699275.0
8.567999999999984,6.966888427734376,-0.006280517578125,5.771496582031251,1720757699285.0
8.578000000000031,7.304241943359376,0.07476806640625,7.137509155273438,1720757699295.0
8.588000000000022,7.109097290039063,0.0620574951171875,7.728475952148438,1720757699305.0
8.598000000000013,6.757537841796876,-0.0563751220703125,6.647329711914063,1720757699315.0
8.60899999999998,6.93369140625,-0.351409912109375,6.0988311767578125,1720757699326.0
8.619000000000028,7.153509521484375,-0.426776123046875,6.896157836914063,1720757699336.0
8.631000000000029,7.1720520019531255,-0.1266571044921875,7.4681335449218755,1720757699348.0
8.63900000000001,6.601272583007813,0.2077056884765625,7.342224121093751,1720757699356.0
8.649000000000001,6.6845642089843755,0.307745361328125,6.457717895507813,1720757699366.0
8.658999999999992,7.189846801757813,0.089422607421875,6.432745361328125,1720757699376.0
8.668999999999983,7.268951416015626,0.1963409423828125,6.995150756835938,1720757699386.0
8.67900000000003,6.3810058593750005,0.107965087890625,7.0524230957031255,1720757699396.0
8.689000000000021,6.924868774414063,-0.1673309326171875,6.789688110351563,1720757699406.0
8.699000000000012,7.348056030273438,-0.6238647460937501,6.961654663085938,1720757699416.0
8.709000000000003,7.894161987304688,-0.4628143310546875,6.885540771484376,1720757699426.0
8.718999999999994,6.998141479492188,0.243743896484375,6.9875244140625,1720757699436.0
8.730999999999995,5.6113433837890625,0.8403930664062501,6.66153564453125,1720757699448.0
8.738999999999976,6.949392700195313,0.8423370361328125,7.504470825195313,1720757699456.0
8.749000000000024,7.141397094726563,0.104974365234375,7.280316162109376,1720757699466.0
8.759999999999991,7.760925292968751,-0.018243408203125,6.220104980468751,1720757699477.0
8.769000000000005,6.312667846679688,0.2346221923828125,7.431347656250001,1720757699486.0
8.778999999999996,6.0684753417968755,0.31761474609375,6.592001342773438,1720757699496.0
8.79000000000002,7.778720092773438,-0.3087921142578125,7.880554199218751,1720757699507.0
8.800000000000011,7.648922729492188,-1.0658935546875,6.00836181640625,1720757699517.0
8.810000000000002,7.135415649414063,-0.4299163818359375,5.8142639160156255,1720757699527.0
8.819999999999993,6.247171020507813,0.0444122314453125,7.395010375976563,1720757699537.0
8.831999999999994,6.909317016601563,0.28890380859375,7.574154663085938,1720757699549.0
8.839999999999975,7.127789306640626,0.174359130859375,8.315853881835938,1720757699557.0
8.850000000000023,6.931896972656251,0.4293182373046875,5.196380615234375,1720757699567.0
8.860000000000014,6.769351196289063,0.6270050048828125,6.635815429687501,1720757699577.0
8.870000000000005,7.023562622070313,0.436944580078125,7.386038208007813,1720757699587.0
8.879999999999995,7.435235595703125,-0.0004486083984375,7.195080566406251,1720757699597.0
8.889999999999986,6.5748046875,-0.204864501953125,7.538714599609375,1720757699607.0
8.899999999999977,6.335696411132813,-0.1969390869140625,5.5933990478515625,1720757699617.0
8.910000000000025,7.017581176757813,-0.403448486328125,7.713970947265626,1720757699627.0
8.920000000000016,7.745373535156251,-0.539227294921875,7.114331054687501,1720757699637.0
8.932000000000016,7.309326171875001,-0.3712982177734375,6.2269836425781255,1720757699649.0
8.941000000000031,6.624301147460938,0.0955535888671875,6.0524749755859375,1720757699658.0
8.951000000000022,6.695629882812501,0.372943115234375,6.949841308593751,1720757699668.0
8.961000000000013,7.0593017578125,0.4765716552734375,8.565130615234375,1720757699678.0
8.971000000000004,6.81346435546875,0.457281494140625,7.130032348632813,1720757699688.0
8.980999999999995,6.585122680664063,0.413018798828125,6.0853729248046875,1720757699698.0
8.990999999999985,7.0404602050781255,0.1269561767578125,6.609945678710938,1720757699708.0
9.000999999999976,7.478302001953126,-0.085833740234375,7.1430419921875,1720757699718.0
9.011000000000024,7.048834228515625,-0.290399169921875,7.483535766601563,1720757699728.0
9.021000000000017,6.662731933593751,-0.337054443359375,6.16507568359375,1720757699738.0
9.031000000000006,6.970028686523438,-0.5504425048828125,6.4198852539062505,1720757699748.0
9.040999999999997,7.284802246093751,-0.3452789306640625,7.407720947265625,1720757699758.0
9.050999999999988,7.08023681640625,0.001495361328125,7.20823974609375,1720757699768.0
9.06099999999998,6.560299682617188,0.3001190185546875,6.603665161132813,1720757699778.0
9.071000000000026,6.727780151367188,0.33077392578125,6.211282348632813,1720757699788.0
9.081000000000016,6.924868774414063,0.1878173828125,7.301251220703126,1720757699798.0
9.091000000000008,7.326672363281251,0.0820953369140625,7.342074584960938,1720757699808.0
9.101,7.249212646484375,-0.045458984375,6.874923706054688,1720757699818.0
9.11099999999999,7.447796630859376,-0.136077880859375,6.301901245117188,1720757699828.0
9.122000000000014,6.560748291015625,0.14176025390625,6.9866271972656255,1720757699839.0
9.132000000000003,6.079241943359375,0.4272247314453125,7.348205566406251,1720757699849.0
9.141999999999996,7.078591918945313,0.3584381103515625,7.768252563476563,1720757699859.0
9.151999999999989,7.006814575195313,-0.34991455078125,6.6531616210937505,1720757699869.0
9.161999999999978,7.891171264648438,-0.4409820556640625,5.859423828125,1720757699879.0
9.172000000000024,6.673348999023438,0.2648284912109375,7.300054931640625,1720757699889.0
9.182000000000016,6.157598876953125,0.6608001708984376,7.125247192382813,1720757699899.0
9.192000000000007,7.435385131835938,0.0381317138671875,7.42117919921875,1720757699909.0
9.201999999999998,7.389926147460938,-0.611004638671875,6.075054931640626,1720757699919.0
9.211999999999987,7.036721801757813,-0.1383209228515625,6.501980590820313,1720757699929.0
9.22199999999998,6.237750244140625,0.424383544921875,7.640997314453125,1720757699939.0
9.232000000000028,6.851596069335938,0.2476318359375,7.574902343750001,1720757699949.0
9.24200000000002,7.389028930664063,-0.17406005859375,7.242633056640625,1720757699959.0
9.25200000000001,7.029244995117188,-0.004486083984375,5.292233276367188,1720757699969.0
9.262,6.756042480468751,0.31163330078125,6.904681396484375,1720757699979.0
9.271999999999991,6.9659912109375,0.2851654052734375,7.788589477539063,1720757699989.0
9.281999999999982,7.12509765625,-0.014056396484375,7.305288696289063,1720757699999.0
9.29200000000003,6.695779418945313,-0.082244873046875,6.730023193359376,1720757700009.0
9.302999999999995,6.661386108398438,-0.0025421142578125,6.024810791015625,1720757700020.0
9.312999999999988,7.265960693359376,-0.0921142578125,7.476806640625001,1720757700030.0
9.32299999999998,7.532882690429688,-0.303857421875,7.108798217773438,1720757700040.0
9.333000000000029,6.913504028320313,-0.2548095703125,6.315060424804688,1720757700050.0
9.343000000000018,6.603216552734375,-0.0462066650390625,6.271246337890625,1720757700060.0
9.353000000000009,6.689648437500001,0.0925628662109375,7.43314208984375,1720757700070.0
9.363,7.166519165039063,0.1550689697265625,8.138204956054688,1720757700080.0
9.37299999999999,7.10655517578125,0.2014251708984375,6.549682617187501,1720757700090.0
9.38299999999998,6.736752319335938,0.2274444580078125,5.811871337890626,1720757700100.0
9.393000000000027,7.036422729492188,0.2899505615234375,6.9576171875,1720757700110.0
9.40300000000002,7.1197143554687505,0.217724609375,7.563088989257813,1720757700120.0
9.413000000000013,6.887335205078125,0.0728240966796875,7.427609252929688,1720757700130.0
9.423000000000002,6.682769775390626,-0.2220611572265625,6.223394775390625,1720757700140.0
9.432999999999993,7.113583374023438,-0.4690948486328125,6.4124084472656255,1720757700150.0
9.442999999999984,7.357925415039063,-0.2633331298828125,7.308877563476563,1720757700160.0
9.453000000000031,6.763967895507813,-0.07117919921875,7.296914672851563,1720757700170.0
9.463000000000022,6.783856201171876,0.0127105712890625,6.304592895507813,1720757700180.0
9.473000000000011,6.786099243164063,-0.25660400390625,6.259732055664063,1720757700190.0
9.48399999999998,7.546490478515626,-0.1523773193359375,7.256240844726563,1720757700201.0
9.494000000000028,7.167266845703126,0.188116455078125,7.693484497070313,1720757700211.0
9.50400000000002,6.967935180664063,0.593060302734375,6.878512573242188,1720757700221.0
9.51400000000001,5.920135498046875,0.680389404296875,6.698620605468751,1720757700231.0
9.524,6.68785400390625,0.684576416015625,7.064984130859376,1720757700241.0
9.533999999999992,7.511050415039063,0.29010009765625,7.697222900390625,1720757700251.0
9.543999999999984,7.255493164062501,-0.438140869140625,6.213824462890625,1720757700261.0
9.55400000000003,7.501181030273438,-0.67291259765625,6.187655639648438,1720757700271.0
9.56400000000002,6.186459350585938,-0.366363525390625,7.041357421875,1720757700281.0
9.574000000000012,6.8744750976562505,-0.0195892333984375,7.711877441406251,1720757700291.0
9.584000000000003,7.154556274414063,-0.196490478515625,7.773187255859376,1720757700301.0
9.593999999999994,7.270895385742188,-0.1758544921875,5.310925292968751,1720757700311.0
9.603999999999983,6.912905883789063,0.37503662109375,6.656600952148438,1720757700321.0
9.613999999999976,6.644787597656251,0.8783752441406251,7.489517211914063,1720757700331.0
9.624000000000024,7.012496948242188,0.8197570800781251,7.82791748046875,1720757700341.0
9.634000000000016,6.809725952148438,0.21832275390625,7.205697631835938,1720757700351.0
9.644000000000004,7.075601196289063,-0.2021728515625,5.155706787109375,1720757700361.0
9.65500000000003,6.9881225585937505,-0.4311126708984375,7.371682739257813,1720757700372.0
9.663999999999987,7.219754028320313,-0.5371337890625001,7.201660156250001,1720757700381.0
9.675000000000011,6.99888916015625,-0.5827423095703126,7.454226684570313,1720757700392.0
9.685000000000002,6.642395019531251,-0.4044952392578125,6.147430419921876,1720757700402.0
9.694999999999991,7.019973754882813,-0.0490478515625,6.143692016601563,1720757700412.0
9.704999999999984,7.248614501953125,0.3524566650390625,7.808029174804688,1720757700422.0
9.714999999999977,7.224090576171876,0.5037872314453126,6.761425781250001,1720757700432.0
9.725000000000025,6.6705078125,0.5899200439453125,6.872381591796875,1720757700442.0
9.735000000000014,6.526504516601563,0.4699920654296875,6.429904174804688,1720757700452.0
9.745000000000005,6.845016479492188,0.27215576171875,7.766906738281251,1720757700462.0
9.754999999999995,7.092648315429688,-0.0468048095703125,7.859768676757813,1720757700472.0
9.764999999999986,6.986178588867188,-0.3961212158203125,6.144439697265626,1720757700482.0
9.774999999999975,6.952832031250001,-0.5552276611328125,6.16746826171875,1720757700492.0
9.785000000000023,7.185061645507813,-0.3913360595703125,6.634918212890626,1720757700502.0
9.795000000000016,7.156649780273438,-0.1885650634765625,7.544396972656251,1720757700512.0
9.805000000000009,7.066180419921875,-0.0109161376953125,6.888980102539063,1720757700522.0
9.814999999999998,6.734359741210938,0.1344329833984375,6.260629272460938,1720757700532.0
9.824999999999989,6.987673950195313,0.198284912109375,6.691293334960938,1720757700542.0
9.836000000000013,6.962252807617188,0.19140625,7.17833251953125,1720757700553.0
9.845000000000027,6.99051513671875,-0.0509918212890625,7.0673767089843755,1720757700562.0
9.855999999999996,6.761874389648438,-0.18602294921875,6.976010131835938,1720757700573.0
9.865999999999984,7.070816040039063,-0.3931304931640625,6.712527465820313,1720757700583.0
9.875999999999976,8.093792724609376,0.109759521484375,7.299307250976563,1720757700593.0
9.886000000000024,6.234909057617188,0.4053924560546875,6.8161560058593755,1720757700603.0
9.896000000000017,5.818002319335938,0.5630035400390625,6.315808105468751,1720757700613.0
9.906000000000006,7.3224853515625,0.3790740966796875,7.961154174804688,1720757700623.0
9.915999999999997,7.581332397460938,0.0514404296875,7.239791870117188,1720757700633.0
9.925999999999988,6.881652832031251,0.2859130859375,6.735556030273438,1720757700643.0
9.93599999999998,6.37083740234375,0.253912353515625,6.283657836914063,1720757700653.0
9.946000000000026,6.969131469726563,0.0557769775390625,6.8146606445312505,1720757700663.0
9.956000000000016,7.482339477539063,-0.4424774169921875,7.783206176757813,1720757700673.0
9.966000000000008,7.354934692382813,-0.5493957519531251,6.421978759765626,1720757700683.0
9.976,6.445156860351563,-0.32598876953125,6.5365234375000005,1720757700693.0
9.98599999999999,6.596188354492188,0.0925628662109375,6.95103759765625,1720757700703.0
9.997000000000014,7.277923583984376,0.236865234375,7.69632568359375,1720757700714.0
10.007000000000003,6.933392333984376,0.3159698486328125,7.330709838867188,1720757700724.0
10.016999999999996,6.753051757812501,0.5730224609375001,5.9762115478515625,1720757700734.0
10.026999999999989,6.866101074218751,0.5600128173828125,6.857727050781251,1720757700744.0
10.036999999999978,7.253997802734376,0.3545501708984375,7.181622314453126,1720757700754.0
10.047000000000024,6.990216064453126,0.05802001953125,7.611538696289063,1720757700764.0
10.057000000000016,6.639404296875001,-0.1088623046875,6.638955688476563,1720757700774.0
10.067000000000007,6.579589843750001,-0.3025115966796875,6.555364990234375,1720757700784.0
10.076999999999998,7.159640502929688,-0.4667022705078125,7.292428588867188,1720757700794.0
10.086999999999987,7.61856689453125,-0.6225189208984375,6.779370117187501,1720757700804.0
10.09699999999998,7.184912109375,-0.4454681396484375,6.254348754882813,1720757700814.0
10.107000000000028,6.830511474609375,-0.0838897705078125,6.0520263671875005,1720757700824.0
10.11700000000002,6.765014648437501,0.22191162109375,7.395608520507813,1720757700834.0
10.12700000000001,7.009506225585938,0.3958221435546875,7.912405395507813,1720757700844.0
10.137,6.894363403320313,0.433953857421875,6.862063598632813,1720757700854.0
10.146999999999991,6.949392700195313,0.2788848876953125,6.139355468750001,1720757700864.0
10.156999999999982,6.802847290039063,0.2397064208984375,6.9671875000000005,1720757700874.0
10.16700000000003,6.930850219726563,0.1933502197265625,7.629931640625,1720757700884.0
10.17700000000002,6.818099975585938,0.0488983154296875,7.443161010742188,1720757700894.0
10.187999999999988,6.9298034667968755,-0.325689697265625,6.296368408203126,1720757700905.0
10.19799999999998,7.426712036132813,-0.6129486083984376,6.031689453125001,1720757700915.0
10.208000000000029,7.31351318359375,-0.4003082275390625,6.8834472656250005,1720757700925.0
10.218000000000018,6.785501098632813,-0.0165985107421875,7.303045654296875,1720757700935.0
10.228000000000009,6.5807861328125,0.0764129638671875,7.011300659179688,1720757700945.0
10.238,6.838735961914063,-0.102880859375,6.405828857421875,1720757700955.0
10.24799999999999,7.079040527343751,-0.087030029296875,6.913803100585938,1720757700965.0
10.25799999999998,7.166220092773438,0.09630126953125,7.303793334960938,1720757700975.0
10.268000000000027,7.304092407226563,0.3533538818359375,7.040310668945313,1720757700985.0
10.27800000000002,7.134518432617188,0.322998046875,6.703555297851563,1720757700995.0
10.288000000000013,6.369342041015625,0.489581298828125,6.635815429687501,1720757701005.0
10.298000000000002,6.362612915039063,0.6796417236328125,7.496844482421875,1720757701015.0
10.307999999999993,7.210183715820313,0.193798828125,7.594192504882813,1720757701025.0
10.317999999999984,7.347457885742188,-0.518292236328125,6.540261840820313,1720757701035.0
10.328000000000031,7.1840148925781255,-0.5259185791015626,6.376669311523438,1720757701045.0
10.341000000000008,6.3316589355468755,0.0753662109375,6.8101745605468755,1720757701058.0
10.348000000000011,6.779071044921875,0.1146942138671875,7.690643310546876,1720757701065.0
10.35899999999998,7.969528198242188,-0.3895416259765625,6.897354125976563,1720757701076.0
10.369000000000028,7.255642700195313,-0.5316009521484375,5.653363037109376,1720757701086.0
10.37900000000002,6.535626220703126,0.3596343994140625,6.755743408203125,1720757701096.0
10.38900000000001,6.174197387695313,0.8309722900390626,7.919882202148438,1720757701106.0
10.399,7.174444580078125,0.3935791015625,8.079736328125001,1720757701116.0
10.408999999999992,7.269549560546875,-0.024822998046875,6.7234436035156255,1720757701126.0
10.418999999999984,6.821389770507813,0.07596435546875,5.132528686523438,1720757701136.0
10.42900000000003,6.769500732421876,0.246435546875,7.173098754882813,1720757701146.0
10.441000000000033,7.321289062500001,-0.09510498046875,7.928555297851563,1720757701158.0
10.449000000000012,7.224240112304688,-0.456982421875,7.197772216796875,1720757701166.0
10.459000000000003,6.480297851562501,-0.3991119384765625,5.762225341796875,1720757701176.0
10.468999999999994,6.637161254882813,-0.1353302001953125,6.571066284179688,1720757701186.0
10.478999999999983,7.466488647460938,-0.0148040771484375,7.880703735351563,1720757701196.0
10.488999999999976,7.409066772460938,-0.0952545166015625,7.079788208007813,1720757701206.0
10.499000000000024,6.825875854492188,0.2038177490234375,5.97247314453125,1720757701216.0
10.509000000000016,6.4515869140625,0.374139404296875,6.247619628906251,1720757701226.0
10.519000000000004,6.902587890625001,0.4670013427734375,8.000482177734376,1720757701236.0
10.528999999999996,7.124349975585938,0.271856689453125,8.37222900390625,1720757701246.0
10.540999999999997,6.741537475585938,0.066094970703125,6.11064453125,1720757701258.0
10.550000000000011,6.897055053710938,-0.1810882568359375,5.6093994140625005,1720757701267.0
10.560000000000002,7.137957763671875,-0.201275634765625,7.308578491210938,1720757701277.0
10.569999999999991,7.37930908203125,-0.1751068115234375,7.643539428710938,1720757701287.0
10.579999999999984,6.768005371093751,-0.1631439208984375,7.039712524414063,1720757701297.0
10.589999999999977,6.816305541992188,-0.22490234375,5.602969360351563,1720757701307.0
10.600000000000025,7.2124267578125005,-0.259893798828125,6.752005004882813,1720757701317.0
10.610000000000014,7.261325073242188,0.140863037109375,7.5967346191406255,1720757701327.0
10.620000000000005,6.593197631835938,0.396868896484375,7.4397216796875005,1720757701337.0
10.629999999999995,6.372183227539063,0.3040069580078125,6.447250366210938,1720757701347.0
10.64100000000002,6.998291015625001,-0.1341339111328125,6.174197387695313,1720757701358.0
10.649999999999975,7.412057495117188,-0.24105224609375,7.342224121093751,1720757701367.0
10.660000000000023,7.266708374023438,-0.2092010498046875,7.280615234375,1720757701377.0
10.670000000000016,7.305737304687501,-0.1404144287109375,6.562094116210938,1720757701387.0
10.680000000000009,7.125845336914063,-0.0465057373046875,6.379211425781251,1720757701397.0
10.689999999999998,5.989819335937501,0.35948486328125,7.234857177734376,1720757701407.0
10.699999999999989,6.6726013183593755,0.8275329589843751,7.846310424804688,1720757701417.0
10.70999999999998,6.860119628906251,0.47193603515625,7.792776489257813,1720757701427.0
10.720000000000027,7.578042602539063,-0.164788818359375,5.74517822265625,1720757701437.0
10.730999999999996,7.227529907226563,-0.0705810546875,6.592898559570313,1720757701448.0
10.740999999999984,6.486877441406251,0.35350341796875,6.7324157714843755,1720757701458.0
10.750999999999976,6.998739624023438,0.08074951171875,7.639352416992188,1720757701468.0
10.761000000000024,7.269549560546875,-0.7565032958984376,6.938177490234375,1720757701478.0
10.771000000000017,7.408917236328126,-0.8643188476562501,5.873928833007813,1720757701488.0
10.781000000000006,6.4004455566406255,0.0070281982421875,7.428656005859375,1720757701498.0
10.790999999999997,6.2553955078125005,0.7313812255859375,7.63890380859375,1720757701508.0
10.800999999999988,7.42716064453125,0.3524566650390625,7.533630371093751,1720757701518.0
10.81099999999998,7.346112060546876,0.13876953125,5.918191528320313,1720757701528.0
10.821000000000026,6.9253173828125005,0.5076751708984375,5.911611938476563,1720757701538.0
10.831000000000016,6.619216918945313,0.632537841796875,7.60301513671875,1720757701548.0
10.841000000000008,7.106106567382813,0.017047119140625,7.604660034179688,1720757701558.0
10.851,7.026254272460938,-0.469842529296875,7.530191040039063,1720757701568.0
10.86099999999999,6.590805053710938,-0.4810577392578125,5.649923706054688,1720757701578.0
10.87099999999998,6.6307312011718755,-0.240155029296875,7.072460937500001,1720757701588.0
10.881000000000029,7.448843383789063,-0.232379150390625,7.650119018554688,1720757701598.0
10.89100000000002,7.481591796875,-0.285015869140625,6.602020263671876,1720757701608.0
10.901999999999989,6.814212036132813,0.0396270751953125,6.043652343750001,1720757701619.0
10.911999999999978,6.583627319335938,0.45399169921875,6.4647460937500005,1720757701629.0
10.922000000000024,6.816604614257813,0.5538818359375001,8.057754516601562,1720757701639.0
10.932000000000016,7.43553466796875,0.2331268310546875,7.470825195312501,1720757701649.0
10.942000000000007,7.089508056640626,-0.082843017578125,5.974566650390625,1720757701659.0
10.951999999999998,6.752752685546875,-0.2280426025390625,5.957070922851563,1720757701669.0
10.961999999999987,6.664077758789063,0.055926513671875,7.630081176757813,1720757701679.0
10.97199999999998,6.741986083984376,0.02332763671875,8.567672729492188,1720757701689.0
10.982000000000028,7.098031616210938,-0.181536865234375,6.600973510742188,1720757701699.0
10.99200000000002,7.3335510253906255,-0.3644195556640625,5.289242553710938,1720757701709.0
11.00200000000001,7.179229736328126,-0.1137969970703125,6.463998413085938,1720757701719.0
11.012,7.066030883789063,0.331671142578125,7.506713867187501,1720757701729.0
11.021999999999991,6.6367126464843755,0.3724945068359375,7.945751953125001,1720757701739.0
11.031999999999982,6.80509033203125,0.0297576904296875,6.2733398437500005,1720757701749.0
11.04200000000003,6.770248413085938,-0.225799560546875,6.130682373046875,1720757701759.0
11.05200000000002,6.575103759765626,-0.078057861328125,7.3215881347656255,1720757701769.0
11.062999999999988,7.307232666015626,-0.0859832763671875,7.702606201171876,1720757701780.0
11.07299999999998,7.392916870117188,-0.330474853515625,6.944158935546875,1720757701790.0
11.083000000000029,7.998388671875,-0.271258544921875,5.5590057373046875,1720757701800.0
11.093000000000018,6.4850830078125,0.2878570556640625,6.6531616210937505,1720757701810.0
11.103000000000009,6.194235229492188,0.9990509033203124,7.348205566406251,1720757701820.0
11.113,6.625796508789063,0.7400543212890626,8.605355834960939,1720757701830.0
11.12299999999999,7.054666137695313,-0.2331268310546875,6.625347900390626,1720757701840.0
11.13299999999998,7.851394653320313,-0.536236572265625,5.870339965820313,1720757701850.0
11.143000000000027,6.006268310546876,0.169873046875,7.260876464843751,1720757701860.0
11.15300000000002,6.742135620117188,0.7158294677734376,7.486376953125,1720757701870.0
11.163000000000013,7.4325439453125,-0.2872589111328125,7.624249267578126,1720757701880.0
11.173000000000002,8.041604614257814,-0.8810668945312501,4.416400146484375,1720757701890.0
11.182999999999993,6.933840942382813,-0.535040283203125,6.561047363281251,1720757701900.0
11.192999999999984,5.810824584960938,0.6207244873046875,8.115924072265626,1720757701910.0
11.203000000000031,6.976757812500001,0.3659149169921875,8.560494995117189,1720757701920.0
11.213000000000022,6.945205688476563,-0.0729736328125,7.45946044921875,1720757701930.0
11.223000000000011,7.2378479003906255,0.100787353515625,4.063345336914063,1720757701940.0
11.233000000000004,6.808380126953126,0.441131591796875,7.3607666015625,1720757701950.0
11.242999999999997,7.328616333007813,0.361279296875,7.1182189941406255,1720757701960.0
11.25400000000002,7.351345825195313,-0.1909576416015625,8.058502197265625,1720757701971.0
11.26400000000001,6.618170166015625,-0.283221435546875,6.040362548828125,1720757701981.0
11.274,6.088662719726563,-0.136676025390625,6.018679809570313,1720757701991.0
11.283999999999992,6.903485107421876,0.0004486083984375,8.757583618164062,1720757702001.0
11.293999999999984,7.660137939453126,-0.176751708984375,7.141098022460938,1720757702011.0
11.30400000000003,7.156201171875001,-0.1254608154296875,6.254498291015626,1720757702021.0
11.31400000000002,6.771743774414063,0.1224700927734375,5.083779907226563,1720757702031.0
11.324000000000012,6.8535400390625005,0.3464752197265625,7.424468994140626,1720757702041.0
11.334000000000003,7.39127197265625,0.276043701171875,8.478399658203125,1720757702051.0
11.343999999999994,6.795669555664063,0.021234130859375,6.831707763671876,1720757702061.0
11.353999999999983,6.591702270507813,-0.1586578369140625,5.66502685546875,1720757702071.0
11.363999999999976,6.838735961914063,-0.137872314453125,6.913952636718751,1720757702081.0
11.374000000000024,7.19388427734375,0.12620849609375,8.095437622070314,1720757702091.0
11.384000000000016,6.861166381835938,0.1281524658203125,7.675241088867188,1720757702101.0
11.394999999999982,6.89481201171875,0.0213836669921875,5.545697021484376,1720757702112.0
11.403999999999996,7.245922851562501,-0.2767913818359375,5.728579711914063,1720757702121.0
11.413999999999987,7.571612548828125,-0.2477813720703125,6.985281372070313,1720757702131.0
11.423999999999978,6.865203857421876,-0.318511962890625,7.437927246093751,1720757702141.0
11.435000000000002,6.658694458007813,-0.451300048828125,6.790435791015626,1720757702152.0
11.444999999999991,6.650320434570313,-0.5064788818359376,6.632077026367188,1720757702162.0
11.454999999999984,7.228128051757813,-0.1176849365234375,7.803543090820313,1720757702172.0
11.464999999999977,7.718307495117188,0.7484283447265625,7.273886108398438,1720757702182.0
11.475000000000025,6.187057495117188,1.0681365966796876,6.7264343261718755,1720757702192.0
11.485000000000014,6.010455322265625,1.1152404785156251,6.01793212890625,1720757702202.0
11.495000000000005,7.651315307617188,0.5417694091796875,7.562640380859375,1720757702212.0
11.504999999999995,7.443310546875001,0.0121124267578125,7.546640014648438,1720757702222.0
11.514999999999986,6.797463989257813,-0.2332763671875,6.758734130859375,1720757702232.0
11.524999999999975,6.264517211914063,-0.5396759033203126,6.2957702636718755,1720757702242.0
11.535000000000023,6.978103637695313,-0.6362762451171875,6.971224975585938,1720757702252.0
11.545000000000016,7.547985839843751,-0.6575103759765626,7.943807983398438,1720757702262.0
11.555000000000009,7.338186645507813,-0.3718963623046875,6.2404418945312505,1720757702272.0
11.564999999999998,6.646432495117188,0.1819854736328125,6.232366943359375,1720757702282.0
11.574999999999989,6.645236206054688,0.6628936767578125,6.736453247070313,1720757702292.0
11.58499999999998,7.293624877929688,0.8155700683593751,7.774234008789063,1720757702302.0
11.596000000000004,6.848306274414063,0.6794921875000001,7.761074829101563,1720757702313.0
11.605999999999996,6.519476318359375,0.5209838867187501,6.089260864257813,1720757702323.0
11.615999999999984,6.75963134765625,0.151031494140625,6.803894042968751,1720757702333.0
11.625999999999976,7.220501708984376,-0.1960418701171875,7.281362915039063,1720757702343.0
11.636000000000024,7.121359252929688,-0.430364990234375,7.590902709960938,1720757702353.0
11.646000000000017,6.716714477539063,-0.4568328857421875,6.44620361328125,1720757702363.0
11.656000000000006,6.877316284179688,-0.4323089599609375,6.034829711914063,1720757702373.0
11.665999999999997,7.318298339843751,-0.3983642578125,7.228726196289063,1720757702383.0
11.675999999999988,7.560546875000001,-0.1613494873046875,6.896456909179688,1720757702393.0
11.68599999999998,6.789089965820313,0.1152923583984375,6.608001708984376,1720757702403.0
11.696000000000026,6.603067016601563,0.2954833984375,6.418988037109376,1720757702413.0
11.706000000000016,6.890774536132813,0.392681884765625,7.438824462890626,1720757702423.0
11.716000000000008,6.892120361328126,0.4607208251953125,8.014389038085938,1720757702433.0
11.726,6.586318969726563,0.473431396484375,6.899298095703125,1720757702443.0
11.73599999999999,6.859222412109376,0.1951446533203125,6.3750244140625005,1720757702453.0
11.74599999999998,7.425366210937501,-0.1730133056640625,6.515887451171875,1720757702463.0
11.756000000000029,7.4265625,-0.3970184326171875,6.933392333984376,1720757702473.0
11.76600000000002,6.830960083007813,-0.3398956298828125,6.979748535156251,1720757702483.0
11.77600000000001,6.678134155273438,-0.399261474609375,6.601422119140626,1720757702493.0
11.786999999999978,7.100125122070313,-0.4701416015625,6.929504394531251,1720757702504.0
11.797000000000024,7.287792968750001,-0.2516693115234375,7.01683349609375,1720757702514.0
11.807000000000016,6.954327392578126,0.1782470703125,6.802847290039063,1720757702524.0
11.817000000000007,6.5783935546875005,0.5401245117187501,6.837689208984376,1720757702534.0
11.826999999999998,6.657049560546875,0.59515380859375,6.951486206054688,1720757702544.0
11.836999999999987,6.782809448242188,0.372344970703125,7.3933654785156255,1720757702554.0
11.84699999999998,7.120761108398438,0.042767333984375,6.999337768554688,1720757702564.0
11.857000000000028,7.280316162109376,-0.10467529296875,6.657049560546875,1720757702574.0
11.86700000000002,7.571911621093751,-0.3349609375,6.459213256835938,1720757702584.0
11.87700000000001,6.8490539550781255,-0.1592559814453125,6.949691772460938,1720757702594.0
11.887,6.260330200195313,0.175555419921875,7.132424926757813,1720757702604.0
11.896999999999991,6.649423217773438,0.2572021484375,7.581781005859376,1720757702614.0
11.906999999999982,7.383645629882813,-0.284417724609375,6.736004638671876,1720757702624.0
11.91700000000003,7.852740478515625,-0.4089813232421875,6.0484375,1720757702634.0
11.92700000000002,6.555215454101563,0.308343505859375,7.197622680664063,1720757702644.0
11.937000000000012,5.93060302734375,0.895123291015625,7.257885742187501,1720757702654.0
11.94799999999998,7.199118041992188,0.5000488281250001,7.701559448242188,1720757702665.0
11.958000000000029,7.636660766601563,-0.4940673828125,6.318051147460938,1720757702675.0
11.968000000000018,7.270745849609376,-0.26976318359375,5.657849121093751,1720757702685.0
11.978000000000009,6.327471923828125,0.226397705078125,7.463198852539063,1720757702695.0
11.988,6.571365356445313,0.1496856689453125,7.904479980468751,1720757702705.0
11.99799999999999,7.382598876953126,-0.2906982421875,7.877114868164063,1720757702715.0
12.00799999999998,7.125247192382813,-0.303558349609375,5.292681884765625,1720757702725.0
12.018000000000027,6.792080688476563,0.026617431640625,6.0405120849609375,1720757702735.0
12.02800000000002,7.231567382812501,0.1730133056640625,7.387234497070313,1720757702745.0
12.038000000000013,7.475460815429688,-0.006878662109375,7.446002197265625,1720757702755.0
12.050999999999988,6.5798889160156255,-0.0067291259765625,7.0856201171875,1720757702768.0
12.057999999999993,6.34691162109375,0.2023223876953125,5.8371429443359375,1720757702775.0
12.067999999999984,6.7832580566406255,0.2370147705078125,7.828366088867188,1720757702785.0
12.078000000000031,7.460357666015626,0.0719268798828125,7.741036987304688,1720757702795.0
12.088000000000022,7.101171875,-0.030206298828125,6.401641845703126,1720757702805.0
12.098000000000011,6.821688842773438,0.0091217041015625,5.723196411132813,1720757702815.0
12.108000000000004,6.762023925781251,0.04246826171875,6.816754150390626,1720757702825.0
12.117999999999997,7.293475341796875,-0.043365478515625,8.087213134765626,1720757702835.0
12.127999999999986,7.035525512695313,-0.1751068115234375,7.260876464843751,1720757702845.0
12.137999999999977,6.658993530273438,-0.1469940185546875,5.8715362548828125,1720757702855.0
12.149999999999975,6.890325927734375,-0.153424072265625,6.449493408203126,1720757702867.0
12.158999999999992,7.362860107421875,0.1326385498046875,7.567425537109376,1720757702876.0
12.168999999999984,6.8191467285156255,0.260791015625,7.878610229492188,1720757702886.0
12.17900000000003,6.637161254882813,0.37384033203125,6.282611083984375,1720757702896.0
12.18900000000002,6.991711425781251,0.103778076171875,6.15909423828125,1720757702906.0
12.199000000000012,7.322933959960938,-0.0647491455078125,7.060647583007813,1720757702916.0
12.209000000000003,7.2626708984375,-0.15372314453125,7.144238281250001,1720757702926.0
12.218999999999994,6.368743896484376,-0.3704010009765625,6.657498168945313,1720757702936.0
12.228999999999983,6.950439453125001,-0.5748168945312501,6.4013427734375,1720757702946.0
12.238999999999976,7.1780334472656255,-0.5945556640625,7.45347900390625,1720757702956.0
12.25,7.651315307617188,-0.1356292724609375,7.239193725585938,1720757702967.0
12.259000000000016,7.227679443359375,0.5763122558593751,6.810025024414063,1720757702976.0
12.269000000000004,5.73740234375,0.9278717041015626,6.328817749023438,1720757702986.0
12.278999999999996,6.44560546875,1.06409912109375,7.010702514648438,1720757702996.0
12.288999999999987,7.846011352539063,0.47313232421875,8.514886474609376,1720757703006.0
12.298999999999978,7.090106201171875,0.0133087158203125,6.323583984375,1720757703016.0
12.310000000000002,6.720751953125,-0.1846771240234375,6.45457763671875,1720757703027.0
12.319999999999991,6.516485595703125,-0.30924072265625,6.560748291015625,1720757703037.0
12.329999999999984,7.326672363281251,-0.4819549560546875,7.33385009765625,1720757703047.0
12.339999999999977,7.404730224609375,-0.81766357421875,7.623352050781251,1720757703057.0
12.351,7.018927001953125,-0.48389892578125,5.486630249023438,1720757703068.0
12.360000000000014,6.455026245117188,0.210845947265625,7.199417114257813,1720757703077.0
12.370000000000005,6.793426513671876,0.7850646972656251,7.434936523437501,1720757703087.0
12.379999999999995,7.366448974609376,0.7672698974609375,7.599127197265625,1720757703097.0
12.389999999999986,6.841876220703125,0.584686279296875,6.633123779296875,1720757703107.0
12.399999999999975,6.73331298828125,0.5172454833984376,5.59923095703125,1720757703117.0
12.410000000000023,6.854586791992188,0.276641845703125,7.84586181640625,1720757703127.0
12.420000000000016,7.125247192382813,-0.201873779296875,7.586715698242188,1720757703137.0
12.430000000000009,6.846810913085938,-0.5564239501953125,7.206146240234376,1720757703147.0
12.439999999999998,6.752902221679688,-0.6477905273437501,5.929556274414063,1720757703157.0
12.449999999999989,7.0374694824218755,-0.4673004150390625,6.5813842773437505,1720757703167.0
12.45999999999998,7.414898681640626,-0.270660400390625,7.480694580078126,1720757703177.0
12.470000000000027,7.438375854492188,-0.085833740234375,6.549682617187501,1720757703187.0
12.480999999999996,6.853839111328125,0.1425079345703125,6.198721313476563,1720757703198.0
12.490000000000007,6.696078491210938,0.311932373046875,6.338088989257813,1720757703207.0
12.5,6.872680664062501,0.4628143310546875,8.008856201171875,1720757703217.0
12.511000000000024,6.7503601074218755,0.40015869140625,8.196524047851563,1720757703228.0
12.521000000000017,6.646881103515626,0.2929412841796875,6.4871765136718755,1720757703238.0
12.531000000000006,6.926364135742188,-0.0095703125,6.161038208007813,1720757703248.0
12.540999999999997,7.289437866210938,-0.073870849609375,6.867147827148438,1720757703258.0
12.550999999999988,7.222744750976563,-0.155517578125,7.427310180664063,1720757703268.0
12.56099999999998,6.7745849609375,-0.1143951416015625,6.8619140625,1720757703278.0
12.571000000000026,6.870437622070313,-0.3419891357421875,6.1477294921875005,1720757703288.0
12.581000000000016,7.294073486328125,-0.4230377197265625,6.823184204101563,1720757703298.0
12.591000000000008,7.258334350585938,-0.18721923828125,7.121060180664063,1720757703308.0
12.601,6.684713745117188,0.1742095947265625,7.072909545898438,1720757703318.0
12.61099999999999,6.551925659179688,0.3216522216796875,6.885989379882813,1720757703328.0
12.62099999999998,6.82901611328125,0.2528656005859375,6.778323364257813,1720757703338.0
12.631000000000029,6.890325927734375,0.1786956787109375,7.304690551757813,1720757703348.0
12.64100000000002,7.0598999023437505,0.04127197265625,6.729574584960938,1720757703358.0
12.65100000000001,7.22020263671875,-0.080450439453125,6.8266235351562505,1720757703368.0
12.661,7.7163635253906255,-0.3168670654296875,6.445904541015626,1720757703378.0
12.670999999999992,6.982739257812501,-0.005682373046875,7.056460571289063,1720757703388.0
12.680999999999983,6.1058593750000005,0.413616943359375,7.111489868164063,1720757703398.0
12.691000000000033,6.332107543945313,0.5184417724609376,7.636361694335938,1720757703408.0
12.701000000000022,7.497442626953125,-0.1203765869140625,6.9253173828125005,1720757703418.0
12.711000000000013,7.719055175781251,-0.456085205078125,6.141897583007813,1720757703428.0
12.721000000000004,6.791033935546875,0.082843017578125,6.9659912109375,1720757703438.0
12.730999999999996,6.028399658203125,0.65137939453125,7.03477783203125,1720757703448.0
12.740999999999984,7.076199340820313,0.299371337890625,7.896255493164063,1720757703458.0
12.75200000000001,7.7292236328125,-0.5371337890625001,6.459512329101563,1720757703469.0
12.762,7.280914306640626,-0.3533538818359375,5.624652099609375,1720757703479.0
12.771999999999991,6.315808105468751,0.255706787109375,7.1481262207031255,1720757703489.0
12.781999999999982,6.487774658203126,0.3527557373046875,7.95592041015625,1720757703499.0
12.79200000000003,7.424917602539063,-0.098394775390625,7.964892578125,1720757703509.0
12.80200000000002,7.113433837890626,-0.1661346435546875,5.666522216796875,1720757703519.0
12.812000000000012,6.783108520507813,0.098394775390625,5.7484680175781255,1720757703529.0
12.822000000000005,7.138555908203125,0.2380615234375,7.376019287109376,1720757703539.0
12.831999999999994,7.363906860351563,-0.020635986328125,7.566827392578125,1720757703549.0
12.841999999999985,6.631777954101563,-0.1112548828125,7.304989624023438,1720757703559.0
12.851999999999975,6.446951293945313,0.0689361572265625,5.854190063476563,1720757703569.0
12.862000000000023,6.7712951660156255,0.064599609375,7.389776611328125,1720757703579.0
12.872000000000014,7.594192504882813,-0.01256103515625,7.569818115234376,1720757703589.0
12.882000000000003,7.211080932617188,-0.112750244140625,6.495700073242188,1720757703599.0
12.891999999999996,6.756640625,-0.026019287109375,5.8640594482421875,1720757703609.0
12.901999999999989,6.7084899902343755,0.0849365234375,6.731668090820313,1720757703619.0
12.911999999999978,7.200762939453125,0.06280517578125,8.105307006835938,1720757703629.0
12.922000000000024,7.013992309570313,-0.039178466796875,7.408020019531251,1720757703639.0
12.934000000000026,6.617572021484375,0.035589599609375,6.094195556640625,1720757703651.0
12.942999999999984,6.7772766113281255,0.0477020263671875,6.383099365234376,1720757703660.0
12.953000000000031,7.356878662109375,0.16807861328125,7.478750610351563,1720757703670.0
12.961999999999987,7.061993408203126,0.158209228515625,7.645333862304688,1720757703679.0
12.973000000000011,6.776828002929688,0.1230682373046875,6.2853027343750005,1720757703690.0
12.983000000000004,6.884793090820313,-0.083441162109375,6.072512817382813,1720757703700.0
12.992999999999997,7.189099121093751,-0.1323394775390625,7.319644165039063,1720757703710.0
13.002999999999986,7.111938476562501,-0.2308837890625,7.372579956054688,1720757703720.0
13.012999999999977,6.656301879882813,-0.223406982421875,6.6038146972656255,1720757703730.0
13.023000000000025,6.712826538085938,-0.417205810546875,6.091204833984375,1720757703740.0
13.033000000000015,7.125994873046875,-0.4318603515625,7.102667236328125,1720757703750.0
13.043000000000006,7.635763549804688,-0.12501220703125,7.427011108398438,1720757703760.0
13.052999999999995,7.470675659179688,0.283819580078125,7.110592651367188,1720757703770.0
13.062999999999988,6.757089233398438,0.7852142333984375,6.32896728515625,1720757703780.0
13.07299999999998,5.496499633789063,1.0494445800781251,6.824679565429688,1720757703790.0
13.083000000000029,7.096685791015625,1.008770751953125,8.173794555664063,1720757703800.0
13.093000000000018,7.258932495117188,0.11304931640625,7.593444824218751,1720757703810.0
13.103000000000009,7.277325439453126,-0.54132080078125,5.4957519531250005,1720757703820.0
13.113,6.950888061523438,-0.6231170654296876,6.7028076171875,1720757703830.0
13.12299999999999,6.482540893554688,-0.300567626953125,6.867745971679688,1720757703840.0
13.13299999999998,7.565930175781251,-0.485992431640625,7.897601318359375,1720757703850.0
13.143000000000027,7.1908935546875,-0.750372314453125,6.6456848144531255,1720757703860.0
13.15300000000002,6.981243896484376,-0.1069183349609375,5.6117919921875,1720757703870.0
13.163000000000013,6.3765197753906255,0.8000183105468751,7.614379882812501,1720757703880.0
13.173999999999978,6.646133422851563,1.2412994384765623,7.7761779785156255,1720757703891.0
13.182999999999993,7.443161010742188,0.616986083984375,7.608398437500001,1720757703900.0
13.194000000000017,6.958663940429688,0.2600433349609375,5.419338989257813,1720757703911.0
13.204000000000008,6.725238037109375,0.2068084716796875,6.375772094726563,1720757703921.0
13.214,6.821688842773438,-0.0623565673828125,8.106353759765625,1720757703931.0
13.22399999999999,7.126293945312501,-0.5685363769531251,7.391720581054688,1720757703941.0
13.23399999999998,6.9193359375000005,-0.8202056884765626,7.025955200195313,1720757703951.0
13.244000000000028,6.725836181640625,-0.5105163574218751,5.3990020751953125,1720757703961.0
13.25400000000002,7.145584106445313,-0.1126007080078125,7.184762573242188,1720757703971.0
13.26400000000001,7.659091186523438,0.0874786376953125,7.460507202148438,1720757703981.0
13.274,7.121359252929688,0.24942626953125,6.447100830078125,1720757703991.0
13.283999999999992,6.5978332519531255,0.439337158203125,6.0494842529296875,1720757704001.0
13.293999999999984,6.307135009765625,0.5468536376953126,7.251007080078126,1720757704011.0
13.30400000000003,7.02640380859375,0.4263275146484375,8.612234497070313,1720757704021.0
13.31400000000002,6.922924804687501,0.1179840087890625,7.302597045898438,1720757704031.0
13.324000000000012,6.901092529296876,-0.207855224609375,5.468536376953125,1720757704041.0
13.334000000000003,7.357327270507813,-0.4167572021484375,6.205151367187501,1720757704051.0
13.343999999999994,7.2483154296875005,-0.2978759765625,7.156948852539063,1720757704061.0
13.353999999999983,6.8595214843750005,-0.139666748046875,7.956668090820313,1720757704071.0
13.363999999999976,6.5365234375000005,-0.02930908203125,6.676339721679688,1720757704081.0
13.375,7.167266845703126,-0.267669677734375,5.7544494628906255,1720757704092.0
13.384000000000016,7.383197021484375,-0.070281982421875,7.222894287109376,1720757704101.0
13.394999999999982,6.972869873046876,0.3503631591796875,7.294073486328125,1720757704112.0
13.40500000000003,6.484783935546876,0.576910400390625,7.259829711914063,1720757704122.0
13.41500000000002,6.601870727539063,0.208154296875,6.464447021484376,1720757704132.0
13.425000000000011,7.21781005859375,-0.2244537353515625,6.579290771484375,1720757704142.0
13.435000000000002,7.250857543945313,-0.395074462890625,6.860269165039063,1720757704152.0
13.444999999999991,6.873129272460938,-0.4661041259765625,7.030441284179688,1720757704162.0
13.454999999999984,7.405477905273438,-0.5184417724609376,6.801800537109376,1720757704172.0
13.464999999999977,7.746121215820313,-0.1727142333984375,7.095938110351563,1720757704182.0
13.475000000000025,6.090457153320313,0.6323883056640626,7.048535156250001,1720757704192.0
13.485000000000014,5.81695556640625,1.346124267578125,7.027899169921875,1720757704202.0
13.495000000000005,6.957766723632813,0.91934814453125,7.602416992187501,1720757704212.0
13.504999999999995,7.437030029296875,-0.1120025634765625,6.537570190429688,1720757704222.0
13.514999999999986,8.147625732421876,-0.4151123046875,6.656750488281251,1720757704232.0
13.524999999999975,6.094494628906251,0.1664337158203125,6.86131591796875,1720757704242.0
13.535000000000023,6.116476440429688,0.1487884521484375,7.243530273437501,1720757704252.0
13.545000000000016,7.656100463867188,-0.7690643310546875,7.346112060546876,1720757704262.0
13.555000000000009,7.953677368164063,-1.12451171875,5.828021240234375,1720757704272.0
13.564999999999998,6.641497802734375,-0.169873046875,6.655703735351563,1720757704282.0
13.574999999999989,6.045596313476563,0.7134368896484375,7.337139892578126,1720757704292.0
13.58499999999998,7.075750732421875,0.6933990478515626,8.078839111328126,1720757704302.0
13.595000000000027,7.265512084960938,0.401654052734375,7.232763671875,1720757704312.0
13.605000000000018,6.938626098632813,0.578106689453125,5.2011657714843755,1720757704322.0
13.615999999999984,6.758734130859375,0.4254302978515625,6.8550354003906255,1720757704333.0
13.625999999999976,6.993356323242188,-0.0372344970703125,7.480245971679688,1720757704343.0
