time,ax,ay,az,timestamp
0.0,1.5159973144531251,8.116970825195313,6.536972045898438,1721318825320.0
0.0099999999999909,1.272402954101563,7.795617675781251,5.9129577636718755,1721318825330.0
0.0199999999999818,0.6447998046875001,6.117971801757813,6.211431884765625,1721318825340.0
0.0299999999999727,-0.0946563720703125,7.402337646484376,6.532485961914063,1721318825350.0
0.0399999999999636,-0.0743194580078125,7.438375854492188,8.358023071289063,1721318825360.0
0.0500000000000113,-0.303558349609375,7.523013305664063,5.006619262695313,1721318825370.0
0.0600000000000022,-0.951947021484375,6.9941040039062505,6.174496459960938,1721318825380.0
0.0689999999999599,-1.6469909667968752,6.456820678710938,7.872030639648438,1721318825389.0
0.0790000000000077,-2.122067260742188,6.839035034179688,8.263815307617188,1721318825399.0
0.0889999999999986,-0.8345611572265625,7.289288330078126,7.667913818359375,1721318825409.0
0.0989999999999895,0.25540771484375,7.478900146484375,4.345669555664063,1721318825419.0
0.1089999999999804,1.8472198486328129,7.6670166015625005,5.076303100585938,1721318825429.0
0.1189999999999713,1.648785400390625,7.074105834960938,7.34342041015625,1721318825439.0
0.1289999999999622,0.948956298828125,6.861614990234376,8.326470947265626,1721318825449.0
0.13900000000001,0.871197509765625,6.9958984375,7.5497802734375,1721318825459.0
0.1490000000000009,0.731231689453125,7.604660034179688,5.2648681640625,1721318825469.0
0.1589999999999918,0.261688232421875,7.885937500000001,4.860372924804688,1721318825479.0
0.1689999999999827,-1.05751953125,7.534677124023438,6.0674285888671875,1721318825489.0
0.1789999999999736,-1.5025390625,7.187753295898438,7.288092041015625,1721318825499.0
0.1889999999999645,-1.2508697509765625,6.96658935546875,7.438973999023438,1721318825509.0
0.1990000000000122,-0.9072357177734376,7.20823974609375,6.594094848632813,1721318825519.0
0.2090000000000031,-0.4526458740234375,6.8924194335937505,6.644787597656251,1721318825529.0
0.2189999999999941,-0.4080841064453125,7.267755126953125,6.742584228515626,1721318825539.0
0.228999999999985,-0.16748046875,7.144686889648438,7.000683593750001,1721318825549.0
0.2389999999999759,0.2866607666015625,7.420880126953126,6.366500854492188,1721318825559.0
0.2489999999999668,0.6899597167968751,7.408468627929688,6.1641784667968755,1721318825569.0
0.2589999999999577,1.4410797119140626,7.178182983398438,6.447250366210938,1721318825579.0
0.2690000000000054,0.9830505371093752,7.132125854492188,7.152313232421876,1721318825589.0
0.2789999999999963,0.7300354003906251,7.274334716796876,6.945504760742188,1721318825599.0
0.2889999999999944,0.7200164794921875,7.757485961914063,5.771197509765625,1721318825609.0
0.2989999999999781,0.3792236328125,8.177084350585938,4.64459228515625,1721318825619.0
0.3089999999999691,-0.0970489501953125,8.00257568359375,4.277630615234376,1721318825629.0
0.31899999999996,-0.5890228271484376,6.805239868164063,7.0533203125,1721318825639.0
0.3290000000000077,-0.7855133056640625,6.4468017578125005,9.775775146484376,1721318825649.0
0.3389999999999986,-1.0193878173828126,5.283261108398438,9.497637939453126,1721318825659.0
0.3489999999999895,-0.9760223388671876,6.356033325195313,8.129531860351562,1721318825669.0
0.3589999999999804,-0.2244537353515625,7.460806274414063,6.302947998046876,1721318825679.0
0.3689999999999713,0.462066650390625,9.04215087890625,3.888388061523438,1721318825689.0
0.3789999999999622,0.3276336669921875,8.760873413085939,4.201367187500001,1721318825699.0
0.38900000000001,0.26856689453125,7.000982666015625,4.766763305664063,1721318825709.0
0.3990000000000009,0.1128997802734375,7.19388427734375,7.523611450195313,1721318825719.0
0.4089999999999918,0.8462249755859376,6.5873657226562505,9.123348999023438,1721318825729.0
0.4189999999999827,1.0116119384765625,7.065432739257813,6.973916625976563,1721318825739.0
0.4289999999999736,0.326885986328125,6.593496704101563,7.317401123046875,1721318825749.0
0.4389999999999645,-0.98035888671875,6.730172729492188,6.428558349609376,1721318825759.0
0.4479999999999791,-1.6179809570312502,7.518676757812501,7.399496459960938,1721318825768.0
0.45799999999997,-1.2981231689453123,7.616921997070313,6.4333435058593755,1721318825778.0
0.4679999999999609,-0.225799560546875,7.851394653320313,4.13616943359375,1721318825788.0
0.4780000000000086,0.7584472656250001,7.4681335449218755,5.657550048828125,1721318825798.0
0.4879999999999995,0.9742279052734376,6.913204956054688,7.213024902343751,1721318825808.0
0.4979999999999904,0.8181121826171875,6.654058837890625,9.071609497070312,1721318825818.0
0.5079999999999814,0.7227081298828125,6.697872924804688,7.994650268554688,1721318825828.0
0.5179999999999723,0.3174652099609375,7.4651428222656255,5.594744873046875,1721318825838.0
0.5279999999999632,-0.19619140625,7.8763671875,4.859625244140625,1721318825848.0
0.5380000000000109,-0.8074951171875001,7.817300415039063,5.188455200195313,1721318825858.0
0.5480000000000018,-0.8777770996093751,7.410263061523438,7.046890258789063,1721318825868.0
0.5579999999999927,-0.4079345703125,6.996197509765626,7.088162231445313,1721318825878.0
0.5679999999999836,0.2117431640625,6.973617553710938,7.066030883789063,1721318825888.0
0.5779999999999745,0.466552734375,6.993804931640626,7.214968872070313,1721318825898.0
0.5879999999999654,0.2074066162109375,6.915597534179688,6.822735595703126,1721318825908.0
0.5979999999999563,-0.3874481201171875,6.671554565429688,7.456619262695313,1721318825918.0
0.6080000000000041,-0.8034576416015625,7.044796752929688,7.003524780273438,1721318825928.0
0.6179999999999879,-0.2223602294921875,7.398898315429688,6.734060668945313,1721318825938.0
0.6279999999999859,0.3153717041015625,7.449740600585938,6.142645263671875,1721318825948.0
0.6379999999999768,0.398663330078125,8.596832275390625,4.300360107421875,1721318825958.0
0.6479999999999677,1.1206237792968752,7.427310180664063,4.7844085693359375,1721318825968.0
0.6579999999999586,1.61080322265625,7.467086791992188,6.395510864257813,1721318825978.0
0.6680000000000064,0.945965576171875,7.354486083984376,8.74906005859375,1721318825988.0
0.6779999999999973,-0.17406005859375,5.3661041259765625,8.073007202148439,1721318825998.0
0.6879999999999882,-0.8329162597656251,6.759481811523438,7.745822143554688,1721318826008.0
0.6979999999999791,-1.10836181640625,7.409963989257813,7.486077880859376,1721318826018.0
0.70799999999997,-1.0642486572265626,8.224786376953126,4.9474029541015625,1721318826028.0
0.7179999999999609,-1.561456298828125,7.5641357421875,5.2370544433593755,1721318826038.0
0.7280000000000086,-1.0980438232421876,7.235604858398438,4.777081298828126,1721318826048.0
0.7379999999999995,-0.173760986328125,7.648324584960938,7.850497436523438,1721318826058.0
0.7479999999999905,1.16339111328125,6.847409057617188,8.1718505859375,1721318826068.0
0.7579999999999814,1.9163055419921875,7.276428222656251,6.062344360351563,1721318826078.0
0.7679999999999723,1.7094970703125,6.417791748046875,7.305438232421875,1721318826088.0
0.7779999999999632,0.6660339355468751,6.919784545898438,6.641049194335938,1721318826098.0
0.7869999999999777,0.0776092529296875,8.038613891601564,7.910610961914063,1721318826107.0
0.7969999999999686,-0.9532928466796876,7.783953857421875,5.206549072265625,1721318826117.0
0.8079999999999927,-1.1740081787109375,7.950985717773438,3.0118072509765628,1721318826128.0
0.8170000000000073,-0.9824523925781252,7.399496459960938,6.234609985351563,1721318826137.0
0.8269999999999982,-0.752166748046875,6.815408325195313,8.088259887695314,1721318826147.0
0.8379999999999654,0.0442626953125,6.243731689453125,9.6241455078125,1721318826158.0
0.84699999999998,0.420196533203125,6.225936889648438,7.441815185546876,1721318826167.0
0.8569999999999709,1.404144287109375,6.868194580078126,6.492260742187501,1721318826177.0
0.8669999999999618,0.7831207275390626,7.699615478515626,6.75364990234375,1721318826187.0
0.8770000000000095,-0.1431060791015625,7.400244140625,6.5724121093750005,1721318826197.0
0.8870000000000005,-0.7787841796875,7.791580200195313,5.6038665771484375,1721318826207.0
0.8969999999999914,-1.104922485351563,7.896554565429688,4.583282470703125,1721318826217.0
0.9069999999999824,0.0321502685546875,8.172299194335938,5.0460968017578125,1721318826227.0
0.9169999999999732,0.6287994384765625,7.441665649414063,6.689498901367188,1721318826237.0
0.926999999999964,0.6087615966796875,6.56822509765625,7.600772094726563,1721318826247.0
0.9370000000000118,0.391485595703125,6.176589965820313,8.634365844726563,1721318826257.0
0.9470000000000028,0.30325927734375,6.688153076171876,8.084072875976563,1721318826267.0
0.9569999999999936,0.0049346923828125,7.389328002929688,6.503326416015626,1721318826277.0
0.9669999999999844,-0.3170166015625,7.7435791015625,5.0954437255859375,1721318826287.0
0.9769999999999754,-0.925927734375,7.731167602539063,4.861270141601563,1721318826297.0
0.9869999999999663,-1.087127685546875,7.383197021484375,6.676040649414063,1721318826307.0
0.9969999999999573,-0.6485382080078126,7.036572265625001,7.2498107910156255,1721318826317.0
1.007000000000005,-0.0575714111328125,6.792379760742188,7.280914306640626,1721318826327.0
1.016999999999996,0.76383056640625,6.624301147460938,7.209136962890626,1721318826337.0
1.0269999999999868,0.7442413330078126,7.364953613281251,7.590155029296875,1721318826347.0
1.0369999999999775,0.634930419921875,7.153210449218751,7.040161132812501,1721318826357.0
1.0469999999999686,0.7562042236328126,7.48936767578125,4.768408203125,1721318826367.0
1.0569999999999595,0.795233154296875,7.722943115234376,6.1070556640625,1721318826377.0
1.0670000000000073,0.111553955078125,7.83629150390625,6.134719848632813,1721318826387.0
1.0769999999999982,-0.6461456298828125,7.373178100585938,6.7802673339843755,1721318826397.0
1.086999999999989,-0.9353485107421876,6.92471923828125,6.590057373046876,1721318826407.0
1.09699999999998,-0.8867492675781251,7.0114501953125,6.536672973632813,1721318826417.0
1.106999999999971,-0.7759429931640626,6.6788818359375,8.23465576171875,1721318826427.0
1.1169999999999618,-0.6646881103515625,7.117620849609375,7.22080078125,1721318826437.0
1.1270000000000095,0.0435150146484375,7.191192626953126,6.746173095703125,1721318826447.0
1.1370000000000005,0.7331756591796875,7.469329833984376,5.634072875976563,1721318826457.0
1.1469999999999914,0.8344116210937501,7.580584716796875,5.977856445312501,1721318826467.0
1.1569999999999825,0.5105163574218751,7.382150268554688,6.793276977539063,1721318826477.0
1.1659999999999968,0.4765716552734375,7.532135009765626,6.132327270507813,1721318826486.0
1.1759999999999875,0.5459564208984375,7.4890686035156255,6.227731323242188,1721318826496.0
1.1859999999999786,0.3354095458984375,7.184762573242188,5.771945190429688,1721318826506.0
1.1970000000000027,-0.251220703125,6.996945190429688,7.606903076171876,1721318826517.0
1.2059999999999604,-0.6673797607421875,6.787445068359376,7.979248046875001,1721318826526.0
1.2160000000000082,-0.6639404296875,6.917691040039063,6.806735229492188,1721318826536.0
1.225999999999999,-0.282025146484375,7.2650634765625,6.469680786132813,1721318826546.0
1.23599999999999,-0.125909423828125,7.479199218750001,5.770449829101563,1721318826556.0
1.245999999999981,-0.0868804931640625,7.379159545898438,6.9013916015625005,1721318826566.0
1.2559999999999718,0.09749755859375,7.034927368164063,6.825277709960938,1721318826576.0
1.2659999999999627,0.4481597900390625,7.28958740234375,6.288891601562501,1721318826586.0
1.2760000000000105,0.7789337158203126,7.274484252929688,6.8822509765625,1721318826596.0
1.2860000000000014,0.5199371337890626,7.243829345703125,6.41629638671875,1721318826606.0
1.2959999999999925,-0.235968017578125,7.26207275390625,6.8341003417968755,1721318826616.0
1.3059999999999832,-0.6447998046875001,7.34342041015625,6.330761718750001,1721318826626.0
1.315999999999974,-0.8454772949218751,7.52525634765625,6.06578369140625,1721318826636.0
1.325999999999965,-0.6830810546875,7.1914916992187505,6.335696411132813,1721318826646.0
1.335999999999956,-0.6305938720703126,6.643441772460938,7.17294921875,1721318826656.0
1.3460000000000036,-0.2995208740234375,6.4004455566406255,8.453128051757814,1721318826666.0
1.3559999999999943,0.3850555419921875,7.563238525390625,6.923223876953125,1721318826676.0
1.3659999999999854,1.0795013427734377,7.277923583984376,6.039913940429688,1721318826686.0
1.3759999999999764,1.2776367187500002,7.683914184570313,4.666574096679688,1721318826696.0
1.3859999999999673,0.9183013916015624,8.035324096679688,6.580935668945313,1721318826706.0
1.3959999999999582,0.179144287109375,7.143490600585938,6.723294067382813,1721318826716.0
1.406000000000006,-0.0820953369140625,7.191641235351563,6.326425170898438,1721318826726.0
1.4159999999999968,-0.3333160400390625,6.96060791015625,7.720849609375,1721318826736.0
1.4259999999999875,-0.99591064453125,6.821539306640625,7.0434509277343755,1721318826746.0
1.4359999999999786,-1.5453063964843752,6.996197509765626,7.365402221679688,1721318826756.0
1.4459999999999695,-0.6138458251953125,7.577294921875,5.956622314453125,1721318826766.0
1.4559999999999604,0.198883056640625,7.710830688476563,5.5878662109375,1721318826776.0
1.4660000000000082,0.4819549560546875,7.400692749023438,6.2314697265625005,1721318826786.0
1.475999999999999,0.4414306640625,7.1615844726562505,6.701611328125001,1721318826796.0
1.48599999999999,0.6820343017578125,7.072610473632813,7.6359130859375,1721318826806.0
1.495999999999981,0.8840576171875001,7.140200805664063,6.771743774414063,1721318826816.0
1.5059999999999718,0.4424774169921875,7.282260131835938,6.313116455078125,1721318826826.0
1.5159999999999627,-0.2011260986328125,7.040908813476563,6.317153930664063,1721318826836.0
1.5260000000000105,-0.7303344726562501,7.459310913085938,6.7028076171875,1721318826846.0
1.5349999999999682,-0.820355224609375,7.291082763671875,6.959860229492188,1721318826855.0
1.544999999999959,-0.7137359619140625,7.350299072265625,5.860919189453125,1721318826865.0
1.5559999999999832,-0.3105865478515625,7.071563720703126,6.593795776367188,1721318826876.0
1.5649999999999975,0.1158905029296875,7.086517333984376,6.823184204101563,1721318826885.0
1.5749999999999886,0.653173828125,7.180126953125001,7.306185913085938,1721318826895.0
1.5849999999999795,0.9538909912109376,7.22020263671875,6.7712951660156255,1721318826905.0
1.5960000000000036,0.7122406005859375,6.986477661132813,6.309527587890625,1721318826916.0
1.6059999999999943,0.102880859375,7.1421447753906255,6.805389404296876,1721318826926.0
1.615000000000009,-0.3847564697265625,7.513442993164063,6.546243286132813,1721318826935.0
1.625,-0.3802703857421875,7.551425170898438,6.329415893554688,1721318826945.0
1.634999999999991,-0.4101776123046875,7.499835205078125,5.6766906738281255,1721318826955.0
1.6449999999999818,-0.4969085693359375,7.163827514648438,6.231918334960938,1721318826965.0
1.6549999999999727,-0.32598876953125,7.028048706054688,7.431048583984375,1721318826975.0
1.6649999999999636,0.358587646484375,7.035824584960938,7.463796997070313,1721318826985.0
1.6750000000000114,0.8735900878906251,7.074554443359376,6.862362670898438,1721318826995.0
1.6850000000000025,0.8498138427734375,7.107901000976563,6.249862670898438,1721318827005.0
1.6959999999999695,0.30146484375,7.242633056640625,6.608001708984376,1721318827016.0
1.704999999999984,-0.3935791015625,7.467385864257813,6.3555847167968755,1721318827025.0
1.714999999999975,-0.5399749755859375,7.882049560546876,5.299411010742188,1721318827035.0
1.724999999999966,-0.15372314453125,6.919635009765625,5.977856445312501,1721318827045.0
1.7349999999999568,-0.288006591796875,6.775930786132813,7.802346801757813,1721318827055.0
1.7450000000000043,-0.5776580810546875,6.847259521484376,9.511544799804687,1721318827065.0
1.7549999999999957,-0.3488677978515625,6.746023559570313,6.9851318359375005,1721318827075.0
1.7649999999999864,0.4047943115234375,7.770794677734376,5.3406829833984375,1721318827085.0
1.7749999999999773,0.7681671142578126,8.068820190429689,4.842428588867188,1721318827095.0
1.7849999999999682,0.36845703125,7.738644409179688,5.013796997070313,1721318827105.0
1.7959999999999925,0.168975830078125,7.290933227539063,7.343121337890626,1721318827116.0
1.8050000000000068,0.2456878662109375,6.955075073242188,7.2387451171875,1721318827125.0
1.8149999999999975,-0.0139068603515625,6.707293701171875,7.880554199218751,1721318827135.0
1.8249999999999889,-0.6494354248046875,6.650320434570313,7.494302368164063,1721318827145.0
1.8349999999999795,-1.063052368164063,7.210931396484376,6.5233642578125,1721318827155.0
1.8449999999999704,-0.6018829345703125,7.661483764648438,6.203506469726563,1721318827165.0
1.8549999999999611,-0.026617431640625,7.844366455078125,4.969534301757813,1721318827175.0
1.865000000000009,0.207257080078125,7.493704223632813,6.217263793945313,1721318827185.0
1.875,0.4998992919921875,7.0015808105468755,7.0284973144531255,1721318827195.0
1.884999999999991,0.7476806640625,7.0823303222656255,7.429104614257813,1721318827205.0
1.8959999999999584,0.846075439453125,6.98453369140625,7.137509155273438,1721318827216.0
1.9049999999999727,0.4810577392578125,7.1017700195312505,6.193637084960938,1721318827225.0
1.9139999999999873,-0.21533203125,7.340579223632813,6.767257690429688,1721318827234.0
1.9239999999999784,-0.7923919677734376,7.415048217773438,6.36844482421875,1721318827244.0
1.933999999999969,-0.843084716796875,7.38768310546875,6.250311279296875,1721318827254.0
1.9449999999999932,-0.3940277099609375,7.282409667968751,6.203656005859376,1721318827265.0
1.9540000000000075,0.0647491455078125,7.242782592773438,6.372930908203125,1721318827274.0
1.9639999999999984,0.5060302734375001,7.008010864257813,7.453628540039063,1721318827284.0
1.9739999999999895,0.6690246582031251,6.7865478515625,7.4651428222656255,1721318827294.0
1.9839999999999804,0.439935302734375,6.988870239257813,7.193435668945313,1721318827304.0
1.995999999999981,0.1170867919921875,7.331158447265626,6.276629638671875,1721318827316.0
2.0039999999999623,-0.2660247802734375,7.5638366699218755,5.792431640625001,1721318827324.0
2.01400000000001,-0.5839385986328125,7.460357666015626,6.2987609863281255,1721318827334.0
2.024000000000001,-0.8377014160156251,7.253250122070313,6.551177978515626,1721318827344.0
2.033999999999992,-0.7177734375,6.9635986328125,7.248016357421876,1721318827354.0
2.0439999999999827,-0.314324951171875,7.090853881835938,6.898101806640626,1721318827364.0
2.0539999999999736,-0.0261688232421875,6.992160034179688,6.676788330078126,1721318827374.0
2.0639999999999645,0.0752166748046875,7.4421142578125,6.253002929687501,1721318827384.0
2.0740000000000123,0.659454345703125,7.158892822265625,6.369192504882813,1721318827394.0
2.084000000000003,0.8291778564453126,7.181472778320313,6.609945678710938,1721318827404.0
2.0960000000000036,0.9215911865234376,7.419982910156251,7.271493530273438,1721318827416.0
2.103999999999985,0.8252899169921876,6.892568969726563,6.581533813476563,1721318827424.0
2.113999999999976,0.40135498046875,7.543948364257813,6.453082275390625,1721318827434.0
2.123999999999967,-0.21712646484375,7.675540161132813,6.591552734375001,1721318827444.0
2.1339999999999577,-0.8885437011718751,7.281961059570313,5.6991210937500005,1721318827454.0
2.1440000000000055,-1.3972656250000002,7.330560302734376,6.397155761718751,1721318827464.0
2.1539999999999964,-1.116885375976563,7.096386718750001,6.621908569335938,1721318827474.0
2.1639999999999873,-0.371746826171875,7.270745849609376,7.655950927734375,1721318827484.0
2.173999999999978,0.3037078857421875,6.962850952148438,7.174743652343751,1721318827494.0
2.183999999999969,0.632537841796875,6.850250244140626,6.346014404296875,1721318827504.0
2.1959999999999695,1.096099853515625,7.329663085937501,6.497793579101563,1721318827516.0
2.2040000000000077,1.198681640625,7.63052978515625,6.429455566406251,1721318827524.0
2.213999999999998,0.630743408203125,7.604660034179688,6.425119018554688,1721318827534.0
2.2239999999999895,-0.16568603515625,6.9926086425781255,6.005520629882813,1721318827544.0
2.2339999999999804,-0.8767303466796875,7.280914306640626,6.612188720703125,1721318827554.0
2.2439999999999714,-0.9141143798828124,7.1316772460937505,7.418487548828126,1721318827564.0
2.2539999999999623,-0.7629333496093751,7.3846923828125,6.644787597656251,1721318827574.0
2.26400000000001,-0.442626953125,6.95462646484375,6.5245605468750005,1721318827584.0
2.2729999999999677,0.080450439453125,7.089956665039063,6.151617431640625,1721318827593.0
2.283999999999992,0.5552276611328125,7.371383666992188,7.272988891601563,1721318827604.0
2.2930000000000064,0.7771392822265626,7.308728027343751,6.841128540039063,1721318827613.0
2.3029999999999973,0.4574310302734375,7.182369995117188,5.960360717773438,1721318827623.0
2.312999999999988,0.2286407470703125,7.208090209960938,6.425418090820313,1721318827633.0
2.322999999999979,-0.134283447265625,7.444357299804688,6.594244384765625,1721318827643.0
2.33299999999997,-0.2971282958984375,7.26865234375,7.149920654296875,1721318827653.0
2.342999999999961,-0.650482177734375,7.068124389648438,6.4019409179687505,1721318827663.0
2.3530000000000086,-0.5142547607421876,6.8251281738281255,6.707443237304688,1721318827673.0
2.3629999999999995,-0.4254302978515625,7.217510986328126,7.256539916992188,1721318827683.0
2.3729999999999905,-0.1949951171875,7.115078735351563,7.167266845703126,1721318827693.0
2.382999999999982,0.0734222412109375,7.079937744140626,6.6071044921875,1721318827703.0
2.3929999999999723,0.4759735107421875,7.323831176757813,5.844769287109376,1721318827713.0
2.402999999999963,0.9317596435546877,7.640847778320313,6.189450073242188,1721318827723.0
2.413000000000011,0.99710693359375,7.540658569335938,6.171206665039063,1721318827733.0
2.423000000000002,0.6663330078125,7.173696899414063,6.156851196289063,1721318827743.0
2.4329999999999927,0.1263580322265625,7.193734741210938,6.574505615234376,1721318827753.0
2.4429999999999836,0.06280517578125,6.518280029296876,7.533331298828125,1721318827763.0
2.4529999999999745,-0.6956420898437501,7.1550048828125,8.19757080078125,1721318827773.0
2.4629999999999654,-1.251318359375,7.217361450195313,7.294821166992188,1721318827783.0
2.4729999999999563,-1.2864593505859376,7.583724975585938,4.8706909179687505,1721318827793.0
2.483000000000004,-0.7262969970703126,8.056857299804689,4.880709838867188,1721318827803.0
2.492999999999995,0.48389892578125,7.578640747070313,6.105410766601563,1721318827813.0
2.502999999999986,0.8335144042968751,6.774136352539063,7.503723144531251,1721318827823.0
2.512999999999977,0.7391571044921875,6.458914184570313,8.391519165039064,1721318827833.0
2.5229999999999677,0.8209533691406251,7.1496215820312505,7.4421142578125,1721318827843.0
2.5329999999999586,0.5277130126953126,7.2770263671875,6.614730834960938,1721318827853.0
2.5430000000000064,-0.3563446044921875,7.616772460937501,4.802203369140625,1721318827863.0
2.5529999999999973,-0.752166748046875,7.656997680664063,5.637362670898438,1721318827873.0
2.562999999999988,-0.5585174560546875,7.661483764648438,6.5927490234375,1721318827883.0
2.572999999999979,-0.1134979248046875,7.1693603515625,6.722097778320313,1721318827893.0
2.58299999999997,0.0287109375,6.6429931640625,7.415646362304688,1721318827903.0
2.592999999999961,0.152825927734375,6.632824707031251,7.5796875,1721318827913.0
2.6030000000000086,0.1861724853515625,7.1316772460937505,7.693185424804688,1721318827923.0
2.6129999999999995,0.2142852783203125,7.418038940429688,6.243283081054688,1721318827933.0
2.6229999999999905,0.0728240966796875,7.466787719726563,5.116976928710938,1721318827943.0
2.632000000000005,-0.2295379638671875,7.674493408203125,6.0135955810546875,1721318827952.0
2.6429999999999723,-0.480010986328125,7.472021484375,6.721200561523438,1721318827963.0
2.651999999999987,-0.171966552734375,7.05272216796875,6.869839477539063,1721318827972.0
2.6619999999999777,0.3096893310546875,6.956570434570313,6.714920043945313,1721318827982.0
2.6719999999999686,0.678594970703125,7.092498779296876,6.981094360351563,1721318827992.0
2.6819999999999595,0.6267059326171875,7.242184448242188,6.955523681640625,1721318828002.0
2.6920000000000073,0.4747772216796875,7.338635253906251,6.274386596679688,1721318828012.0
2.701999999999998,0.3518585205078125,7.268951416015626,6.053671264648438,1721318828022.0
2.711999999999989,-0.0360382080078125,7.346112060546876,6.307882690429688,1721318828032.0
2.72199999999998,-0.6069671630859376,7.085470581054688,7.163229370117188,1721318828042.0
2.731999999999971,-0.9296661376953126,6.9958984375,7.3607666015625,1721318828052.0
2.741999999999962,-1.015200805664063,6.925466918945313,7.052572631835938,1721318828062.0
2.7520000000000095,-0.7693634033203126,7.021170043945313,6.741238403320313,1721318828072.0
2.7620000000000005,-0.362176513671875,7.246520996093751,6.613833618164063,1721318828082.0
2.7719999999999914,0.216827392578125,7.351943969726563,6.371585083007813,1721318828092.0
2.7819999999999823,0.3482696533203125,7.780215454101563,5.569622802734376,1721318828102.0
2.791999999999973,0.7810272216796875,7.365252685546875,5.8591247558593755,1721318828112.0
2.801999999999964,0.814373779296875,6.846810913085938,6.594094848632813,1721318828122.0
2.812000000000012,0.7077545166015625,7.080386352539063,8.507559204101563,1721318828132.0
2.8220000000000027,0.4127197265625,6.59873046875,7.763317871093751,1721318828142.0
2.8319999999999936,0.091815185546875,7.371383666992188,6.054867553710938,1721318828152.0
2.8419999999999845,-0.439935302734375,7.905377197265626,6.17344970703125,1721318828162.0
2.851999999999975,-1.1623443603515626,7.663726806640626,4.91136474609375,1721318828172.0
2.8619999999999663,-1.5313995361328123,7.3948608398437505,6.471475219726563,1721318828182.0
2.8719999999999573,-0.6181823730468751,7.197024536132813,6.657348632812501,1721318828192.0
2.882000000000005,0.561956787109375,7.359869384765625,6.9013916015625005,1721318828202.0
2.891999999999996,1.116436767578125,6.676339721679688,8.014239501953126,1721318828212.0
2.901999999999987,0.887945556640625,6.673648071289063,6.9627014160156255,1721318828222.0
2.9119999999999777,0.6705200195312501,7.133770751953126,6.999935913085938,1721318828232.0
2.9219999999999686,0.7894012451171876,7.904031372070313,5.5919036865234375,1721318828242.0
2.9319999999999595,0.1855743408203125,7.879806518554688,5.372982788085938,1721318828252.0
2.9420000000000073,-0.66693115234375,7.128985595703125,6.22130126953125,1721318828262.0
2.951999999999998,-1.2348693847656251,7.006665039062501,7.107452392578126,1721318828272.0
2.961999999999989,-0.8529541015625001,6.82901611328125,8.195028686523438,1721318828282.0
2.97199999999998,-0.4690948486328125,7.185659790039063,6.7877441406250005,1721318828292.0
2.981999999999971,-0.1583587646484375,7.050628662109376,6.4542785644531255,1721318828302.0
2.991999999999962,0.2141357421875,7.1974731445312505,5.8815551757812505,1721318828312.0
3.0020000000000095,0.557470703125,7.587463378906251,6.707144165039063,1721318828322.0
3.0120000000000005,0.7422973632812501,7.282260131835938,6.9477478027343755,1721318828332.0
3.020999999999958,0.3935791015625,7.128836059570313,6.010006713867188,1721318828341.0
3.031000000000006,0.1972381591796875,7.139303588867188,6.87686767578125,1721318828351.0
3.040999999999997,-0.20157470703125,7.543798828125,6.24283447265625,1721318828361.0
3.0509999999999877,-0.184228515625,7.440917968750001,6.426913452148438,1721318828371.0
3.060999999999978,-0.336456298828125,7.459310913085938,6.086569213867188,1721318828381.0
3.0709999999999695,-0.436346435546875,6.887335205078125,6.720901489257813,1721318828391.0
3.0809999999999604,-0.3464752197265625,6.749163818359375,7.75673828125,1721318828401.0
3.091000000000008,-0.0979461669921875,6.965093994140625,7.499087524414063,1721318828411.0
3.100999999999999,0.4167572021484375,6.9911132812500005,6.805838012695313,1721318828421.0
3.11099999999999,0.5211334228515625,7.281811523437501,6.052774047851563,1721318828431.0
3.120999999999981,0.3536529541015625,7.228726196289063,6.548336791992188,1721318828441.0
3.130999999999972,-0.0575714111328125,7.378262329101563,6.427810668945313,1721318828451.0
3.1409999999999627,0.11903076171875,7.707839965820313,5.900097656250001,1721318828461.0
3.1510000000000105,0.439337158203125,7.315756225585938,5.842376708984375,1721318828471.0
3.161000000000002,0.3428863525390625,7.123751831054688,6.6406005859375,1721318828481.0
3.1709999999999923,-0.4248321533203125,7.131826782226563,8.353985595703126,1721318828491.0
3.180999999999983,-0.7541107177734375,6.6429931640625,7.255792236328125,1721318828501.0
3.190999999999974,-0.274249267578125,7.402188110351563,6.2697509765625,1721318828511.0
3.200999999999965,0.10946044921875,7.776776123046876,6.088812255859375,1721318828521.0
3.210999999999956,-0.133087158203125,7.482040405273438,5.569772338867188,1721318828531.0
3.2210000000000036,-0.275146484375,7.350299072265625,6.611889648437501,1721318828541.0
3.2309999999999945,0.28890380859375,7.298410034179688,6.409268188476563,1721318828551.0
3.2409999999999854,0.6605010986328126,7.321438598632813,7.014889526367188,1721318828561.0
3.2509999999999764,0.278436279296875,6.676788330078126,7.485479736328125,1721318828571.0
3.2609999999999673,-0.366961669921875,6.825277709960938,6.978701782226563,1721318828581.0
3.270999999999958,-0.17047119140625,7.239642333984375,7.148873901367188,1721318828591.0
3.281000000000006,0.08134765625,7.664773559570313,5.85703125,1721318828601.0
3.290999999999997,-0.1831817626953125,7.489666748046876,5.897555541992188,1721318828611.0
3.3009999999999877,-0.4577301025390625,7.125247192382813,6.250610351562501,1721318828621.0
3.310999999999978,-0.170172119140625,7.307083129882813,7.099377441406251,1721318828631.0
3.3209999999999695,0.27933349609375,7.423272705078125,7.1556030273437505,1721318828641.0
3.3309999999999604,0.1323394775390625,6.991860961914063,6.14952392578125,1721318828651.0
3.341000000000008,-0.15252685546875,6.694583129882813,6.85892333984375,1721318828661.0
3.350999999999999,-0.1052734375,7.195678710937501,7.322186279296876,1721318828671.0
3.36099999999999,0.240155029296875,7.368692016601563,7.253848266601563,1721318828681.0
3.3700000000000045,0.22550048828125,7.305139160156251,5.896060180664063,1721318828690.0
3.380999999999972,0.0318511962890625,7.298709106445313,5.3511505126953125,1721318828701.0
3.3899999999999864,0.21593017578125,7.552023315429688,6.7234436035156255,1721318828710.0
3.3999999999999773,0.6141448974609376,7.757934570312501,6.621609497070313,1721318828720.0
3.409999999999968,0.7843170166015626,7.65086669921875,5.860321044921875,1721318828730.0
3.419999999999959,0.51859130859375,6.764715576171875,6.089260864257813,1721318828740.0
3.430000000000007,-0.3745880126953125,6.506167602539063,7.490115356445313,1721318828750.0
3.4399999999999977,-1.0304534912109375,6.781463623046876,8.963793945312501,1721318828760.0
3.4499999999999886,-1.1844757080078123,6.898550415039063,7.579537963867188,1721318828770.0
3.4599999999999795,-1.2075042724609375,7.133920288085938,5.792132568359375,1721318828780.0
3.4699999999999704,-0.99830322265625,7.373626708984376,5.465097045898438,1721318828790.0
3.4799999999999613,-0.403448486328125,7.709783935546875,6.383248901367188,1721318828800.0
3.490000000000009,0.70880126953125,7.277474975585938,7.255044555664063,1721318828810.0
3.5,1.1186798095703123,7.383496093750001,5.532986450195313,1721318828820.0
3.509999999999991,1.5243713378906252,7.204501342773438,5.6726531982421875,1721318828830.0
3.519999999999982,2.5594604492187503,7.069021606445313,6.706396484375,1721318828840.0
3.5299999999999727,1.7189178466796875,7.638156127929688,8.328713989257814,1721318828850.0
3.5399999999999636,0.13697509765625,7.325775146484376,7.363009643554688,1721318828860.0
3.5500000000000114,-1.9076324462890624,7.056759643554688,5.019778442382813,1721318828870.0
3.5600000000000023,-2.71617431640625,7.072610473632813,6.300704956054688,1721318828880.0
3.569999999999993,-2.389288330078126,7.494900512695313,7.311270141601563,1721318828890.0
3.579999999999984,-1.9136138916015624,7.136611938476563,7.135415649414063,1721318828900.0
3.589999999999975,-1.05692138671875,6.789089965820313,6.168814086914063,1721318828910.0
3.599999999999966,1.03299560546875,7.697073364257813,6.15849609375,1721318828920.0
3.609999999999957,3.56075439453125,7.257287597656251,7.476956176757813,1721318828930.0
3.620000000000005,2.2920898437500004,6.791333007812501,7.1152282714843755,1721318828940.0
3.629999999999995,1.2338226318359375,7.225436401367188,6.250161743164063,1721318828950.0
3.6399999999999864,1.5327453613281252,7.868292236328125,6.0330352783203125,1721318828960.0
3.6499999999999777,0.7479797363281251,7.688101196289063,5.9986419677734375,1721318828970.0
3.659999999999968,-2.491571044921875,7.203604125976563,6.8580261230468755,1721318828980.0
3.669999999999959,-3.3564880371093753,6.601272583007813,7.302597045898438,1721318828990.0
3.680000000000007,-2.8972625732421875,6.756192016601563,7.36734619140625,1721318829000.0
3.6899999999999977,-1.123016357421875,7.181622314453126,6.81107177734375,1721318829010.0
3.6999999999999886,-0.8987121582031251,6.4438110351562505,6.16746826171875,1721318829020.0
3.709999999999979,0.7017730712890625,7.122555541992188,7.051077270507813,1721318829030.0
3.7199999999999704,3.5064727783203127,7.6819702148437505,7.39964599609375,1721318829040.0
3.728999999999985,3.03319091796875,7.368542480468751,6.752752685546875,1721318829049.0
3.740000000000009,1.5444091796875,7.501779174804688,5.3306640625,1721318829060.0
3.748999999999967,1.3085906982421875,7.591949462890626,5.334552001953125,1721318829069.0
3.7589999999999577,-1.2526641845703126,8.512344360351562,6.106906127929688,1721318829079.0
3.7690000000000055,-2.57261962890625,7.347906494140625,5.539715576171876,1721318829089.0
3.778999999999997,-0.8110839843750001,6.906475830078126,6.232815551757813,1721318829099.0
3.7889999999999873,-0.8261871337890626,6.151467895507813,8.235403442382813,1721318829109.0
3.798999999999978,-1.0419677734375,6.164328002929688,9.51932067871094,1721318829119.0
3.808999999999969,-0.4131683349609375,6.794473266601563,8.851791381835938,1721318829129.0
3.81899999999996,0.194097900390625,7.377963256835938,5.415151977539063,1721318829139.0
3.829000000000008,1.1116516113281252,7.804888916015625,3.9100708007812504,1721318829149.0
3.838999999999998,0.6126495361328126,7.726083374023438,5.962902832031251,1721318829159.0
3.8489999999999895,0.54251708984375,7.929153442382813,6.8343994140625,1721318829169.0
3.858999999999981,0.855047607421875,7.514639282226563,6.1791320800781255,1721318829179.0
3.8689999999999714,0.79493408203125,7.546340942382813,4.697378540039063,1721318829189.0
3.8789999999999623,0.8037567138671876,6.477307128906251,6.602020263671876,1721318829199.0
3.88900000000001,-0.14295654296875,6.7982116699218755,9.525750732421876,1721318829209.0
3.899000000000001,-1.0169952392578123,6.897952270507813,9.713717651367189,1721318829219.0
3.908999999999992,-1.782769775390625,6.736752319335938,5.8132171630859375,1721318829229.0
3.9189999999999823,-1.3869476318359375,7.712326049804688,3.5646423339843754,1721318829239.0
3.9289999999999736,-0.1356292724609375,7.97685546875,6.020474243164063,1721318829249.0
3.938999999999965,-0.377728271484375,7.706045532226563,6.802548217773438,1721318829259.0
3.949000000000012,0.287408447265625,6.70579833984375,7.598080444335938,1721318829269.0
3.959000000000003,1.032098388671875,6.668414306640625,6.483737182617188,1721318829279.0
3.968999999999994,2.3728393554687504,7.1430419921875,7.673745727539063,1721318829289.0
3.978999999999985,1.0845855712890626,7.1301818847656255,7.675839233398438,1721318829299.0
3.988999999999976,-0.7023712158203126,7.323980712890625,6.153262329101563,1721318829309.0
3.998999999999967,-1.284365844726563,7.722344970703125,5.162884521484376,1721318829319.0
4.008999999999958,-0.316119384765625,7.957864379882813,4.665975952148438,1721318829329.0
4.0190000000000055,-0.9730316162109376,7.339682006835938,6.9659912109375,1721318829339.0
4.028999999999996,-1.052734375,6.495849609375001,8.115475463867188,1721318829349.0
4.038999999999987,-0.1810882568359375,6.638058471679688,7.870983886718751,1721318829359.0
4.048999999999978,0.611602783203125,6.980795288085938,7.263717651367188,1721318829369.0
4.058999999999969,1.10537109375,7.330111694335938,5.750112915039063,1721318829379.0
4.06899999999996,0.5825927734375,7.208389282226563,6.507513427734375,1721318829389.0
4.079000000000008,-0.053533935546875,7.575500488281251,6.354986572265625,1721318829399.0
4.088999999999999,0.2696136474609375,7.793524169921875,6.244479370117188,1721318829409.0
4.0989999999999895,0.1999298095703125,7.713671875,5.359075927734375,1721318829419.0
4.1089999999999804,-0.240155029296875,7.013693237304688,5.773141479492188,1721318829429.0
4.117999999999995,-0.47672119140625,6.7084899902343755,8.074652099609375,1721318829438.0
4.127999999999986,-0.2866607666015625,6.890625000000001,8.368939208984376,1721318829448.0
4.137999999999977,-0.1015350341796875,6.78953857421875,7.225286865234375,1721318829458.0
4.149000000000001,-0.2296875,7.078442382812501,5.6876068115234375,1721318829469.0
4.157999999999959,-0.2289398193359375,7.481741333007813,6.017034912109375,1721318829478.0
4.168000000000006,-0.0817962646484375,7.799505615234375,6.995001220703125,1721318829488.0
4.177999999999997,0.1589569091796875,7.366748046875,6.385342407226563,1721318829498.0
4.187999999999988,0.18961181640625,7.108947753906251,5.81217041015625,1721318829508.0
4.197999999999979,0.430364990234375,7.287344360351563,6.251507568359376,1721318829518.0
4.20799999999997,0.6832305908203126,7.309475708007813,7.409066772460938,1721318829528.0
4.217999999999961,0.376531982421875,7.103713989257813,7.317251586914063,1721318829538.0
4.228000000000009,-0.0219818115234375,6.661685180664063,6.461007690429688,1721318829548.0
4.2379999999999995,-0.376531982421875,7.6933349609375,5.6692138671875005,1721318829558.0
4.2479999999999905,0.2214630126953125,7.682119750976563,6.251058959960938,1721318829568.0
4.257999999999981,0.1158905029296875,7.2889892578125,6.171206665039063,1721318829578.0
4.267999999999972,-0.51978759765625,7.07066650390625,7.326223754882813,1721318829588.0
4.278999999999996,-0.7105957031250001,6.441567993164063,7.768850708007813,1721318829599.0
4.288000000000011,-0.2169769287109375,7.215866088867188,7.139752197265626,1721318829608.0
4.298000000000002,0.1161895751953125,7.483087158203125,7.00487060546875,1721318829618.0
4.307999999999993,-0.2127899169921875,7.274484252929688,5.308383178710938,1721318829628.0
4.317999999999984,-0.35709228515625,7.345364379882813,6.229226684570313,1721318829638.0
4.3279999999999745,0.268865966796875,7.5159851074218755,6.430053710937501,1721318829648.0
4.337999999999965,0.872991943359375,7.673147583007813,6.743780517578125,1721318829658.0
4.347999999999956,0.394476318359375,6.791183471679688,7.257736206054688,1721318829668.0
4.358000000000004,-0.35828857421875,6.546243286132813,6.625946044921876,1721318829678.0
4.367999999999995,-0.274249267578125,7.163229370117188,7.640399169921875,1721318829688.0
4.377999999999986,0.1254608154296875,7.689895629882813,6.466989135742188,1721318829698.0
4.387999999999977,-0.3074462890625,7.560696411132813,5.830563354492188,1721318829708.0
4.397999999999968,-0.7868591308593751,6.875222778320313,5.81396484375,1721318829718.0
4.407999999999959,-0.7430450439453126,7.171154785156251,6.917242431640625,1721318829728.0
4.418000000000006,0.2277435302734375,7.368392944335938,8.00257568359375,1721318829738.0
4.427999999999997,0.5662933349609376,7.229922485351563,6.411511230468751,1721318829748.0
4.437999999999988,0.2715576171875,6.795819091796876,6.126495361328126,1721318829758.0
4.447999999999979,0.254510498046875,7.048535156250001,6.5873657226562505,1721318829768.0
4.45799999999997,0.36666259765625,7.605856323242188,7.512396240234375,1721318829778.0
4.4669999999999845,0.4260284423828125,7.495648193359376,6.495700073242188,1721318829787.0
4.476999999999975,-0.1495361328125,7.297064208984375,4.871289062500001,1721318829797.0
4.4879999999999995,-0.2265472412109375,7.069619750976563,6.097485351562501,1721318829808.0
4.496999999999957,-0.227593994140625,7.445404052734376,7.48936767578125,1721318829817.0
4.507999999999981,0.01435546875,7.427908325195313,7.56114501953125,1721318829828.0
4.516999999999996,-0.1227691650390625,6.762173461914063,6.22728271484375,1721318829837.0
4.526999999999987,-0.2525665283203125,6.680227661132813,6.330014038085938,1721318829847.0
4.536999999999978,-0.2139862060546875,7.168911743164063,7.805187988281251,1721318829857.0
4.546999999999969,0.009271240234375,7.666867065429688,7.170706176757813,1721318829867.0
4.5569999999999595,0.235369873046875,7.494302368164063,5.511303710937501,1721318829877.0
4.567000000000007,0.2980255126953125,7.325775146484376,4.7226501464843755,1721318829887.0
4.576999999999998,0.11424560546875,7.269549560546875,6.993804931640626,1721318829897.0
4.587999999999965,0.1051239013671875,7.018777465820313,8.259179687500001,1721318829908.0
4.59699999999998,0.11783447265625,7.151864624023438,6.576748657226563,1721318829917.0
4.606999999999971,0.3665130615234375,7.245773315429688,5.5301452636718755,1721318829927.0
4.616999999999962,0.46475830078125,7.0075622558593755,6.237600708007813,1721318829937.0
4.6270000000000095,-0.4885345458984375,7.461105346679688,8.1168212890625,1721318829947.0
4.6370000000000005,-0.8429351806640626,6.998440551757813,7.811618041992188,1721318829957.0
4.646999999999991,-0.6419586181640625,7.182669067382813,4.91136474609375,1721318829967.0
4.656999999999982,0.2959320068359375,7.46903076171875,5.814114379882813,1721318829977.0
4.666999999999973,0.149237060546875,7.748663330078125,6.60770263671875,1721318829987.0
4.676999999999964,-0.09630126953125,7.127639770507813,7.696176147460938,1721318829997.0
4.687999999999988,0.1112548828125,6.642395019531251,6.9342895507812505,1721318830008.0
4.697000000000003,0.5151519775390625,7.197323608398438,5.8655548095703125,1721318830017.0
4.706999999999994,0.497357177734375,7.305587768554688,7.397552490234376,1721318830027.0
4.7169999999999845,-0.363970947265625,7.554415893554688,6.443960571289063,1721318830037.0
4.726999999999975,-0.5108154296875,7.050180053710938,6.673049926757813,1721318830047.0
4.736999999999966,-0.354998779296875,7.319644165039063,5.827871704101563,1721318830057.0
4.746999999999957,-0.148638916015625,7.329962158203125,6.478353881835938,1721318830067.0
4.757000000000005,-0.2223602294921875,7.167416381835938,7.426263427734376,1721318830077.0
4.766999999999996,-0.054730224609375,7.122555541992188,6.809875488281251,1721318830087.0
4.776999999999987,0.4119720458984375,7.071563720703126,6.7428833007812505,1721318830097.0
4.788000000000011,0.6195281982421875,7.473367309570313,5.825030517578125,1721318830108.0
4.796999999999969,0.309539794921875,7.270745849609376,6.877166748046876,1721318830117.0
4.8069999999999595,-0.08314208984375,7.12449951171875,6.748416137695313,1721318830127.0
4.817000000000007,-0.25660400390625,7.292578125,6.634768676757813,1721318830137.0
4.826999999999998,-0.09390869140625,7.230819702148438,6.396258544921875,1721318830147.0
4.835999999999956,-0.232080078125,7.270297241210938,6.228628540039063,1721318830156.0
4.846000000000004,-0.3536529541015625,7.079489135742188,7.250558471679688,1721318830166.0
4.8559999999999945,-0.3240447998046875,6.977505493164063,6.93070068359375,1721318830176.0
4.8659999999999854,0.1040771484375,7.272988891601563,6.834249877929688,1721318830186.0
4.875999999999976,0.4197479248046875,7.359271240234375,6.278125,1721318830196.0
4.887999999999977,0.3378021240234375,7.397103881835938,6.0011840820312505,1721318830208.0
4.895999999999958,0.2166778564453125,7.176089477539063,6.856680297851563,1721318830216.0
4.906000000000006,0.106170654296875,7.231567382812501,6.709237670898438,1721318830226.0
4.915999999999997,0.106170654296875,7.344766235351563,6.708340454101563,1721318830236.0
4.925999999999988,-0.0578704833984375,7.268203735351563,6.238348388671875,1721318830246.0
4.935999999999979,-0.2851654052734375,6.992160034179688,6.763967895507813,1721318830256.0
4.9459999999999695,-0.5523864746093751,7.083377075195313,7.183566284179688,1721318830266.0
4.95599999999996,-0.259295654296875,7.206295776367188,6.824380493164063,1721318830276.0
4.966000000000008,0.2229583740234375,7.18790283203125,6.23924560546875,1721318830286.0
4.975999999999999,0.4245330810546875,7.643688964843751,5.2729431152343755,1721318830296.0
4.9879999999999995,0.6138458251953125,7.324130249023438,6.242236328125,1721318830308.0
4.995999999999981,0.9984527587890626,6.970028686523438,7.297363281250001,1721318830316.0
5.005999999999972,0.36427001953125,7.71427001953125,8.184262084960938,1721318830326.0
5.015999999999963,-0.4906280517578125,6.8714843750000005,6.75364990234375,1721318830336.0
5.0260000000000105,-1.0404724121093751,6.5484863281250005,5.2385498046875005,1721318830346.0
5.036000000000001,-1.21243896484375,7.395309448242188,7.391720581054688,1721318830356.0
5.045999999999992,-0.8531036376953126,7.761074829101563,7.144537353515625,1721318830366.0
5.055999999999983,-0.4529449462890625,7.482638549804688,6.153860473632813,1721318830376.0
5.065999999999974,0.2435943603515625,6.761874389648438,5.831311035156251,1721318830386.0
5.075999999999965,0.7787841796875,7.312167358398438,6.345416259765625,1721318830396.0
5.087999999999965,1.1550170898437502,7.081881713867188,8.644683837890625,1721318830408.0
5.096000000000004,0.8393463134765625,7.395907592773438,6.356332397460938,1721318830416.0
5.1059999999999945,0.6884643554687501,7.203903198242188,5.858676147460938,1721318830426.0
5.1159999999999854,0.1003387451171875,7.262969970703126,5.8102264404296875,1721318830436.0
5.125999999999976,-0.8882446289062501,7.4202819824218755,7.093994140625001,1721318830446.0
5.135999999999967,-1.5942047119140623,7.123751831054688,7.790982055664063,1721318830456.0
5.145999999999958,-1.3150207519531252,6.921728515625,6.196627807617188,1721318830466.0
5.156000000000006,-0.4586273193359375,7.248913574218751,6.279171752929688,1721318830476.0
5.165999999999997,-0.0357391357421875,7.128985595703125,6.752752685546875,1721318830486.0
5.175999999999988,0.3455780029296875,7.091003417968751,7.421029663085938,1721318830496.0
5.185999999999979,0.8731414794921876,7.156350708007813,7.101470947265626,1721318830506.0
5.194999999999993,1.5342407226562502,7.392468261718751,5.460461425781251,1721318830515.0
5.204999999999984,1.4135650634765626,7.320989990234375,6.137860107421876,1721318830525.0
5.216000000000008,0.3291290283203125,7.505966186523438,6.725238037109375,1721318830536.0
5.224999999999966,-0.4062896728515625,7.632473754882813,6.682620239257813,1721318830545.0
5.234999999999957,-0.9932189941406252,7.26865234375,5.830563354492188,1721318830555.0
5.2450000000000045,-0.733624267578125,7.280316162109376,5.712130737304688,1721318830565.0
5.2549999999999955,-0.931011962890625,6.701611328125001,7.814160156250001,1721318830575.0
5.264999999999986,-0.938787841796875,6.693087768554688,8.401986694335939,1721318830585.0
5.274999999999977,-0.250323486328125,6.8116699218750005,7.543948364257813,1721318830595.0
5.284999999999968,0.5722747802734376,7.452282714843751,5.811422729492188,1721318830605.0
5.294999999999959,0.8985626220703126,7.703503417968751,5.222998046875,1721318830615.0
5.305000000000007,0.9084320068359376,7.4744140625,6.1764404296875,1721318830625.0
5.314999999999998,0.350811767578125,7.398599243164063,6.963897705078126,1721318830635.0
5.324999999999989,0.472235107421875,7.073208618164063,6.591104125976563,1721318830645.0
5.3349999999999795,0.223406982421875,7.601669311523438,5.538818359375,1721318830655.0
5.34499999999997,0.0937591552734375,7.047637939453126,6.318948364257813,1721318830665.0
5.354999999999961,-0.337054443359375,6.719107055664063,7.640249633789063,1721318830675.0
5.365000000000009,-0.9351989746093752,7.307382202148438,8.80767822265625,1721318830685.0
5.375,-1.0638000488281252,6.937429809570313,6.858175659179688,1721318830695.0
5.384999999999991,-0.5193389892578125,7.303344726562501,4.433746337890625,1721318830705.0
5.394999999999982,0.2196685791015625,7.701858520507813,6.279620361328125,1721318830715.0
5.404999999999973,0.1015350341796875,7.561892700195313,6.7428833007812505,1721318830725.0
5.414999999999964,0.386700439453125,7.053170776367188,7.257287597656251,1721318830735.0
5.425000000000011,0.7029693603515625,6.8415771484375005,6.637460327148438,1721318830745.0
5.435000000000002,1.0015930175781251,7.271493530273438,6.508261108398438,1721318830755.0
5.444999999999993,0.110955810546875,7.089956665039063,7.828665161132813,1721318830765.0
5.454999999999984,-0.749176025390625,7.192538452148438,6.500485229492188,1721318830775.0
5.464999999999975,-0.8659637451171875,7.478750610351563,5.972921752929688,1721318830785.0
5.474999999999966,-0.14176025390625,7.7402893066406255,5.324981689453125,1721318830795.0
5.484999999999957,-0.25062255859375,7.400094604492188,6.42227783203125,1721318830805.0
5.4950000000000045,-0.4418792724609375,6.768753051757813,7.702008056640626,1721318830815.0
5.5049999999999955,0.125909423828125,6.869390869140625,7.398150634765625,1721318830825.0
5.514999999999986,0.7858123779296876,7.188201904296876,6.951785278320313,1721318830835.0
5.524999999999977,0.9096282958984376,7.261325073242188,5.8501525878906255,1721318830845.0
5.534999999999968,0.0873291015625,7.20823974609375,6.78116455078125,1721318830855.0
5.543999999999983,-0.5342926025390625,7.328317260742188,6.946551513671875,1721318830864.0
5.553999999999974,-0.37802734375,7.485031127929688,6.182720947265626,1721318830874.0
5.5639999999999645,-0.108563232421875,7.420431518554688,5.887387084960938,1721318830884.0
5.574999999999989,-0.2811279296875,7.111639404296875,6.079092407226563,1721318830895.0
5.584000000000003,-0.3141754150390625,6.923522949218751,7.619464111328125,1721318830904.0
5.593999999999994,0.1280029296875,7.047488403320313,7.7657104492187505,1721318830914.0
5.603999999999985,0.576910400390625,7.237698364257813,6.4333435058593755,1721318830924.0
5.613999999999976,0.5284606933593751,7.33983154296875,5.735308837890625,1721318830934.0
5.623999999999967,-0.0037384033203125,7.17294921875,6.3735290527343755,1721318830944.0
5.633999999999958,-0.2980255126953125,7.2004638671875005,7.385739135742188,1721318830954.0
5.6440000000000055,-0.2663238525390625,7.463497924804688,6.793426513671876,1721318830964.0
5.653999999999996,-0.0168975830078125,7.419085693359375,5.652017211914063,1721318830974.0
5.663999999999987,-0.04844970703125,7.283905029296876,5.77030029296875,1721318830984.0
5.673999999999978,-0.1160400390625,6.953878784179688,7.448693847656251,1721318830994.0
5.683999999999969,-0.1715179443359375,7.048385620117188,7.89072265625,1721318831004.0
5.69399999999996,0.437841796875,6.869689941406251,6.552075195312501,1721318831014.0
5.704000000000008,0.642706298828125,7.751354980468751,4.893270874023438,1721318831024.0
5.713999999999999,0.8136260986328125,7.5503784179687505,5.696279907226563,1721318831034.0
5.7239999999999895,0.4783660888671875,7.306036376953125,7.261175537109375,1721318831044.0
5.7339999999999804,-0.31043701171875,7.383197021484375,7.949639892578125,1721318831054.0
5.743999999999971,-0.658856201171875,6.702658081054688,6.880755615234375,1721318831064.0
5.753999999999962,-1.0316497802734377,6.7025085449218755,6.073709106445313,1721318831074.0
5.76400000000001,-0.9437225341796877,7.2528015136718755,7.444058227539063,1721318831084.0
5.774000000000001,-0.7556060791015625,7.675839233398438,6.859222412109376,1721318831094.0
5.783999999999992,-0.0791046142578125,7.412057495117188,5.915051269531251,1721318831104.0
5.793999999999983,0.5493957519531251,7.162033081054688,5.601324462890625,1721318831114.0
5.803999999999974,0.9589752197265624,7.38529052734375,6.463848876953126,1721318831124.0
5.8139999999999645,0.91934814453125,6.9576171875,8.416342163085938,1721318831134.0
5.824000000000012,0.469244384765625,7.166818237304688,6.565533447265626,1721318831144.0
5.834000000000003,0.4103271484375,7.149920654296875,6.262573242187501,1721318831154.0
5.843999999999994,-0.185723876953125,7.321737670898438,6.071017456054688,1721318831164.0
5.853999999999985,-0.962713623046875,7.382449340820313,6.859072875976563,1721318831174.0
5.863999999999976,-1.660150146484375,7.197921752929688,7.232614135742188,1721318831184.0
5.873999999999967,-0.8480194091796875,7.087713623046875,6.139505004882813,1721318831194.0
5.883999999999958,-0.051141357421875,7.31650390625,6.398052978515626,1721318831204.0
5.8940000000000055,0.2905487060546875,7.051077270507813,6.720751953125,1721318831214.0
5.903999999999996,0.6631927490234375,6.961654663085938,7.671203613281251,1721318831224.0
5.913999999999987,0.847271728515625,7.094741821289063,7.134518432617188,1721318831234.0
5.923000000000002,1.092959594726563,7.323233032226563,5.76671142578125,1721318831243.0
5.933999999999969,0.6261077880859376,7.308279418945313,6.097485351562501,1721318831254.0
5.942999999999984,-0.24583740234375,7.481292724609376,6.526205444335938,1721318831263.0
5.954000000000008,-0.6273040771484375,7.618417358398438,6.6636291503906255,1721318831274.0
5.962999999999965,-0.6271545410156251,7.496994018554688,5.652615356445313,1721318831283.0
5.972999999999956,-0.3096893310546875,7.25369873046875,5.806488037109375,1721318831293.0
5.983000000000004,-0.3222503662109375,6.660189819335938,7.703054809570313,1721318831303.0
5.992999999999995,-0.3985137939453125,6.708639526367188,8.422174072265626,1721318831313.0
6.002999999999986,0.12620849609375,6.860568237304688,7.609295654296876,1721318831323.0
6.012999999999977,0.6313415527343751,7.422375488281251,5.74039306640625,1721318831333.0
6.022999999999968,0.57421875,7.736999511718751,5.202362060546875,1721318831343.0
6.032999999999959,0.0497955322265625,7.487872314453125,6.2673583984375005,1721318831353.0
6.043000000000006,-0.144451904296875,7.279568481445313,6.970626831054688,1721318831363.0
6.052999999999997,-0.0154022216796875,7.187603759765626,6.464895629882813,1721318831373.0
6.062999999999988,0.2657257080078125,7.344766235351563,5.6736999511718755,1721318831383.0
6.072999999999979,0.3662139892578125,7.165023803710938,6.407623291015626,1721318831393.0
6.08299999999997,0.1087127685546875,6.7428833007812505,8.058801269531251,1721318831403.0
6.092999999999961,-0.5836395263671875,7.195529174804688,8.580532836914063,1721318831413.0
6.103000000000009,-0.70401611328125,6.974215698242188,6.490914916992188,1721318831423.0
6.1129999999999995,-0.140264892578125,7.398449707031251,4.477560424804688,1721318831433.0
6.1229999999999905,0.0402252197265625,8.104559326171875,5.975314331054688,1721318831443.0
6.132999999999981,-0.0785064697265625,7.422076416015625,6.773089599609375,1721318831453.0
6.142999999999972,-0.0949554443359375,6.9926086425781255,7.091003417968751,1721318831463.0
6.152999999999963,0.442327880859375,6.656451416015625,7.039263916015625,1721318831473.0
6.163000000000011,0.637921142578125,7.1256958007812505,7.002926635742188,1721318831483.0
6.173000000000002,-0.0204864501953125,7.168313598632813,7.818048095703125,1721318831493.0
6.182999999999993,-0.5161987304687501,7.157696533203126,6.0472412109375,1721318831503.0
6.192999999999984,-0.3590362548828125,7.694232177734375,5.576651000976563,1721318831513.0
6.2029999999999745,0.1326385498046875,7.652810668945313,5.640203857421875,1721318831523.0
6.212999999999965,-0.14833984375,7.352841186523438,6.592898559570313,1721318831533.0
6.222999999999956,-0.2950347900390625,6.846212768554688,7.694381713867188,1721318831543.0
6.233000000000004,0.1565643310546875,6.8311096191406255,7.090704345703125,1721318831553.0
6.242999999999995,0.6702209472656251,7.287643432617188,6.755743408203125,1721318831563.0
6.252999999999986,0.544012451171875,7.097134399414063,6.364706420898438,1721318831573.0
6.262999999999977,-0.2794830322265625,7.338934326171875,6.753799438476563,1721318831583.0
6.272999999999968,-0.5688354492187501,7.144836425781251,6.911410522460938,1721318831593.0
6.282999999999959,-0.3593353271484375,7.373477172851563,5.837292480468751,1721318831603.0
6.291999999999973,-0.0958526611328125,7.288540649414063,6.385342407226563,1721318831612.0
6.302999999999997,-0.1664337158203125,7.246221923828125,6.661087036132813,1721318831623.0
6.312000000000012,-0.1447509765625,7.0951904296875,7.27822265625,1721318831632.0
6.322000000000003,0.393280029296875,7.055264282226563,6.908120727539063,1721318831642.0
6.331999999999994,0.640911865234375,7.446899414062501,6.078045654296876,1721318831652.0
6.3419999999999845,0.5057312011718751,7.231268310546875,6.399099731445313,1721318831662.0
6.351999999999975,-0.0480010986328125,7.210632324218751,6.52635498046875,1721318831672.0
6.361999999999966,-0.2014251708984375,7.1675659179687505,7.207791137695313,1721318831682.0
6.371999999999957,-0.2325286865234375,7.511648559570313,6.384594726562501,1721318831692.0
6.382000000000005,-0.24464111328125,7.252951049804688,6.130383300781251,1721318831702.0
6.391999999999996,-0.4131683349609375,6.998440551757813,6.622357177734376,1721318831712.0
6.401999999999987,-0.4553375244140625,7.048385620117188,7.309326171875001,1721318831722.0
6.411999999999978,0.0333465576171875,7.129583740234375,7.229025268554688,1721318831732.0
6.421999999999969,0.5908172607421875,7.1436401367187505,5.877667236328126,1721318831742.0
6.4319999999999595,0.7496246337890625,7.727877807617188,5.368197631835938,1721318831752.0
6.442000000000007,0.837103271484375,7.336990356445313,6.383547973632813,1721318831762.0
6.451999999999998,0.7556060791015625,7.364505004882813,7.192538452148438,1721318831772.0
6.461999999999989,-0.143853759765625,7.328167724609376,7.726083374023438,1721318831782.0
6.47199999999998,-0.8269348144531251,6.59573974609375,6.386090087890626,1721318831792.0
6.481999999999971,-1.2224578857421875,6.917541503906251,6.556561279296876,1721318831802.0
6.491999999999962,-1.16937255859375,7.476956176757813,7.419683837890625,1721318831812.0
6.5020000000000095,-0.8209533691406251,7.487423706054688,6.481793212890626,1721318831822.0
6.5120000000000005,-0.249725341796875,7.348355102539063,5.916098022460938,1721318831832.0
6.521999999999991,0.5118621826171875,7.1959777832031255,5.716168212890626,1721318831842.0
6.531999999999982,1.2552062988281252,7.533181762695313,7.202108764648438,1721318831852.0
6.541999999999973,1.471734619140625,7.0075622558593755,7.802496337890625,1721318831862.0
6.551999999999964,0.6123504638671875,7.036123657226563,5.941220092773438,1721318831872.0
6.562000000000012,0.4409820556640625,7.194781494140625,6.548785400390625,1721318831882.0
6.572000000000003,-0.0136077880859375,7.457516479492188,6.461007690429688,1721318831892.0
6.581999999999994,-1.026715087890625,7.411758422851563,7.0210205078125005,1721318831902.0
6.5919999999999845,-2.2858093261718753,6.857128906250001,6.835147094726563,1721318831912.0
6.601999999999975,-1.298870849609375,7.065582275390626,6.145785522460938,1721318831922.0
6.611999999999966,-0.43365478515625,7.40921630859375,6.951934814453126,1721318831932.0
6.621999999999957,0.3623260498046875,7.066629028320313,6.806137084960938,1721318831942.0
6.632000000000005,0.9885833740234377,6.943859863281251,7.153359985351563,1721318831952.0
6.641999999999996,1.1838775634765626,7.1167236328125005,6.814511108398438,1721318831962.0
6.6510000000000105,1.579400634765625,7.503872680664063,6.0225677490234375,1721318831971.0
6.661000000000001,1.0633514404296875,7.3933654785156255,6.306686401367188,1721318831981.0
6.670999999999992,0.0282623291015625,7.492807006835938,6.145785522460938,1721318831991.0
6.680999999999983,-0.8330657958984375,7.4086181640625,6.532186889648438,1721318832001.0
6.690999999999974,-1.2631317138671876,7.424169921875,6.126046752929688,1721318832011.0
6.700999999999965,-0.8402435302734376,7.240689086914063,6.289340209960938,1721318832021.0
6.710999999999956,-0.7636810302734376,6.706845092773438,7.488171386718751,1721318832031.0
6.721000000000004,-0.6000885009765625,6.699667358398438,8.004669189453125,1721318832041.0
6.7309999999999945,0.1045257568359375,6.730322265625,7.738943481445313,1721318832051.0
6.7409999999999854,0.5797515869140626,7.445703125,6.163430786132813,1721318832061.0
6.7520000000000095,1.04854736328125,7.750906372070313,5.335000610351563,1721318832072.0
6.760999999999967,1.08084716796875,7.68436279296875,5.418740844726563,1721318832081.0
6.770999999999958,0.274249267578125,7.381103515625001,6.599478149414063,1721318832091.0
6.781000000000006,0.097796630859375,6.986477661132813,6.825277709960938,1721318832101.0
6.790999999999997,-0.0940582275390625,7.483087158203125,6.0729614257812505,1721318832111.0
6.800999999999988,0.08912353515625,6.933392333984376,6.628936767578126,1721318832121.0
6.810999999999979,-0.2474822998046875,6.887185668945313,7.631427001953125,1721318832131.0
6.8209999999999695,-1.060061645507813,7.395159912109375,8.551373291015626,1721318832141.0
6.83099999999996,-1.2849639892578126,6.772491455078126,6.246871948242188,1721318832151.0
6.841000000000008,-0.0369354248046875,7.574453735351563,4.607208251953125,1721318832161.0
6.850999999999999,0.4819549560546875,7.638604736328125,6.561495971679688,1721318832171.0
6.86099999999999,0.2600433349609375,7.321139526367188,6.642095947265625,1721318832181.0
6.870999999999981,0.3721954345703125,7.123751831054688,7.512396240234375,1721318832191.0
6.880999999999972,0.8139251708984375,6.868792724609375,6.637310791015626,1721318832201.0
6.890999999999963,0.792242431640625,7.377365112304688,6.582281494140625,1721318832211.0
6.9010000000000105,-0.3910369873046875,6.89122314453125,7.37332763671875,1721318832221.0
6.911000000000001,-1.0383789062500002,7.455871582031251,6.194683837890626,1721318832231.0
6.920999999999992,-0.617584228515625,7.633071899414063,6.384445190429688,1721318832241.0
6.930999999999983,0.0270660400390625,7.556808471679688,5.183370971679688,1721318832251.0
6.940999999999974,-0.3979156494140625,7.014291381835938,6.886737060546875,1721318832261.0
6.951999999999998,-0.2576507568359375,6.636114501953125,8.023211669921876,1721318832272.0
6.960999999999956,0.42647705078125,7.259231567382813,7.289437866210938,1721318832281.0
6.971000000000004,0.9200958251953124,7.258633422851563,6.464447021484376,1721318832291.0
6.9809999999999945,1.09639892578125,7.305587768554688,5.209988403320313,1721318832301.0
6.9909999999999854,-0.198284912109375,7.250408935546876,7.201361083984375,1721318832311.0
7.000999999999976,-0.705810546875,7.319195556640626,7.1705566406250005,1721318832321.0
7.009999999999991,-0.4916748046875,7.383197021484375,6.175842285156251,1721318832330.0
7.020999999999958,-0.24404296875,7.126742553710938,5.99639892578125,1721318832341.0
7.029999999999973,-0.48988037109375,6.959860229492188,6.429306030273438,1721318832350.0
7.040999999999997,-0.28531494140625,7.216763305664063,8.102764892578126,1721318832361.0
7.050999999999988,0.396270751953125,7.186706542968751,6.969281005859376,1721318832371.0
7.060000000000002,0.7871582031250001,7.495498657226563,5.547341918945313,1721318832380.0
7.069999999999993,0.668426513671875,7.181622314453126,5.873330688476563,1721318832390.0
7.079999999999984,0.04486083984375,7.174893188476563,6.9043823242187505,1721318832400.0
7.089999999999975,-0.1413116455078125,7.180874633789063,8.021267700195313,1721318832410.0
7.099999999999966,-0.141461181640625,7.4935546875,6.069073486328126,1721318832420.0
7.109999999999957,-0.137274169921875,7.349551391601563,5.311224365234375,1721318832430.0
7.1200000000000045,-0.3539520263671875,7.128985595703125,6.467587280273438,1721318832440.0
7.1299999999999955,-0.60352783203125,6.963299560546876,7.865002441406251,1721318832450.0
7.139999999999986,-0.2029205322265625,6.899148559570313,7.518527221679688,1721318832460.0
7.149999999999977,0.413616943359375,7.535275268554688,5.531491088867188,1721318832470.0
7.159999999999968,1.09041748046875,7.298110961914063,5.248419189453125,1721318832480.0
7.169999999999959,1.0409210205078123,7.6236511230468755,6.962850952148438,1721318832490.0
7.180000000000007,-0.2145843505859375,7.3966552734375,8.10784912109375,1721318832500.0
7.189999999999998,-0.40135498046875,6.650918579101563,6.531887817382813,1721318832510.0
7.199999999999989,-0.652874755859375,6.962402343750001,6.043801879882813,1721318832520.0
7.2099999999999795,-0.7164276123046875,7.304840087890626,7.086068725585938,1721318832530.0
7.21999999999997,-1.0908660888671875,7.426113891601563,7.099975585937501,1721318832540.0
7.229999999999961,-0.554779052734375,7.357028198242188,6.60770263671875,1721318832550.0
7.240000000000009,0.4598236083984375,7.359869384765625,5.3586273193359375,1721318832560.0
7.25,0.8955718994140626,7.281362915039063,6.426016235351563,1721318832570.0
7.259999999999991,0.7011749267578126,6.998440551757813,7.736401367187501,1721318832580.0
7.269999999999982,0.5564239501953125,7.303494262695313,6.96060791015625,1721318832590.0
7.279999999999973,0.83560791015625,7.207791137695313,6.428408813476563,1721318832600.0
7.289999999999964,0.1185821533203125,7.283755493164063,5.649176025390625,1721318832610.0
7.300000000000011,-0.9147125244140626,7.174145507812501,7.143191528320313,1721318832620.0
7.310000000000002,-1.505679321289063,7.041806030273438,7.403533935546876,1721318832630.0
7.319999999999993,-1.09879150390625,7.360168457031251,6.599926757812501,1721318832640.0
7.329999999999984,-0.190509033203125,7.359719848632813,5.9787536621093755,1721318832650.0
7.339999999999975,0.0418701171875,7.037918090820313,5.908023071289063,1721318832660.0
7.349999999999966,0.3578399658203125,6.959262084960938,7.788589477539063,1721318832670.0
7.359999999999957,0.8202056884765626,7.312316894531251,7.521218872070313,1721318832680.0
7.3700000000000045,1.457977294921875,7.299008178710938,6.157598876953125,1721318832690.0
7.380999999999972,1.2309814453125,7.1573974609375,5.3028503417968755,1721318832701.0
7.389999999999986,-0.008074951171875,7.409814453125,6.545645141601563,1721318832710.0
7.399000000000001,-0.685772705078125,7.624996948242188,7.561294555664063,1721318832719.0
7.408999999999992,-0.9064880371093752,7.462451171875,5.955874633789063,1721318832729.0
7.418999999999983,-0.76383056640625,7.166818237304688,5.557809448242188,1721318832739.0
7.428999999999974,-0.7790832519531251,6.685610961914063,7.005618286132813,1721318832749.0
7.4389999999999645,-0.6567626953125001,6.856829833984375,8.450436401367188,1721318832759.0
7.449000000000012,0.1443023681640625,7.035076904296876,8.089605712890625,1721318832769.0
7.459000000000003,0.690557861328125,7.35538330078125,5.463900756835938,1721318832779.0
7.468999999999994,1.0285095214843751,7.468731689453126,4.9668426513671875,1721318832789.0
7.479999999999961,0.7482788085937501,7.545443725585938,6.378912353515625,1721318832800.0
7.488999999999976,0.119927978515625,7.344467163085938,7.573855590820313,1721318832809.0
7.498999999999967,0.01375732421875,7.084872436523438,6.413604736328126,1721318832819.0
7.508999999999958,0.018243408203125,7.3320556640625005,5.137463378906251,1721318832829.0
7.519000000000005,0.03648681640625,7.207043457031251,6.465942382812501,1721318832839.0
7.528999999999996,-0.366363525390625,6.974514770507813,8.148373413085938,1721318832849.0
7.538999999999987,-0.9183013916015624,7.281961059570313,8.602365112304689,1721318832859.0
7.548999999999978,-0.8317199707031251,6.868045043945313,5.975314331054688,1721318832869.0
7.558999999999969,0.214434814453125,7.401589965820313,4.427764892578125,1721318832879.0
7.56899999999996,0.3638214111328125,7.663876342773438,7.026104736328126,1721318832889.0
7.58099999999996,0.1280029296875,7.3335510253906255,7.077096557617188,1721318832901.0
7.588999999999999,0.2178741455078125,7.116873168945313,7.05272216796875,1721318832909.0
7.598999999999989,0.746185302734375,6.876718139648438,6.114382934570313,1721318832919.0
7.6089999999999804,0.5117126464843751,7.432843017578126,6.659442138671875,1721318832929.0
7.618999999999971,-0.5464050292968751,7.049282836914063,7.828366088867188,1721318832939.0
7.628999999999962,-0.8851043701171876,7.233511352539063,6.3056396484375,1721318832949.0
7.63900000000001,-0.3871490478515625,7.557406616210938,6.0328857421875,1721318832959.0
7.649000000000001,0.18243408203125,7.523760986328125,5.292083740234375,1721318832969.0
7.658999999999992,-0.24344482421875,7.165921020507813,7.054666137695313,1721318832979.0
7.668999999999983,-0.2229583740234375,6.7219482421875005,8.103512573242188,1721318832989.0
7.680999999999983,0.43365478515625,7.16038818359375,6.878213500976563,1721318833001.0
7.6889999999999645,0.89542236328125,7.491610717773438,6.151467895507813,1721318833009.0
7.699000000000012,0.6401641845703125,7.144537353515625,5.5720153808593755,1721318833019.0
7.709000000000003,-0.37802734375,7.191342163085938,7.194631958007813,1721318833029.0
7.718999999999994,-0.5420684814453125,7.296615600585938,7.601220703125,1721318833039.0
7.728999999999985,-0.3392974853515625,7.371981811523438,5.9276123046875,1721318833049.0
7.738999999999976,-0.116937255859375,7.1720520019531255,5.75474853515625,1721318833059.0
7.748999999999967,-0.3126800537109375,7.047488403320313,6.454727172851563,1721318833069.0
7.757999999999981,-0.2546600341796875,7.23575439453125,7.952032470703125,1721318833078.0
7.769000000000005,0.3410919189453125,7.115078735351563,7.305438232421875,1721318833089.0
7.781000000000006,0.605621337890625,7.347756958007813,5.570071411132813,1721318833101.0
7.788000000000011,0.444720458984375,7.146780395507813,5.9582672119140625,1721318833108.0
7.798000000000002,-0.078057861328125,7.32607421875,6.854138183593751,1721318833118.0
7.807999999999993,-0.1088623046875,7.175790405273438,7.776028442382813,1721318833128.0
7.817999999999984,-0.14774169921875,7.48338623046875,6.160290527343751,1721318833138.0
7.8279999999999745,-0.0922637939453125,7.189099121093751,5.478405761718751,1721318833148.0
7.837999999999965,-0.2304351806640625,7.233361816406251,6.520672607421876,1721318833158.0
7.847999999999956,-0.3291290283203125,7.158145141601563,7.785897827148438,1721318833168.0
7.858000000000004,0.0267669677734375,6.907971191406251,7.167864990234375,1721318833178.0
7.867999999999995,0.4693939208984375,7.188650512695313,5.4004974365234375,1721318833188.0
7.880999999999972,0.8705993652343751,7.721896362304688,5.479901123046876,1721318833201.0
7.887999999999977,0.8507110595703126,7.33385009765625,7.198071289062501,1721318833208.0
7.897999999999968,0.193499755859375,7.498489379882813,7.469329833984376,1721318833218.0
7.907999999999959,-0.5000488281250001,7.095489501953126,6.975860595703126,1721318833228.0
7.918000000000006,-0.8450286865234375,6.531289672851563,5.821591186523438,1721318833238.0
7.927999999999997,-1.0457061767578126,7.052871704101563,7.286297607421876,1721318833248.0
7.937999999999988,-0.9960601806640624,7.481442260742188,7.495648193359376,1721318833258.0
7.947999999999979,-0.49586181640625,7.438076782226563,6.299807739257813,1721318833268.0
7.95799999999997,0.165087890625,7.168612670898438,5.991763305664063,1721318833278.0
7.967999999999961,0.7022216796875,7.391571044921876,5.535229492187501,1721318833288.0
7.978000000000009,0.8342620849609376,7.246670532226563,8.00616455078125,1721318833298.0
7.988,0.7391571044921875,7.155303955078126,6.940420532226563,1721318833308.0
7.9979999999999905,0.7113433837890626,7.222894287109376,6.114382934570313,1721318833318.0
8.007999999999981,0.351708984375,7.196575927734376,6.356182861328126,1721318833328.0
8.017999999999972,-0.6721649169921875,7.176687622070313,6.746920776367188,1721318833338.0
8.027999999999963,-1.2851135253906252,7.305587768554688,7.520620727539063,1721318833348.0
8.038000000000011,-1.1841766357421877,7.060946655273438,6.290985107421876,1721318833358.0
8.048000000000002,-0.5268157958984375,7.407272338867188,5.952734375,1721318833368.0
8.057999999999993,-0.092413330078125,7.14842529296875,6.606954956054688,1721318833378.0
8.067999999999984,0.1323394775390625,6.995001220703125,7.3583740234375,1721318833388.0
8.077999999999975,0.6150421142578125,7.0524230957031255,7.578640747070313,1721318833398.0
8.087999999999965,0.990826416015625,7.194033813476563,6.184664916992188,1721318833408.0
8.097999999999956,1.272552490234375,7.299008178710938,5.910116577148438,1721318833418.0
8.108000000000004,0.316717529296875,7.379458618164063,6.537271118164063,1721318833428.0
8.117999999999995,-0.2824737548828125,7.550228881835938,6.810025024414063,1721318833438.0
8.12700000000001,-0.46356201171875,7.470376586914063,6.073260498046875,1721318833447.0
8.137,-0.5004974365234376,7.601818847656251,5.3028503417968755,1721318833457.0
8.146999999999991,-0.3940277099609375,7.070217895507813,6.571365356445313,1721318833467.0
8.156999999999982,-0.5007965087890626,6.731518554687501,7.932293701171876,1721318833477.0
8.168000000000006,-0.3446807861328125,6.672003173828125,8.40692138671875,1721318833488.0
8.176999999999964,0.2409027099609375,6.932495117187501,6.854437255859375,1721318833497.0
8.187000000000012,0.5513397216796876,7.526901245117188,5.675045776367188,1721318833507.0
8.197000000000003,0.392681884765625,7.661782836914063,5.7439819335937505,1721318833517.0
8.206999999999994,0.06041259765625,7.446002197265625,6.384146118164063,1721318833527.0
8.216999999999985,0.0109161376953125,7.27164306640625,6.765164184570313,1721318833537.0
8.226999999999975,0.1685272216796875,7.239193725585938,6.11961669921875,1721318833547.0
8.236999999999966,0.342138671875,7.175491333007813,6.133972167968751,1721318833557.0
8.246999999999957,0.2452392578125,7.352990722656251,6.44859619140625,1721318833567.0
8.257000000000005,0.182135009765625,6.7967163085937505,7.725634765625,1721318833577.0
8.266999999999996,-0.1592559814453125,7.140350341796876,7.794271850585938,1721318833587.0
8.276999999999987,-0.6687255859375001,7.364654541015626,6.7922302246093755,1721318833597.0
8.286999999999978,-0.4795623779296875,7.088909912109376,5.379412841796875,1721318833607.0
8.296999999999969,-0.2199676513671875,7.814309692382813,5.714971923828125,1721318833617.0
8.30699999999996,-0.0632537841796875,7.434338378906251,6.998739624023438,1721318833627.0
8.317000000000007,-0.091217041015625,6.925167846679688,7.0613952636718755,1721318833637.0
8.326999999999998,0.1003387451171875,6.881802368164063,7.065133666992188,1721318833647.0
8.336999999999989,0.5371337890625001,7.041058349609376,6.919186401367188,1721318833657.0
8.34699999999998,0.1754058837890625,7.434637451171875,7.281213378906251,1721318833667.0
8.356999999999971,-0.3261383056640625,7.058853149414063,6.318649291992188,1721318833677.0
8.366999999999962,-0.4358978271484375,7.5019287109375,5.563641357421876,1721318833687.0
8.37700000000001,0.1565643310546875,7.628436279296875,6.0771484375,1721318833697.0
8.387,0.2238555908203125,7.407122802734375,6.672003173828125,1721318833707.0
8.396999999999991,-0.2296875,6.9552246093750005,7.256838989257813,1721318833717.0
8.406999999999982,-0.085235595703125,6.616973876953126,7.138705444335938,1721318833727.0
8.416999999999973,0.3461761474609375,7.288391113281251,6.795370483398438,1721318833737.0
8.426999999999964,0.5630035400390625,7.381103515625001,6.532785034179688,1721318833747.0
8.437000000000012,-0.07237548828125,7.393515014648438,6.295321655273438,1721318833757.0
8.447000000000003,-0.6107055664062501,7.096835327148438,6.564187622070313,1721318833767.0
8.456999999999994,-0.499151611328125,7.184762573242188,6.510205078125001,1721318833777.0
8.466999999999985,-0.1392181396484375,7.1585937500000005,6.952383422851563,1721318833787.0
8.476999999999975,-0.1052734375,7.163677978515626,6.860418701171875,1721318833797.0
8.486999999999966,-0.1818359375,7.013693237304688,6.9193359375000005,1721318833807.0
8.495999999999981,0.246435546875,7.268801879882813,6.390725708007813,1721318833816.0
8.505999999999972,0.7248016357421876,7.569219970703125,6.2123291015625,1721318833826.0
8.516999999999996,0.6895111083984375,7.724139404296875,5.955575561523438,1721318833837.0
8.52600000000001,0.296380615234375,7.033432006835938,6.293826293945313,1721318833846.0
8.536000000000001,-0.1350311279296875,6.973468017578125,7.066180419921875,1721318833856.0
8.545999999999992,-0.1724151611328125,7.185659790039063,7.325027465820313,1721318833866.0
8.555999999999983,-0.2471832275390625,7.301101684570313,6.7243408203125,1721318833876.0
8.565999999999974,-0.4948150634765625,7.1541076660156255,6.091802978515625,1721318833886.0
8.575999999999965,-0.6341827392578125,7.003823852539063,6.698471069335938,1721318833896.0
8.585999999999956,-0.459674072265625,7.176239013671876,7.195230102539063,1721318833906.0
8.596000000000004,0.188116455078125,7.085919189453126,6.712826538085938,1721318833916.0
8.605999999999995,0.6162384033203125,7.7794677734375,5.460162353515625,1721318833926.0
8.615999999999985,1.108062744140625,7.383795166015625,5.490966796875,1721318833936.0
8.625999999999976,1.378125,7.290036010742188,6.873129272460938,1721318833946.0
8.635999999999967,0.249127197265625,7.392916870117188,8.411257934570314,1721318833956.0
8.645999999999958,-0.4394866943359375,6.619366455078126,7.026852416992188,1721318833966.0
8.656000000000006,-1.2462341308593752,6.736154174804688,6.062045288085938,1721318833976.0
8.665999999999997,-1.290496826171875,7.523312377929688,6.9157470703125,1721318833986.0
8.675999999999988,-1.1575592041015623,7.6072021484375005,6.514242553710938,1721318833996.0
8.685999999999979,-0.7197174072265625,7.489218139648438,6.293377685546876,1721318834006.0
8.69599999999997,0.225799560546875,7.111639404296875,5.6980743408203125,1721318834016.0
8.70599999999996,1.006228637695313,7.215267944335938,6.740789794921875,1721318834026.0
8.716000000000008,1.573419189453125,6.981393432617188,8.266506958007813,1721318834036.0
8.725999999999999,0.8692535400390625,7.137210083007813,6.52037353515625,1721318834046.0
8.73599999999999,0.8200561523437501,7.2722412109375005,6.480895996093751,1721318834056.0
8.745999999999981,0.289202880859375,7.51090087890625,5.571417236328125,1721318834066.0
8.755999999999972,-0.7421478271484375,7.443759155273438,6.722097778320313,1721318834076.0
8.765999999999963,-2.2204620361328127,7.007861328125,7.205996704101563,1721318834086.0
8.77600000000001,-1.4928192138671876,7.070068359375001,6.528897094726563,1721318834096.0
8.786000000000001,-0.5523864746093751,7.293325805664063,6.780715942382813,1721318834106.0
8.795999999999992,0.1326385498046875,7.024758911132813,6.277227783203125,1721318834116.0
8.805999999999983,0.7989715576171875,6.873428344726563,7.495498657226563,1721318834126.0
8.815999999999974,0.9199462890625,7.194931030273438,7.310372924804688,1721318834136.0
8.825999999999965,1.3869476318359375,7.410861206054688,6.213226318359376,1721318834146.0
8.835999999999956,1.2846649169921875,7.269250488281251,5.6636810302734375,1721318834156.0
8.84499999999997,0.045758056640625,7.531985473632813,5.956622314453125,1721318834165.0
8.854999999999961,-0.5281616210937501,7.551724243164063,7.075152587890625,1721318834175.0
8.865000000000009,-0.96181640625,7.5967346191406255,5.9956512451171875,1721318834185.0
8.875,-0.7212127685546875,7.178482055664063,5.892919921875,1721318834195.0
8.884999999999991,-0.682781982421875,6.662731933593751,7.109396362304688,1721318834205.0
8.894999999999982,-0.650482177734375,6.686807250976563,8.276077270507812,1721318834215.0
8.904999999999973,0.025421142578125,6.844418334960938,8.29447021484375,1721318834225.0
8.914999999999964,0.5591156005859376,7.341775512695313,5.884246826171875,1721318834235.0
8.925000000000011,0.8970672607421876,7.615277099609376,5.108602905273438,1721318834245.0
8.935000000000002,0.6147430419921875,7.588809204101563,5.755047607421876,1721318834255.0
8.944999999999993,0.0913665771484375,7.324429321289063,7.182968139648438,1721318834265.0
8.954999999999984,-0.008074951171875,7.199267578125,6.740341186523438,1721318834275.0
8.964999999999975,0.17047119140625,7.485330200195313,5.338140869140625,1721318834285.0
8.974999999999966,0.3055023193359375,7.066629028320313,6.376071166992188,1721318834295.0
8.984999999999957,-0.259295654296875,6.794772338867188,7.998239135742188,1721318834305.0
8.995000000000005,-0.9558349609375,7.144836425781251,8.874221801757812,1721318834315.0
9.004999999999995,-0.8671600341796876,6.802249145507813,6.380108642578126,1721318834325.0
9.014999999999986,0.0970489501953125,7.620062255859375,4.446755981445313,1721318834335.0
9.024999999999975,0.38221435546875,7.8512451171875,6.276181030273438,1721318834345.0
9.034999999999968,-0.029010009765625,7.448992919921875,6.582281494140625,1721318834355.0
9.04499999999996,0.133685302734375,7.001132202148438,7.473367309570313,1721318834365.0
9.055000000000009,0.7617370605468751,6.903036499023438,6.579739379882813,1721318834375.0
9.064999999999998,0.6926513671875001,7.2139221191406255,6.796566772460938,1721318834385.0
9.074999999999989,-0.355596923828125,7.017431640625,7.520620727539063,1721318834395.0
9.08499999999998,-0.9260772705078124,7.177734375000001,6.5903564453125005,1721318834405.0
9.09499999999997,-0.4996002197265625,7.6454833984375,6.065185546875,1721318834415.0
9.10499999999996,-0.007476806640625,7.627090454101563,5.1772399902343755,1721318834425.0
9.115000000000007,-0.2612396240234375,7.209585571289063,6.614730834960938,1721318834435.0
9.125,-0.2797821044921875,6.788043212890625,7.817300415039063,1721318834445.0
9.134999999999993,0.4293182373046875,7.113433837890626,7.351943969726563,1721318834455.0
9.144999999999982,0.9864898681640626,7.350897216796875,6.531738281250001,1721318834465.0
9.154999999999973,0.75665283203125,7.11253662109375,5.5590057373046875,1721318834475.0
9.164999999999964,-0.207855224609375,7.0464416503906255,6.9402709960937505,1721318834485.0
9.175000000000011,-0.5537322998046875,7.434188842773438,7.498788452148438,1721318834495.0
9.185000000000002,-0.3847564697265625,7.522564697265626,6.23924560546875,1721318834505.0
9.194999999999991,-0.2412017822265625,7.246072387695313,5.35040283203125,1721318834515.0
9.204999999999984,-0.409429931640625,7.075152587890625,6.118719482421875,1721318834525.0
9.214,-0.318212890625,7.090704345703125,8.043548583984375,1721318834534.0
9.224999999999966,0.2860626220703125,7.064834594726563,7.888928222656251,1721318834545.0
9.234999999999957,0.5785552978515626,7.255343627929688,5.9817443847656255,1721318834555.0
9.243999999999971,0.6163879394531251,7.189547729492188,5.41739501953125,1721318834564.0
9.253999999999962,0.131292724609375,7.3126159667968755,6.648825073242188,1721318834574.0
9.26400000000001,-0.1015350341796875,7.411758422851563,7.706344604492188,1721318834584.0
9.274,-0.25660400390625,7.374972534179688,6.4438110351562505,1721318834594.0
9.283999999999992,-0.132489013671875,7.168014526367188,5.4199371337890625,1721318834604.0
9.293999999999984,-0.2561553955078125,7.233959960937501,6.316107177734375,1721318834614.0
9.303999999999974,-0.3177642822265625,7.162780761718751,7.777822875976563,1721318834624.0
9.313999999999965,-0.153424072265625,7.0284973144531255,7.468582153320313,1721318834634.0
9.324000000000012,0.4018035888671875,6.837689208984376,5.942416381835938,1721318834644.0
9.334000000000003,0.6672302246093751,7.759429931640626,5.04534912109375,1721318834654.0
9.343999999999994,0.9486572265625,7.400692749023438,6.893466186523438,1721318834664.0
9.353999999999983,0.5010955810546875,7.465890502929688,7.403085327148438,1721318834674.0
9.363999999999976,-0.402252197265625,7.292428588867188,7.136611938476563,1721318834684.0
9.373999999999969,-0.7122406005859375,6.558355712890625,5.9850341796875,1721318834694.0
9.383999999999958,-0.8795715332031251,7.008758544921876,6.6800781250000005,1721318834704.0
9.394000000000004,-0.9012542724609376,7.501181030273438,7.901937866210938,1721318834714.0
9.403999999999996,-0.8282806396484376,7.317401123046875,6.618020629882813,1721318834724.0
9.413999999999987,-0.091815185546875,7.227081298828126,5.723345947265625,1721318834734.0
9.423999999999978,0.7016235351562501,7.312316894531251,5.697775268554688,1721318834744.0
9.433999999999967,0.9993499755859376,7.571463012695313,7.2531005859375,1721318834754.0
9.44399999999996,0.7421478271484375,6.9522338867187505,7.695877075195313,1721318834764.0
9.454000000000008,0.5618072509765626,7.146331787109376,5.831311035156251,1721318834774.0
9.464,0.5164978027343751,7.219903564453125,6.596188354492188,1721318834784.0
9.47399999999999,-0.3105865478515625,7.237548828125001,6.52994384765625,1721318834794.0
9.48399999999998,-1.1752044677734377,7.338336181640625,7.277325439453126,1721318834804.0
9.493999999999971,-1.45528564453125,6.921728515625,6.827819824218751,1721318834814.0
9.503999999999962,-0.8649169921875001,7.333999633789063,5.8401336669921875,1721318834824.0
9.51400000000001,-0.09271240234375,7.352243041992188,6.801950073242188,1721318834834.0
9.524,0.175555419921875,7.089358520507813,6.615179443359375,1721318834844.0
9.533999999999992,0.520086669921875,6.880755615234375,7.561444091796876,1721318834854.0
9.543999999999984,1.0798004150390623,7.338635253906251,6.612487792968751,1721318834864.0
9.553999999999974,1.5647460937500002,7.402038574218751,5.8760223388671875,1721318834874.0
9.563999999999965,0.6930999755859375,7.207940673828125,6.189749145507813,1721318834884.0
9.574000000000012,-0.130096435546875,7.396057128906251,6.736602783203126,1721318834894.0
9.584000000000003,-0.768017578125,7.473068237304688,6.9821411132812505,1721318834904.0
9.59299999999996,-0.9199462890625,7.409515380859376,5.588763427734375,1721318834913.0
9.603000000000009,-0.6024810791015626,7.234109497070313,6.0639892578125005,1721318834923.0
9.613999999999976,-0.7005767822265625,6.971823120117188,7.361514282226563,1721318834934.0
9.62299999999999,-0.3683074951171875,6.660787963867188,8.166915893554688,1721318834943.0
9.63299999999998,0.1981353759765625,6.839633178710938,7.556958007812501,1721318834953.0
9.644000000000004,0.64420166015625,7.420431518554688,5.729327392578125,1721318834964.0
9.652999999999963,0.9948638916015624,7.684063720703126,5.6277923583984375,1721318834973.0
9.663000000000013,0.6093597412109375,7.601968383789063,6.0131469726562505,1721318834983.0
9.673000000000002,0.0844879150390625,7.213623046875001,6.919036865234376,1721318834993.0
9.682999999999993,-0.2507720947265625,7.278820800781251,6.5440002441406255,1721318835003.0
9.692999999999984,-0.017645263671875,6.9576171875,6.04544677734375,1721318835013.0
9.702999999999976,-0.091815185546875,7.352392578125,6.357229614257813,1721318835023.0
9.712999999999964,-0.1215728759765625,7.032534790039063,7.254745483398438,1721318835033.0
9.722999999999956,-0.3422882080078125,6.973019409179688,8.114428710937501,1721318835043.0
9.733000000000004,-0.615789794921875,7.381103515625001,7.179977416992188,1721318835053.0
9.742999999999997,-0.13458251953125,7.00845947265625,5.391674804687501,1721318835063.0
9.752999999999986,0.2145843505859375,7.776626586914063,5.364309692382813,1721318835073.0
9.762999999999977,0.3363067626953125,7.544097900390626,6.992160034179688,1721318835083.0
9.772999999999968,0.2739501953125,7.161883544921875,6.918289184570313,1721318835093.0
9.78299999999996,0.2426971435546875,7.083676147460938,6.890176391601563,1721318835103.0
9.793000000000006,0.3748870849609375,6.74527587890625,6.781463623046876,1721318835113.0
9.802999999999995,-0.305352783203125,7.319195556640626,7.388430786132813,1721318835123.0
9.812999999999988,-0.7331756591796875,7.0593017578125,7.096835327148438,1721318835133.0
9.82299999999998,-0.6984832763671875,7.61318359375,5.3940673828125005,1721318835143.0
9.83299999999997,-0.091815185546875,7.507461547851563,6.017333984375,1721318835153.0
9.84299999999996,0.0829925537109375,7.260427856445313,6.237002563476563,1721318835163.0
9.853000000000009,-0.088226318359375,7.002178955078126,7.744027709960938,1721318835173.0
9.863,0.3940277099609375,6.8445678710937505,7.473666381835938,1721318835183.0
9.87299999999999,0.8031585693359375,7.289736938476563,6.124102783203125,1721318835193.0
9.88299999999998,0.9712371826171876,7.368841552734375,6.199768066406251,1721318835203.0
9.892999999999972,0.0557769775390625,7.504171752929688,6.250610351562501,1721318835213.0
9.902999999999963,-0.644500732421875,7.165621948242188,7.114929199218751,1721318835223.0
9.913000000000013,-0.7464843750000001,7.125396728515626,6.482241821289063,1721318835233.0
9.923000000000002,-0.5613586425781251,7.061544799804688,6.540560913085938,1721318835243.0
9.932999999999993,-0.5576202392578126,7.086068725585938,6.921578979492188,1721318835253.0
9.942999999999984,-0.442327880859375,7.081732177734375,7.280914306640626,1721318835263.0
9.951999999999998,0.19140625,7.2124267578125005,6.856082153320313,1721318835272.0
9.962999999999964,0.77998046875,7.557705688476563,5.8067871093750005,1721318835283.0
9.972999999999956,0.9510498046875,7.450039672851563,5.97366943359375,1721318835293.0
9.983000000000004,0.5441619873046876,7.087115478515625,6.580038452148438,1721318835303.0
9.991999999999962,0.1538726806640625,7.304241943359376,7.150369262695313,1721318835312.0
10.00200000000001,0.13458251953125,7.2985595703125,6.751556396484376,1721318835322.0
10.012,-0.1434051513671875,7.428506469726563,5.840582275390625,1721318835332.0
10.021999999999991,-0.5782562255859376,7.025357055664063,6.492858886718751,1721318835342.0
10.031999999999982,-0.9796112060546877,7.074105834960938,7.313064575195313,1721318835352.0
10.041999999999971,-0.6524261474609375,6.830810546875001,7.635015869140625,1721318835362.0
10.051999999999964,-0.076861572265625,7.13406982421875,6.171356201171876,1721318835372.0
10.062000000000012,0.4892822265625,7.679876708984375,5.491415405273438,1721318835382.0
10.07299999999998,1.086529541015625,7.367495727539063,5.839236450195313,1721318835393.0
10.081999999999994,1.2046630859375,7.539013671875001,7.103713989257813,1721318835402.0
10.091999999999985,0.418701171875,7.310671997070313,8.022613525390625,1721318835412.0
10.101999999999975,-0.351708984375,6.5831787109375,6.143093872070313,1721318835422.0
10.111999999999966,-0.6832305908203126,6.839633178710938,6.640750122070313,1721318835432.0
10.121999999999955,-1.00966796875,7.579238891601563,7.347308349609375,1721318835442.0
10.132000000000003,-1.250421142578125,7.5234619140625005,6.4515869140625,1721318835452.0
10.141999999999996,-0.9196472167968752,7.25369873046875,6.2374511718750005,1721318835462.0
10.151999999999989,0.063702392578125,7.211679077148438,5.257241821289063,1721318835472.0
10.161999999999978,0.7541107177734375,7.3126159667968755,7.601220703125,1721318835482.0
10.173000000000002,0.9942657470703126,7.045394897460938,7.763467407226563,1721318835493.0
10.18199999999996,1.0666412353515626,7.111190795898438,6.166122436523438,1721318835502.0
10.192000000000007,1.0972961425781251,7.241586303710938,6.321640014648438,1721318835512.0
10.201999999999998,0.35828857421875,7.407870483398438,6.062045288085938,1721318835522.0
10.211999999999987,-0.7991210937500001,7.362710571289063,7.33385009765625,1721318835532.0
10.22199999999998,-1.342236328125,7.069470214843751,6.679180908203126,1721318835542.0
10.231999999999973,-1.5346893310546876,7.1705566406250005,6.322836303710938,1721318835552.0
10.241999999999962,-0.6081634521484376,7.376467895507813,6.42227783203125,1721318835562.0
10.25200000000001,-0.3276336669921875,7.020272827148438,6.862362670898438,1721318835572.0
10.262,0.0719268798828125,6.758883666992188,7.642791748046876,1721318835582.0
10.272999999999968,0.6998291015625,7.151864624023438,6.945953369140626,1721318835593.0
10.281999999999982,1.6081115722656252,7.3814025878906255,6.270797729492188,1721318835602.0
10.291999999999971,1.5037353515625,7.352243041992188,5.654559326171875,1721318835612.0
10.301999999999964,0.43365478515625,7.540957641601563,6.466091918945313,1721318835622.0
10.31099999999998,-0.1398162841796875,7.704251098632813,6.580337524414063,1721318835631.0
10.322000000000005,-0.7795318603515625,7.410562133789063,5.721102905273438,1721318835642.0
10.331999999999994,-0.709698486328125,7.225735473632813,6.234011840820313,1721318835652.0
10.341000000000008,-0.9823028564453126,6.749761962890625,7.230221557617188,1721318835661.0
10.351,-0.944769287109375,6.647030639648438,8.443707275390626,1721318835671.0
10.36099999999999,-0.2603424072265625,6.821240234375001,7.75255126953125,1721318835681.0
10.37299999999999,0.4589263916015625,7.298260498046876,6.0295959472656255,1721318835693.0
10.380999999999972,0.64420166015625,7.648175048828126,5.4927612304687505,1721318835701.0
10.390999999999964,0.6993804931640626,7.447348022460938,6.036773681640625,1721318835711.0
10.40100000000001,0.42109375,7.389178466796875,6.871035766601563,1721318835721.0
10.411,0.3769805908203125,7.193136596679688,6.225637817382813,1721318835731.0
10.420999999999992,0.448907470703125,7.4684326171875,5.495901489257813,1721318835741.0
10.430999999999983,0.3840087890625,7.190444946289063,6.571664428710938,1721318835751.0
10.440999999999974,-0.2355194091796875,6.932644653320313,7.940368652343751,1721318835761.0
10.450999999999963,-1.1959899902343751,7.176089477539063,8.416491699218751,1721318835771.0
10.460999999999956,-1.0887725830078123,6.7363037109375,6.3944641113281255,1721318835781.0
10.472999999999956,-0.388494873046875,7.4086181640625,5.0266571044921875,1721318835793.0
10.480999999999996,-0.0270660400390625,7.782159423828125,6.502877807617188,1721318835801.0
10.490999999999984,0.055328369140625,7.299008178710938,6.56224365234375,1721318835811.0
10.500999999999976,0.4472625732421875,7.34342041015625,6.915447998046876,1721318835821.0
10.510999999999967,0.9446197509765626,6.834249877929688,6.636264038085938,1721318835831.0
10.520999999999958,1.0101165771484375,7.18192138671875,6.794772338867188,1721318835841.0
10.531000000000006,-0.1840789794921875,6.911260986328125,7.963696289062501,1721318835851.0
10.540999999999997,-0.6021820068359376,7.395907592773438,6.060549926757813,1721318835861.0
10.550999999999988,-0.483599853515625,7.658493041992188,6.0464935302734375,1721318835871.0
10.56099999999998,-0.2878570556640625,7.503125000000001,5.2898406982421875,1721318835881.0
10.57299999999998,-0.7971771240234375,7.050479125976563,6.9178405761718755,1721318835893.0
10.58099999999996,-0.52158203125,6.858624267578126,8.150317382812501,1721318835901.0
10.591000000000008,0.4749267578125,7.208389282226563,6.752453613281251,1721318835911.0
10.601,1.04854736328125,7.300204467773438,6.306835937500001,1721318835921.0
10.61099999999999,0.905889892578125,7.0075622558593755,5.8680969238281255,1721318835931.0
10.62099999999998,-0.080450439453125,7.260128784179688,7.412805175781251,1721318835941.0
10.630999999999972,-0.2250518798828125,7.345663452148438,7.368542480468751,1721318835951.0
10.640999999999964,-0.2319305419921875,7.334298706054688,5.510855102539063,1721318835961.0
10.65100000000001,-0.3599334716796875,7.2856994628906255,5.8471618652343755,1721318835971.0
10.661,-0.6936981201171876,7.132275390625001,6.718807983398438,1721318835981.0
10.673000000000002,-0.50244140625,7.207342529296875,7.903134155273438,1721318835993.0
10.680999999999983,0.260791015625,7.185958862304688,6.895858764648438,1721318836001.0
10.689999999999998,0.65616455078125,7.355682373046876,5.380758666992188,1721318836010.0
10.699999999999989,0.6099578857421876,6.9970947265625005,6.477157592773438,1721318836020.0
10.70999999999998,0.1670318603515625,7.193585205078126,7.3335510253906255,1721318836030.0
10.71999999999997,0.0384307861328125,7.212576293945313,7.704101562500001,1721318836040.0
10.72999999999996,-0.0112152099609375,7.434786987304688,5.784207153320313,1721318836050.0
10.740000000000007,-0.136077880859375,7.316204833984376,5.193838500976563,1721318836060.0
10.75,-0.4670013427734375,7.392916870117188,6.674395751953125,1721318836070.0
10.760999999999967,-0.53773193359375,7.149771118164063,7.652212524414063,1721318836081.0
10.769999999999982,-0.0825439453125,6.664675903320313,7.118966674804688,1721318836090.0
10.779999999999973,0.3050537109375,7.499237060546876,5.439974975585938,1721318836100.0
10.789999999999964,1.0413696289062502,7.359420776367188,6.215618896484376,1721318836110.0
10.800000000000011,0.9754241943359376,7.378561401367188,7.0823303222656255,1721318836120.0
10.810000000000002,0.0109161376953125,7.553219604492188,7.653259277343751,1721318836130.0
10.819999999999991,-0.5132080078125001,6.741088867187501,6.357379150390625,1721318836140.0
10.829999999999984,-0.6510803222656251,6.836044311523438,5.57769775390625,1721318836150.0
10.839999999999977,-0.7230072021484375,7.490115356445313,7.770944213867188,1721318836160.0
10.849999999999966,-1.0472015380859376,7.3344482421875,7.271942138671876,1721318836170.0
10.859999999999957,-0.730633544921875,7.176687622070313,6.4049316406250005,1721318836180.0
10.870000000000005,0.1878173828125,7.120611572265625,5.8366943359375005,1721318836190.0
10.879999999999995,0.8424865722656251,7.6574462890625,5.9578186035156255,1721318836200.0
10.889999999999986,0.8312713623046876,7.162481689453125,8.000332641601563,1721318836210.0
10.899999999999975,0.6465942382812501,7.2154174804687505,6.074008178710938,1721318836220.0
10.909999999999968,0.825140380859375,7.117022705078125,6.5831787109375,1721318836230.0
10.91999999999996,0.4179534912109375,7.302746582031251,6.265713500976563,1721318836240.0
10.930000000000009,-0.7532135009765626,7.219754028320313,7.100872802734376,1721318836250.0
10.939999999999998,-1.292889404296875,7.013244628906251,7.4187866210937505,1721318836260.0
10.949999999999989,-1.2595428466796876,7.150817871093751,6.1267944335937505,1721318836270.0
10.95999999999998,-0.5483489990234376,7.432843017578126,6.41868896484375,1721318836280.0
10.96999999999997,-0.1544708251953125,7.258035278320313,6.138458251953126,1721318836290.0
10.97999999999996,0.1227691650390625,6.943560791015625,7.468881225585938,1721318836300.0
10.990000000000007,0.6676788330078125,7.095040893554688,7.184613037109376,1721318836310.0
11.0,1.2987213134765625,7.4780029296875,6.242684936523438,1721318836320.0
11.009999999999993,1.5786529541015626,7.242034912109376,5.93658447265625,1721318836330.0
11.019999999999982,0.3482696533203125,7.232913208007813,6.169412231445313,1721318836340.0
11.029999999999973,-0.2878570556640625,7.446301269531251,7.412506103515626,1721318836350.0
11.038999999999987,-0.73272705078125,7.3814025878906255,6.377716064453126,1721318836359.0
11.048999999999978,-0.9275726318359376,7.317401123046875,5.645138549804688,1721318836369.0
11.060000000000002,-0.8058502197265626,7.080685424804688,6.648077392578125,1721318836380.0
11.06899999999996,-0.82484130859375,6.942962646484376,7.450039672851563,1721318836389.0
11.079000000000008,-0.176751708984375,6.706546020507813,8.208038330078125,1721318836399.0
11.089,0.3720458984375,7.182669067382813,6.503176879882813,1721318836409.0
11.09899999999999,0.8897399902343751,7.401440429687501,5.6976257324218755,1721318836419.0
11.10899999999998,1.0309020996093752,7.711428833007813,5.841928100585938,1721318836429.0
11.118999999999971,0.5979949951171876,7.281961059570313,6.680227661132813,1721318836439.0
11.128999999999962,-0.044561767578125,7.240988159179688,6.746023559570313,1721318836449.0
11.13900000000001,-0.08074951171875,7.0464416503906255,5.924472045898438,1721318836459.0
11.149,0.0107666015625,7.563537597656251,6.106906127929688,1721318836469.0
11.158999999999992,-0.069384765625,7.1454345703125,7.210333251953125,1721318836479.0
11.168999999999984,-0.709698486328125,6.989468383789063,7.808178710937501,1721318836489.0
11.178999999999974,-1.1571105957031251,6.888531494140626,7.460208129882813,1721318836499.0
11.188999999999965,-0.2908477783203125,7.050628662109376,5.893368530273438,1721318836509.0
11.199000000000012,0.37503662109375,7.85244140625,5.864208984375001,1721318836519.0
11.209000000000003,0.433355712890625,7.360916137695313,6.505868530273438,1721318836529.0
11.218999999999994,0.2021728515625,7.223941040039063,6.5679260253906255,1721318836539.0
11.228999999999983,0.5586669921875,7.15201416015625,6.8640075683593755,1721318836549.0
11.238999999999976,0.7744476318359376,7.111639404296875,6.733612060546876,1721318836559.0
11.248999999999969,-0.084039306640625,7.237399291992188,7.295120239257813,1721318836569.0
11.258999999999958,-0.8360565185546875,6.905578613281251,6.734509277343751,1721318836579.0
11.269000000000004,-0.7704101562500001,7.475759887695313,6.1018218994140625,1721318836589.0
11.278999999999996,-0.1592559814453125,7.646380615234375,6.206646728515626,1721318836599.0
11.288999999999987,-0.2516693115234375,7.229473876953126,6.1761413574218755,1721318836609.0
11.298999999999978,-0.429766845703125,6.918438720703126,7.224987792968751,1721318836619.0
11.308999999999967,0.17525634765625,6.860568237304688,7.383047485351563,1721318836629.0
11.31899999999996,0.8680572509765626,7.557556152343751,6.686657714843751,1721318836639.0
11.329000000000008,0.9754241943359376,7.179080200195313,6.213824462890625,1721318836649.0
11.339,0.1885650634765625,7.239941406250001,5.930004882812501,1721318836659.0
11.34899999999999,-0.3829620361328125,7.203005981445313,7.331008911132813,1721318836669.0
11.35899999999998,-0.3087921142578125,7.368093872070313,6.773687744140625,1721318836679.0
11.368999999999971,-0.354400634765625,7.280465698242188,6.163430786132813,1721318836689.0
11.378999999999962,-0.496160888671875,7.030441284179688,6.0550170898437505,1721318836699.0
11.38900000000001,-0.5752655029296876,7.049282836914063,7.214520263671876,1721318836709.0
11.399,0.054730224609375,7.291830444335938,7.568322753906251,1721318836719.0
11.408999999999992,0.5045349121093751,7.467086791992188,6.187655639648438,1721318836729.0
11.418999999999984,0.6557159423828125,7.1825195312500005,5.748318481445313,1721318836739.0
11.427999999999995,0.281427001953125,6.986029052734375,6.530392456054688,1721318836748.0
11.437999999999988,0.0394775390625,7.226632690429688,7.6804748535156255,1721318836758.0
11.44799999999998,0.06041259765625,7.479049682617188,6.922775268554688,1721318836768.0
11.45799999999997,0.0357391357421875,7.338934326171875,5.459115600585938,1721318836778.0
11.46799999999996,-0.212640380859375,7.342523193359376,5.6322784423828125,1721318836788.0
11.478000000000009,-0.5480499267578125,7.193136596679688,7.2767272949218755,1721318836798.0
11.488,-0.2561553955078125,6.848605346679688,7.8273193359375,1721318836808.0
11.49799999999999,0.0258697509765625,7.0868164062500005,6.29666748046875,1721318836818.0
11.50799999999998,0.5945556640625,7.539013671875001,5.3451690673828125,1721318836828.0
11.517999999999972,1.008172607421875,7.255044555664063,6.436184692382813,1721318836838.0
11.527999999999963,0.469842529296875,7.54320068359375,7.4923583984375,1721318836848.0
11.538000000000013,-0.356793212890625,7.161135864257813,7.615576171875,1721318836858.0
11.548000000000002,-0.6542205810546875,6.594992065429688,5.833554077148438,1721318836868.0
11.557999999999993,-0.5395263671875,7.145883178710938,6.510952758789063,1721318836878.0
11.567999999999984,-0.7636810302734376,7.560546875000001,7.371682739257813,1721318836888.0
11.577999999999976,-0.8571411132812501,7.331756591796876,6.674395751953125,1721318836898.0
11.587999999999964,-0.2830718994140625,7.12509765625,6.432595825195313,1721318836908.0
11.597999999999956,0.6331359863281251,7.359719848632813,5.292980957031251,1721318836918.0
11.608000000000004,0.9661529541015624,7.4744140625,7.48099365234375,1721318836928.0
11.617999999999997,0.6117523193359375,7.0374694824218755,7.35538330078125,1721318836938.0
11.627999999999986,0.47791748046875,7.095489501953126,6.069522094726563,1721318836948.0
11.637999999999977,0.572125244140625,7.270895385742188,6.506466674804688,1721318836958.0
11.647999999999968,-0.0363372802734375,7.313064575195313,6.248367309570313,1721318836968.0
11.65799999999996,-1.0603607177734375,7.27403564453125,7.47501220703125,1721318836978.0
11.668000000000006,-1.3298248291015626,6.859371948242188,6.853240966796876,1721318836988.0
11.677999999999995,-0.9619659423828124,7.274484252929688,6.275881958007813,1721318836998.0
11.687999999999988,-0.1123016357421875,7.435983276367188,6.479400634765626,1721318837008.0
11.69799999999998,0.1320404052734375,7.050180053710938,6.521270751953126,1721318837018.0
11.70799999999997,0.3554473876953125,6.919784545898438,7.494900512695313,1721318837028.0
11.71799999999996,0.8249908447265626,7.238296508789063,6.847409057617188,1721318837038.0
11.728000000000009,1.2946838378906251,7.323382568359375,6.159393310546876,1721318837048.0
11.738,0.9984527587890626,7.269400024414063,6.01434326171875,1721318837058.0
11.74799999999999,-0.1066192626953125,7.551275634765625,6.5125976562500005,1721318837068.0
11.75799999999998,-0.4906280517578125,7.428656005859375,6.608599853515625,1721318837078.0
11.767999999999972,-0.7005767822265625,7.563687133789063,5.8091796875,1721318837088.0
11.777999999999963,-0.5775085449218751,7.159790039062501,6.303396606445313,1721318837098.0
11.786999999999978,-0.7225585937500001,6.778323364257813,7.270745849609376,1721318837107.0
11.796999999999969,-0.6069671630859376,6.675741577148438,8.302395629882813,1721318837117.0
11.80699999999996,0.06160888671875,6.79910888671875,7.545742797851563,1721318837127.0
11.817000000000007,0.5752655029296876,7.557855224609376,5.887387084960938,1721318837137.0
11.826999999999998,0.8209533691406251,7.598529052734375,5.513995361328125,1721318837147.0
11.836999999999987,0.43724365234375,7.51090087890625,5.775234985351563,1721318837157.0
11.84699999999998,0.2435943603515625,7.17235107421875,6.944009399414063,1721318837167.0
11.856999999999973,0.1511810302734375,7.352542114257813,6.234759521484375,1721318837177.0
11.866999999999962,0.486590576171875,7.410412597656251,5.982492065429688,1721318837187.0
11.87700000000001,0.3318206787109375,7.194183349609376,6.914999389648438,1721318837197.0
11.887,-0.6751556396484375,7.0150390625000005,7.871582031250001,1721318837207.0
11.896999999999991,-1.2377105712890626,6.820343017578126,7.751953125000001,1721318837217.0
11.906999999999982,-0.8119812011718751,7.011898803710938,6.295022583007813,1721318837227.0
11.916999999999971,0.0131591796875,7.825973510742188,5.783010864257813,1721318837237.0
11.926999999999964,0.0456085205078125,7.4172912597656255,5.9114624023437505,1721318837247.0
11.937000000000012,0.151031494140625,7.223492431640626,6.381903076171875,1721318837257.0
11.94799999999998,0.605023193359375,7.32547607421875,7.335195922851563,1721318837268.0
11.956999999999994,1.1325866699218752,7.100872802734376,6.848754882812501,1721318837277.0
11.966999999999985,0.4115234375,7.0868164062500005,7.1556030273437505,1721318837287.0
11.976999999999975,-0.58438720703125,6.708190917968751,6.616824340820313,1721318837297.0
11.986999999999966,-0.690557861328125,7.620211791992188,6.411212158203125,1721318837307.0
11.996999999999955,-0.205462646484375,7.769149780273438,6.30205078125,1721318837317.0
12.007000000000003,-0.29249267578125,7.422225952148438,5.502481079101563,1721318837327.0
12.016999999999996,-0.7644287109375001,6.8080810546875,7.025955200195313,1721318837337.0
12.026999999999989,-0.216229248046875,6.80748291015625,7.625894165039063,1721318837347.0
12.036999999999978,0.6715667724609375,7.410263061523438,7.374224853515625,1721318837357.0
12.046999999999969,1.12989501953125,7.245773315429688,6.14952392578125,1721318837367.0
12.05699999999996,0.46715087890625,7.185659790039063,5.789440917968751,1721318837377.0
12.067000000000007,-0.1990325927734375,7.105957031250001,7.004272460937501,1721318837387.0
12.076999999999998,-0.3605316162109375,7.364505004882813,6.986029052734375,1721318837397.0
12.086999999999987,-0.275445556640625,7.191940307617188,6.750808715820313,1721318837407.0
12.09699999999998,-0.53175048828125,7.288092041015625,5.823983764648438,1721318837417.0
12.106999999999973,-0.5911163330078125,7.120761108398438,6.537570190429688,1721318837427.0
12.116999999999962,-0.0626556396484375,7.371383666992188,7.0000854492187505,1721318837437.0
12.12700000000001,0.5304046630859376,7.470974731445313,6.77757568359375,1721318837447.0
12.137,0.6796417236328125,7.181771850585938,6.0903076171875,1721318837457.0
12.145999999999958,0.4305145263671875,6.772940063476563,6.448446655273438,1721318837466.0
12.156000000000006,0.1407135009765625,7.110592651367188,7.682418823242188,1721318837476.0
12.165999999999997,-0.02691650390625,7.471871948242188,7.208987426757813,1721318837486.0
12.175999999999988,-0.116937255859375,7.499984741210938,5.741888427734375,1721318837496.0
12.18599999999998,-0.381317138671875,7.273287963867188,5.1926422119140625,1721318837506.0
12.19599999999997,-0.5909667968750001,7.253250122070313,6.789987182617188,1721318837516.0
12.20599999999996,-0.4619171142578125,7.175341796875,7.882498168945313,1721318837526.0
12.216000000000008,0.224005126953125,6.788192749023438,6.968832397460938,1721318837536.0
12.226,0.618780517578125,7.325775146484376,5.41021728515625,1721318837546.0
12.23599999999999,1.0065277099609375,7.451385498046876,5.711383056640625,1721318837556.0
12.24599999999998,1.0902679443359375,7.726681518554688,7.284951782226563,1721318837566.0
12.255999999999972,0.35589599609375,7.313812255859376,7.149322509765626,1721318837576.0
12.265999999999964,-0.3081939697265625,6.915896606445313,6.313415527343751,1721318837586.0
12.27600000000001,-0.9909759521484376,6.831558227539063,6.858773803710938,1721318837596.0
12.286,-1.390087890625,7.093545532226563,7.441964721679688,1721318837606.0
12.295999999999992,-1.3882934570312502,7.279119873046875,7.457815551757813,1721318837616.0
12.305999999999983,-0.84158935546875,7.252203369140625,5.585324096679688,1721318837626.0
12.315999999999974,0.0710296630859375,7.301101684570313,6.049932861328125,1721318837636.0
12.325999999999963,0.6830810546875,7.642193603515626,6.420932006835938,1721318837646.0
12.335999999999956,1.3361053466796875,7.272091674804688,7.332803344726563,1721318837656.0
12.346000000000004,1.1775970458984375,6.896755981445313,6.693087768554688,1721318837666.0
12.355999999999996,0.8616271972656251,7.042852783203125,6.0879150390625005,1721318837676.0
12.365999999999984,0.399261474609375,7.452731323242188,7.270297241210938,1721318837686.0
12.375999999999976,-0.39298095703125,7.385440063476563,6.5425048828125005,1721318837696.0
12.385999999999967,-1.2797302246093751,7.24173583984375,6.769949340820313,1721318837706.0
12.395999999999958,-2.086477661132813,6.923223876953125,6.0759521484375005,1721318837716.0
12.406000000000006,-1.011761474609375,7.26805419921875,6.4791015625,1721318837726.0
12.415999999999997,-0.3611297607421875,7.320391845703125,7.518078613281251,1721318837736.0
12.425999999999988,0.2809783935546875,6.967785644531251,6.6860595703125005,1721318837746.0
12.43599999999998,1.0986419677734376,6.8200439453125,6.984982299804688,1721318837756.0
12.44599999999997,1.418948364257813,7.154556274414063,6.530691528320313,1721318837766.0
12.45599999999996,1.2176727294921876,7.349551391601563,7.130032348632813,1721318837776.0
12.466000000000008,0.4206451416015625,7.359420776367188,6.479849243164063,1721318837786.0
12.476,-0.1876678466796875,7.5010314941406255,5.499340820312501,1721318837796.0
12.48599999999999,-0.6404632568359375,7.886236572265625,5.661587524414063,1721318837806.0
12.49599999999998,-0.7355682373046876,7.655801391601563,5.566632080078126,1721318837816.0
12.505999999999972,-0.4607208251953125,7.342373657226563,6.656002807617188,1721318837826.0
12.514999999999986,-0.451300048828125,6.514541625976563,7.794122314453125,1721318837835.0
12.524999999999975,-0.158209228515625,6.192141723632813,8.348602294921875,1721318837845.0
12.534999999999968,0.175555419921875,6.8415771484375005,8.099923706054689,1721318837855.0
12.54499999999996,0.5520874023437501,7.5399108886718755,6.1567016601562505,1721318837865.0
12.555000000000009,0.4586273193359375,7.817300415039063,4.970132446289063,1721318837875.0
12.564999999999998,0.177947998046875,7.51927490234375,5.3127197265625,1721318837885.0
12.574999999999989,-0.2304351806640625,7.547686767578125,6.434091186523438,1721318837895.0
12.58499999999998,0.05084228515625,7.051077270507813,6.901541137695313,1721318837905.0
12.59499999999997,0.4390380859375,7.371832275390625,6.105410766601563,1721318837915.0
12.60499999999996,0.7034179687500001,7.026553344726563,7.105657958984375,1721318837925.0
12.615000000000007,-0.01495361328125,7.053768920898438,7.704101562500001,1721318837935.0
12.625,-0.88944091796875,6.851596069335938,7.623352050781251,1721318837945.0
12.634999999999993,-0.6613983154296875,7.054666137695313,6.646133422851563,1721318837955.0
12.644999999999982,-0.3521575927734375,7.794271850585938,5.5914550781250005,1721318837965.0
12.654999999999973,-0.1798919677734375,7.518228149414063,5.629586791992188,1721318837975.0
12.664999999999964,-0.295782470703125,7.170855712890625,6.380557250976563,1721318837985.0
12.675000000000011,0.27335205078125,7.272390747070313,7.273437500000001,1721318837995.0
12.685000000000002,0.8725433349609376,7.052572631835938,7.579388427734376,1721318838005.0
12.694999999999991,0.5031890869140625,6.904980468750001,7.080386352539063,1721318838015.0
12.704999999999984,-0.2403045654296875,6.832305908203126,6.636862182617188,1721318838025.0
12.714999999999977,-0.2818756103515625,7.507012939453125,6.155056762695313,1721318838035.0
12.724999999999966,0.1184326171875,8.086465454101564,5.9395751953125,1721318838045.0
12.734999999999957,-0.0082244873046875,7.519873046875,5.766561889648438,1721318838055.0
12.745000000000005,-0.606817626953125,6.816604614257813,6.376669311523438,1721318838065.0
12.754999999999995,-0.52337646484375,6.6788818359375,7.894161987304688,1721318838075.0
12.764999999999986,0.252716064453125,7.25010986328125,7.773187255859376,1721318838085.0
12.774999999999975,0.6126495361328126,7.189697265625001,6.653311157226563,1721318838095.0
12.784999999999968,0.1591064453125,7.169808959960938,5.5201263427734375,1721318838105.0
12.79499999999996,-0.3563446044921875,7.1600891113281255,6.5529724121093755,1721318838115.0
12.805000000000009,-0.1710693359375,7.470077514648438,7.25968017578125,1721318838125.0
12.814999999999998,-0.0139068603515625,7.375271606445313,6.623703002929688,1721318838135.0
12.824999999999989,-0.0880767822265625,7.104312133789063,5.684915161132813,1721318838145.0
12.83499999999998,-0.119927978515625,7.0927978515625005,6.580337524414063,1721318838155.0
12.84499999999997,0.145947265625,7.32607421875,7.328915405273438,1721318838165.0
12.85499999999996,0.4317108154296875,7.410113525390625,6.8341003417968755,1721318838175.0
12.865000000000007,0.4125701904296875,7.285549926757813,5.92821044921875,1721318838185.0
12.875,0.101983642578125,6.955075073242188,6.097485351562501,1721318838195.0
12.884999999999993,-0.2788848876953125,7.132275390625001,7.452581787109375,1721318838205.0
12.894000000000004,-0.3330169677734375,7.292578125,7.492657470703126,1721318838214.0
12.903999999999996,-0.221612548828125,7.2019592285156255,6.229376220703125,1721318838224.0
12.913999999999987,-0.16807861328125,7.361962890625,5.457620239257813,1721318838234.0
12.923999999999978,-0.1000396728515625,7.342074584960938,6.524411010742188,1721318838244.0
12.933999999999967,0.061907958984375,7.111190795898438,7.435235595703125,1721318838254.0
12.94399999999996,0.305950927734375,6.926663208007813,6.872680664062501,1721318838264.0
12.954000000000008,0.5519378662109375,7.52525634765625,5.594744873046875,1721318838274.0
12.964999999999977,1.0445098876953125,7.329513549804688,5.948397827148438,1721318838285.0
12.97399999999999,0.8062988281250001,7.610342407226563,7.065731811523438,1721318838294.0
12.98399999999998,-0.4498046875,7.279568481445313,7.702456665039063,1721318838304.0
12.993999999999971,-0.9486572265625,6.569570922851563,6.378463745117188,1721318838314.0
13.003999999999962,-1.1554656982421876,6.93907470703125,6.519027709960938,1721318838324.0
13.01400000000001,-0.8098876953125,7.410113525390625,7.486376953125,1721318838334.0
13.024,-0.9108245849609377,7.311270141601563,6.809127807617188,1721318838344.0
13.033999999999992,-0.3372039794921875,7.213323974609375,6.184365844726563,1721318838354.0
13.043999999999984,0.5785552978515626,7.367645263671876,5.6666717529296875,1721318838364.0
13.053999999999974,1.3361053466796875,7.744924926757813,6.695480346679688,1721318838374.0
13.064999999999998,1.1698211669921876,6.997991943359375,7.501480102539063,1721318838385.0
13.074000000000012,0.3446807861328125,6.920083618164063,6.239096069335938,1721318838394.0
13.084000000000003,0.4825531005859375,7.269998168945313,6.736004638671876,1721318838404.0
13.093999999999994,0.128302001953125,7.425964355468751,6.439474487304688,1721318838414.0
13.103999999999983,-0.6990814208984375,7.347906494140625,6.86131591796875,1721318838424.0
13.113999999999976,-1.9716339111328127,6.818997192382813,6.952832031250001,1721318838434.0
13.123999999999969,-1.5221282958984377,7.123602294921875,6.33255615234375,1721318838444.0
13.133999999999958,-0.2738006591796875,7.476358032226563,6.835446166992188,1721318838454.0
13.144000000000004,0.4119720458984375,7.177883911132813,6.384445190429688,1721318838464.0
13.153999999999996,0.7059600830078125,6.820791625976563,7.03836669921875,1721318838474.0
13.164999999999964,0.8450286865234375,7.105209350585938,7.249661254882813,1721318838485.0
13.173999999999978,1.2404022216796875,7.374523925781251,6.514990234375,1721318838494.0
13.183999999999967,1.13468017578125,7.415945434570313,5.991912841796875,1721318838504.0
13.19399999999996,-0.0151031494140625,7.408468627929688,5.9642486572265625,1721318838514.0
13.204000000000008,-0.6280517578125,7.462600708007813,6.4991394042968755,1721318838524.0
13.214,-0.86671142578125,7.513143920898438,6.3825012207031255,1721318838534.0
13.22399999999999,-0.521881103515625,7.442263793945313,6.137860107421876,1721318838544.0
13.233000000000004,-0.541021728515625,6.853988647460938,6.721649169921876,1721318838553.0
13.242999999999997,-0.5289093017578126,6.516784667968751,7.911956787109376,1721318838563.0
13.253999999999962,-0.0713287353515625,6.688751220703126,8.397650146484375,1721318838574.0
13.264999999999986,0.4314117431640625,7.371383666992188,6.673797607421876,1721318838585.0
13.272999999999968,0.8025604248046876,7.653707885742188,5.33245849609375,1721318838593.0
13.28299999999996,0.5842376708984376,7.610641479492188,5.00706787109375,1721318838603.0
13.293000000000006,0.174957275390625,7.481292724609376,6.435287475585938,1721318838613.0
13.303999999999974,0.0617584228515625,7.378262329101563,7.0868164062500005,1721318838624.0
13.312999999999988,0.250921630859375,6.89481201171875,6.148626708984375,1721318838633.0
13.32299999999998,0.3241943359375,7.2172119140625,6.2419372558593755,1721318838643.0
13.33299999999997,0.0378326416015625,7.137957763671875,7.869189453125,1721318838653.0
13.34299999999996,-0.783270263671875,7.210632324218751,7.865451049804688,1721318838663.0
13.353000000000009,-0.9196472167968752,6.972720336914063,6.472073364257813,1721318838673.0
13.365000000000007,-0.454290771484375,7.333999633789063,5.659494018554688,1721318838685.0
13.37299999999999,-0.1942474365234375,7.646679687500001,6.060400390625,1721318838693.0
13.38299999999998,-0.03050537109375,7.202557373046876,6.747817993164063,1721318838703.0
13.392999999999972,0.243743896484375,7.0712646484375,6.897503662109376,1721318838713.0
13.402999999999963,0.8577392578125,7.265512084960938,6.87686767578125,1721318838723.0
13.413000000000013,0.7816253662109376,7.184762573242188,7.263418579101563,1721318838733.0
13.423000000000002,-0.02811279296875,7.020870971679688,6.736602783203126,1721318838743.0
13.432999999999993,-0.5730224609375001,7.258483886718751,6.276181030273438,1721318838753.0
13.442999999999984,-0.2739501953125,7.59105224609375,5.800656127929688,1721318838763.0
13.452999999999976,-0.021533203125,7.7148681640625005,6.253601074218751,1721318838773.0
13.464999999999977,-0.4164581298828125,7.110891723632813,6.740341186523438,1721318838785.0
13.472999999999956,-0.6051727294921876,6.721051025390626,7.221249389648438,1721318838793.0
13.483000000000004,-0.0921142578125,6.855484008789063,7.72623291015625,1721318838803.0
13.492999999999997,0.5818450927734375,7.294821166992188,6.507064819335938,1721318838813.0
13.502999999999986,0.59156494140625,7.425665283203125,6.187506103515625,1721318838823.0
13.512999999999977,0.1218719482421875,7.362261962890625,6.130383300781251,1721318838833.0
