time,ax,ay,az,timestamp
0.0,0.2196685791015625,7.293475341796875,6.64359130859375,1721696321952.0
0.0099999999999909,0.1849761962890625,7.72264404296875,6.3211914062500005,1721696321962.0
0.0200000000000315,0.5120117187500001,7.133322143554688,6.347509765625,1721696321972.0
0.0300000000000295,0.23626708984375,7.419235229492188,6.011053466796875,1721696321982.0
0.0400000000000204,0.0949554443359375,7.054815673828125,7.051525878906251,1721696321992.0
0.0500000000000113,0.1326385498046875,7.178631591796876,6.983486938476563,1721696322002.0
0.0600000000000022,-0.001495361328125,7.358523559570313,6.806137084960938,1721696322012.0
0.0699999999999931,0.1924530029296875,6.8080810546875,6.38040771484375,1721696322022.0
0.0800000000000409,-0.3096893310546875,7.349252319335938,6.603515625000001,1721696322032.0
0.0900000000000318,-0.2400054931640625,7.001730346679688,7.322335815429688,1721696322042.0
0.1000000000000227,-0.1413116455078125,7.429702758789063,6.560000610351563,1721696322052.0
0.1100000000000136,0.046954345703125,7.203305053710938,6.362313842773438,1721696322062.0
0.1200000000000045,0.286810302734375,7.099078369140625,6.191693115234376,1721696322072.0
0.1299999999999954,-0.085833740234375,7.29197998046875,7.0255065917968755,1721696322082.0
0.1399999999999863,0.2232574462890625,6.9268127441406255,7.051376342773438,1721696322092.0
0.1490000000000009,0.1828826904296875,7.392019653320313,6.684713745117188,1721696322101.0
0.1589999999999918,0.3297271728515625,7.14842529296875,6.74766845703125,1721696322111.0
0.1700000000000159,-0.2202667236328125,7.075750732421875,6.784603881835938,1721696322122.0
0.1790000000000304,-0.6314910888671875,6.948944091796876,6.552224731445313,1721696322131.0
0.1890000000000213,-0.2337249755859375,7.343719482421876,6.459362792968751,1721696322141.0
0.1990000000000122,0.12022705078125,7.780364990234376,6.438726806640625,1721696322151.0
0.2090000000000031,0.2555572509765625,7.1765380859375005,6.5114013671875,1721696322161.0
0.2189999999999941,-0.3856536865234375,6.762921142578126,7.075152587890625,1721696322171.0
0.2290000000000418,-0.5740692138671876,6.703704833984376,7.238595581054688,1721696322181.0
0.2390000000000327,0.1834808349609375,7.1944824218750005,7.141098022460938,1721696322191.0
0.2490000000000236,0.7038665771484376,7.821487426757813,6.0061187744140625,1721696322201.0
0.2590000000000145,0.8366546630859376,7.15440673828125,5.8501525878906255,1721696322211.0
0.2690000000000054,0.0638519287109375,7.078890991210938,6.621160888671875,1721696322221.0
0.2789999999999963,-0.251519775390625,7.036871337890625,7.490414428710938,1721696322231.0
0.2889999999999872,0.097796630859375,7.2393432617187505,6.997692871093751,1721696322241.0
0.299000000000035,0.0853851318359375,7.673297119140625,5.801852416992188,1721696322251.0
0.3090000000000259,0.2190704345703125,6.830661010742188,6.181973266601563,1721696322261.0
0.3190000000000168,-0.7065582275390625,7.059152221679688,7.096536254882813,1721696322271.0
0.3290000000000077,-0.68607177734375,6.801950073242188,8.314657592773438,1721696322281.0
0.3390000000000057,-0.218621826171875,7.235455322265626,6.803146362304688,1721696322291.0
0.3489999999999895,0.2250518798828125,7.410113525390625,5.6950836181640625,1721696322301.0
0.3590000000000373,0.69085693359375,7.1526123046875005,6.009408569335938,1721696322311.0
0.3690000000000282,0.17166748046875,7.389926147460938,6.705200195312501,1721696322321.0
0.3790000000000191,0.3754852294921875,7.014889526367188,7.714718627929688,1721696322331.0
0.38900000000001,0.430364990234375,7.353887939453125,6.330612182617188,1721696322341.0
0.3990000000000009,0.4858428955078125,7.157696533203126,6.075204467773438,1721696322351.0
0.4089999999999918,0.2585479736328125,7.196575927734376,6.405529785156251,1721696322361.0
0.4190000000000395,-0.4616180419921875,7.481292724609376,6.830511474609375,1721696322371.0
0.4290000000000304,-0.294287109375,6.986029052734375,7.216613769531251,1721696322381.0
0.4390000000000214,-0.2836700439453125,7.391571044921876,6.259432983398438,1721696322391.0
0.4490000000000123,0.024822998046875,6.894961547851563,6.654208374023438,1721696322401.0
0.4590000000000032,0.0533843994140625,7.1989685058593755,6.984982299804688,1721696322411.0
0.4689999999999941,-0.0064300537109375,7.286895751953126,7.034179687500001,1721696322421.0
0.4790000000000418,0.5166473388671875,7.093545532226563,6.555215454101563,1721696322431.0
0.4890000000000327,0.394476318359375,7.449142456054688,6.145187377929688,1721696322441.0
0.4990000000000236,0.4071868896484375,7.017880249023438,6.483886718750001,1721696322451.0
0.5090000000000146,-0.12620849609375,7.227230834960938,7.121658325195313,1721696322461.0
0.5190000000000055,-0.3135772705078125,7.066329956054688,7.090106201171875,1721696322471.0
0.52800000000002,-0.2296875,7.147079467773438,6.590805053710938,1721696322480.0
0.5380000000000109,-0.4490570068359375,7.345962524414063,6.3944641113281255,1721696322490.0
0.5480000000000018,-0.30206298828125,7.093395996093751,6.387884521484375,1721696322500.0
0.5579999999999927,-0.3028106689453125,7.390225219726563,6.919635009765625,1721696322510.0
0.5690000000000168,0.00418701171875,7.081283569335938,6.6860595703125005,1721696322521.0
0.5780000000000314,0.2115936279296875,7.225735473632813,6.4542785644531255,1721696322530.0
0.5880000000000223,0.271258544921875,7.367495727539063,6.432595825195313,1721696322540.0
0.5980000000000132,0.2797821044921875,7.079937744140626,6.5275512695312505,1721696322550.0
0.6080000000000041,0.0100189208984375,7.44151611328125,6.5230651855468755,1721696322560.0
0.617999999999995,-0.203668212890625,7.159790039062501,6.731518554687501,1721696322570.0
0.6279999999999859,-0.35888671875,7.270297241210938,6.499887084960938,1721696322580.0
0.6380000000000337,-0.357391357421875,7.323831176757813,6.661984252929688,1721696322590.0
0.6480000000000246,-0.14654541015625,6.8714843750000005,6.8879333496093755,1721696322600.0
0.6580000000000155,-0.228192138671875,7.0838256835937505,6.937130737304688,1721696322610.0
0.6679999999999993,0.02332763671875,6.776080322265625,7.536621093750001,1721696322620.0
0.6779999999999973,0.298773193359375,7.341177368164063,6.47012939453125,1721696322630.0
0.6879999999999882,0.585882568359375,7.401889038085938,6.414950561523438,1721696322640.0
0.6980000000000359,0.8864501953125,7.109396362304688,6.136065673828125,1721696322650.0
0.7080000000000268,0.6581085205078125,7.708139038085938,5.91624755859375,1721696322660.0
0.7180000000000177,0.7970275878906251,7.255194091796875,6.887484741210938,1721696322670.0
0.7280000000000086,0.4415802001953125,7.667913818359375,6.305340576171876,1721696322680.0
0.7379999999999995,-0.0611602783203125,6.891522216796876,6.761874389648438,1721696322690.0
0.7479999999999905,-0.453094482421875,6.895559692382813,6.32657470703125,1721696322700.0
0.7580000000000382,-1.0522857666015626,7.134219360351563,7.562191772460938,1721696322710.0
0.7680000000000291,-1.047650146484375,6.910812377929688,7.825973510742188,1721696322720.0
0.77800000000002,-1.2402526855468752,7.424169921875,6.629833984375001,1721696322730.0
0.7880000000000109,-0.64599609375,6.729873657226563,6.566580200195313,1721696322740.0
0.7980000000000018,-0.1798919677734375,7.153359985351563,5.650521850585938,1721696322750.0
0.8079999999999927,0.3576904296875,7.488919067382813,7.362860107421875,1721696322760.0
0.8180000000000405,1.0911651611328126,7.344915771484375,6.967486572265625,1721696322770.0
0.8280000000000314,1.469790649414063,7.720101928710938,5.864508056640625,1721696322780.0
0.8380000000000223,1.2616363525390626,6.825726318359376,6.292630004882813,1721696322790.0
0.8480000000000132,0.2417999267578125,7.198370361328125,5.831610107421875,1721696322800.0
0.8580000000000041,-0.3883453369140625,7.511050415039063,7.783056640625,1721696322810.0
0.867999999999995,-0.4472625732421875,7.6095947265625,6.063540649414063,1721696322820.0
0.8779999999999859,-0.3410919189453125,7.670306396484375,5.278176879882813,1721696322830.0
0.8880000000000337,-0.44561767578125,6.765463256835938,6.443362426757813,1721696322840.0
0.8969999999999914,-0.6570617675781251,6.949542236328125,6.892269897460938,1721696322849.0
0.907000000000032,-0.6316406250000001,6.81107177734375,9.022711181640624,1721696322859.0
0.91700000000003,0.0442626953125,6.9985900878906255,6.901989746093751,1721696322869.0
0.9270000000000208,0.5345916748046875,7.361514282226563,5.9667907714843755,1721696322879.0
0.9370000000000118,0.9769195556640624,7.125845336914063,5.9792022705078125,1721696322889.0
0.948000000000036,0.7080535888671875,7.646530151367188,5.7593841552734375,1721696322900.0
0.9569999999999936,0.4876373291015625,8.076745605468751,6.6501708984375005,1721696322909.0
0.9670000000000414,0.5447601318359375,7.566976928710938,5.0486389160156255,1721696322919.0
0.9770000000000324,0.3509613037109375,6.859970092773438,6.2165161132812505,1721696322929.0
0.9870000000000232,-0.326885986328125,6.595889282226563,8.556158447265625,1721696322939.0
0.997000000000014,-1.466949462890625,6.176889038085938,8.764163208007814,1721696322949.0
1.007000000000005,-1.4985015869140623,6.56224365234375,8.245870971679688,1721696322959.0
1.016999999999996,-0.757550048828125,7.200015258789063,6.470428466796876,1721696322969.0
1.0269999999999868,-0.265576171875,8.002725219726564,4.997048950195313,1721696322979.0
1.0370000000000346,-0.1078155517578125,7.740438842773438,5.523565673828125,1721696322989.0
1.0480000000000018,0.487188720703125,7.38529052734375,5.911013793945313,1721696323000.0
1.0570000000000164,1.1563629150390626,7.412655639648438,7.307083129882813,1721696323009.0
1.0670000000000073,1.5997375488281251,6.871035766601563,7.286297607421876,1721696323019.0
1.0769999999999982,1.2075042724609375,6.998739624023438,6.616525268554688,1721696323029.0
1.086999999999989,0.5414703369140625,6.824380493164063,7.43553466796875,1721696323039.0
1.0970000000000368,-0.416009521484375,7.209735107421875,6.785501098632813,1721696323049.0
1.1070000000000275,-1.238458251953125,7.071563720703126,7.305139160156251,1721696323059.0
1.1170000000000186,-1.3984619140625,7.269250488281251,6.174795532226563,1721696323069.0
1.1270000000000095,-0.9679473876953124,7.529742431640625,6.046942138671875,1721696323079.0
1.1370000000000005,-0.795233154296875,7.0927978515625005,6.838735961914063,1721696323089.0
1.1480000000000246,0.019140625,7.1780334472656255,6.730471801757813,1721696323100.0
1.157000000000032,0.6184814453125,6.800604248046875,7.431347656250001,1721696323109.0
1.16700000000003,1.1246612548828123,6.716265869140625,6.859671020507813,1721696323119.0
1.177000000000021,1.3754333496093751,7.642044067382813,6.48448486328125,1721696323129.0
1.1870000000000118,1.3600311279296875,7.4636474609375005,6.4396240234375,1721696323139.0
1.1970000000000027,0.6570617675781251,8.171102905273438,4.654461669921876,1721696323149.0
1.2069999999999936,0.1789947509765625,7.901638793945313,5.240792846679688,1721696323159.0
1.2170000000000414,-0.009869384765625,7.832553100585938,5.299411010742188,1721696323169.0
1.2270000000000325,-0.490179443359375,7.807131958007813,6.276779174804688,1721696323179.0
1.2370000000000232,-0.3596343994140625,6.809875488281251,6.9420654296875,1721696323189.0
1.2479999999999905,-0.5459564208984375,6.8116699218750005,7.249960327148438,1721696323200.0
1.257000000000005,-0.2456878662109375,5.8550872802734375,8.870034790039064,1721696323209.0
1.266999999999996,-0.3674102783203125,6.321340942382813,8.375967407226563,1721696323219.0
1.2760000000000105,-0.3363067626953125,6.690097045898438,8.268002319335938,1721696323228.0
1.2860000000000014,-0.33436279296875,7.219006347656251,6.245077514648438,1721696323238.0
1.2959999999999925,-0.4868896484375,7.9780517578125005,4.9279632568359375,1721696323248.0
1.30600000000004,-0.2763427734375,7.642642211914063,5.53642578125,1721696323258.0
1.316000000000031,0.009869384765625,8.013790893554688,5.565286254882813,1721696323268.0
1.3260000000000218,0.8635711669921876,7.042553710937501,6.472073364257813,1721696323278.0
1.3360000000000127,1.3026092529296875,7.461105346679688,6.0005859375,1721696323288.0
1.3480000000000132,1.390087890625,6.724191284179688,7.817749023437501,1721696323300.0
1.3559999999999943,0.9645080566406252,6.964495849609375,8.129083251953126,1721696323308.0
1.3660000000000423,-0.2627349853515625,6.590057373046876,7.9660888671875005,1721696323318.0
1.3760000000000332,-1.2094482421875,6.4602600097656255,6.146084594726563,1721696323328.0
1.386000000000024,-0.8426361083984376,7.776776123046876,6.084326171875,1721696323338.0
1.396000000000015,-1.5755126953125,8.310321044921876,6.654507446289063,1721696323348.0
1.406000000000006,-2.5349365234375,7.751055908203125,4.5850769042968755,1721696323358.0
1.4159999999999968,-0.18363037109375,6.889727783203125,6.588113403320313,1721696323368.0
1.4259999999999875,0.2899505615234375,6.262573242187501,6.862661743164063,1721696323378.0
1.4360000000000357,0.859234619140625,7.053021240234376,8.950784301757814,1721696323388.0
1.448000000000036,1.756451416015625,7.117471313476563,8.294918823242188,1721696323400.0
1.4560000000000173,1.5248199462890626,7.03477783203125,4.866055297851563,1721696323408.0
1.4660000000000082,1.4327056884765623,7.732513427734376,5.544351196289063,1721696323418.0
1.4760000000000062,0.1571624755859375,7.505068969726563,5.800057983398438,1721696323428.0
1.48599999999999,-0.4173553466796875,8.129083251953126,6.851147460937501,1721696323438.0
1.4960000000000375,-0.4649078369140625,7.592996215820313,6.1866088867187505,1721696323448.0
1.5060000000000286,-0.421990966796875,6.745574951171876,5.131930541992188,1721696323458.0
1.5160000000000196,-0.7781860351562501,6.360220336914063,8.04324951171875,1721696323468.0
1.5260000000000105,-1.0071258544921875,6.525009155273438,9.292474365234376,1721696323478.0
1.5360000000000014,-0.7603912353515625,6.54130859375,8.700610351562501,1721696323488.0
1.5480000000000018,-0.270361328125,6.997842407226563,6.036624145507813,1721696323500.0
1.55600000000004,0.13218994140625,7.5043212890625,4.753155517578126,1721696323508.0
1.566000000000031,0.3330169677734375,8.015884399414062,6.011053466796875,1721696323518.0
1.5760000000000218,0.4894317626953125,7.559948730468751,6.53831787109375,1721696323528.0
1.5860000000000127,0.684576416015625,7.255044555664063,6.563290405273438,1721696323538.0
1.5960000000000036,0.684576416015625,6.932644653320313,6.266909790039063,1721696323548.0
1.6059999999999943,0.5957519531250001,6.733163452148438,7.151864624023438,1721696323558.0
1.6160000000000423,-0.0536834716796875,7.148574829101563,8.135662841796876,1721696323568.0
1.625,-0.5163482666015625,6.663479614257813,7.506564331054688,1721696323577.0
1.634999999999991,-0.9377410888671877,6.986178588867188,5.713327026367188,1721696323587.0
1.6450000000000315,-0.674407958984375,7.631726074218751,5.032489013671875,1721696323597.0
1.6550000000000296,0.165087890625,7.992257690429688,6.233114624023438,1721696323607.0
1.6650000000000205,0.8495147705078125,7.184463500976563,7.395010375976563,1721696323617.0
1.6750000000000114,0.473431396484375,7.538565063476563,7.511947631835938,1721696323627.0
1.6850000000000025,-0.0034393310546875,6.446951293945313,7.433889770507813,1721696323637.0
1.6949999999999932,-0.0275146484375,5.9966979980468755,5.859722900390626,1721696323647.0
1.705000000000041,-0.044561767578125,7.854833984375,7.2052490234375,1721696323657.0
1.7150000000000318,0.3440826416015625,8.091250610351564,6.599029541015626,1721696323667.0
1.7250000000000227,0.089422607421875,8.090203857421876,4.542010498046875,1721696323677.0
1.7350000000000136,-0.3189605712890625,6.807333374023438,6.040661621093751,1721696323687.0
1.7450000000000043,-0.7029693603515625,7.057208251953125,6.227432250976563,1721696323697.0
1.7549999999999957,-0.2226593017578125,6.863259887695313,9.193182373046875,1721696323707.0
1.7649999999999864,0.380419921875,7.064834594726563,7.176388549804688,1721696323717.0
1.775000000000034,0.434552001953125,6.784304809570313,6.4722229003906255,1721696323727.0
1.785000000000025,-0.262286376953125,6.942514038085938,6.818099975585938,1721696323737.0
1.795000000000016,-0.7367645263671876,7.492807006835938,6.262124633789063,1721696323747.0
1.8049999999999995,-0.5793029785156251,7.674343872070313,7.1095458984375,1721696323757.0
1.8149999999999975,-0.205462646484375,7.432095336914063,5.034283447265626,1721696323767.0
1.8249999999999889,-0.13697509765625,7.31590576171875,6.04783935546875,1721696323777.0
1.8350000000000364,0.0859832763671875,6.899746704101563,7.374224853515625,1721696323787.0
1.8450000000000273,0.5271148681640625,6.8610168457031255,7.817001342773438,1721696323797.0
1.8550000000000184,0.7298858642578125,6.650918579101563,8.023660278320314,1721696323807.0
1.865000000000009,0.467449951171875,6.849951171875,6.276928710937501,1721696323817.0
1.875,0.0142059326171875,7.041656494140626,6.6130859375,1721696323827.0
1.884999999999991,0.12261962890625,7.662680053710938,5.768505859375001,1721696323837.0
1.8950000000000315,0.2292388916015625,8.806182861328125,5.558407592773438,1721696323847.0
1.9050000000000296,0.28531494140625,7.320690917968751,5.216268920898438,1721696323857.0
1.9150000000000205,-0.4373931884765625,6.562393188476563,6.0210723876953125,1721696323867.0
1.9250000000000111,-0.6401641845703125,6.249862670898438,9.670352172851564,1721696323877.0
1.9350000000000025,-0.31881103515625,6.669760131835938,8.69044189453125,1721696323887.0
1.9449999999999932,-0.0466552734375,7.159640502929688,7.269549560546875,1721696323897.0
1.955000000000041,-0.058319091796875,7.031787109375,4.7570434570312505,1721696323907.0
1.965000000000032,-0.326885986328125,7.601519775390625,5.401394653320313,1721696323917.0
1.9750000000000227,-0.16688232421875,7.478750610351563,7.777224731445313,1721696323927.0
1.9840000000000373,0.4673004150390625,7.114630126953125,5.862713623046876,1721696323936.0
1.994000000000028,0.9963592529296876,8.25738525390625,5.392123413085938,1721696323946.0
2.004000000000019,1.5873260498046875,7.064236450195313,5.807833862304688,1721696323956.0
2.01400000000001,0.5164978027343751,7.850347900390625,7.370187377929688,1721696323966.0
2.024000000000001,-0.45399169921875,6.076998901367188,8.752349853515625,1721696323976.0
2.033999999999992,-1.0561737060546876,6.0744567871093755,6.839184570312501,1721696323986.0
2.0440000000000396,-1.3884429931640625,7.063339233398438,8.084222412109376,1721696323996.0
2.0540000000000305,-0.6341827392578125,7.620361328125001,5.678335571289063,1721696324006.0
2.064000000000022,-0.5199371337890626,8.5666259765625,5.512350463867188,1721696324016.0
2.0740000000000123,-0.090020751953125,6.516186523437501,6.180477905273438,1721696324026.0
2.084000000000003,-0.1395172119140625,7.191192626953126,5.7474212646484375,1721696324036.0
2.093999999999994,0.8423370361328125,6.93309326171875,9.570761108398438,1721696324046.0
2.104000000000042,1.6613464355468752,7.289736938476563,6.29906005859375,1721696324056.0
2.1140000000000327,1.1624938964843752,7.135565185546875,6.385043334960938,1721696324066.0
2.1240000000000236,0.074169921875,6.8191467285156255,5.983987426757813,1721696324076.0
2.1340000000000146,-0.6512298583984375,7.424768066406251,6.516036987304688,1721696324086.0
2.1440000000000055,-0.5254699707031251,7.956369018554688,8.136260986328125,1721696324096.0
2.1539999999999964,-0.5570220947265625,7.444656372070313,4.251312255859375,1721696324106.0
2.1639999999999873,-0.4822540283203125,6.820492553710938,5.786749267578125,1721696324116.0
2.174000000000035,-0.5583679199218751,6.837689208984376,7.481741333007813,1721696324126.0
2.184000000000026,0.013458251953125,6.9540283203125,9.199612426757811,1721696324136.0
2.194000000000017,0.280828857421875,6.734210205078125,8.224935913085938,1721696324146.0
2.2040000000000077,0.13876953125,6.462503051757813,4.859326171875001,1721696324156.0
2.2140000000000057,-0.0770111083984375,6.867596435546876,6.840530395507813,1721696324166.0
2.2239999999999895,-0.14654541015625,8.180972290039064,7.377664184570313,1721696324176.0
2.2340000000000373,0.0901702880859375,7.942013549804688,6.223544311523438,1721696324186.0
2.244000000000028,0.45458984375,7.694082641601563,3.853097534179688,1721696324196.0
2.254000000000019,0.732427978515625,7.454376220703126,4.819998168945313,1721696324206.0
2.26400000000001,0.64599609375,7.079937744140626,7.829861450195313,1721696324216.0
2.274000000000001,0.4308135986328125,7.318746948242188,8.676235961914063,1721696324226.0
2.283999999999992,0.398663330078125,6.173599243164063,7.54080810546875,1721696324236.0
2.2940000000000396,-0.2112945556640625,6.735556030273438,5.579193115234375,1721696324246.0
2.3040000000000305,-0.8813659667968751,6.863708496093751,7.521667480468751,1721696324256.0
2.314000000000022,-1.056622314453125,7.474862670898438,7.287942504882813,1721696324266.0
2.323000000000036,-1.0875762939453126,7.975808715820313,5.026956176757813,1721696324275.0
2.334000000000003,0.5075256347656251,7.188201904296876,5.127743530273438,1721696324286.0
2.3430000000000177,1.182830810546875,7.532434082031251,6.585720825195313,1721696324295.0
2.3530000000000086,0.366363525390625,7.720101928710938,8.754293823242188,1721696324305.0
2.3629999999999995,-0.0629547119140625,6.117523193359375,7.590304565429688,1721696324315.0
2.3729999999999905,0.2525665283203125,6.106457519531251,5.4568725585937505,1721696324325.0
2.3840000000000146,0.6271545410156251,7.444357299804688,7.654156494140626,1721696324336.0
2.393000000000029,-0.352606201171875,7.832403564453125,6.891073608398438,1721696324345.0
2.40300000000002,-1.003387451171875,7.555014038085938,6.528448486328125,1721696324355.0
2.413000000000011,-0.7925415039062501,7.174295043945313,5.498593139648438,1721696324365.0
2.423000000000002,-0.2811279296875,7.430001831054688,5.225241088867188,1721696324375.0
2.4329999999999927,-0.077459716796875,6.960906982421876,8.622851562500001,1721696324385.0
2.4430000000000405,-0.0892730712890625,7.218557739257813,6.863858032226563,1721696324395.0
2.4530000000000314,0.7678680419921876,6.515438842773438,7.553369140625,1721696324405.0
2.4630000000000223,0.8266357421875,6.910064697265626,6.489569091796875,1721696324415.0
2.473000000000013,0.210845947265625,7.492807006835938,6.409567260742188,1721696324425.0
2.483000000000004,-0.424383544921875,7.318896484375,7.535873413085938,1721696324435.0
2.492999999999995,-0.4421783447265625,7.338635253906251,4.979702758789063,1721696324445.0
2.502999999999986,-0.2938385009765625,7.590902709960938,6.561795043945313,1721696324455.0
2.5130000000000337,-0.2358184814453125,7.0314880371093755,6.2434326171875005,1721696324465.0
2.523000000000025,-0.2835205078125,6.719256591796875,7.588211059570313,1721696324475.0
2.5330000000000155,-0.1577606201171875,6.407623291015626,8.674740600585938,1721696324485.0
2.5429999999999993,0.2763427734375,6.8699890136718755,7.002328491210938,1721696324495.0
2.5529999999999973,0.26138916015625,6.929055786132813,7.027151489257813,1721696324505.0
2.562999999999988,0.1807891845703125,7.673446655273438,4.808035278320313,1721696324515.0
2.573000000000036,0.3318206787109375,8.7341064453125,5.369692993164063,1721696324525.0
2.583000000000027,0.9256286621093752,7.917788696289063,5.2923828125000005,1721696324535.0
2.5930000000000177,0.3240447998046875,7.499087524414063,5.4479003906250005,1721696324545.0
2.6030000000000086,0.0459075927734375,5.885592651367188,8.084970092773439,1721696324555.0
2.6129999999999995,-0.329278564453125,6.838436889648438,8.292077636718751,1721696324565.0
2.6229999999999905,0.1272552490234375,7.131228637695313,8.336938476562501,1721696324575.0
2.633000000000038,0.3146240234375,6.971823120117188,5.5017333984375005,1721696324585.0
2.643000000000029,-0.7333251953125001,7.182818603515625,5.8591247558593755,1721696324595.0
2.65300000000002,-1.205560302734375,6.976757812500001,7.575350952148438,1721696324605.0
2.663000000000011,-0.8478698730468751,7.350897216796875,7.107003784179688,1721696324615.0
2.673000000000002,0.01435546875,7.698120117187501,6.5927490234375,1721696324625.0
2.6829999999999927,0.7110443115234375,7.1899963378906255,4.191049194335938,1721696324635.0
2.6930000000000405,0.8587860107421875,6.5140930175781255,6.302947998046876,1721696324645.0
2.7030000000000314,0.744091796875,7.549032592773438,7.910910034179688,1721696324655.0
2.7130000000000223,1.4949127197265626,7.806533813476563,8.098129272460938,1721696324665.0
2.722000000000037,1.3367034912109377,7.886535644531251,5.438180541992188,1721696324674.0
2.7320000000000277,-0.20994873046875,6.908419799804688,4.480551147460938,1721696324684.0
2.742000000000018,-1.7222076416015626,5.912808227539063,7.729971313476563,1721696324694.0
2.7520000000000095,-2.233023071289063,7.376318359375,9.338232421875,1721696324704.0
2.7620000000000005,-1.05811767578125,6.842175292968751,8.2747314453125,1721696324714.0
2.7719999999999914,-0.207257080078125,7.467535400390625,3.9627075195312504,1721696324724.0
2.782000000000032,-0.17406005859375,7.19986572265625,6.247769165039063,1721696324734.0
2.79200000000003,-0.153424072265625,7.114779663085938,7.41519775390625,1721696324744.0
2.802000000000021,0.4744781494140625,7.609893798828126,7.818048095703125,1721696324754.0
2.812000000000012,1.7118896484375,7.097882080078126,5.87198486328125,1721696324764.0
2.8220000000000027,1.8983612060546875,7.500283813476563,3.957473754882813,1721696324774.0
2.8319999999999936,0.8245422363281251,7.11552734375,7.941714477539063,1721696324784.0
2.8420000000000414,-0.6136962890625001,6.900344848632813,8.050128173828126,1721696324794.0
2.8520000000000323,-0.956732177734375,7.211978149414063,7.850347900390625,1721696324804.0
2.862000000000023,-0.6889129638671876,7.091003417968751,5.1732025146484375,1721696324814.0
2.872000000000014,-0.8317199707031251,7.292428588867188,4.450344848632813,1721696324824.0
2.882000000000005,-1.0501922607421876,7.282708740234376,8.462698364257813,1721696324834.0
2.893000000000029,-0.7931396484375001,7.291381835937501,7.826272583007813,1721696324845.0
2.901999999999987,0.1496856689453125,6.384146118164063,7.189248657226563,1721696324854.0
2.9120000000000346,0.7497741699218751,6.342276000976563,6.1345703125,1721696324864.0
2.9220000000000255,0.5890228271484376,6.903634643554688,7.691241455078125,1721696324874.0
2.9320000000000164,0.250323486328125,7.2767272949218755,8.562588500976563,1721696324884.0
2.9420000000000073,0.236865234375,8.1311767578125,5.0336853027343755,1721696324894.0
2.951999999999998,0.8529541015625001,8.2316650390625,3.48897705078125,1721696324904.0
2.961999999999989,0.9920227050781252,8.186505126953126,3.7952270507812504,1721696324914.0
2.972000000000037,0.0832916259765625,7.614080810546875,6.733612060546876,1721696324924.0
2.9820000000000277,-0.0898712158203125,6.340032958984375,9.02884216308594,1721696324934.0
2.992000000000018,-0.093310546875,6.8236328125000005,7.9586120605468755,1721696324944.0
3.0020000000000095,0.176751708984375,5.930154418945313,7.469180297851563,1721696324954.0
3.0120000000000005,-0.65137939453125,6.73271484375,6.656002807617188,1721696324964.0
3.0219999999999914,-1.643252563476563,7.266558837890625,8.308526611328126,1721696324974.0
3.032000000000032,-1.196588134765625,7.22080078125,6.780715942382813,1721696324984.0
3.04200000000003,-0.3303253173828125,7.599127197265625,4.4090728759765625,1721696324994.0
3.052000000000021,0.6213226318359375,8.091549682617188,3.886593627929688,1721696325004.0
3.062000000000012,1.7455352783203126,8.087811279296876,5.3402343750000005,1721696325014.0
3.0710000000000264,2.645294189453125,7.292877197265626,8.521166992187501,1721696325023.0
3.0810000000000173,1.2332244873046876,6.816305541992188,8.616571044921876,1721696325033.0
3.091000000000008,-0.39776611328125,5.541360473632813,7.983135986328126,1721696325043.0
3.101000000000006,-1.5647460937500002,5.831460571289063,7.138107299804688,1721696325053.0
3.11099999999999,-1.885501098632813,7.993603515625001,7.085171508789063,1721696325063.0
3.1210000000000377,-1.5311004638671877,8.29925537109375,5.608502197265626,1721696325073.0
3.1310000000000286,-1.27344970703125,8.160186767578125,4.370492553710938,1721696325083.0
3.1410000000000196,-0.5920135498046876,7.105059814453125,5.713177490234376,1721696325093.0
3.1510000000000105,0.5819946289062501,6.794473266601563,7.378561401367188,1721696325103.0
3.161000000000002,1.7462829589843751,6.3884826660156255,9.589752197265623,1721696325113.0
3.1709999999999923,2.1489837646484378,6.985879516601563,7.344915771484375,1721696325123.0
3.18100000000004,1.5930084228515626,6.776379394531251,6.199468994140625,1721696325133.0
3.191000000000031,0.363372802734375,7.369140625000001,5.840432739257813,1721696325143.0
3.201000000000022,-1.063052368164063,8.047885131835939,6.166571044921875,1721696325153.0
3.2110000000000127,-1.7410491943359376,7.808477783203125,6.340332031250001,1721696325163.0
3.2210000000000036,-1.8029571533203128,6.976757812500001,5.153164672851563,1721696325173.0
3.2309999999999945,-1.2620849609375,6.765911865234376,7.053768920898438,1721696325183.0
3.2410000000000423,-0.4634124755859375,6.6788818359375,8.820089721679688,1721696325193.0
3.251000000000033,0.4071868896484375,6.343472290039063,8.789434814453125,1721696325203.0
3.261000000000024,1.0615570068359377,6.255096435546876,7.4325439453125,1721696325213.0
3.271000000000015,1.2332244873046876,7.096835327148438,6.146084594726563,1721696325223.0
3.281000000000006,0.7843170166015626,7.284652709960938,6.626544189453125,1721696325233.0
3.290999999999997,0.16209716796875,8.262170410156251,5.385992431640625,1721696325243.0
3.3009999999999877,0.16329345703125,9.185855102539064,4.1204681396484375,1721696325253.0
3.3110000000000355,0.7594940185546876,8.167364501953125,3.278280639648438,1721696325263.0
3.3210000000000264,0.2788848876953125,7.908367919921876,4.864260864257813,1721696325273.0
3.3310000000000173,-0.1027313232421875,5.762823486328125,9.361709594726562,1721696325283.0
3.341000000000008,-0.466552734375,5.855386352539063,10.257879638671875,1721696325293.0
3.351000000000006,-0.2492767333984375,5.992959594726563,9.496441650390626,1721696325303.0
3.36099999999999,0.07177734375,6.525308227539063,6.257937622070313,1721696325313.0
3.3710000000000377,-0.9423767089843752,7.810720825195313,5.49754638671875,1721696325323.0
3.3810000000000286,-1.337750244140625,7.602566528320313,6.332406616210938,1721696325333.0
3.3910000000000196,-1.0697814941406252,7.503723144531251,5.8969573974609375,1721696325343.0
3.4010000000000105,-0.191107177734375,8.032034301757813,5.966940307617188,1721696325353.0
3.411000000000002,1.236065673828125,6.794772338867188,4.814166259765625,1721696325363.0
3.4209999999999923,1.8386962890625,7.8120666503906255,5.688803100585938,1721696325373.0
3.4299999999999997,2.26397705078125,7.129882812500001,8.585916137695314,1721696325382.0
3.4399999999999977,1.7802276611328127,7.384841918945313,7.512396240234375,1721696325392.0
3.4499999999999886,0.0001495361328125,6.67947998046875,7.448693847656251,1721696325402.0
3.4610000000000127,-1.275244140625,5.737850952148438,6.263320922851563,1721696325413.0
3.4700000000000273,-2.694940185546875,7.705148315429688,7.365402221679688,1721696325422.0
3.480000000000018,-2.2641265869140628,7.48099365234375,7.373178100585938,1721696325432.0
3.490000000000009,-1.137969970703125,7.908966064453126,4.4584197998046875,1721696325442.0
3.5,-0.5710784912109376,7.395608520507813,6.438128662109375,1721696325452.0
3.509999999999991,0.468646240234375,5.998043823242188,7.280615234375,1721696325462.0
3.5200000000000315,0.7280914306640626,7.345364379882813,8.537167358398438,1721696325472.0
3.5300000000000296,2.25799560546875,6.781015014648438,8.144335937500001,1721696325482.0
3.5400000000000205,2.507720947265625,7.947845458984376,3.886593627929688,1721696325492.0
3.5500000000000114,1.2317291259765626,7.403982543945313,5.983837890625001,1721696325502.0
3.5600000000000023,-0.5015441894531251,7.098629760742188,6.186160278320313,1721696325512.0
3.569999999999993,-1.5897186279296875,7.790383911132813,7.524060058593751,1721696325522.0
3.580000000000041,-1.060211181640625,7.3727294921875,7.283755493164063,1721696325532.0
3.590000000000032,-0.9482086181640624,6.764416503906251,4.0865234375,1721696325542.0
3.6000000000000227,-1.0952026367187502,6.525457763671875,8.194281005859375,1721696325552.0
3.6100000000000136,-1.10238037109375,6.7428833007812505,9.122152709960938,1721696325562.0
3.620000000000005,0.06220703125,6.953878784179688,8.225384521484376,1721696325572.0
3.629999999999995,0.9485076904296876,6.686657714843751,5.980099487304688,1721696325582.0
3.6399999999999864,0.9223388671875,6.818548583984375,4.818502807617188,1721696325592.0
3.650000000000034,0.2749969482421875,7.517181396484376,8.185757446289063,1721696325602.0
3.660000000000025,0.1936492919921875,8.01334228515625,7.015188598632813,1721696325612.0
3.670000000000016,0.7897003173828125,8.482437133789062,4.161441040039063,1721696325622.0
3.68,1.3196563720703125,8.208187866210938,2.786007690429688,1721696325632.0
3.6899999999999977,0.7035675048828125,7.130780029296876,5.121612548828125,1721696325642.0
3.6999999999999886,-0.3907379150390625,6.760528564453126,9.780709838867187,1721696325652.0
3.710000000000037,-0.484197998046875,6.287844848632813,10.295114135742187,1721696325662.0
3.7200000000000273,-0.232080078125,6.1567016601562505,6.919934082031251,1721696325672.0
3.730000000000018,-0.6156402587890626,6.598580932617188,5.76910400390625,1721696325682.0
3.740000000000009,-1.3823120117187502,7.011898803710938,7.329812622070313,1721696325692.0
3.75,-1.512109375,7.7770751953125,7.023861694335938,1721696325702.0
3.759999999999991,-0.314324951171875,8.314807128906251,4.897906494140625,1721696325712.0
3.770000000000031,1.950250244140625,7.773486328125,3.273944091796875,1721696325722.0
3.7800000000000296,2.4905242919921875,7.469329833984376,6.1701599121093755,1721696325732.0
3.7889999999999873,0.8537017822265626,7.176986694335938,9.824224853515624,1721696325741.0
3.799000000000035,-0.241351318359375,5.804544067382813,9.39625244140625,1721696325751.0
3.8100000000000023,-0.322698974609375,5.6976257324218755,6.979898071289063,1721696325762.0
3.819000000000017,-0.6667816162109376,7.453329467773438,5.62315673828125,1721696325771.0
3.829000000000008,-1.5402221679687502,8.287741088867188,6.021371459960938,1721696325781.0
3.840000000000032,-1.794732666015625,8.413650512695312,6.164028930664063,1721696325792.0
3.8489999999999895,-0.9221893310546876,7.220651245117188,5.283709716796875,1721696325801.0
3.8590000000000377,0.23985595703125,6.622357177734376,5.875872802734375,1721696325811.0
3.869000000000028,0.98095703125,6.472073364257813,8.498138427734375,1721696325821.0
3.879000000000019,1.5521850585937502,7.044497680664063,9.138601684570313,1721696325831.0
3.88900000000001,1.67420654296875,6.818249511718751,7.885189819335938,1721696325841.0
3.899000000000001,0.7041656494140626,7.033880615234375,4.670611572265625,1721696325851.0
3.908999999999992,-0.533544921875,7.620211791992188,5.191296386718751,1721696325861.0
3.91900000000004,-1.3468719482421876,8.010949707031251,6.636563110351563,1721696325871.0
3.9290000000000305,-1.2836181640625002,7.829263305664063,6.408670043945313,1721696325881.0
3.941000000000031,-1.0053314208984376,6.922924804687501,6.362612915039063,1721696325893.0
3.949000000000012,-0.4517486572265625,6.427062988281251,6.368594360351563,1721696325901.0
3.959000000000003,0.0183929443359375,6.1746459960937505,9.138003540039064,1721696325911.0
3.968999999999994,0.76502685546875,6.597683715820313,9.15460205078125,1721696325921.0
3.979000000000042,1.0035369873046875,7.0883117675781255,7.131378173828126,1721696325931.0
3.9890000000000327,0.7086517333984376,7.004122924804688,4.799063110351563,1721696325941.0
3.999000000000024,0.2723052978515625,8.340676879882814,4.362118530273438,1721696325951.0
4.0090000000000146,0.1873687744140625,8.884539794921876,5.891574096679688,1721696325961.0
4.0190000000000055,0.366363525390625,8.062838745117189,4.974917602539063,1721696325971.0
4.028999999999996,-0.1591064453125,6.990216064453126,5.6856628417968755,1721696325981.0
4.0400000000000205,-0.112750244140625,6.001483154296875,7.413253784179688,1721696325992.0
4.049000000000035,-0.1843780517578125,6.714920043945313,9.607546997070314,1721696326001.0
4.059000000000026,0.2349212646484375,6.437530517578126,9.385635375976562,1721696326011.0
4.069000000000017,-0.083740234375,6.731817626953125,5.7593841552734375,1721696326021.0
4.079000000000008,-0.781475830078125,7.135864257812501,5.345468139648438,1721696326031.0
4.089000000000006,-0.5864807128906251,7.344168090820313,5.646484375,1721696326041.0
4.0989999999999895,-0.10347900390625,8.801846313476563,6.297415161132813,1721696326051.0
4.109000000000037,0.9784149169921876,7.639801025390626,6.308181762695313,1721696326061.0
4.119000000000028,0.7034179687500001,7.558602905273438,5.148529052734375,1721696326071.0
4.129000000000019,0.141162109375,6.265264892578125,7.478152465820313,1721696326081.0
4.139999999999986,0.1036285400390625,5.8849945068359375,8.829510498046876,1721696326092.0
4.149000000000001,-0.2476318359375,7.166519165039063,9.440664672851565,1721696326101.0
4.158999999999992,-0.2794830322265625,6.858773803710938,6.274237060546875,1721696326111.0
4.167999999999999,-0.6261077880859376,8.185009765625,3.6069610595703128,1721696326120.0
4.177999999999997,-0.5921630859375,7.523611450195313,6.1178222656250005,1721696326130.0
4.187999999999988,-0.687567138671875,7.8958068847656255,5.980398559570313,1721696326140.0
4.198000000000036,-0.353802490234375,6.904531860351563,8.285647583007814,1721696326150.0
4.208000000000027,0.7259979248046875,6.438726806640625,6.556710815429688,1721696326160.0
4.218000000000018,0.9921722412109376,6.819894409179688,7.194183349609376,1721696326170.0
4.228000000000009,0.6847259521484376,6.860717773437501,8.452978515625,1721696326180.0
4.241000000000042,0.00418701171875,7.159939575195313,6.379959106445313,1721696326193.0
4.2479999999999905,-0.0921142578125,7.823730468750001,6.188702392578126,1721696326200.0
4.258000000000038,-0.0162994384765625,7.630081176757813,4.3103790283203125,1721696326210.0
4.268000000000029,-0.2059112548828125,7.681671142578126,5.7134765625,1721696326220.0
4.27800000000002,-0.48988037109375,7.248764038085938,7.725485229492188,1721696326230.0
4.288000000000011,-0.442327880859375,6.5215698242187505,7.389627075195313,1721696326240.0
4.298000000000002,-0.001495361328125,6.343472290039063,8.053866577148439,1721696326250.0
4.307999999999993,-0.0330474853515625,6.519177246093751,7.355233764648438,1721696326260.0
4.3180000000000405,-0.2160797119140625,6.875222778320313,7.476507568359375,1721696326270.0
4.328000000000031,-0.463861083984375,7.736700439453125,6.668563842773438,1721696326280.0
4.340000000000032,0.1562652587890625,7.7537475585937505,4.788296508789063,1721696326292.0
4.348000000000013,0.7150817871093751,8.19398193359375,4.886392211914063,1721696326300.0
4.358000000000004,0.65736083984375,7.721597290039063,5.7021118164062505,1721696326310.0
4.367999999999995,0.66693115234375,6.65555419921875,6.944009399414063,1721696326320.0
4.377999999999986,0.5061798095703125,7.340728759765626,7.772290039062501,1721696326330.0
4.388000000000034,0.9435729980468752,6.676788330078126,7.275830078125001,1721696326340.0
4.398000000000025,0.268267822265625,6.941616821289063,6.4515869140625,1721696326350.0
4.4080000000000155,-0.7659240722656251,6.44560546875,7.168164062500001,1721696326360.0
4.417999999999999,-1.3784240722656251,7.612734985351563,6.310873413085938,1721696326370.0
4.427999999999997,-0.719268798828125,7.679129028320313,6.576000976562501,1721696326380.0
4.437999999999988,0.57960205078125,7.328765869140626,6.050381469726563,1721696326390.0
4.448000000000036,-0.3381011962890625,7.785897827148438,6.463998413085938,1721696326400.0
4.458000000000027,-0.7849151611328126,6.66751708984375,7.500134277343751,1721696326410.0
4.468000000000018,-0.037982177734375,5.91864013671875,7.217062377929688,1721696326420.0
4.478000000000009,0.8928802490234375,7.461404418945313,7.398001098632813,1721696326430.0
4.4879999999999995,1.0875762939453126,7.251007080078126,7.054666137695313,1721696326440.0
4.4979999999999905,-0.027813720703125,7.740737915039063,5.755645751953125,1721696326450.0
4.508000000000038,-0.28651123046875,7.144537353515625,6.303097534179688,1721696326460.0
4.516999999999996,-0.2029205322265625,7.724887084960938,5.7708984375000005,1721696326469.0
4.526999999999987,-0.3712982177734375,7.027600097656251,6.853091430664063,1721696326479.0
4.537000000000035,-0.4390380859375,7.033731079101563,6.7997070312500005,1721696326489.0
4.548000000000002,-0.4529449462890625,6.828567504882813,7.820590209960938,1721696326500.0
4.557999999999993,0.055029296875,6.647927856445313,7.682717895507813,1721696326510.0
4.567000000000007,-0.201873779296875,7.183117675781251,6.645236206054688,1721696326519.0
4.576999999999998,-0.0883758544921875,7.2842041015625005,6.2876953125,1721696326529.0
4.586999999999989,0.0465057373046875,7.156799316406251,5.890078735351563,1721696326539.0
4.598000000000013,0.2334259033203125,7.896255493164063,6.5963378906250005,1721696326550.0
4.607000000000028,0.3506622314453125,7.2243896484375005,6.676937866210938,1721696326559.0
4.617000000000019,0.305352783203125,6.7506591796875,6.215469360351563,1721696326569.0
4.6270000000000095,0.22789306640625,6.875521850585938,7.42117919921875,1721696326579.0
4.6370000000000005,0.1460968017578125,6.958963012695313,7.526602172851563,1721696326589.0
4.646999999999991,-0.015850830078125,6.9970947265625005,7.301101684570313,1721696326599.0
4.657000000000032,-0.47432861328125,7.385739135742188,5.8534423828125,1721696326609.0
4.66700000000003,-0.12381591796875,7.861264038085938,4.892224121093751,1721696326619.0
4.677000000000021,0.24224853515625,8.210131835937501,5.926565551757813,1721696326629.0
4.687000000000012,0.201873779296875,7.154257202148438,6.384445190429688,1721696326639.0
4.697000000000003,-0.0801513671875,6.14114990234375,7.663876342773438,1721696326649.0
4.706999999999994,-0.3123809814453125,6.701312255859375,8.381051635742189,1721696326659.0
4.717000000000041,0.55567626953125,6.8834472656250005,7.445703125,1721696326669.0
4.727000000000032,0.5902191162109376,7.957415771484375,5.709738159179688,1721696326679.0
4.737000000000023,0.1341339111328125,6.87626953125,5.244680786132813,1721696326689.0
4.747000000000014,-0.611602783203125,7.077993774414063,5.846414184570313,1721696326699.0
4.757000000000005,-0.3153717041015625,7.94814453125,7.623052978515625,1721696326709.0
4.766999999999996,0.8635711669921876,7.472769165039063,7.02879638671875,1721696326719.0
4.776999999999987,0.188714599609375,7.750906372070313,5.678933715820313,1721696326729.0
4.787000000000035,-0.4906280517578125,6.127392578125001,6.394165039062501,1721696326739.0
4.7970000000000255,-0.7313812255859375,6.312667846679688,7.725335693359376,1721696326749.0
4.807000000000016,-0.341241455078125,7.488021850585938,9.582424926757811,1721696326759.0
4.817000000000007,0.299969482421875,7.069320678710938,6.364108276367188,1721696326769.0
4.826999999999998,-0.150732421875,7.783505249023438,3.7053558349609377,1721696326779.0
4.836999999999989,0.0979461669921875,6.911410522460938,6.588711547851563,1721696326789.0
4.847000000000037,-0.2050140380859375,7.934237670898438,6.766061401367188,1721696326799.0
4.857000000000028,0.085235595703125,7.050479125976563,8.692385864257814,1721696326809.0
4.867000000000019,0.5519378662109375,6.868942260742188,5.350253295898438,1721696326819.0
4.8770000000000095,0.3241943359375,6.921429443359376,5.7577392578125,1721696326829.0
4.886000000000024,0.1338348388671875,6.982440185546875,8.524157714843751,1721696326838.0
4.896000000000015,-0.5564239501953125,7.377664184570313,7.1855102539062505,1721696326848.0
4.906000000000006,-0.30086669921875,7.314410400390625,7.1062561035156255,1721696326858.0
4.915999999999997,-0.0632537841796875,7.149771118164063,4.029550170898438,1721696326868.0
4.925999999999988,0.026318359375,7.645782470703126,5.878265380859375,1721696326878.0
4.9360000000000355,0.012860107421875,7.066329956054688,8.453875732421876,1721696326888.0
4.946000000000026,-0.0462066650390625,7.247268676757813,7.057058715820313,1721696326898.0
4.956000000000017,0.2525665283203125,6.528598022460938,7.332952880859375,1721696326908.0
4.966000000000008,0.2432952880859375,6.543850708007813,5.563790893554688,1721696326918.0
4.976000000000006,-0.188116455078125,7.361962890625,7.766757202148438,1721696326928.0
4.98599999999999,-0.37982177734375,7.250558471679688,8.025155639648439,1721696326938.0
4.996000000000038,-0.416009521484375,7.889675903320313,4.8904296875,1721696326948.0
5.006000000000029,0.3624755859375,7.484432983398438,5.060751342773438,1721696326958.0
5.0160000000000196,0.5908172607421875,7.528994750976563,5.19608154296875,1721696326968.0
5.0260000000000105,0.1383209228515625,7.331307983398438,8.040856933593751,1721696326978.0
5.036000000000001,0.39896240234375,6.5514770507812505,8.11083984375,1721696326988.0
5.045999999999992,0.390289306640625,6.942962646484376,6.601123046875,1721696326998.0
5.05600000000004,0.4355987548828125,6.773986816406251,6.8012023925781255,1721696327008.0
5.066000000000031,-0.151629638671875,7.054067993164063,6.139355468750001,1721696327018.0
5.076000000000022,-0.8976654052734375,7.928854370117188,6.409866333007813,1721696327028.0
5.086000000000013,-0.085235595703125,7.558901977539063,5.687457275390625,1721696327038.0
5.096000000000004,0.7621856689453126,7.307830810546876,6.033782958984375,1721696327048.0
5.1059999999999945,-0.007476806640625,7.418637084960938,7.845562744140626,1721696327058.0
5.116000000000042,-1.0428649902343752,6.7578369140625005,7.921078491210938,1721696327068.0
5.126000000000033,-0.7701110839843751,5.823834228515626,7.011151123046876,1721696327078.0
5.136000000000024,0.267669677734375,7.3009521484375,6.684414672851563,1721696327088.0
5.146000000000015,0.5012451171875001,7.697671508789063,6.753948974609376,1721696327098.0
5.156000000000006,-0.0587677001953125,7.796365356445313,6.143991088867188,1721696327108.0
5.165999999999997,-0.143853759765625,7.185809326171875,6.103018188476563,1721696327118.0
5.175999999999988,0.295782470703125,7.379159545898438,5.707196044921876,1721696327128.0
5.1860000000000355,0.4406829833984375,6.968084716796875,7.494900512695313,1721696327138.0
5.196000000000026,-0.022430419921875,7.194183349609376,7.108050537109375,1721696327148.0
5.206000000000017,-0.2292388916015625,6.769351196289063,7.464843750000001,1721696327158.0
5.216000000000008,-0.142059326171875,6.735256958007813,7.059451293945313,1721696327168.0
5.226000000000006,-0.51380615234375,7.410412597656251,6.214572143554688,1721696327178.0
5.23599999999999,-0.6030792236328125,7.335494995117188,6.9043823242187505,1721696327188.0
5.2450000000000045,-0.4939178466796875,7.1989685058593755,5.943612670898438,1721696327197.0
5.256000000000029,-0.0216827392578125,7.496694946289063,6.5828796386718755,1721696327208.0
5.264999999999986,0.4188507080078125,6.958364868164063,6.895111083984376,1721696327217.0
5.275000000000034,0.4990020751953125,7.0598999023437505,6.725686645507813,1721696327227.0
5.285000000000025,0.4988525390625,6.579440307617188,7.77109375,1721696327237.0
5.295000000000016,0.4849456787109375,7.070816040039063,6.680526733398438,1721696327247.0
5.305,0.143853759765625,7.217959594726563,7.331906127929688,1721696327257.0
5.314999999999998,-0.27275390625,7.301699829101563,5.7683563232421875,1721696327267.0
5.324999999999989,-0.480010986328125,8.232861328125,4.899700927734376,1721696327277.0
5.335000000000036,0.1902099609375,7.841525268554688,5.7723937988281255,1721696327287.0
5.345000000000027,0.2555572509765625,7.815206909179688,5.5406127929687505,1721696327297.0
5.355000000000018,0.08553466796875,6.133374023437501,7.922573852539063,1721696327307.0
5.365000000000009,-0.095703125,6.107504272460938,8.394509887695314,1721696327317.0
5.375,-0.0312530517578125,7.062142944335938,8.498736572265626,1721696327327.0
5.384999999999991,0.6911560058593751,7.061843872070313,6.557757568359375,1721696327337.0
5.3950000000000315,-0.08553466796875,7.629483032226563,4.929608154296876,1721696327347.0
5.40500000000003,-0.832318115234375,7.257437133789063,6.059054565429688,1721696327357.0
5.4150000000000205,-0.7928405761718751,7.087265014648438,6.514242553710938,1721696327367.0
5.425000000000011,-0.002093505859375,7.870684814453125,6.5568603515625,1721696327377.0
5.435000000000002,1.2248504638671875,7.518228149414063,5.8281707763671875,1721696327387.0
5.444999999999993,1.185223388671875,6.9955993652343755,6.260629272460938,1721696327397.0
5.455000000000041,0.133087158203125,7.460208129882813,8.310919189453125,1721696327407.0
5.465000000000032,-0.351409912109375,6.268405151367188,7.936181640625,1721696327417.0
5.475000000000023,-0.3457275390625,6.564636230468751,6.585421752929688,1721696327427.0
5.485000000000014,-0.7568023681640625,7.320541381835938,6.697872924804688,1721696327437.0
5.4950000000000045,-0.5345916748046875,7.702606201171876,5.490817260742188,1721696327447.0
5.5049999999999955,-0.5659942626953125,8.097531127929688,6.948046875,1721696327457.0
5.514999999999986,-0.18123779296875,6.5831787109375,6.394613647460938,1721696327467.0
5.525000000000034,-0.343634033203125,7.036422729492188,6.298162841796875,1721696327477.0
5.535000000000025,0.3031097412109375,6.644338989257813,8.30643310546875,1721696327487.0
5.545000000000016,1.1001373291015626,7.614529418945313,6.6337219238281255,1721696327497.0
5.555,0.8557952880859375,7.331307983398438,6.986178588867188,1721696327507.0
5.564999999999998,0.311932373046875,6.662582397460938,5.477059936523438,1721696327517.0
5.574999999999989,-0.5015441894531251,7.452581787109375,6.3226867675781255,1721696327527.0
5.585000000000036,-0.0327484130859375,7.715615844726563,7.888180541992188,1721696327537.0
5.595000000000027,-0.106768798828125,7.524209594726563,5.439227294921875,1721696327547.0
5.604000000000042,-0.3132781982421875,6.871932983398438,5.806637573242188,1721696327556.0
5.614000000000033,-0.452496337890625,6.660787963867188,7.062591552734376,1721696327566.0
5.624000000000024,-0.389990234375,7.202557373046876,8.500680541992189,1721696327576.0
5.6340000000000146,0.0327484130859375,6.740939331054688,8.186654663085939,1721696327586.0
5.6440000000000055,-0.0952545166015625,6.594393920898438,5.339337158203126,1721696327596.0
5.653999999999996,-0.14056396484375,7.133621215820313,6.5978332519531255,1721696327606.0
5.663999999999987,0.0011962890625,7.5402099609375,7.309326171875001,1721696327616.0
5.674000000000035,0.2507720947265625,8.419482421875001,5.903387451171875,1721696327626.0
5.684000000000026,0.8601318359375001,7.350747680664063,4.8904296875,1721696327636.0
5.694000000000017,0.8385986328125,7.429852294921876,4.496102905273438,1721696327646.0
5.704000000000008,0.45399169921875,7.0284973144531255,8.071511840820314,1721696327656.0
5.714000000000006,0.29847412109375,6.8583251953125,8.688348388671876,1721696327666.0
5.7239999999999895,-0.13817138671875,7.0509277343750005,7.282708740234376,1721696327676.0
5.734000000000037,-0.2011260986328125,6.4438110351562505,5.947650146484375,1721696327686.0
5.744000000000028,-0.9374420166015626,7.168164062500001,6.1866088867187505,1721696327696.0
5.754000000000019,-1.1073150634765625,7.292279052734376,7.760177612304688,1721696327706.0
5.76400000000001,-0.5301055908203125,7.69871826171875,5.7294769287109375,1721696327716.0
5.774000000000001,0.4927215576171875,7.703802490234375,4.897308349609375,1721696327726.0
5.783999999999992,1.8506591796875,6.891671752929688,6.246572875976563,1721696327736.0
5.79400000000004,0.84158935546875,7.857974243164063,8.269049072265625,1721696327746.0
5.8040000000000305,-0.1984344482421875,6.866549682617188,8.821136474609375,1721696327756.0
5.814000000000021,-0.3958221435546875,5.521322631835938,5.62674560546875,1721696327766.0
5.824000000000012,-0.44442138671875,7.365551757812501,6.303994750976563,1721696327776.0
5.834000000000003,-0.5244232177734376,7.677633666992188,7.571911621093751,1721696327786.0
5.843999999999994,-1.04615478515625,8.22747802734375,6.299508666992188,1721696327796.0
5.854000000000042,-0.7624847412109376,6.952832031250001,6.386538696289063,1721696327806.0
5.864000000000033,-0.0659454345703125,6.974365234375001,4.5571136474609375,1721696327816.0
5.874000000000024,0.44322509765625,6.999786376953126,8.141793823242189,1721696327826.0
5.884999999999991,0.8963195800781251,7.146331787109376,8.120111083984376,1721696327837.0
5.8940000000000055,0.9682464599609376,7.086517333984376,7.075900268554688,1721696327846.0
5.903999999999996,0.76383056640625,6.671255493164063,6.344369506835938,1721696327856.0
5.913999999999987,-0.2787353515625,7.288391113281251,5.50592041015625,1721696327866.0
5.924000000000035,-0.9006561279296875,7.766159057617188,7.648922729492188,1721696327876.0
5.934000000000026,-1.0328460693359376,7.091003417968751,6.437380981445313,1721696327886.0
5.944000000000017,-0.8964691162109376,7.374673461914063,5.65545654296875,1721696327896.0
5.954000000000008,-0.3195587158203125,6.986477661132813,6.782211303710938,1721696327906.0
5.964000000000006,0.190509033203125,6.82841796875,7.217361450195313,1721696327916.0
5.973000000000013,0.535040283203125,6.816754150390626,8.483633422851563,1721696327925.0
5.984000000000037,0.8360565185546875,6.787893676757813,7.08023681640625,1721696327936.0
5.992999999999995,0.7571014404296875,6.8490539550781255,6.260928344726563,1721696327945.0
6.002999999999986,0.269464111328125,7.637109375,6.1402526855468755,1721696327955.0
6.013000000000034,-0.0743194580078125,8.069567871093751,5.486181640625,1721696327965.0
6.024000000000001,0.023626708984375,8.440417480468751,5.151220703125,1721696327976.0
6.0330000000000155,0.017047119140625,7.724288940429688,4.775137329101563,1721696327985.0
6.042999999999999,0.0856842041015625,6.483288574218751,6.858773803710938,1721696327995.0
6.052999999999997,-0.5274139404296876,6.493307495117188,9.18450927734375,1721696328005.0
6.062999999999988,-0.1626953125,6.06279296875,9.347503662109377,1721696328015.0
6.073000000000036,0.16927490234375,7.1047607421875005,6.942214965820313,1721696328025.0
6.083000000000027,0.2241546630859375,7.220651245117188,5.4583679199218755,1721696328035.0
6.093000000000018,-0.30565185546875,7.584173583984375,5.5111541748046875,1721696328045.0
6.103000000000009,-0.8743377685546876,7.569818115234376,6.518728637695313,1721696328055.0
6.1129999999999995,-0.006878662109375,6.803146362304688,6.563290405273438,1721696328065.0
6.1229999999999905,0.5263671875,8.644683837890625,5.0984344482421875,1721696328075.0
6.133000000000038,1.6556640625,6.873129272460938,6.144439697265626,1721696328085.0
6.143000000000029,1.052734375,7.494152832031251,7.2139221191406255,1721696328095.0
6.15300000000002,-0.472833251953125,6.9755615234375,8.974261474609376,1721696328105.0
6.163000000000011,-0.5164978027343751,5.1951843261718755,7.529443359375,1721696328115.0
6.173000000000002,-1.1363250732421877,7.688101196289063,6.302947998046876,1721696328125.0
6.182999999999993,-0.5583679199218751,7.174145507812501,6.879559326171876,1721696328135.0
6.1930000000000405,-0.5348907470703126,8.601318359375,4.722201538085938,1721696328145.0
6.203000000000031,-0.5567230224609375,7.326971435546875,6.912008666992188,1721696328155.0
6.213000000000022,-0.00897216796875,6.381753540039063,5.96051025390625,1721696328165.0
6.223000000000013,-0.062506103515625,7.208688354492188,7.920181274414063,1721696328175.0
6.233000000000004,1.37872314453125,6.690097045898438,8.224636840820313,1721696328185.0
6.242999999999995,1.040771484375,7.655651855468751,6.0568115234375,1721696328195.0
6.252999999999986,0.4798614501953125,6.863858032226563,6.467288208007813,1721696328205.0
6.263000000000034,-0.313726806640625,6.846511840820313,5.626596069335938,1721696328215.0
6.273000000000025,-0.59156494140625,8.202655029296876,7.343270874023438,1721696328225.0
6.2830000000000155,-0.0940582275390625,7.428506469726563,6.706246948242188,1721696328235.0
6.292999999999999,-0.3533538818359375,7.346859741210938,4.234265136718751,1721696328245.0
6.302999999999997,-0.227593994140625,6.571066284179688,7.3105224609375,1721696328255.0
6.312999999999988,-0.27335205078125,6.877316284179688,8.283554077148438,1721696328265.0
6.323000000000036,0.041571044921875,6.974365234375001,8.925662231445314,1721696328275.0
6.333000000000027,0.026019287109375,6.471026611328125,6.603964233398438,1721696328285.0
6.343000000000018,-0.1852752685546875,6.646133422851563,4.9140563964843755,1721696328295.0
6.353000000000009,-0.20396728515625,7.674044799804688,7.878909301757813,1721696328305.0
6.362000000000023,-0.162396240234375,7.889974975585938,6.711032104492188,1721696328314.0
6.372000000000014,0.3648681640625,8.161083984375,4.889233398437501,1721696328324.0
6.382000000000005,0.8928802490234375,7.589407348632813,4.0826354980468755,1721696328334.0
6.391999999999996,1.062603759765625,7.17593994140625,5.623605346679688,1721696328344.0
6.401999999999987,0.4681976318359375,7.0030761718750005,9.3992431640625,1721696328354.0
6.412000000000035,0.2438934326171875,6.440969848632813,8.689843750000001,1721696328364.0
6.4220000000000255,-0.1161895751953125,6.737948608398438,6.344668579101563,1721696328374.0
6.432999999999993,-0.3446807861328125,6.882101440429688,6.12320556640625,1721696328385.0
6.442000000000007,-1.1010345458984376,7.36734619140625,6.609197998046875,1721696328394.0
6.451999999999998,-1.5496429443359376,7.568023681640626,7.031039428710938,1721696328404.0
6.461999999999989,-0.6963897705078126,7.5144897460937505,5.286102294921875,1721696328414.0
6.472000000000037,1.0974456787109377,7.3709350585937505,5.120565795898438,1721696328424.0
6.482000000000028,1.7693115234375,7.160238647460938,7.5264526367187505,1721696328434.0
6.492000000000019,0.47073974609375,7.473965454101563,8.852090454101564,1721696328444.0
6.5020000000000095,-0.2109954833984375,6.123953247070313,7.453778076171876,1721696328454.0
6.5120000000000005,0.322100830078125,6.30264892578125,5.498593139648438,1721696328464.0
6.521999999999991,0.009271240234375,8.137008666992188,6.469830322265626,1721696328474.0
6.5330000000000155,-0.7134368896484375,7.69871826171875,6.879110717773438,1721696328485.0
6.54200000000003,-1.3933776855468751,7.548733520507813,6.2389465332031255,1721696328494.0
6.552000000000021,-0.7597930908203125,6.830062866210938,6.117074584960938,1721696328504.0
6.562000000000012,0.1434051513671875,7.131826782226563,6.609945678710938,1721696328514.0
6.572000000000003,0.169873046875,7.037319946289063,8.016931152343751,1721696328524.0
6.581999999999994,0.5301055908203125,6.946850585937501,7.093695068359375,1721696328534.0
6.592000000000041,0.8551971435546876,7.0613952636718755,6.7757812500000005,1721696328544.0
6.602000000000032,0.8003173828125001,7.14842529296875,6.03587646484375,1721696328554.0
6.612000000000023,-0.0943572998046875,7.426263427734376,6.653759765625001,1721696328564.0
6.622000000000014,-0.7497741699218751,7.310971069335938,6.989169311523438,1721696328574.0
6.632000000000005,-0.7379608154296875,7.158294677734376,6.108551025390625,1721696328584.0
6.641999999999996,-0.5055816650390625,7.440768432617188,6.4393249511718755,1721696328594.0
6.651999999999987,-0.194097900390625,7.072012329101563,6.488372802734376,1721696328604.0
6.662000000000035,-0.1033294677734375,6.635815429687501,7.5010314941406255,1721696328614.0
6.6720000000000255,0.2552581787109375,7.134518432617188,7.594790649414063,1721696328624.0
6.682000000000016,0.7494750976562501,6.785800170898438,6.803146362304688,1721696328634.0
6.692000000000007,0.8451782226562501,7.218258666992188,6.207095336914063,1721696328644.0
6.701999999999998,0.2803802490234375,7.864703369140625,6.145486450195313,1721696328654.0
6.711999999999989,0.1804901123046875,7.364056396484376,5.8322082519531255,1721696328664.0
6.721000000000004,-0.1208251953125,8.050726318359375,5.738897705078125,1721696328673.0
6.733000000000004,-0.1434051513671875,7.130032348632813,6.4602600097656255,1721696328685.0
6.741000000000042,-0.2115936279296875,6.6770874023437505,6.637759399414063,1721696328693.0
6.751000000000033,-0.7050628662109375,6.8595214843750005,8.406622314453125,1721696328703.0
6.761000000000024,0.007476806640625,6.465942382812501,7.771243286132813,1721696328713.0
6.771000000000015,-0.021832275390625,7.508508300781251,6.687405395507813,1721696328723.0
6.781000000000006,0.2420989990234375,6.983187866210938,5.994754028320313,1721696328733.0
6.790999999999997,-0.12261962890625,7.550079345703126,5.663082885742188,1721696328743.0
6.800999999999988,-0.0785064697265625,6.88883056640625,6.639553833007813,1721696328753.0
6.8110000000000355,0.6120513916015625,7.917938232421876,6.049932861328125,1721696328763.0
6.821000000000026,0.8975158691406251,7.446600341796875,7.002029418945313,1721696328773.0
6.833000000000027,0.637921142578125,7.602716064453125,6.424969482421876,1721696328785.0
6.841000000000008,-0.724652099609375,6.829165649414063,6.918588256835938,1721696328793.0
6.851000000000006,-0.6141448974609376,5.954678344726563,6.820791625976563,1721696328803.0
6.86099999999999,-0.7449890136718751,7.438674926757813,8.313311767578126,1721696328813.0
6.871000000000038,-0.4246826171875,7.063040161132813,7.346261596679688,1721696328823.0
6.881000000000029,-0.1149932861328125,7.762271118164063,5.042507934570313,1721696328833.0
6.8910000000000196,-0.1891632080078125,7.1735473632812505,6.2464233398437505,1721696328843.0
6.9010000000000105,0.173760986328125,7.056610107421876,6.152813720703126,1721696328853.0
6.911000000000001,-0.0249725341796875,7.496096801757813,8.274880981445314,1721696328863.0
6.920999999999992,0.6986328125000001,7.069769287109375,6.465344238281251,1721696328873.0
6.932999999999993,0.8179626464843751,7.080386352539063,5.7668609619140625,1721696328885.0
6.941000000000031,0.2588470458984375,7.248016357421876,7.000683593750001,1721696328893.0
6.951000000000022,-0.311334228515625,6.643890380859376,7.113134765625,1721696328903.0
6.961000000000013,-0.5988922119140625,7.772140502929688,7.601220703125,1721696328913.0
6.971000000000004,-0.106170654296875,7.181472778320313,5.828619384765625,1721696328923.0
6.9809999999999945,-0.0420196533203125,7.410711669921875,4.656405639648438,1721696328933.0
6.991000000000042,-0.1057220458984375,7.0434509277343755,7.177136230468751,1721696328943.0
7.001000000000033,-0.192303466796875,7.238296508789063,7.942312622070313,1721696328953.0
7.011000000000024,-0.0288604736328125,6.660787963867188,8.006912231445312,1721696328963.0
7.021000000000015,0.16209716796875,6.631927490234376,6.177935791015625,1721696328973.0
7.0330000000000155,-0.10347900390625,6.698919677734375,6.438278198242188,1721696328985.0
7.040999999999997,-0.237762451171875,7.591201782226563,7.852890014648438,1721696328993.0
7.050999999999988,-0.3449798583984375,7.783206176757813,6.392071533203126,1721696329003.0
7.0610000000000355,0.45997314453125,7.60660400390625,4.68167724609375,1721696329013.0
7.069999999999993,0.680389404296875,8.099325561523438,4.6658264160156255,1721696329022.0
7.080000000000041,0.7393066406250001,6.810324096679688,6.704901123046875,1721696329032.0
7.090000000000032,0.2954833984375,7.0927978515625005,8.265908813476564,1721696329042.0
7.100000000000023,0.1867706298828125,6.68546142578125,8.275030517578125,1721696329052.0
7.110000000000014,0.385504150390625,6.661685180664063,6.1761413574218755,1721696329062.0
7.1200000000000045,-0.4816558837890625,7.238446044921876,6.390725708007813,1721696329072.0
7.133000000000038,-0.8528045654296875,7.0673767089843755,6.968084716796875,1721696329085.0
7.139999999999986,-1.05213623046875,7.353289794921875,6.421530151367188,1721696329092.0
7.150000000000034,-0.411822509765625,8.240039062500001,4.8856445312500005,1721696329102.0
7.160000000000025,1.2647766113281251,6.979598999023438,5.909368896484375,1721696329112.0
7.170000000000016,1.3384979248046875,7.495050048828125,7.273886108398438,1721696329122.0
7.18,0.20875244140625,7.363159179687501,8.752947998046876,1721696329132.0
7.189999999999998,-0.5790039062500001,5.699420166015625,7.517031860351563,1721696329142.0
7.199999999999989,-0.2953338623046875,6.1447387695312505,5.740243530273438,1721696329152.0
7.210000000000036,-0.01734619140625,7.857675170898438,7.626492309570313,1721696329162.0
7.220000000000027,-0.7499237060546875,8.258282470703126,6.239544677734376,1721696329172.0
7.230000000000018,-0.9483581542968752,7.552920532226563,6.11363525390625,1721696329182.0
7.240000000000009,-0.6519775390625,6.941915893554688,4.997348022460938,1721696329192.0
7.25,0.26796875,7.076199340820313,6.607852172851563,1721696329202.0
7.259999999999991,0.536834716796875,6.90916748046875,9.089105224609376,1721696329212.0
7.270000000000032,0.7334747314453125,7.213323974609375,6.936383056640626,1721696329222.0
7.28000000000003,1.0190887451171875,6.6217590332031255,7.143341064453126,1721696329232.0
7.2900000000000205,0.296978759765625,7.0673767089843755,5.2793731689453125,1721696329242.0
7.300000000000011,-0.4329071044921875,7.697372436523438,6.873727416992188,1721696329252.0
7.310000000000002,-0.9821533203125,7.420132446289063,7.307232666015626,1721696329262.0
7.319999999999993,-0.8302246093750001,7.290933227539063,5.237353515625,1721696329272.0
7.330000000000041,-0.6323883056640626,7.0748535156250005,6.886587524414063,1721696329282.0
7.340000000000032,-0.2863616943359375,6.93369140625,6.553271484375,1721696329292.0
7.350000000000023,0.0183929443359375,6.625796508789063,8.675936889648439,1721696329302.0
7.360000000000014,0.5025909423828125,6.747070312500001,7.737747192382813,1721696329312.0
7.3700000000000045,0.7955322265625001,6.928158569335938,6.4064270019531255,1721696329322.0
7.3799999999999955,0.5504425048828125,6.824081420898438,6.629983520507813,1721696329332.0
7.389999999999986,0.0593658447265625,7.878460693359376,5.5290985107421875,1721696329342.0
7.400000000000034,0.176153564453125,8.617169189453126,5.9099670410156255,1721696329352.0
7.410000000000025,0.70281982421875,8.340228271484376,3.8803131103515622,1721696329362.0
7.420000000000016,0.3904388427734375,7.661483764648438,4.750613403320313,1721696329372.0
7.4290000000000305,0.127703857421875,5.810675048828125,7.982388305664063,1721696329381.0
7.439000000000021,-0.6975860595703125,6.740640258789063,9.69293212890625,1721696329391.0
7.449999999999989,-0.129498291015625,6.05980224609375,9.919329833984376,1721696329402.0
7.459000000000003,0.070880126953125,6.924420166015626,5.307186889648438,1721696329411.0
7.468999999999994,-0.5725738525390626,7.5025268554687505,5.472723388671875,1721696329421.0
7.479000000000042,-0.8836090087890626,7.4361328125,6.185562133789063,1721696329431.0
7.489000000000033,-0.8148223876953126,7.291082763671875,6.30205078125,1721696329441.0
7.499000000000024,0.340045166015625,8.32557373046875,6.036923217773438,1721696329451.0
7.5090000000000146,1.76033935546875,7.150967407226563,5.1413513183593755,1721696329461.0
7.519000000000005,1.6448974609375002,7.5638366699218755,6.734957885742188,1721696329471.0
7.528999999999996,0.2385101318359375,6.81107177734375,8.70419921875,1721696329481.0
7.538999999999987,-0.2735015869140625,5.8187500000000005,7.769448852539063,1721696329491.0
7.549000000000035,-0.6077148437500001,6.8998962402343755,7.754794311523438,1721696329501.0
7.559000000000026,-0.9177032470703126,7.25908203125,6.056362915039063,1721696329511.0
7.569000000000017,-1.1448486328125,8.242730712890626,5.1323791503906255,1721696329521.0
7.579000000000008,-1.0682861328125002,7.628735351562501,6.601870727539063,1721696329531.0
7.589000000000006,-0.38460693359375,7.07066650390625,5.488125610351563,1721696329541.0
7.598999999999989,0.005084228515625,6.865652465820313,8.048483276367188,1721696329551.0
7.609000000000037,1.0845855712890626,6.532186889648438,7.562939453125001,1721696329561.0
7.619000000000028,1.2731506347656252,7.328018188476563,7.3589721679687505,1721696329571.0
7.629000000000019,1.1720642089843751,6.893466186523438,7.004272460937501,1721696329581.0
7.63900000000001,0.2746978759765625,7.180426025390625,5.281018066406251,1721696329591.0
7.649000000000001,-0.4098785400390625,7.953677368164063,6.677685546875001,1721696329601.0
7.658999999999992,-0.3724945068359375,7.547686767578125,5.99639892578125,1721696329611.0
7.66900000000004,-0.6733612060546875,7.655352783203125,5.488125610351563,1721696329621.0
7.6790000000000305,-0.4936187744140625,6.589010620117188,6.92412109375,1721696329631.0
7.689000000000021,-0.5103668212890625,6.889279174804688,7.5503784179687505,1721696329641.0
7.699000000000012,-0.221014404296875,6.532485961914063,8.912054443359375,1721696329651.0
7.709000000000003,0.0686370849609375,6.5484863281250005,7.188201904296876,1721696329661.0
7.718999999999994,-0.0423187255859375,6.903335571289063,6.282012939453126,1721696329671.0
7.729000000000042,0.110955810546875,7.249212646484375,6.792977905273438,1721696329681.0
7.739000000000033,-0.063104248046875,8.196075439453125,5.866302490234375,1721696329691.0
7.749000000000024,0.5479003906250001,7.921826171875001,5.572763061523438,1721696329701.0
7.7590000000000146,0.8369537353515626,7.589407348632813,4.630984497070313,1721696329711.0
7.769000000000005,0.62027587890625,7.529443359375,5.928958129882813,1721696329721.0
7.778999999999996,0.7970275878906251,6.590505981445313,7.8718811035156255,1721696329731.0
7.788000000000011,0.317315673828125,7.306784057617188,7.873077392578126,1721696329740.0
7.798000000000002,0.0994415283203125,6.290386962890626,7.661633300781251,1721696329750.0
7.807999999999993,-0.6916046142578125,6.649722290039063,6.387286376953125,1721696329760.0
7.81800000000004,-1.3564422607421875,7.128985595703125,7.061993408203126,1721696329770.0
7.828000000000031,-0.9824523925781252,7.6430908203125005,5.8715362548828125,1721696329780.0
7.838000000000022,-0.3336151123046875,8.031585693359375,5.5006866455078125,1721696329790.0
7.848000000000013,0.9740783691406252,7.072909545898438,6.180029296875,1721696329800.0
7.858000000000004,0.5923126220703125,7.478900146484375,7.242034912109376,1721696329810.0
7.867999999999995,0.0650482177734375,7.035226440429688,8.195925903320314,1721696329820.0
7.877999999999986,0.43963623046875,5.656353759765626,6.8104736328125,1721696329830.0
7.888000000000034,0.4553375244140625,7.440469360351563,6.583328247070313,1721696329840.0
7.898000000000025,0.1782470703125,7.375570678710938,7.280914306640626,1721696329850.0
7.908000000000016,-0.719268798828125,7.876666259765625,5.93179931640625,1721696329860.0
7.917999999999999,-0.8874969482421876,7.437927246093751,6.242984008789063,1721696329870.0
7.927999999999997,-0.51978759765625,7.144387817382813,5.4164978027343755,1721696329880.0
7.937999999999988,-0.4055419921875,7.132873535156251,7.216015625000001,1721696329890.0
7.948000000000036,-0.003887939453125,6.872531127929688,7.795468139648438,1721696329900.0
7.958000000000027,0.436346435546875,7.0593017578125,7.389477539062501,1721696329910.0
7.968000000000018,0.7762420654296875,6.701461791992188,7.226483154296876,1721696329920.0
7.978000000000009,0.168377685546875,6.985879516601563,5.846414184570313,1721696329930.0
7.988,-0.17764892578125,7.696026611328126,6.772640991210938,1721696329940.0
7.9979999999999905,-0.1218719482421875,7.378262329101563,6.54429931640625,1721696329950.0
8.008000000000038,-0.2259490966796875,7.632324218750001,5.660092163085938,1721696329960.0
8.018000000000029,-0.289202880859375,7.076199340820313,6.504223632812501,1721696329970.0
8.02800000000002,-0.2835205078125,6.731518554687501,6.7593322753906255,1721696329980.0
8.038000000000011,0.0348419189453125,6.822586059570313,8.259478759765626,1721696329990.0
8.048000000000002,0.3252410888671875,6.97197265625,7.431646728515625,1721696330000.0
8.057999999999993,0.360980224609375,6.730322265625,6.611740112304688,1721696330010.0
8.06800000000004,-0.0740203857421875,7.400094604492188,6.171804809570313,1721696330020.0
8.078000000000031,-0.03409423828125,7.666119384765626,5.685064697265625,1721696330030.0
8.088000000000022,0.4415802001953125,8.242730712890626,5.996847534179688,1721696330040.0
8.098000000000013,0.2555572509765625,7.879656982421875,5.356533813476563,1721696330050.0
8.108000000000004,0.223406982421875,6.260629272460938,6.344219970703126,1721696330060.0
8.117999999999995,-0.3790740966796875,6.865203857421876,8.155999755859376,1721696330070.0
8.127999999999986,0.10347900390625,6.738995361328126,8.561541748046876,1721696330080.0
8.137,0.4391876220703125,7.389178466796875,6.659890747070313,1721696330089.0
8.148000000000025,0.037384033203125,6.979898071289063,5.555715942382813,1721696330100.0
8.157000000000032,-0.521881103515625,7.143939208984375,5.906228637695313,1721696330109.0
8.16700000000003,-0.9438720703125,7.2886901855468755,7.318746948242188,1721696330119.0
8.177999999999997,0.0620574951171875,7.0497314453125,6.515887451171875,1721696330130.0
8.187000000000012,0.6572113037109375,7.905526733398438,5.849853515625,1721696330139.0
8.197000000000003,1.02462158203125,7.185958862304688,6.492559814453125,1721696330149.0
8.206999999999994,-0.0399261474609375,7.655651855468751,7.290036010742188,1721696330159.0
8.217000000000041,-0.495562744140625,6.578842163085938,7.177136230468751,1721696330169.0
8.227000000000032,0.1152923583984375,6.451437377929688,6.920382690429688,1721696330179.0
8.237000000000023,-0.586181640625,7.349252319335938,7.1511169433593755,1721696330189.0
8.247000000000014,-0.0713287353515625,7.22618408203125,6.215618896484376,1721696330199.0
8.257000000000005,-0.3850555419921875,8.163027954101564,6.764416503906251,1721696330209.0
8.266999999999996,0.026617431640625,6.602169799804688,5.995053100585938,1721696330219.0
8.276999999999987,-0.338848876953125,7.191342163085938,6.409567260742188,1721696330229.0
8.287000000000035,-0.3422882080078125,6.970626831054688,7.761822509765626,1721696330239.0
8.297000000000025,0.7947845458984376,7.438973999023438,6.755593872070313,1721696330249.0
8.307000000000016,0.6267059326171875,7.436581420898438,6.816455078125,1721696330259.0
8.317000000000007,0.232379150390625,6.543701171875001,5.710336303710938,1721696330269.0
8.326999999999998,-0.5191894531250001,6.948196411132813,7.082479858398438,1721696330279.0
8.336999999999989,-0.014056396484375,7.919583129882813,7.839132690429688,1721696330289.0
8.347000000000037,0.4038970947265625,7.3105224609375,5.7963195800781255,1721696330299.0
8.357000000000028,0.0862823486328125,7.338485717773438,4.89581298828125,1721696330309.0
8.367000000000019,-0.3183624267578125,6.81346435546875,6.8266235351562505,1721696330319.0
8.37700000000001,-0.42288818359375,7.015936279296875,8.246319580078126,1721696330329.0
8.387,-0.050244140625,7.094143676757813,8.307479858398438,1721696330339.0
8.396999999999991,-0.08912353515625,6.399548339843751,6.159841918945313,1721696330349.0
8.407000000000032,-0.4347015380859375,6.812118530273438,5.955874633789063,1721696330359.0
8.41700000000003,-0.4966094970703125,7.549630737304688,7.756289672851563,1721696330369.0
8.427000000000021,0.0426177978515625,7.932144165039063,6.410614013671876,1721696330379.0
8.437000000000012,0.7841674804687501,8.036968994140626,4.862316894531251,1721696330389.0
8.447000000000003,1.0069763183593752,7.33145751953125,4.547842407226563,1721696330399.0
8.456999999999994,0.6338836669921876,6.719854736328125,6.812567138671875,1721696330409.0
8.467000000000041,0.190509033203125,7.310971069335938,9.112283325195314,1721696330419.0
8.477000000000032,0.466552734375,6.7787719726562505,7.825225830078126,1721696330429.0
8.487000000000023,0.1472930908203125,7.173397827148438,5.095144653320313,1721696330439.0
8.497000000000014,-0.5755645751953126,6.600973510742188,6.169561767578125,1721696330449.0
8.507000000000005,-1.2113922119140623,7.316204833984376,7.305587768554688,1721696330459.0
8.516999999999996,-1.1877655029296876,7.947845458984376,6.921429443359376,1721696330469.0
8.52600000000001,0.5935089111328126,7.307083129882813,5.4299560546875005,1721696330478.0
8.537000000000035,1.2703094482421875,7.198519897460938,5.770001220703126,1721696330489.0
8.547000000000025,0.176751708984375,7.158444213867188,7.819842529296875,1721696330499.0
8.55600000000004,-0.405242919921875,6.765463256835938,8.669955444335939,1721696330508.0
8.566000000000031,0.0025421142578125,6.394314575195313,6.961505126953125,1721696330518.0
8.576000000000022,0.6208740234375001,7.249362182617188,5.631680297851563,1721696330528.0
8.586000000000013,-0.305950927734375,7.5249572753906255,5.9353881835937505,1721696330538.0
8.596000000000004,-0.8698516845703126,7.706643676757813,7.177584838867188,1721696330548.0
8.605999999999995,-0.5703308105468751,7.54320068359375,7.090106201171875,1721696330558.0
8.616000000000042,-0.005084228515625,7.111639404296875,5.518331909179688,1721696330568.0
8.626000000000033,0.0653472900390625,6.5568603515625,6.597085571289063,1721696330578.0
8.636000000000024,-0.1466949462890625,7.333102416992188,7.108050537109375,1721696330588.0
8.646000000000015,0.6416595458984375,7.201510620117188,8.633319091796876,1721696330598.0
8.656000000000006,0.635528564453125,6.976010131835938,6.543252563476563,1721696330608.0
8.665999999999997,-0.055926513671875,6.974066162109375,5.106210327148438,1721696330618.0
8.675999999999988,-0.5993408203125,7.234259033203125,6.986776733398438,1721696330628.0
8.686000000000035,-0.3698028564453125,7.61796875,6.839633178710938,1721696330638.0
8.696000000000026,-0.0952545166015625,7.569219970703125,7.164724731445313,1721696330648.0
8.706000000000017,-0.2758941650390625,6.7506591796875,5.479153442382813,1721696330658.0
8.716000000000008,-0.3049041748046875,6.640451049804688,6.5903564453125005,1721696330668.0
8.726000000000006,-0.0500946044921875,6.848605346679688,8.844015502929688,1721696330678.0
8.73599999999999,0.5019927978515626,7.283157348632813,7.389328002929688,1721696330688.0
8.746000000000038,0.4021026611328125,6.878662109375001,6.6516662597656255,1721696330698.0
8.756000000000029,0.0665435791015625,7.141098022460938,4.801455688476563,1721696330708.0
8.76600000000002,-0.01734619140625,7.996594238281251,6.034979248046875,1721696330718.0
8.77600000000001,0.6585571289062501,8.215216064453125,6.545944213867188,1721696330728.0
8.786000000000001,0.4508514404296875,8.276675415039064,4.91136474609375,1721696330738.0
8.795999999999992,0.354400634765625,5.966043090820313,6.017333984375,1721696330748.0
8.80600000000004,-0.2684173583984375,6.516336059570313,7.798309326171876,1721696330758.0
8.816000000000031,-0.43604736328125,6.98692626953125,10.00037841796875,1721696330768.0
8.826000000000022,0.186920166015625,6.943411254882813,7.399197387695313,1721696330778.0
8.836000000000013,-0.2642303466796875,7.267156982421875,4.529598999023438,1721696330788.0
8.846000000000004,-0.6711181640625,7.061993408203126,5.678036499023438,1721696330798.0
8.855999999999995,-0.97677001953125,7.308877563476563,7.281661987304688,1721696330808.0
8.866000000000042,-0.2763427734375,7.459759521484376,7.785748291015626,1721696330818.0
8.87700000000001,0.834112548828125,7.470376586914063,4.955029296875001,1721696330829.0
8.884999999999991,1.6066162109375002,7.579388427734376,4.380960083007813,1721696330837.0
8.895000000000032,1.5119598388671875,6.86490478515625,7.709783935546875,1721696330847.0
8.90500000000003,0.2690155029296875,7.932742309570313,8.77777099609375,1721696330857.0
8.91500000000002,-0.3757843017578125,6.1895996093750005,8.189047241210938,1721696330867.0
8.925000000000011,-0.716278076171875,6.202011108398438,4.7151733398437505,1721696330877.0
8.935000000000002,-1.4466125488281252,7.4292541503906255,6.703256225585938,1721696330887.0
8.944999999999993,-1.0814453125,7.814907836914063,7.621408081054688,1721696330897.0
8.955000000000041,-0.9802093505859376,8.076895141601563,6.6367126464843755,1721696330907.0
8.965000000000032,-0.1305450439453125,6.312817382812501,5.734262084960938,1721696330917.0
8.975000000000023,0.102880859375,6.8879333496093755,5.458218383789063,1721696330927.0
8.985000000000014,0.7980743408203126,7.184613037109376,9.05830078125,1721696330937.0
8.995000000000005,1.6294952392578126,7.559649658203125,7.701409912109376,1721696330947.0
9.004999999999995,1.191204833984375,7.279867553710938,5.624951171875001,1721696330957.0
9.014999999999986,0.4813568115234375,6.4811950683593755,4.970281982421875,1721696330967.0
9.025000000000034,-0.5474517822265625,7.623352050781251,6.6950317382812505,1721696330977.0
9.035000000000023,-0.6002380371093751,8.024258422851563,8.596832275390625,1721696330987.0
9.045000000000016,-0.6416595458984375,7.096237182617188,5.609249877929688,1721696330997.0
9.055,-0.7692138671875001,6.714620971679688,4.927664184570313,1721696331007.0
9.064999999999998,-0.7046142578125001,6.768005371093751,7.655502319335938,1721696331017.0
9.074999999999989,-0.463861083984375,7.069918823242188,8.89859619140625,1721696331027.0
9.085000000000036,0.15491943359375,6.8655029296875005,8.229272460937501,1721696331037.0
9.095000000000027,0.3324188232421875,6.453979492187501,5.152117919921875,1721696331047.0
9.105000000000018,0.4350006103515625,7.130630493164063,5.884396362304688,1721696331057.0
9.115000000000007,0.275146484375,7.963696289062501,7.7806640625,1721696331067.0
9.125,0.4771697998046875,8.024407958984376,5.994903564453125,1721696331077.0
9.134999999999993,0.6866699218750001,7.988519287109376,4.412362670898438,1721696331087.0
9.145000000000032,0.8388977050781251,7.247418212890626,4.1547119140625,1721696331097.0
9.15500000000003,0.4146636962890625,7.055264282226563,7.379458618164063,1721696331107.0
9.16500000000002,-0.247332763671875,7.0942932128906255,9.572106933593751,1721696331117.0
9.175000000000011,-0.245538330078125,6.2284790039062505,7.933041381835938,1721696331127.0
9.185000000000002,-0.5100677490234375,6.723593139648438,5.9548278808593755,1721696331137.0
9.194999999999991,-0.7584472656250001,6.670059204101563,6.645385742187501,1721696331147.0
9.20500000000004,-1.1384185791015626,7.605856323242188,7.182369995117188,1721696331157.0
9.215000000000032,-0.7463348388671875,7.891470336914063,6.0390167236328125,1721696331167.0
9.225000000000025,0.910076904296875,7.71068115234375,4.222900390625,1721696331177.0
9.235000000000014,1.908380126953125,7.231567382812501,5.82891845703125,1721696331187.0
9.245000000000005,1.1043243408203125,7.352990722656251,8.510848999023438,1721696331197.0
9.25400000000002,-0.1559661865234375,6.671853637695313,8.704049682617189,1721696331206.0
9.26400000000001,-0.1795928955078125,5.8894805908203125,7.078890991210938,1721696331216.0
9.274,-0.12919921875,7.295269775390626,5.92880859375,1721696331226.0
9.283999999999992,-1.0367340087890626,7.730270385742188,6.384594726562501,1721696331236.0
9.29400000000004,-1.524072265625,7.918087768554688,6.487625122070313,1721696331246.0
9.30400000000003,-1.0756134033203126,7.386935424804688,6.079241943359375,1721696331256.0
9.31400000000002,0.1876678466796875,7.00546875,5.783459472656251,1721696331266.0
9.324999999999989,0.6123504638671875,6.747518920898438,7.510601806640626,1721696331277.0
9.334000000000003,0.7850646972656251,6.948196411132813,7.837786865234375,1721696331286.0
9.343999999999994,1.2148315429687502,6.954476928710938,8.148522949218751,1721696331296.0
9.354000000000042,0.94088134765625,7.048086547851563,6.011801147460938,1721696331306.0
9.364000000000033,-0.0035888671875,7.28001708984375,5.299710083007813,1721696331316.0
9.374000000000024,-1.03419189453125,7.656250000000001,6.651367187500001,1721696331326.0
9.384000000000016,-1.1491851806640625,7.46903076171875,6.445455932617188,1721696331336.0
9.394000000000004,-0.8169158935546875,7.3604675292968755,6.887036132812501,1721696331346.0
9.403999999999996,-0.5016937255859375,6.847708129882813,6.198422241210938,1721696331356.0
9.413999999999987,-0.0562255859375,6.41031494140625,7.270745849609376,1721696331366.0
9.425000000000011,0.4218414306640625,6.717611694335938,8.626889038085938,1721696331377.0
9.434000000000026,0.9538909912109376,7.290783691406251,7.456619262695313,1721696331386.0
9.444000000000017,0.9453674316406252,6.863708496093751,6.114382934570313,1721696331396.0
9.454000000000008,0.407037353515625,7.8973022460937505,4.460214233398438,1721696331406.0
9.464000000000006,0.2286407470703125,8.146878051757813,5.798114013671875,1721696331416.0
9.47399999999999,0.200079345703125,8.178430175781251,5.910116577148438,1721696331426.0
9.484000000000036,-0.277239990234375,7.185659790039063,6.118719482421875,1721696331436.0
9.494000000000028,-0.3768310546875,6.204104614257813,6.7787719726562505,1721696331446.0
9.50400000000002,-0.6480895996093751,6.758734130859375,8.351443481445314,1721696331456.0
9.51400000000001,0.102880859375,6.651815795898438,8.860314941406251,1721696331466.0
9.525000000000034,0.081646728515625,7.080535888671876,6.822885131835938,1721696331477.0
9.533999999999992,-0.370849609375,6.732266235351563,5.5062194824218755,1721696331486.0
9.54400000000004,-0.2045654296875,7.294671630859376,5.3402343750000005,1721696331496.0
9.55400000000003,0.3668121337890625,8.441165161132814,7.076797485351563,1721696331506.0
9.56400000000002,1.1071655273437502,7.879208374023438,6.545196533203126,1721696331516.0
9.574000000000012,-0.0462066650390625,7.317550659179688,5.399899291992188,1721696331526.0
9.584000000000003,-0.2633331298828125,5.878115844726563,6.0624938964843755,1721696331536.0
9.593999999999994,-0.0255706787109375,6.839633178710938,8.808425903320312,1721696331546.0
9.603000000000009,-0.050244140625,7.356130981445313,9.854730224609376,1721696331555.0
9.613,-0.268865966796875,6.72733154296875,5.737252807617188,1721696331565.0
9.625,-0.844281005859375,7.576397705078126,4.17205810546875,1721696331577.0
9.633000000000038,-0.0450103759765625,7.473965454101563,6.23087158203125,1721696331585.0
9.643000000000027,-0.0808990478515625,8.202804565429688,6.869689941406251,1721696331595.0
9.65300000000002,-0.1380218505859375,6.973019409179688,7.50133056640625,1721696331605.0
9.663000000000013,0.4438232421875,6.404483032226563,5.581884765625,1721696331615.0
9.673000000000002,0.7452880859375001,7.070068359375001,7.189248657226563,1721696331625.0
9.682999999999993,0.624761962890625,6.9627014160156255,8.845062255859375,1721696331635.0
9.69300000000004,-0.4233367919921875,7.1286865234375005,6.87926025390625,1721696331645.0
9.703000000000031,-0.5836395263671875,7.132723999023438,6.0774475097656255,1721696331655.0
9.713000000000022,-0.091217041015625,7.671652221679688,4.4322509765625,1721696331665.0
9.725000000000025,0.002691650390625,8.194430541992189,6.064288330078125,1721696331677.0
9.733000000000004,-0.0025421142578125,6.934439086914063,7.328018188476563,1721696331685.0
9.742999999999997,-0.1997802734375,6.802249145507813,6.917391967773438,1721696331695.0
9.752999999999986,0.2791839599609375,6.643142700195313,7.89012451171875,1721696331705.0
9.763000000000034,0.5618072509765626,6.575552368164063,7.000384521484375,1721696331715.0
9.773000000000025,-0.06878662109375,7.231866455078125,7.093545532226563,1721696331725.0
9.783000000000015,-0.4233367919921875,6.940121459960938,7.024758911132813,1721696331735.0
9.793,-0.6922027587890626,7.867694091796875,5.6228576660156255,1721696331745.0
9.802999999999995,-0.0035888671875,7.640997314453125,5.779421997070313,1721696331755.0
9.812999999999988,0.313726806640625,7.598379516601563,5.583529663085938,1721696331765.0
9.824999999999989,0.0276641845703125,7.335195922851563,6.619515991210938,1721696331777.0
9.833000000000029,0.6111541748046876,6.453082275390625,7.569369506835938,1721696331785.0
9.843000000000018,0.5878265380859375,7.210183715820313,7.367794799804688,1721696331795.0
9.853000000000009,0.8025604248046876,6.817352294921876,7.095489501953126,1721696331805.0
9.863,0.1257598876953125,7.069769287109375,6.296218872070313,1721696331815.0
9.87299999999999,-0.6198272705078125,6.9970947265625005,6.397604370117188,1721696331825.0
9.883000000000038,-0.6634918212890626,7.939321899414063,5.3761230468750005,1721696331835.0
9.893000000000027,0.11424560546875,7.619464111328125,6.525308227539063,1721696331845.0
9.90300000000002,0.6951934814453126,7.370486450195313,6.797463989257813,1721696331855.0
9.913000000000013,-0.7938873291015626,7.256539916992188,7.437927246093751,1721696331865.0
9.925000000000011,-1.020135498046875,5.968136596679688,7.563537597656251,1721696331877.0
9.932999999999993,-0.13876953125,6.454876708984376,7.050778198242188,1721696331885.0
9.94300000000004,0.5438629150390626,7.656997680664063,7.519424438476563,1721696331895.0
9.953000000000031,0.41810302734375,7.430599975585938,5.936734008789063,1721696331905.0
9.963000000000022,-0.2127899169921875,7.794570922851563,5.767758178710938,1721696331915.0
9.973000000000011,0.30086669921875,7.393215942382813,6.057708740234375,1721696331925.0
9.982000000000028,0.3596343994140625,7.488470458984375,6.36844482421875,1721696331934.0
9.99200000000002,-0.15970458984375,6.641049194335938,7.571762084960938,1721696331944.0
10.00200000000001,-0.4649078369140625,6.841876220703125,6.693087768554688,1721696331954.0
10.012,-0.0497955322265625,6.945504760742188,7.8150573730468755,1721696331964.0
10.025000000000034,0.115142822265625,7.227828979492188,7.126293945312501,1721696331977.0
10.032000000000032,-0.7242034912109375,7.246820068359376,6.1716552734375005,1721696331984.0
10.04200000000003,-0.8115325927734376,7.084573364257813,6.135467529296876,1721696331994.0
10.05200000000002,-0.131292724609375,7.27403564453125,6.271096801757813,1721696332004.0
10.062000000000012,0.5193389892578125,7.81595458984375,6.95103759765625,1721696332014.0
10.072000000000005,0.616986083984375,6.9462524414062505,6.591253662109375,1721696332024.0
10.081999999999994,0.241949462890625,6.375323486328125,6.788940429687501,1721696332034.0
10.09200000000004,0.1902099609375,6.733612060546876,7.792327880859376,1721696332044.0
10.102000000000032,0.35948486328125,7.081134033203125,8.107400512695314,1721696332054.0
10.112000000000023,-0.13338623046875,7.4157958984375005,6.415249633789063,1721696332064.0
10.122000000000014,-0.6596038818359375,7.455722045898438,4.498495483398438,1721696332074.0
10.132000000000003,-0.1638916015625,8.090054321289063,4.732669067382813,1721696332084.0
10.141999999999996,0.427374267578125,8.563186645507812,6.227581787109376,1721696332094.0
10.151999999999989,0.6151916503906251,7.152761840820313,6.573159790039063,1721696332104.0
10.162000000000036,0.2462860107421875,5.713626098632813,7.330111694335938,1721696332114.0
10.172000000000024,-0.192901611328125,6.340032958984375,8.727676391601562,1721696332124.0
10.182000000000016,0.4355987548828125,6.736752319335938,8.696871948242189,1721696332134.0
10.192000000000007,0.1686767578125,7.939770507812501,6.3678466796875,1721696332144.0
10.201999999999998,-0.4098785400390625,7.167715454101563,4.522122192382813,1721696332154.0
10.211999999999987,-1.1301940917968751,7.673596191406251,4.9922637939453125,1721696332164.0
10.222000000000037,-0.8574401855468751,7.145285034179688,7.638006591796875,1721696332174.0
10.232000000000028,-0.039178466796875,7.377365112304688,7.404132080078125,1721696332184.0
10.24200000000002,0.5221801757812501,6.585272216796875,5.952584838867188,1721696332194.0
10.25200000000001,1.500146484375,7.392318725585938,5.3776184082031255,1721696332204.0
10.262,1.493865966796875,7.512396240234375,7.777523803710938,1721696332214.0
10.271999999999991,0.9171051025390624,8.134466552734375,7.603164672851563,1721696332224.0
10.282000000000032,-0.459674072265625,6.368893432617188,6.913952636718751,1721696332234.0
10.29200000000003,-1.2625335693359376,6.1282897949218755,5.277578735351563,1721696332244.0
10.300999999999988,-1.642205810546875,7.393215942382813,8.04324951171875,1721696332253.0
10.312000000000012,-0.9842468261718752,7.512844848632813,7.221997070312501,1721696332264.0
10.322000000000005,-0.25301513671875,8.097381591796875,5.8461151123046875,1721696332274.0
10.331999999999994,-0.1075164794921875,6.6645263671875,6.505270385742188,1721696332284.0
10.34200000000004,-0.0456085205078125,6.524411010742188,5.7309722900390625,1721696332294.0
10.351000000000006,0.3306243896484375,7.164724731445313,9.29920349121094,1721696332303.0
10.36099999999999,1.517642211914063,7.797860717773438,6.608450317382813,1721696332313.0
10.371000000000038,1.6605987548828127,7.333700561523438,5.029049682617188,1721696332323.0
10.381000000000029,0.490179443359375,7.0060668945312505,5.477508544921875,1721696332333.0
10.39100000000002,-0.7277923583984376,7.0090576171875005,7.133920288085938,1721696332343.0
10.40100000000001,-0.78775634765625,7.596286010742188,9.132470703125,1721696332353.0
10.411,-0.5012451171875001,7.195230102539063,5.92581787109375,1721696332363.0
10.420999999999992,-0.4418792724609375,6.863558959960938,4.3043975830078125,1721696332373.0
10.43100000000004,-0.6959411621093751,6.9178405761718755,7.38828125,1721696332383.0
10.441000000000033,-0.57840576171875,7.293176269531251,8.516531372070313,1721696332393.0
10.451000000000022,0.097198486328125,6.678732299804688,8.4063232421875,1721696332403.0
10.461000000000013,0.380718994140625,6.554617309570313,5.776431274414063,1721696332413.0
10.471000000000004,0.059515380859375,6.758883666992188,5.970379638671876,1721696332423.0
10.480999999999996,-0.052935791015625,7.449142456054688,7.773486328125,1721696332433.0
10.491000000000042,0.256903076171875,8.56064453125,6.335696411132813,1721696332443.0
10.501000000000031,1.047650146484375,8.147775268554689,4.3343048095703125,1721696332453.0
10.511000000000024,1.1396148681640623,7.822235107421876,3.117080688476563,1721696332463.0
10.521000000000017,0.49346923828125,6.628338623046876,6.8131652832031255,1721696332473.0
10.531000000000006,0.043963623046875,6.654058837890625,10.078436279296875,1721696332483.0
10.540999999999997,-0.158209228515625,7.086965942382813,9.1875,1721696332493.0
10.550999999999988,0.157611083984375,6.287844848632813,5.3749267578125,1721696332503.0
10.561000000000035,-0.6727630615234376,7.247119140625,4.8621673583984375,1721696332513.0
10.571000000000026,-1.556072998046875,6.978253173828126,8.072259521484376,1721696332523.0
10.581000000000016,-1.56295166015625,7.393215942382813,7.734307861328125,1721696332533.0
10.591000000000008,-0.5483489990234376,7.620361328125001,5.7469726562500005,1721696332543.0
10.601000000000006,1.7305816650390626,7.152761840820313,4.006222534179688,1721696332553.0
10.61099999999999,1.7486755371093752,7.974163818359376,6.663778686523438,1721696332563.0
10.621000000000038,0.5848358154296875,7.366149902343751,9.105105590820314,1721696332573.0
10.631000000000029,0.2811279296875,6.151467895507813,7.304241943359376,1721696332583.0
10.64100000000002,0.2500244140625,6.4871765136718755,6.463400268554688,1721696332593.0
10.65100000000001,-0.2836700439453125,7.088012695312501,6.226385498046875,1721696332603.0
10.661,-1.179541015625,8.033679199218751,6.8789611816406255,1721696332613.0
10.670999999999992,-1.403994750976563,7.7537475585937505,7.135714721679688,1721696332623.0
10.68100000000004,-0.6862213134765626,7.064236450195313,5.145538330078125,1721696332633.0
10.691000000000033,-0.3964202880859375,6.997842407226563,6.12918701171875,1721696332643.0
10.699999999999989,0.276043701171875,6.7533508300781255,7.557556152343751,1721696332652.0
10.710000000000036,0.9188995361328126,7.467385864257813,8.107699584960939,1721696332662.0
10.720000000000027,1.4198455810546875,6.762023925781251,7.431347656250001,1721696332672.0
10.730000000000018,0.7548583984375,6.759481811523438,5.343972778320313,1721696332682.0
10.740000000000007,-0.264080810546875,7.405178833007813,6.579589843750001,1721696332692.0
10.75,-0.454888916015625,7.596585083007813,7.269848632812501,1721696332702.0
10.759999999999993,-0.7448394775390625,7.855432128906251,5.818301391601563,1721696332712.0
10.770000000000032,-0.5689849853515625,7.059750366210938,5.509957885742188,1721696332722.0
10.78000000000003,-0.547003173828125,6.831259155273438,6.260928344726563,1721696332732.0
10.79000000000002,-0.198583984375,6.880606079101563,8.604159545898439,1721696332742.0
10.800000000000011,0.37025146484375,6.600076293945313,8.471969604492188,1721696332752.0
10.810000000000002,0.6296966552734375,6.774435424804688,6.615927124023438,1721696332762.0
10.819999999999991,0.561956787109375,7.2124267578125005,5.8271240234375,1721696332772.0
10.83000000000004,0.33914794921875,7.674642944335938,5.5959411621093755,1721696332782.0
10.840000000000032,0.1924530029296875,8.416641235351562,6.2718444824218755,1721696332792.0
10.850000000000025,0.124114990234375,7.466488647460938,5.737551879882813,1721696332802.0
10.860000000000014,-0.2086029052734375,7.0957885742187505,5.5500335693359375,1721696332812.0
10.870000000000005,-0.3074462890625,6.490765380859376,7.584622192382813,1721696332822.0
10.879999999999995,-0.1033294677734375,7.0090576171875005,8.344564819335938,1721696332832.0
10.889999999999986,0.0306549072265625,7.023114013671876,8.00855712890625,1721696332842.0
10.900000000000034,0.25540771484375,6.810623168945313,5.797515869140625,1721696332852.0
10.910000000000023,-0.402252197265625,7.310372924804688,5.72843017578125,1721696332862.0
10.920000000000016,-0.27813720703125,6.740191650390625,6.902438354492188,1721696332872.0
10.93,-0.1102081298828125,7.634567260742188,6.737500000000001,1721696332882.0
10.939999999999998,0.4653564453125,7.921826171875001,6.269451904296876,1721696332892.0
10.949999999999989,1.1366241455078123,7.498040771484376,5.23077392578125,1721696332902.0
10.960000000000036,0.1227691650390625,7.773635864257813,6.625497436523438,1721696332912.0
10.970000000000027,-0.123516845703125,6.299209594726563,7.618118286132813,1721696332922.0
10.980000000000018,-0.6464447021484375,6.399099731445313,8.006015014648439,1721696332932.0
10.990000000000007,-0.686370849609375,6.7129760742187505,8.090802001953126,1721696332942.0
11.0,-0.04366455078125,7.508956909179688,5.6367645263671875,1721696332952.0
11.009999999999993,-0.14415283203125,8.313461303710938,5.651867675781251,1721696332962.0
11.020000000000032,-0.0743194580078125,6.744079589843751,6.395809936523438,1721696332972.0
11.03000000000003,-0.87149658203125,7.456320190429688,6.1791320800781255,1721696332982.0
11.04000000000002,0.119329833984375,6.631777954101563,8.061642456054688,1721696332992.0
11.050000000000011,1.0938568115234375,7.683615112304688,6.333602905273438,1721696333002.0
11.059000000000026,0.9363952636718752,7.089208984375,6.676937866210938,1721696333011.0
11.069000000000017,0.1661346435546875,6.461456298828126,6.794323730468751,1721696333021.0
11.079000000000008,-0.6715667724609375,7.22618408203125,7.045843505859375,1721696333031.0
11.089000000000006,0.0737213134765625,7.567575073242188,7.796066284179688,1721696333041.0
11.09899999999999,0.076263427734375,7.699914550781251,4.518682861328125,1721696333051.0
11.109000000000036,-0.1057220458984375,7.25369873046875,5.2250915527343755,1721696333061.0
11.119000000000028,-0.4873382568359375,6.89481201171875,7.257586669921875,1721696333071.0
11.12900000000002,-0.3935791015625,7.172500610351563,8.15570068359375,1721696333081.0
11.13900000000001,0.1078155517578125,6.493008422851563,8.571560668945313,1721696333091.0
11.149,-0.0641510009765625,6.415100097656251,5.70689697265625,1721696333101.0
11.158999999999992,-0.40853271484375,7.20225830078125,6.865652465820313,1721696333111.0
11.16900000000004,-0.236865234375,7.390524291992188,7.376467895507813,1721696333121.0
11.17900000000003,0.1472930908203125,8.357873535156251,5.576202392578125,1721696333131.0
11.18900000000002,0.8043548583984376,7.444656372070313,5.24273681640625,1721696333141.0
11.199000000000012,0.7023712158203126,7.686456298828125,4.23905029296875,1721696333151.0
11.209000000000003,0.6084625244140626,6.875820922851563,7.688250732421875,1721696333161.0
11.218999999999994,0.7176239013671876,7.141995239257813,8.512643432617189,1721696333171.0
11.229000000000042,0.2319305419921875,6.88883056640625,7.459759521484376,1721696333181.0
11.239000000000033,0.0590667724609375,6.315658569335938,5.953631591796875,1721696333191.0
11.249000000000024,-0.8738891601562501,7.221548461914063,5.855386352539063,1721696333201.0
11.259000000000016,-0.9891815185546876,7.673596191406251,6.935336303710938,1721696333211.0
11.269000000000004,-0.2370147705078125,7.596585083007813,7.041058349609376,1721696333221.0
11.278999999999996,0.036187744140625,7.332653808593751,6.231768798828125,1721696333231.0
11.288999999999987,-0.1547698974609375,7.139602661132813,6.283358764648438,1721696333241.0
11.299000000000037,-0.4753753662109375,6.832754516601563,7.389477539062501,1721696333251.0
11.309000000000026,0.3541015625,6.531738281250001,7.626342773437501,1721696333261.0
11.319000000000017,0.6395660400390626,7.40562744140625,7.150219726562501,1721696333271.0
11.329000000000008,0.5597137451171875,7.186407470703125,5.8775177001953125,1721696333281.0
11.339000000000006,0.13458251953125,7.579537963867188,6.3854919433593755,1721696333291.0
11.34899999999999,-0.282025146484375,7.572509765625001,6.469979858398438,1721696333301.0
11.359000000000036,-0.2238555908203125,7.207641601562501,6.48448486328125,1721696333311.0
11.369000000000028,-0.6527252197265625,6.9791503906250005,6.548037719726563,1721696333321.0
11.37900000000002,-0.2860626220703125,6.9911132812500005,6.466690063476563,1721696333331.0
11.38900000000001,-0.021533203125,7.041506958007813,8.386883544921876,1721696333341.0
11.399,-0.1021331787109375,6.992459106445313,7.023861694335938,1721696333351.0
11.408999999999992,-0.2423980712890625,6.847857666015625,6.4970458984375,1721696333361.0
11.41900000000004,-0.126806640625,7.264315795898438,6.216665649414063,1721696333371.0
11.42900000000003,0.3285308837890625,7.470974731445313,6.310574340820313,1721696333381.0
11.43900000000002,0.2199676513671875,7.584323120117188,7.0419555664062505,1721696333391.0
11.448000000000036,0.154620361328125,7.168164062500001,5.8625640869140625,1721696333400.0
11.458000000000029,0.2193695068359375,6.620114135742188,6.782061767578125,1721696333410.0
11.468000000000018,0.2986236572265625,7.173995971679688,7.182220458984376,1721696333420.0
11.478000000000009,0.167181396484375,7.0987792968750005,7.783355712890626,1721696333430.0
11.488,-0.155218505859375,6.794622802734375,6.807034301757813,1721696333440.0
11.49799999999999,-0.5130584716796875,7.661184692382813,5.231820678710938,1721696333450.0
11.508000000000038,0.1428070068359375,7.736999511718751,5.758636474609375,1721696333460.0
11.518000000000027,0.399560546875,8.254843139648438,5.84207763671875,1721696333470.0
11.52800000000002,0.0261688232421875,6.7506591796875,6.958663940429688,1721696333480.0
11.538000000000013,-0.1401153564453125,6.075503540039063,7.360317993164063,1721696333490.0
11.548000000000002,-0.3557464599609375,6.9866271972656255,8.34710693359375,1721696333500.0
11.557999999999993,0.7061096191406251,7.0120483398437505,7.352392578125,1721696333510.0
11.56800000000004,0.347222900390625,7.852291870117188,5.49515380859375,1721696333520.0
11.578000000000031,-0.23507080078125,7.012646484375001,5.462704467773438,1721696333530.0
11.588000000000022,-0.590069580078125,7.290036010742188,6.271096801757813,1721696333540.0
11.598000000000011,-0.2851654052734375,7.072311401367188,7.415646362304688,1721696333550.0
11.608000000000004,0.6376220703125001,7.490264892578126,6.067129516601563,1721696333560.0
11.617999999999997,0.7702606201171875,7.441366577148438,6.1507202148437505,1721696333570.0
11.627999999999986,0.775494384765625,7.144387817382813,6.7294250488281255,1721696333580.0
11.638000000000034,-0.3102874755859375,7.659091186523438,7.761074829101563,1721696333590.0
11.648000000000025,-0.4998992919921875,6.220254516601563,7.322036743164063,1721696333600.0
11.658000000000015,-0.658856201171875,6.622207641601563,6.5114013671875,1721696333610.0
11.668,-1.1444000244140626,7.176089477539063,6.884045410156251,1721696333620.0
11.677999999999995,0.0494964599609375,7.771841430664063,6.304592895507813,1721696333630.0
11.687999999999988,0.032000732421875,8.098129272460938,6.901690673828125,1721696333640.0
11.698000000000036,0.2307342529296875,6.358724975585938,5.6352691650390625,1721696333650.0
11.708000000000029,-0.445318603515625,6.951187133789063,6.877316284179688,1721696333660.0
11.718000000000018,0.30206298828125,7.012347412109375,7.97386474609375,1721696333670.0
11.728000000000009,1.2867584228515625,7.808328247070313,6.791931152343751,1721696333680.0
11.738,0.6851745605468751,7.3963562011718755,5.89471435546875,1721696333690.0
11.74799999999999,-0.2130889892578125,6.352444458007813,5.498294067382813,1721696333700.0
11.758000000000038,-0.88465576171875,7.295718383789063,7.682269287109375,1721696333710.0
11.768000000000027,-0.1299468994140625,7.758233642578125,8.178430175781251,1721696333720.0
11.77800000000002,0.1197784423828125,7.164276123046876,5.381954956054688,1721696333730.0
11.787000000000036,-0.08074951171875,7.0419555664062505,4.977908325195313,1721696333739.0
11.797000000000024,-0.423486328125,6.940869140625001,7.415945434570313,1721696333749.0
11.807999999999993,-0.2089019775390625,7.041656494140626,8.462847900390626,1721696333760.0
11.817000000000007,0.0740203857421875,6.868942260742188,8.081979370117189,1721696333769.0
11.826999999999998,-0.0916656494140625,6.282910156250001,5.802151489257813,1721696333779.0
11.836999999999987,-0.4110748291015625,7.330410766601563,6.1058593750000005,1721696333789.0
11.847000000000037,-0.22550048828125,7.849002075195313,7.325027465820313,1721696333799.0
11.857000000000028,0.6002380371093751,8.11502685546875,5.566781616210938,1721696333809.0
11.86700000000002,0.8357574462890626,7.964144897460938,4.7839599609375005,1721696333819.0
11.87700000000001,0.8942260742187501,6.702359008789063,5.125051879882813,1721696333829.0
11.887,0.4092803955078125,7.039263916015625,7.846160888671876,1721696333839.0
11.896999999999991,0.4248321533203125,7.271792602539063,9.248361206054687,1721696333849.0
11.907000000000032,0.414813232421875,6.668563842773438,6.702658081054688,1721696333859.0
11.91700000000003,-0.5408721923828126,6.897055053710938,5.4733215332031255,1721696333869.0
11.92700000000002,-1.045257568359375,6.495251464843751,6.690695190429688,1721696333879.0
11.937000000000012,-1.4135650634765626,7.924816894531251,7.247418212890626,1721696333889.0
11.947000000000005,-0.4840484619140625,7.831207275390626,6.6038146972656255,1721696333899.0
11.956999999999994,0.9948638916015624,7.000384521484375,4.902243041992188,1721696333909.0
11.96700000000004,0.657659912109375,7.470974731445313,6.474465942382813,1721696333919.0
11.977000000000032,0.141461181640625,7.140948486328125,8.647225952148439,1721696333929.0
11.987000000000023,0.0805999755859375,6.332705688476563,7.691241455078125,1721696333939.0
11.997000000000014,0.5072265625000001,6.830810546875001,6.352294921875001,1721696333949.0
12.007000000000003,0.28232421875,7.233959960937501,5.88394775390625,1721696333959.0
12.016999999999996,-0.5289093017578126,7.909564208984375,6.409716796875,1721696333969.0
12.02800000000002,-0.7852142333984375,7.574005126953126,7.598529052734375,1721696333980.0
12.037000000000036,-0.6763519287109375,7.256838989257813,5.421282958984375,1721696333989.0
12.047000000000024,-0.27454833984375,6.767108154296875,6.189450073242188,1721696333999.0
12.057000000000016,-0.0958526611328125,7.031787109375,7.231716918945313,1721696334009.0
12.067000000000007,0.262286376953125,7.334896850585938,7.966836547851563,1721696334019.0
12.076999999999998,0.6471923828125,6.688003540039063,7.866049194335938,1721696334029.0
12.086999999999987,0.2498748779296875,6.990066528320313,5.07645263671875,1721696334039.0
12.097000000000037,0.0767120361328125,7.270297241210938,6.601123046875,1721696334049.0
12.107000000000028,-0.115142822265625,7.581332397460938,6.903036499023438,1721696334059.0
12.11700000000002,-0.247930908203125,7.688250732421875,6.373080444335938,1721696334069.0
12.12700000000001,-0.3141754150390625,6.8343994140625,6.3600708007812505,1721696334079.0
12.137,-0.2896514892578125,6.940719604492188,5.87796630859375,1721696334089.0
12.146000000000017,-0.0982452392578125,6.962103271484375,8.413052368164063,1721696334098.0
12.156000000000006,0.1580596923828125,6.9223266601562505,7.494601440429688,1721696334108.0
12.165999999999997,0.2412017822265625,6.944308471679688,6.729574584960938,1721696334118.0
12.175999999999988,0.2181732177734375,7.01085205078125,6.20335693359375,1721696334128.0
12.186000000000035,0.1431060791015625,7.903881835937501,5.4508911132812505,1721696334138.0
12.196000000000026,0.43963623046875,7.806085205078125,6.513494873046875,1721696334148.0
12.206000000000016,0.36845703125,7.859768676757813,5.3242340087890625,1721696334158.0
12.21700000000004,0.07177734375,6.789837646484376,6.5709167480468755,1721696334169.0
12.226000000000006,-0.0447113037109375,6.354837036132813,7.439422607421876,1721696334178.0
12.23599999999999,-0.446514892578125,7.280764770507813,8.22269287109375,1721696334188.0
12.246000000000038,0.2172760009765625,6.928906250000001,7.3607666015625,1721696334198.0
12.256000000000029,-0.023028564453125,7.252203369140625,5.5495849609375005,1721696334208.0
12.26600000000002,-0.5896209716796875,7.035675048828126,6.227731323242188,1721696334218.0
12.27600000000001,-0.5749664306640625,7.0473388671875,6.860867309570313,1721696334228.0
12.286,-0.11005859375,7.363308715820313,6.898251342773438,1721696334238.0
12.295999999999992,0.9870880126953124,7.792477416992188,5.631381225585938,1721696334248.0
12.30600000000004,1.1950927734375,7.2889892578125,5.944061279296875,1721696334258.0
12.317000000000007,0.4006072998046875,7.511050415039063,7.025207519531251,1721696334269.0
12.326000000000022,-0.21712646484375,6.966140747070313,7.8943115234375005,1721696334278.0
12.336000000000013,-0.3219512939453125,6.367248535156251,6.9073730468750005,1721696334288.0
12.346000000000004,-0.613995361328125,6.920532226562501,6.79312744140625,1721696334298.0
12.355999999999996,-0.8110839843750001,7.245474243164063,6.866549682617188,1721696334308.0
12.366000000000042,-0.5912658691406251,7.953228759765626,6.497793579101563,1721696334318.0
12.376000000000031,-0.240753173828125,7.05272216796875,6.7398925781250005,1721696334328.0
12.386000000000024,-0.1969390869140625,7.097134399414063,5.33365478515625,1721696334338.0
12.396000000000017,0.0393280029296875,6.90079345703125,7.690792846679688,1721696334348.0
12.406000000000006,0.8616271972656251,7.4684326171875,7.131378173828126,1721696334358.0
12.41700000000003,1.0458557128906252,7.316653442382813,6.956271362304688,1721696334369.0
12.425999999999988,0.587078857421875,6.797613525390625,6.050830078125,1721696334378.0
12.436000000000035,-0.2385101318359375,6.915597534179688,5.9792022705078125,1721696334388.0
12.446000000000026,-0.16927490234375,7.7058959960937505,8.124597167968751,1721696334398.0
12.456000000000016,-0.1993316650390625,7.605258178710938,6.128887939453126,1721696334408.0
12.466000000000008,-0.3213531494140625,7.153659057617188,5.280718994140625,1721696334418.0
12.476000000000006,-0.5432647705078125,6.737948608398438,6.498989868164063,1721696334428.0
12.48599999999999,-0.5389282226562501,7.258782958984376,7.7507568359375005,1721696334438.0
12.496000000000038,-0.004486083984375,6.721649169921876,8.810968017578126,1721696334448.0
12.506000000000029,-0.04844970703125,6.706845092773438,6.261975097656251,1721696334458.0
12.516999999999996,-0.0189910888671875,6.617721557617188,6.309527587890625,1721696334469.0
12.52600000000001,0.051141357421875,7.593743896484376,7.129135131835938,1721696334478.0
12.536,0.174658203125,8.206243896484375,6.160739135742188,1721696334488.0
12.545000000000016,0.9395355224609376,7.592248535156251,5.226287841796875,1721696334497.0
12.555,0.5378814697265626,7.883096313476563,4.482046508789063,1721696334507.0
12.564999999999998,0.5819946289062501,6.49405517578125,6.896157836914063,1721696334517.0
12.574999999999989,0.15372314453125,7.362112426757813,8.298208618164063,1721696334527.0
12.585000000000036,0.088824462890625,6.909915161132813,8.182467651367189,1721696334537.0
12.595000000000027,0.08314208984375,6.513943481445313,5.96708984375,1721696334547.0
12.605000000000018,-0.8973663330078125,6.8894287109375005,6.2912841796875005,1721696334557.0
12.61700000000002,-0.8931793212890625,6.973617553710938,7.250259399414063,1721696334569.0
12.625,-0.9172546386718752,8.232711791992188,6.192141723632813,1721696334577.0
12.634999999999993,0.7478302001953125,7.350448608398438,5.9338928222656255,1721696334587.0
12.645000000000032,1.1804382324218752,7.415646362304688,5.753701782226563,1721696334597.0
12.65500000000003,-0.0988433837890625,7.545742797851563,7.228427124023438,1721696334607.0
12.66500000000002,-0.081048583984375,5.9667907714843755,8.390023803710939,1721696334617.0
12.675000000000011,0.0079254150390625,6.79552001953125,6.833352661132813,1721696334627.0
12.685000000000002,0.4610198974609375,7.113284301757813,7.263717651367188,1721696334637.0
12.694999999999991,-0.374139404296875,7.567874145507813,5.8232360839843755,1721696334647.0
12.70500000000004,-1.0159484863281252,7.78544921875,6.486727905273438,1721696334657.0
12.71700000000004,-0.429766845703125,7.3440185546875005,6.505419921875,1721696334669.0
12.725000000000025,-0.334661865234375,7.349700927734376,5.3880859375000005,1721696334677.0
12.735000000000014,0.180340576171875,6.643292236328126,7.305139160156251,1721696334687.0
12.745000000000005,0.1975372314453125,7.141845703125001,7.340579223632813,1721696334697.0
12.754999999999995,0.8418884277343751,6.850399780273438,8.294171142578126,1721696334707.0
12.764999999999986,0.4634124755859375,6.837240600585938,6.942364501953126,1721696334717.0
12.775000000000034,-0.2594451904296875,7.402786254882813,5.344570922851563,1721696334727.0
12.785000000000023,-0.4003082275390625,7.081134033203125,6.80509033203125,1721696334737.0
12.795000000000016,-0.5214324951171876,7.851394653320313,5.867648315429688,1721696334747.0
12.805,-0.269464111328125,7.554714965820313,7.0015808105468755,1721696334757.0
12.817000000000007,-0.1774993896484375,6.756192016601563,6.148327636718751,1721696334769.0
12.824999999999989,-0.047552490234375,6.725836181640625,6.726135253906251,1721696334777.0
12.835000000000036,0.2956329345703125,6.615179443359375,8.714816284179689,1721696334787.0
12.845000000000027,0.5150024414062501,7.061993408203126,7.443609619140625,1721696334797.0
12.855000000000018,0.241351318359375,7.144088745117188,6.797015380859375,1721696334807.0
12.865000000000007,0.1398162841796875,7.348205566406251,4.4105682373046875,1721696334817.0
12.875,0.167181396484375,8.615673828125,5.298663330078125,1721696334827.0
12.884000000000016,0.4678985595703125,7.856927490234376,6.2419372558593755,1721696334836.0
12.895000000000032,0.01375732421875,7.254595947265625,6.056362915039063,1721696334847.0
12.903999999999996,-0.3072967529296875,5.963351440429688,7.688549804687501,1721696334856.0
12.913999999999987,-0.2400054931640625,6.736602783203126,7.958312988281251,1721696334866.0
12.924000000000037,0.1368255615234375,7.201809692382813,8.265609741210938,1721696334876.0
12.934000000000026,0.3934295654296875,7.087265014648438,6.259582519531251,1721696334886.0
12.944000000000017,-0.6841278076171875,7.273138427734375,5.3507019042968755,1721696334896.0
12.954000000000008,-0.6709686279296876,6.888531494140626,6.737350463867188,1721696334906.0
12.964000000000006,-0.40255126953125,7.572210693359375,6.842025756835938,1721696334916.0
12.97399999999999,0.3958221435546875,7.448992919921875,6.0928497314453125,1721696334926.0
12.984000000000036,1.2063079833984376,7.8958068847656255,5.0191802978515625,1721696334936.0
12.994000000000028,1.0385284423828125,6.990066528320313,6.468035888671875,1721696334946.0
13.00400000000002,0.399261474609375,7.562789916992188,8.24482421875,1721696334956.0
13.01400000000001,-0.346923828125,6.450839233398438,8.362658691406251,1721696334966.0
13.024,-0.6391174316406251,5.9368835449218755,6.10765380859375,1721696334976.0
13.033999999999992,-1.1216705322265623,7.415347290039063,6.878662109375001,1721696334986.0
13.04400000000004,-0.5782562255859376,7.631427001953125,6.614132690429688,1721696334996.0
13.05400000000003,-0.2117431640625,8.396005249023439,6.1417480468750005,1721696335006.0
13.06400000000002,-0.210546875,6.7189575195312505,6.091204833984375,1721696335016.0
13.074000000000012,-0.182733154296875,6.646282958984376,5.518331909179688,1721696335026.0
13.084000000000003,0.3117828369140625,7.094891357421876,9.184957885742188,1721696335036.0
13.093999999999994,1.3534515380859375,7.567575073242188,7.168164062500001,1721696335046.0
13.104000000000042,1.0223785400390626,7.135864257812501,6.099429321289063,1721696335056.0
13.114000000000033,-0.00538330078125,6.707742309570313,5.46165771484375,1721696335066.0
13.124000000000024,-0.6951934814453126,7.11253662109375,6.715667724609376,1721696335076.0
13.134000000000016,-0.420794677734375,7.988070678710938,8.674591064453125,1721696335086.0
13.144000000000004,-0.252117919921875,7.626342773437501,5.2816162109375,1721696335096.0
13.153999999999996,-0.2811279296875,6.775631713867188,4.543505859375,1721696335106.0
13.163999999999987,-0.2379119873046875,6.7506591796875,6.911260986328125,1721696335116.0
13.174000000000037,-0.0279632568359375,7.331307983398438,9.157293701171875,1721696335126.0
13.184000000000026,0.331671142578125,6.802099609375,8.872726440429688,1721696335136.0
13.194000000000017,0.0737213134765625,6.437530517578126,4.718014526367188,1721696335146.0
13.204000000000008,-0.058917236328125,6.674395751953125,6.0016326904296875,1721696335156.0
13.214000000000006,-0.1978363037109375,7.984033203125,7.97745361328125,1721696335166.0
13.22399999999999,-0.22071533203125,8.226431274414063,6.601123046875,1721696335176.0
13.234000000000036,0.352008056640625,7.411160278320313,4.3746795654296875,1721696335186.0
13.242999999999997,0.552685546875,7.6454833984375,3.938034057617188,1721696335195.0
13.252999999999986,0.7493255615234375,6.681723022460938,7.879357910156251,1721696335205.0
13.263000000000034,0.206658935546875,7.246371459960938,9.228024291992188,1721696335215.0
13.273000000000025,0.1440032958984375,6.461605834960938,8.249908447265625,1721696335225.0
13.283000000000015,0.2403045654296875,6.6965270996093755,4.98314208984375,1721696335235.0
13.293,-0.4756744384765625,7.248165893554688,6.277676391601563,1721696335245.0
13.302999999999995,-0.9616668701171877,7.317401123046875,7.78245849609375,1721696335255.0
13.312999999999988,-1.316217041015625,7.702755737304688,6.456671142578125,1721696335265.0
13.323000000000036,-0.1284515380859375,7.365402221679688,4.709042358398438,1721696335275.0
13.333000000000029,1.319207763671875,7.5019287109375,4.4654479980468755,1721696335285.0
13.343000000000018,1.5796997070312502,7.050628662109376,8.282208251953126,1721696335295.0
13.353000000000009,0.5558258056640626,7.203155517578126,9.876263427734376,1721696335305.0
13.363,-0.4146636962890625,6.629086303710938,7.183865356445313,1721696335315.0
13.37299999999999,0.0596649169921875,6.014492797851563,5.193240356445313,1721696335325.0
13.383000000000038,-0.6063690185546875,7.949490356445313,5.9014434814453125,1721696335335.0
13.393000000000027,-1.2697113037109375,7.859020996093751,7.210632324218751,1721696335345.0
13.40300000000002,-1.167578125,7.811468505859375,6.829763793945313,1721696335355.0
13.413000000000013,-0.325390625,6.80748291015625,5.5421081542968755,1721696335365.0
13.423000000000002,0.5586669921875,6.7147705078125,6.317153930664063,1721696335375.0
13.432999999999993,0.2232574462890625,6.952532958984375,8.537167358398438,1721696335385.0
13.44300000000004,0.8231964111328126,7.235455322265626,7.766308593750001,1721696335395.0
13.453000000000031,1.1710174560546875,7.246969604492188,6.528448486328125,1721696335405.0
13.463000000000022,0.7212127685546875,7.060198974609375,4.721453857421875,1721696335415.0
13.473000000000011,-0.5310028076171875,7.267456054687501,6.47252197265625,1721696335425.0
13.483000000000004,-1.2380096435546877,7.688250732421875,7.88175048828125,1721696335435.0
13.492999999999997,-0.7998687744140626,7.057955932617188,6.878662109375001,1721696335445.0
13.502999999999986,-0.5136566162109375,7.077395629882813,5.856732177734376,1721696335455.0
13.513000000000034,-0.35948486328125,6.799258422851563,6.15550537109375,1721696335465.0
