time,ax,ay,az,timestamp
0.0,-0.1688262939453125,6.38878173828125,7.889974975585938,1724338607221.0
0.0100000000000051,-0.18123779296875,6.934887695312501,8.003622436523438,1724338607231.0
0.0190000000000054,0.2380615234375,7.065283203125,7.515386962890625,1724338607240.0
0.0300000000000011,0.0877777099609375,7.700662231445313,5.117724609375,1724338607251.0
0.0390000000000014,0.11544189453125,7.180276489257813,5.825030517578125,1724338607260.0
0.0490000000000065,-0.424383544921875,7.44749755859375,6.3122192382812505,1724338607270.0
0.0589999999999975,-0.4466644287109375,7.829562377929688,6.970028686523438,1724338607280.0
0.0690000000000026,0.0121124267578125,7.675689697265626,6.093597412109375,1724338607290.0
0.0790000000000077,0.5450592041015625,7.398748779296875,4.902243041992188,1724338607300.0
0.0889999999999986,0.6201263427734376,7.086965942382813,6.562094116210938,1724338607310.0
0.0990000000000037,0.2691650390625,6.60770263671875,7.918536376953125,1724338607320.0
0.1089999999999946,-0.3733917236328125,6.605459594726563,9.004617309570314,1724338607330.0
0.1189999999999997,-0.9666015625,6.845764160156251,7.194781494140625,1724338607340.0
0.1299999999999954,-1.289898681640625,7.245623779296875,5.5889129638671875,1724338607351.0
0.1389999999999958,-1.53902587890625,7.805487060546875,5.50711669921875,1724338607360.0
0.1490000000000009,-1.5038848876953126,7.993453979492188,4.878915405273438,1724338607370.0
0.159000000000006,-1.1354278564453126,7.850048828125001,6.4692321777343755,1724338607380.0
0.1689999999999969,0.30565185546875,6.942364501953126,6.65196533203125,1724338607390.0
0.179000000000002,2.2050598144531253,6.419735717773438,7.687951660156251,1724338607400.0
0.1890000000000071,2.4310089111328126,6.010754394531251,9.189443969726565,1724338607410.0
0.198999999999998,1.4934173583984376,6.491064453125,8.21551513671875,1724338607420.0
0.2090000000000031,0.258697509765625,7.458264160156251,7.432394409179688,1724338607430.0
0.2189999999999941,-0.8504119873046876,8.0091552734375,4.48668212890625,1724338607440.0
0.2300000000000039,-1.6179809570312502,8.5654296875,3.0094146728515625,1724338607451.0
0.2390000000000043,-1.85843505859375,8.22568359375,4.6093017578125,1724338607460.0
0.2489999999999952,-1.5634002685546875,7.303045654296875,6.548037719726563,1724338607470.0
0.2590000000000003,-0.07955322265625,6.1821228027343755,8.982934570312501,1724338607480.0
0.2690000000000054,1.37752685546875,5.3656555175781255,9.723736572265626,1724338607490.0
0.2789999999999963,2.1531707763671877,6.244180297851563,9.516928100585938,1724338607500.0
0.2890000000000015,2.281622314453126,6.975262451171876,8.163476562500001,1724338607510.0
0.2990000000000066,0.57840576171875,7.887283325195313,4.416848754882813,1724338607520.0
0.3089999999999975,-1.1823822021484376,8.455819702148439,3.2491210937500004,1724338607530.0
0.3190000000000026,-2.007223510742188,8.636758422851564,4.0527282714843755,1724338607540.0
0.3299999999999983,-1.6879638671875,9.838131713867188,3.459967041015626,1724338607551.0
0.3389999999999986,-0.8587860107421875,7.988818359375,5.296420288085938,1724338607560.0
0.3490000000000037,0.31641845703125,5.67998046875,6.894064331054688,1724338607570.0
0.3589999999999946,0.8332153320312501,4.796820068359375,10.961297607421876,1724338607580.0
0.3689999999999998,1.5357360839843752,5.199520874023438,13.107290649414065,1724338607590.0
0.3790000000000049,1.6256072998046875,6.396109008789063,9.277371215820311,1724338607600.0
0.3889999999999958,0.8015136718750001,7.601220703125,4.429110717773438,1724338607610.0
0.3979999999999961,-0.5357879638671875,8.526251220703125,1.973876953125,1724338607619.0
0.4080000000000012,-1.349713134765625,9.269146728515626,3.5127532958984378,1724338607629.0
0.4180000000000063,-1.1297454833984375,9.022711181640624,5.686260986328126,1724338607639.0
0.4300000000000068,-0.3792236328125,7.907022094726563,5.289990234375001,1724338607651.0
0.4380000000000024,0.7765411376953125,6.215768432617188,6.014193725585938,1724338607659.0
0.4480000000000075,1.362274169921875,5.3776184082031255,8.979196166992189,1724338607669.0
0.4579999999999984,0.7639801025390626,5.583828735351563,11.533273315429687,1724338607679.0
0.4680000000000035,-0.3001190185546875,6.4515869140625,10.212570190429688,1724338607689.0
0.4779999999999944,-1.09281005859375,7.089956665039063,5.9418182373046875,1724338607699.0
0.4879999999999995,-1.358984375,7.943508911132813,2.415457153320313,1724338607709.0
0.4980000000000046,-1.1850738525390625,8.325723266601564,4.424774169921875,1724338607719.0
0.5079999999999956,-0.86072998046875,7.849749755859375,7.410263061523438,1724338607729.0
0.5180000000000007,-0.3231475830078125,6.9896179199218755,7.482788085937501,1724338607739.0
0.5310000000000059,0.7001281738281251,6.126495361328126,6.971524047851563,1724338607752.0
0.5379999999999967,1.3414886474609375,6.492709350585938,7.316653442382813,1724338607759.0
0.5480000000000018,1.3032073974609375,7.411010742187501,8.323480224609376,1724338607769.0
0.5580000000000069,0.8889923095703126,7.0832275390625,7.423721313476563,1724338607779.0
0.5679999999999978,0.24703369140625,7.228576660156251,4.960711669921875,1724338607789.0
0.578000000000003,-0.294287109375,7.855731201171875,5.507266235351563,1724338607799.0
0.5879999999999939,-0.8650665283203126,8.106204223632814,6.0479888916015625,1724338607809.0
0.597999999999999,-1.1641387939453125,7.655651855468751,6.27872314453125,1724338607819.0
0.6080000000000041,-1.0953521728515625,6.931896972656251,6.384445190429688,1724338607829.0
0.617999999999995,-0.5911163330078125,6.546093750000001,7.221997070312501,1724338607839.0
0.6280000000000001,-0.2857635498046875,6.449044799804688,8.766705322265626,1724338607849.0
0.6380000000000052,0.0231781005859375,6.750061035156251,7.98343505859375,1724338607859.0
0.6479999999999961,0.264678955078125,7.156799316406251,6.424072265625001,1724338607869.0
0.6580000000000013,0.6178833007812501,7.542303466796875,5.240194702148438,1724338607879.0
0.6680000000000064,0.22789306640625,7.998089599609376,5.494107055664063,1724338607889.0
0.6779999999999973,-0.148040771484375,7.755093383789063,6.498690795898438,1724338607899.0
0.6880000000000024,-0.187518310546875,7.266708374023438,6.594992065429688,1724338607909.0
0.6980000000000075,0.115142822265625,6.990963745117188,6.407772827148438,1724338607919.0
0.7079999999999984,0.40015869140625,6.545794677734375,7.006665039062501,1724338607929.0
0.7180000000000035,-0.0656463623046875,6.5096069335937505,8.5845703125,1724338607939.0
0.7279999999999944,-0.5232269287109376,6.813314819335938,8.328414916992188,1724338607949.0
0.7379999999999995,-0.5286102294921875,7.159341430664063,6.561346435546875,1724338607959.0
0.7480000000000047,-0.3055023193359375,7.401290893554688,4.955178833007813,1724338607969.0
0.7579999999999956,-0.2349212646484375,7.658493041992188,5.421582031250001,1724338607979.0
0.7669999999999959,-0.104974365234375,7.652661132812501,6.745126342773438,1724338607988.0
0.7780000000000058,0.311334228515625,7.304840087890626,7.024310302734375,1724338607999.0
0.7870000000000061,0.7810272216796875,7.075003051757813,6.3391357421875005,1724338608008.0
0.796999999999997,0.9401336669921876,6.9103637695312505,6.504821777343751,1724338608018.0
0.8070000000000022,0.3602325439453125,6.8460632324218755,7.667166137695313,1724338608028.0
0.8170000000000073,-0.4302154541015625,6.819296264648438,7.711727905273438,1724338608038.0
0.8269999999999982,-0.58558349609375,6.833651733398438,6.638806152343751,1724338608048.0
0.8370000000000033,-0.500347900390625,7.655352783203125,5.316159057617188,1724338608058.0
0.8469999999999942,-0.154620361328125,8.079437255859375,5.3571319580078125,1724338608068.0
0.8569999999999993,-0.11544189453125,7.87576904296875,6.540261840820313,1724338608078.0
0.8670000000000044,-0.401654052734375,7.190744018554688,7.358822631835938,1724338608088.0
0.8769999999999953,-0.2241546630859375,5.924322509765625,7.551724243164063,1724338608098.0
0.8870000000000005,-0.150732421875,6.186758422851563,7.751654052734375,1724338608108.0
0.8970000000000056,0.003887939453125,7.0853210449218755,7.648175048828126,1724338608118.0
0.9069999999999964,0.476422119140625,7.691390991210938,6.278424072265626,1724338608128.0
0.9170000000000016,0.4556365966796875,8.032034301757813,5.458966064453126,1724338608138.0
0.9270000000000068,-0.1806396484375,7.2767272949218755,5.381356811523438,1724338608148.0
0.9369999999999976,-0.6956420898437501,7.188351440429688,6.491812133789063,1724338608158.0
0.9470000000000028,-0.1882659912109375,7.467684936523438,7.706494140625001,1724338608168.0
0.9570000000000078,0.6431549072265625,7.264016723632813,6.4632507324218755,1724338608178.0
0.9669999999999987,0.4687957763671875,6.77518310546875,6.4731201171875,1724338608188.0
0.977000000000004,-0.4843475341796875,6.414202880859375,7.487872314453125,1724338608198.0
0.9869999999999948,-0.7038665771484376,7.10057373046875,8.183663940429689,1724338608208.0
0.997,-0.209649658203125,7.593893432617188,7.127639770507813,1724338608218.0
1.007000000000005,-0.0500946044921875,7.687951660156251,4.10985107421875,1724338608228.0
1.016999999999996,-0.26138916015625,7.324429321289063,5.19249267578125,1724338608238.0
1.027000000000001,-0.2238555908203125,7.15201416015625,7.308877563476563,1724338608248.0
1.037000000000006,0.18363037109375,7.004721069335938,8.612084960937501,1724338608258.0
1.046999999999997,0.5326477050781251,6.856082153320313,7.695578002929688,1724338608268.0
1.0570000000000022,0.304156494140625,6.689498901367188,5.564389038085938,1724338608278.0
1.0670000000000073,-0.0318511962890625,7.285549926757813,6.162982177734375,1724338608288.0
1.0769999999999982,-0.1416107177734375,7.795468139648438,7.187155151367188,1724338608298.0
1.0870000000000033,-0.3413909912109375,7.549481201171876,6.549383544921875,1724338608308.0
1.0969999999999942,-0.51978759765625,6.805239868164063,5.646035766601563,1724338608318.0
1.106999999999999,-0.5476013183593751,6.651068115234375,6.584674072265625,1724338608328.0
1.1170000000000044,-0.2875579833984375,7.0114501953125,8.706143188476563,1724338608338.0
1.1269999999999951,-0.0659454345703125,7.350149536132813,7.667913818359375,1724338608348.0
1.1359999999999957,0.3527557373046875,7.306784057617188,5.269802856445313,1724338608357.0
1.1470000000000056,0.6856231689453125,7.4086181640625,4.780520629882813,1724338608368.0
1.1569999999999965,0.5486480712890626,7.544546508789063,6.446353149414063,1724338608378.0
1.1659999999999968,0.3255401611328125,7.205697631835938,7.9804443359375,1724338608387.0
1.176000000000002,0.1093109130859375,7.256838989257813,6.108999633789063,1724338608397.0
1.186000000000007,0.5275634765625,7.138555908203125,5.045050048828125,1724338608407.0
1.195999999999998,0.7574005126953125,6.854287719726563,7.155902099609375,1724338608417.0
1.206000000000003,-0.6667816162109376,7.435235595703125,8.798406982421875,1724338608427.0
1.215999999999994,-1.4630615234375002,7.173248291015626,7.917489624023438,1724338608437.0
1.225999999999999,-1.3794708251953125,6.635665893554688,5.228680419921876,1724338608447.0
1.2360000000000042,-0.567938232421875,6.975411987304688,5.514892578125,1724338608457.0
1.2459999999999951,-0.5528350830078126,7.690493774414063,7.332504272460938,1724338608467.0
1.2560000000000002,-0.3132781982421875,7.414898681640626,7.616921997070313,1724338608477.0
1.2660000000000051,0.8360565185546875,7.024160766601563,6.519177246093751,1724338608487.0
1.2759999999999962,1.40384521484375,7.101620483398438,5.6871582031250005,1724338608497.0
1.2860000000000014,0.8436828613281251,6.873876953125,7.207492065429688,1724338608507.0
1.2960000000000065,-0.1607513427734375,7.315756225585938,7.333700561523438,1724338608517.0
1.3059999999999974,0.02930908203125,7.542901611328125,6.705349731445313,1724338608527.0
1.3160000000000025,0.033197021484375,7.319195556640626,5.61119384765625,1724338608537.0
1.3260000000000076,-1.021331787109375,7.051824951171875,5.841030883789063,1724338608547.0
1.3359999999999983,-1.6665802001953127,6.906475830078126,8.073306274414064,1724338608557.0
1.3460000000000036,-1.0234252929687502,6.9881225585937505,7.652362060546875,1724338608567.0
1.3559999999999943,0.145648193359375,7.231417846679688,6.847857666015625,1724338608577.0
1.3659999999999997,0.4738800048828125,7.024160766601563,5.546145629882813,1724338608587.0
1.3760000000000048,0.3979156494140625,7.130331420898438,6.370388793945313,1724338608597.0
1.3859999999999957,0.6065185546875,7.3583740234375,7.953826904296876,1724338608607.0
1.3960000000000008,0.8399444580078126,7.506414794921875,6.572262573242188,1724338608617.0
1.406000000000006,0.6282012939453125,7.0643859863281255,5.7134765625,1724338608627.0
1.4159999999999968,-0.1447509765625,7.061993408203126,5.649325561523438,1724338608637.0
1.426000000000002,-0.5997894287109375,7.334896850585938,7.5967346191406255,1724338608647.0
1.436000000000007,-0.5917144775390626,7.2961669921875005,7.760626220703125,1724338608657.0
1.445999999999998,-0.6682769775390626,7.030291748046875,5.948995971679688,1724338608667.0
1.456000000000003,-0.5763122558593751,6.792379760742188,6.039913940429688,1724338608677.0
1.465999999999994,-0.4122711181640625,7.239642333984375,6.979449462890625,1724338608687.0
1.475999999999999,0.134881591796875,7.374374389648438,8.065530395507814,1724338608697.0
1.4860000000000042,0.4867401123046875,7.093994140625001,6.432894897460938,1724338608707.0
1.4959999999999951,0.5275634765625,6.645535278320313,5.267111206054688,1724338608717.0
1.5060000000000002,0.65018310546875,7.152313232421876,6.550430297851563,1724338608727.0
1.5150000000000006,0.7722045898437501,8.277124023437501,7.462152099609376,1724338608736.0
1.5250000000000057,0.5878265380859375,8.081381225585938,6.195281982421876,1724338608746.0
1.5349999999999966,-0.318212890625,6.803744506835938,4.7091918945312505,1724338608756.0
1.5450000000000017,-0.9927703857421876,6.382949829101563,6.823931884765625,1724338608766.0
1.5550000000000068,-1.4352478027343751,6.5951416015625,9.482833862304688,1724338608776.0
1.5660000000000025,-1.18970947265625,7.1301818847656255,8.5618408203125,1724338608787.0
1.5750000000000028,-0.3025115966796875,6.768902587890626,5.963650512695313,1724338608796.0
1.585000000000008,0.2201171875,7.697521972656251,4.2086944580078125,1724338608806.0
1.5949999999999989,0.46834716796875,7.891769409179688,6.730172729492188,1724338608816.0
1.605000000000004,0.5028900146484375,7.437628173828125,7.204650878906251,1724338608826.0
1.6149999999999949,0.7008758544921876,7.232315063476563,6.607553100585938,1724338608836.0
1.625,1.1817840576171876,7.005618286132813,5.464498901367188,1724338608846.0
1.6350000000000051,0.905889892578125,7.197622680664063,6.448147583007813,1724338608856.0
1.644999999999996,-0.433056640625,6.935485839843751,8.830258178710938,1724338608866.0
1.6550000000000011,-1.47562255859375,6.779669189453125,7.443759155273438,1724338608876.0
1.6650000000000065,-1.4485565185546876,7.004272460937501,6.580038452148438,1724338608886.0
1.6749999999999972,-0.81885986328125,7.653109741210938,4.925271606445313,1724338608896.0
1.6850000000000025,-0.4916748046875,7.624996948242188,6.111990356445313,1724338608906.0
1.6950000000000074,-0.1876678466796875,7.133621215820313,7.286895751953126,1724338608916.0
1.7049999999999983,0.5386291503906251,6.870587158203126,7.063787841796875,1724338608926.0
1.7150000000000034,1.3959197998046875,6.8774658203125005,7.382449340820313,1724338608936.0
1.7249999999999943,1.3349090576171876,6.992459106445313,6.574655151367188,1724338608946.0
1.7349999999999994,0.4215423583984375,7.341476440429688,6.847109985351563,1724338608956.0
1.7450000000000043,-0.257501220703125,7.317102050781251,6.402838134765625,1724338608966.0
1.7549999999999957,-0.6401641845703125,7.661633300781251,5.841928100585938,1724338608976.0
1.7650000000000006,-0.8227478027343751,7.405178833007813,6.05621337890625,1724338608986.0
1.7750000000000057,-1.13348388671875,6.842025756835938,6.429006958007813,1724338608996.0
1.7849999999999966,-1.0128082275390626,6.626394653320313,8.17603759765625,1724338609006.0
1.7950000000000017,-0.267669677734375,6.897952270507813,7.960705566406251,1724338609016.0
1.8050000000000068,0.569134521484375,7.31650390625,6.553570556640626,1724338609026.0
1.8149999999999975,1.0217803955078126,7.356579589843751,5.619268798828125,1724338609036.0
1.8250000000000028,0.6634918212890626,7.220651245117188,5.8894805908203125,1724338609046.0
1.835000000000008,0.423785400390625,7.274932861328126,7.209585571289063,1724338609056.0
1.8449999999999989,0.4074859619140625,7.525106811523438,6.5365234375000005,1724338609066.0
1.855000000000004,0.4260284423828125,7.7537475585937505,4.690948486328125,1724338609076.0
1.8649999999999949,0.5010955810546875,7.079489135742188,6.16507568359375,1724338609086.0
1.875,-0.2165283203125,6.9312988281250005,7.931097412109375,1724338609096.0
1.8840000000000003,-1.3187591552734377,7.42177734375,9.025552368164064,1724338609105.0
1.8940000000000057,-1.5792510986328123,6.3510986328125005,7.494900512695313,1724338609115.0
1.9039999999999964,-1.0244720458984375,6.312518310546875,4.6214141845703125,1724338609125.0
1.9140000000000017,-0.5117126464843751,7.783505249023438,6.656002807617188,1724338609135.0
1.9240000000000064,0.124114990234375,7.936630249023438,7.229922485351563,1724338609145.0
1.9339999999999975,0.736614990234375,7.546340942382813,6.7339111328125005,1724338609155.0
1.9440000000000024,1.1461944580078125,6.721649169921876,5.594146728515625,1724338609165.0
1.9540000000000075,0.9023010253906252,6.806137084960938,6.203506469726563,1724338609175.0
1.9639999999999984,0.409429931640625,7.147378540039063,8.778369140625001,1724338609185.0
1.974000000000004,-0.0249725341796875,7.582528686523438,7.178482055664063,1724338609195.0
1.9839999999999949,-0.4801605224609375,7.1212097167968755,5.819497680664063,1724338609205.0
1.994,-1.1644378662109376,6.937429809570313,5.038769531250001,1724338609215.0
2.004000000000005,-1.5194366455078123,7.462750244140626,7.081134033203125,1724338609225.0
2.013999999999996,-0.8852539062500001,7.312316894531251,8.260824584960938,1724338609235.0
2.024000000000001,-0.0922637939453125,6.98094482421875,6.54130859375,1724338609245.0
2.034000000000006,0.4191497802734375,6.710433959960938,5.9672393798828125,1724338609255.0
2.043999999999997,0.8031585693359375,7.023712158203126,6.707443237304688,1724338609265.0
2.054000000000002,0.8934783935546876,7.362561035156251,8.1431396484375,1724338609275.0
2.064000000000007,0.8222991943359376,7.52286376953125,6.703555297851563,1724338609285.0
2.073999999999998,0.313726806640625,7.227978515625001,5.0994812011718755,1724338609295.0
2.084000000000003,-0.172564697265625,7.322784423828126,5.248419189453125,1724338609305.0
2.093999999999994,-0.57242431640625,7.627389526367188,7.2650634765625,1724338609315.0
2.103999999999999,-0.7076049804687501,7.298858642578126,7.627688598632813,1724338609325.0
2.1140000000000043,-0.6776977539062501,6.505718994140626,6.696078491210938,1724338609335.0
2.1239999999999952,-0.6928009033203125,6.4796997070312505,6.6172729492187505,1724338609345.0
2.1340000000000003,-0.23626708984375,6.793875122070313,7.913601684570313,1724338609355.0
2.1440000000000055,-0.026318359375,7.578341674804688,7.936181640625,1724338609365.0
2.1539999999999964,0.3659149169921875,7.501629638671876,5.5929504394531255,1724338609375.0
2.1640000000000015,0.6302947998046875,7.474264526367188,4.553524780273438,1724338609385.0
2.1740000000000066,0.5761627197265625,7.19029541015625,5.909817504882813,1724338609395.0
2.1839999999999975,0.4577301025390625,7.21182861328125,7.618417358398438,1724338609405.0
2.1940000000000026,0.309539794921875,7.339682006835938,7.524209594726563,1724338609415.0
2.2040000000000077,0.68487548828125,7.309027099609375,5.880657958984376,1724338609425.0
2.213999999999998,0.1772003173828125,7.3607666015625,5.77867431640625,1724338609435.0
2.224000000000004,-0.94925537109375,7.244876098632813,7.180426025390625,1724338609445.0
2.2339999999999947,-1.5493438720703123,6.652264404296876,8.220599365234376,1724338609455.0
2.244,-1.4542388916015625,6.527401733398438,7.059750366210938,1724338609465.0
2.254000000000005,-0.6276031494140626,7.114630126953125,6.353341674804688,1724338609475.0
2.263999999999996,0.155816650390625,7.505816650390625,6.193786621093751,1724338609485.0
2.272999999999996,0.6555664062500001,7.774981689453125,6.827969360351563,1724338609494.0
2.2830000000000013,0.7360168457031251,7.252352905273438,6.768603515625,1724338609504.0
2.2930000000000064,0.8326171875,6.951785278320313,5.803048706054688,1724338609514.0
2.3029999999999973,0.8688049316406251,7.382000732421876,6.836343383789063,1724338609524.0
2.3130000000000024,0.5770599365234376,7.451983642578125,6.6142822265625005,1724338609534.0
2.3230000000000075,-0.1529754638671875,7.186557006835938,6.923373413085938,1724338609544.0
2.3329999999999984,-1.1823822021484376,6.777426147460938,6.834249877929688,1724338609554.0
2.3430000000000035,-1.368255615234375,6.9298034667968755,6.82303466796875,1724338609564.0
2.3529999999999944,-1.1007354736328123,7.243530273437501,7.613482666015625,1724338609574.0
2.3640000000000043,-0.6108551025390625,7.453927612304688,5.909817504882813,1724338609585.0
2.3730000000000047,-0.0179443359375,7.082479858398438,6.3319580078125,1724338609594.0
2.3829999999999956,0.5609100341796875,7.143789672851563,6.2299743652343755,1724338609604.0
2.3930000000000007,1.119876098632813,7.067077636718751,7.588510131835938,1724338609614.0
2.403000000000006,1.0693328857421875,7.258035278320313,7.47740478515625,1724338609624.0
2.4129999999999967,0.5984436035156251,7.046142578125001,6.04185791015625,1724338609634.0
2.423000000000002,0.1158905029296875,7.288241577148438,6.010455322265625,1724338609644.0
2.433000000000007,-0.3576904296875,7.69931640625,6.072064208984376,1724338609654.0
2.442999999999998,-0.7882049560546875,7.367196655273438,7.024310302734375,1724338609664.0
2.453000000000003,-1.2089996337890625,6.883895874023438,6.654208374023438,1724338609674.0
2.462999999999994,-1.0193878173828126,6.424520874023438,7.098031616210938,1724338609684.0
2.472999999999999,-0.4367950439453125,6.977505493164063,7.963098144531251,1724338609694.0
2.483000000000004,0.059814453125,7.271493530273438,7.285101318359375,1724338609704.0
2.492999999999995,0.5863311767578125,7.27403564453125,5.9836883544921875,1724338609714.0
2.503,0.728240966796875,7.437628173828125,5.447003173828126,1724338609724.0
2.5130000000000052,0.8481689453125001,7.423123168945313,6.266311645507813,1724338609734.0
2.522999999999996,0.4868896484375,7.411459350585938,7.267156982421875,1724338609744.0
2.5330000000000013,0.2065093994140625,7.271343994140626,6.3137145996093755,1724338609754.0
2.5430000000000064,0.2181732177734375,7.046292114257813,5.536724853515626,1724338609764.0
2.5529999999999973,-0.0203369140625,7.369290161132813,5.799459838867188,1724338609774.0
2.5630000000000024,-0.0967498779296875,6.8505493164062505,8.506661987304689,1724338609784.0
2.5730000000000075,-0.795233154296875,7.258633422851563,8.401239013671876,1724338609794.0
2.5829999999999984,-1.2451873779296876,7.517779541015625,6.611141967773438,1724338609804.0
2.5930000000000035,-0.9523956298828126,6.319396972656251,5.402291870117188,1724338609814.0
2.6029999999999944,-0.5417694091796875,7.23216552734375,5.462554931640625,1724338609824.0
2.6129999999999995,-0.0031402587890625,7.683166503906251,8.429501342773438,1724338609834.0
2.6230000000000047,0.6464447021484375,7.348654174804688,6.735107421875001,1724338609844.0
2.6329999999999956,1.1171844482421875,6.945803833007813,6.521420288085938,1724338609854.0
2.641999999999996,0.7692138671875001,6.848007202148438,6.130383300781251,1724338609863.0
2.652000000000001,0.039178466796875,7.196725463867188,7.217660522460938,1724338609873.0
2.662000000000006,-0.248529052734375,7.5384155273437505,7.575350952148438,1724338609883.0
2.671999999999997,-0.2726043701171875,7.523013305664063,5.236157226562501,1724338609893.0
2.682000000000002,-0.5802001953125,7.007711791992188,5.983987426757813,1724338609903.0
2.6920000000000073,-1.283319091796875,6.91873779296875,6.886138916015626,1724338609913.0
2.701999999999998,-1.01864013671875,7.102218627929688,8.455221557617188,1724338609923.0
2.7120000000000033,-0.0275146484375,6.9716735839843755,7.400692749023438,1724338609933.0
2.722999999999999,0.5396759033203126,7.1873046875,5.3163085937500005,1724338609944.0
2.7319999999999993,0.5316009521484375,7.102966308593751,6.3107238769531255,1724338609953.0
2.7420000000000044,0.5490966796875001,7.384094238281251,7.020721435546876,1724338609963.0
2.7519999999999953,0.5673400878906251,7.531387329101563,7.519723510742188,1724338609973.0
2.7620000000000005,0.4463653564453125,7.229324340820313,5.79422607421875,1724338609983.0
2.7720000000000056,-0.1164886474609375,6.9656921386718755,5.5304443359375,1724338609993.0
2.7819999999999965,-0.4963104248046875,7.228427124023438,7.11014404296875,1724338610003.0
2.7920000000000016,-0.6612487792968751,7.471871948242188,7.716213989257813,1724338610013.0
2.8020000000000067,-0.5585174560546875,6.980346679687501,6.963897705078126,1724338610023.0
2.8119999999999976,-0.5348907470703126,6.631329345703126,5.8725830078125005,1724338610033.0
2.8230000000000075,-0.46954345703125,6.818847656250001,6.910961914062501,1724338610044.0
2.832000000000008,-0.032000732421875,7.178631591796876,8.369686889648438,1724338610053.0
2.8419999999999987,0.1819854736328125,7.413104248046875,7.106854248046876,1724338610063.0
2.852000000000004,0.539825439453125,7.380505371093751,4.933795166015625,1724338610073.0
2.8619999999999948,0.71717529296875,7.586566162109375,4.933795166015625,1724338610083.0
2.872,0.6401641845703125,7.608398437500001,6.5903564453125005,1724338610093.0
2.882000000000005,0.277239990234375,7.093395996093751,7.756439208984376,1724338610103.0
2.891999999999996,-0.0107666015625,6.733013916015626,6.623852539062501,1724338610113.0
2.902000000000001,0.0704315185546875,6.972720336914063,6.136813354492188,1724338610123.0
2.912000000000006,0.1502838134765625,7.35179443359375,7.090405273437501,1724338610133.0
2.921999999999997,-0.7044647216796875,7.76810302734375,7.339682006835938,1724338610143.0
2.932000000000002,-1.272552490234375,7.115078735351563,6.936233520507813,1724338610153.0
2.9420000000000073,-1.0905670166015626,6.462203979492188,5.845516967773438,1724338610163.0
2.951999999999998,-0.6978851318359376,6.832904052734375,6.7638183593750005,1724338610173.0
2.9620000000000033,-0.0049346923828125,7.496694946289063,7.879058837890626,1724338610183.0
2.971999999999994,0.766522216796875,7.4771057128906255,6.795819091796876,1724338610193.0
2.9819999999999993,1.1171844482421875,7.204800415039063,5.989520263671875,1724338610203.0
2.9920000000000044,0.670819091796875,6.9372802734375005,5.949444580078126,1724338610213.0
3.0019999999999953,0.24224853515625,7.273886108398438,7.120312500000001,1724338610223.0
3.0109999999999957,0.0811981201171875,7.865600585937501,7.258932495117188,1724338610232.0
3.0220000000000056,0.1314422607421875,7.284054565429688,5.545697021484376,1724338610243.0
3.0319999999999965,-0.6270050048828125,6.9208312988281255,5.842227172851563,1724338610253.0
3.0420000000000016,-1.3724426269531251,6.673648071289063,7.544097900390626,1724338610263.0
3.051000000000002,-1.1197265625,7.054965209960938,8.765060424804688,1724338610272.0
3.061000000000007,-0.380718994140625,7.182818603515625,7.207492065429688,1724338610282.0
3.070999999999998,0.248529052734375,7.231567382812501,4.688854980468751,1724338610292.0
3.081000000000003,0.3955230712890625,7.247119140625,5.899798583984375,1724338610302.0
3.090999999999994,0.5939575195312501,7.513742065429688,7.238894653320313,1724338610312.0
3.100999999999999,0.8018127441406251,7.328915405273438,7.796664428710938,1724338610322.0
3.111000000000004,0.7164276123046875,7.004421997070313,6.0831298828125,1724338610332.0
3.1230000000000047,0.22430419921875,6.996646118164063,5.6381103515625,1724338610344.0
3.131,-0.3282318115234375,7.340878295898438,7.024609375000001,1724338610352.0
3.1410000000000053,-0.7309326171875,7.384243774414063,7.55277099609375,1724338610362.0
3.150999999999996,-0.9423767089843752,7.085470581054688,6.8221374511718755,1724338610372.0
3.161000000000002,-0.8768798828125001,6.755294799804688,5.7698516845703125,1724338610382.0
3.1710000000000065,-0.57362060546875,6.81107177734375,6.884344482421875,1724338610392.0
3.1809999999999974,-0.098992919921875,7.250558471679688,8.01513671875,1724338610402.0
3.1910000000000025,0.4433746337890625,7.338336181640625,7.327420043945313,1724338610412.0
3.2010000000000076,0.8348602294921875,7.408468627929688,5.239147949218751,1724338610422.0
3.2109999999999985,0.9870880126953124,7.313662719726563,5.206549072265625,1724338610432.0
3.222999999999999,0.5839385986328125,7.3724304199218755,7.0225158691406255,1724338610444.0
3.2309999999999945,0.0109161376953125,7.342224121093751,7.534378051757813,1724338610452.0
3.2409999999999997,-0.076861572265625,7.160537719726563,6.225787353515625,1724338610462.0
3.2510000000000048,0.0701324462890625,6.99290771484375,4.947552490234376,1724338610472.0
3.2609999999999957,-0.2163787841796875,7.202108764648438,6.973019409179688,1724338610482.0
3.271000000000001,-0.4747772216796875,6.8984008789062505,8.890222167968751,1724338610492.0
3.281000000000006,-0.8584869384765625,7.593444824218751,7.638604736328125,1724338610502.0
3.290999999999997,-0.7897003173828125,7.238595581054688,6.018679809570313,1724338610512.0
3.301000000000002,-0.346624755859375,6.3017517089843755,4.3522491455078125,1724338610522.0
3.311000000000007,-0.1667327880859375,7.715316772460938,7.020571899414063,1724338610532.0
3.3230000000000075,0.337353515625,7.460656738281251,8.749957275390626,1724338610544.0
3.331000000000003,0.6537719726562501,7.178482055664063,6.49644775390625,1724338610552.0
3.340999999999994,0.7034179687500001,6.724041748046876,6.136065673828125,1724338610562.0
3.350999999999999,0.0315521240234375,7.115975952148438,5.821591186523438,1724338610572.0
3.361000000000004,-0.47672119140625,7.384542846679688,8.175289916992188,1724338610582.0
3.370999999999995,-0.4708892822265625,7.591949462890626,6.645385742187501,1724338610592.0
3.381,-0.2839691162109375,7.292129516601563,5.204754638671876,1724338610602.0
3.3910000000000053,-0.3674102783203125,6.856979370117188,6.367248535156251,1724338610612.0
3.4000000000000057,-0.7068572998046876,7.066479492187501,7.417889404296876,1724338610621.0
3.4099999999999966,-0.2403045654296875,7.102368164062501,8.517428588867189,1724338610631.0
3.423000000000002,0.394476318359375,6.902438354492188,6.3570800781250005,1724338610644.0
3.430000000000007,0.4720855712890625,7.184463500976563,5.3821044921875005,1724338610651.0
3.4410000000000025,0.2977264404296875,7.394113159179688,6.536224365234376,1724338610662.0
3.450000000000003,0.096600341796875,7.54320068359375,7.12509765625,1724338610671.0
3.460000000000008,0.078057861328125,7.26865234375,7.089358520507813,1724338610681.0
3.469999999999999,-0.0997406005859375,7.043301391601563,5.641848754882813,1724338610691.0
3.480000000000004,-0.3826629638671875,6.878811645507813,6.5448974609375,1724338610701.0
3.489999999999995,-0.3961212158203125,7.272091674804688,7.611837768554688,1724338610711.0
3.5,-0.3010162353515625,7.398150634765625,7.21123046875,1724338610721.0
3.510000000000005,0.019439697265625,6.94266357421875,6.241638183593751,1724338610731.0
3.519999999999996,-0.1933502197265625,6.920532226562501,5.7140747070312505,1724338610741.0
3.530000000000001,-0.0509918212890625,6.921279907226563,7.52286376953125,1724338610751.0
3.5400000000000063,-0.050244140625,7.422824096679688,8.184561157226563,1724338610761.0
3.549999999999997,0.06220703125,7.332205200195313,6.109747314453125,1724338610771.0
3.5600000000000023,0.366961669921875,7.410412597656251,4.904934692382813,1724338610781.0
3.5700000000000074,0.258099365234375,7.468881225585938,5.680279541015626,1724338610791.0
3.5799999999999983,0.1990325927734375,7.337887573242188,7.422076416015625,1724338610801.0
3.5900000000000034,-0.13817138671875,6.893466186523438,7.573406982421876,1724338610811.0
3.5999999999999943,0.2289398193359375,6.335247802734376,6.272592163085938,1724338610821.0
3.609999999999999,0.36068115234375,7.500283813476563,6.803445434570313,1724338610831.0
3.620000000000005,0.1244140625,7.837188720703126,6.993356323242188,1724338610841.0
3.629999999999995,-0.6280517578125,7.619613647460938,6.576150512695313,1724338610851.0
3.640000000000001,-0.8421875000000001,7.04075927734375,5.844320678710938,1724338610861.0
3.6500000000000057,-0.6132476806640625,6.441567993164063,6.064736938476563,1724338610871.0
3.6599999999999966,-0.6733612060546875,7.171005249023438,8.214019775390625,1724338610881.0
3.6700000000000017,0.0348419189453125,6.9899169921875,7.975210571289063,1724338610891.0
3.680000000000007,0.608013916015625,7.480545043945313,6.263619995117188,1724338610901.0
3.6899999999999977,0.5565734863281251,7.082031250000001,5.797216796875,1724338610911.0
3.700000000000003,0.1221710205078125,7.117022705078125,6.012847900390625,1724338610921.0
3.710000000000008,-0.197088623046875,7.702157592773438,7.559500122070313,1724338610931.0
3.719999999999999,0.4317108154296875,7.669558715820313,6.138458251953126,1724338610941.0
3.730000000000004,0.3910369873046875,7.156948852539063,5.54300537109375,1724338610951.0
3.739999999999995,-0.4179534912109375,6.6157775878906255,6.821688842773438,1724338610961.0
3.75,-1.00308837890625,6.824829101562501,8.39495849609375,1724338610971.0
3.760000000000005,-0.5942565917968751,7.156350708007813,8.259628295898438,1724338610981.0
3.7690000000000055,-0.0465057373046875,7.31590576171875,5.580838012695313,1724338610990.0
3.778999999999997,-0.1134979248046875,7.290335083007813,4.897906494140625,1724338611000.0
3.7890000000000015,-0.1662841796875,7.249362182617188,6.394314575195313,1724338611010.0
3.7990000000000066,0.1830322265625,7.4516845703125005,7.859020996093751,1724338611020.0
3.8089999999999975,0.6886138916015625,7.248165893554688,7.54320068359375,1724338611030.0
3.8190000000000026,0.555975341796875,6.6830688476562505,5.636016845703125,1724338611040.0
3.829000000000008,0.08792724609375,6.997842407226563,6.079989624023438,1724338611050.0
3.838999999999998,-0.088525390625,7.473666381835938,7.819094848632813,1724338611060.0
3.849000000000004,-0.2684173583984375,7.5497802734375,7.147827148437501,1724338611070.0
3.858999999999994,-0.452197265625,6.993057250976563,5.691793823242188,1724338611080.0
3.869,-0.73870849609375,6.755593872070313,5.7051025390625005,1724338611090.0
3.879000000000005,-0.64420166015625,7.053619384765626,7.939172363281251,1724338611100.0
3.888999999999996,-0.256903076171875,7.330859375,8.308676147460938,1724338611110.0
3.899000000000001,0.1806396484375,7.297811889648438,5.908023071289063,1724338611120.0
3.909000000000006,0.621771240234375,7.137509155273438,5.035778808593751,1724338611130.0
3.918999999999997,0.5748168945312501,7.295867919921876,6.271694946289063,1724338611140.0
3.929000000000002,0.346923828125,7.304092407226563,8.133270263671875,1724338611150.0
3.939000000000007,0.0695343017578125,7.328616333007813,7.232614135742188,1724338611160.0
3.948999999999998,0.261090087890625,7.046142578125001,5.100677490234375,1724338611170.0
3.959000000000003,0.3548492431640625,7.176687622070313,5.205352783203125,1724338611180.0
3.968999999999994,-0.1614990234375,7.539312744140625,6.848007202148438,1724338611190.0
3.978999999999999,-0.3177642822265625,7.008010864257813,8.661431884765626,1724338611200.0
3.989000000000004,-0.352606201171875,7.088760375976563,7.53721923828125,1724338611210.0
3.9989999999999952,-0.5923126220703125,7.528396606445313,5.830264282226563,1724338611220.0
4.009,-0.9344512939453126,6.394912719726563,6.1895996093750005,1724338611230.0
4.0190000000000055,-0.8300750732421875,7.090405273437501,6.6008239746093755,1724338611240.0
4.028999999999996,-0.04725341796875,7.713671875,8.031735229492188,1724338611250.0
4.0390000000000015,0.7430450439453126,7.316354370117188,5.966192626953125,1724338611260.0
4.049000000000007,0.7571014404296875,6.9958984375,6.1046630859375,1724338611270.0
4.0589999999999975,0.2296875,6.981692504882813,6.958514404296875,1724338611280.0
4.069000000000003,0.022430419921875,7.242782592773438,7.365551757812501,1724338611290.0
4.079000000000008,0.206658935546875,7.52525634765625,7.022366333007813,1724338611300.0
4.088999999999999,-0.0183929443359375,7.292129516601563,5.1567535400390625,1724338611310.0
4.099000000000004,-0.6622955322265626,7.031188964843751,6.515289306640626,1724338611320.0
4.108999999999995,-1.1064178466796877,6.977804565429688,7.417440795898438,1724338611330.0
4.119,-0.6301452636718751,7.251904296875001,7.691091918945313,1724338611340.0
4.129000000000005,-0.0157012939453125,6.968832397460938,6.738546752929688,1724338611350.0
4.138999999999996,0.1066192626953125,7.019076538085938,5.506069946289063,1724338611360.0
4.147999999999996,0.1496856689453125,7.236053466796876,7.015637207031251,1724338611369.0
4.158000000000001,0.5399749755859375,7.4923583984375,7.254745483398438,1724338611379.0
4.168999999999997,0.6344818115234375,7.319943237304688,6.745425415039063,1724338611390.0
4.177999999999997,0.325091552734375,7.062142944335938,5.576052856445313,1724338611399.0
4.188000000000002,-0.1745086669921875,7.102517700195313,6.408670043945313,1724338611409.0
4.1980000000000075,-0.3461761474609375,7.30992431640625,7.659390258789063,1724338611419.0
4.207999999999998,-0.3892425537109375,7.37930908203125,6.977206420898438,1724338611429.0
4.218999999999994,-0.451898193359375,6.954776000976563,6.229824829101563,1724338611440.0
4.227999999999994,-0.545208740234375,6.8463623046875,5.978305053710938,1724338611449.0
4.2379999999999995,-0.3792236328125,6.961953735351563,7.687054443359376,1724338611459.0
4.248000000000005,-0.003289794921875,7.177435302734375,7.975061035156251,1724338611469.0
4.257999999999996,0.174957275390625,7.188949584960938,6.579141235351563,1724338611479.0
4.268000000000001,0.3970184326171875,7.295269775390626,5.208493041992188,1724338611489.0
4.278000000000006,0.538330078125,7.470675659179688,5.847012329101563,1724338611499.0
4.287999999999997,0.4580291748046875,7.7292236328125,6.98094482421875,1724338611509.0
4.298000000000002,0.2289398193359375,7.13406982421875,6.802548217773438,1724338611519.0
4.308000000000007,0.0118133544921875,6.739144897460938,5.996847534179688,1724338611529.0
4.317999999999998,0.0115142822265625,6.847857666015625,6.62803955078125,1724338611539.0
4.328000000000003,0.0237762451171875,7.396804809570313,7.8129638671875,1724338611549.0
4.337999999999994,-0.4218414306640625,7.50731201171875,7.515686035156251,1724338611559.0
4.347999999999999,-0.9326568603515626,7.171752929687501,6.008212280273438,1724338611569.0
4.358000000000004,-0.814373779296875,6.807781982421876,5.639605712890625,1724338611579.0
4.367999999999995,-0.6711181640625,7.039114379882813,7.10416259765625,1724338611589.0
4.378,-0.331671142578125,7.378561401367188,7.887283325195313,1724338611599.0
4.388000000000005,0.5073760986328125,7.168014526367188,6.561495971679688,1724338611609.0
4.397999999999996,1.0932586669921875,7.318896484375,5.483340454101563,1724338611619.0
4.408000000000001,0.8643188476562501,7.150518798828125,6.869241333007813,1724338611629.0
4.418000000000006,0.08553466796875,7.16397705078125,7.293176269531251,1724338611639.0
4.427999999999997,-0.198883056640625,7.429403686523438,7.0593017578125,1724338611649.0
4.438000000000002,0.0228790283203125,7.36435546875,5.5271545410156255,1724338611659.0
4.4480000000000075,-0.2583984375,7.290185546875,5.6337738037109375,1724338611669.0
4.457999999999998,-1.052734375,6.977355957031251,7.5641357421875,1724338611679.0
4.4680000000000035,-1.161746215820313,6.837240600585938,8.073605346679688,1724338611689.0
4.477999999999994,-0.420794677734375,6.891671752929688,7.565631103515625,1724338611699.0
4.4879999999999995,0.257501220703125,7.286148071289063,5.537921142578125,1724338611709.0
4.498000000000005,0.466851806640625,7.307083129882813,5.914154052734375,1724338611719.0
4.507999999999996,0.4867401123046875,7.463497924804688,6.787893676757813,1724338611729.0
4.518000000000001,0.6482391357421875,7.399795532226563,7.023263549804688,1724338611739.0
4.527000000000001,0.66214599609375,7.090255737304688,6.496298217773438,1724338611748.0
4.537999999999997,0.1813873291015625,7.020571899414063,6.022866821289063,1724338611759.0
4.546999999999997,-0.405242919921875,7.217361450195313,7.084872436523438,1724338611768.0
4.557000000000002,-0.6856231689453125,7.165023803710938,7.2273803710937505,1724338611778.0
4.567000000000007,-0.73392333984375,7.2028564453125,6.725686645507813,1724338611788.0
4.576999999999998,-0.6735107421875001,7.0449462890625005,6.345565795898438,1724338611798.0
4.587000000000003,-0.5450592041015625,6.905578613281251,6.526953125,1724338611808.0
4.596999999999994,-0.1416107177734375,7.144537353515625,7.493255615234376,1724338611818.0
4.606999999999999,0.420794677734375,7.357925415039063,7.054516601562501,1724338611828.0
4.617000000000004,0.8317199707031251,7.310223388671876,5.978604125976563,1724338611838.0
4.626999999999995,0.8127288818359376,7.224987792968751,5.770748901367188,1724338611848.0
4.6370000000000005,0.371148681640625,7.293176269531251,6.668862915039063,1724338611858.0
4.647000000000006,-0.0097198486328125,7.189697265625001,7.465890502929688,1724338611868.0
4.6569999999999965,-0.2761932373046875,7.1421447753906255,6.666470336914063,1724338611878.0
4.667000000000002,-0.3349609375,7.094741821289063,5.7305236816406255,1724338611888.0
4.677000000000007,-0.29608154296875,7.144088745117188,5.832357788085938,1724338611898.0
4.686999999999998,-0.3261383056640625,7.236801147460938,7.431646728515625,1724338611908.0
4.697000000000003,0.107366943359375,7.092349243164063,8.139849853515626,1724338611918.0
4.707000000000008,0.0405242919921875,7.589108276367188,6.510354614257813,1724338611928.0
4.716999999999999,-0.201873779296875,7.202706909179688,6.002081298828125,1724338611938.0
4.727000000000004,-0.2417999267578125,6.440670776367188,5.926565551757813,1724338611948.0
4.736999999999995,-0.2583984375,7.566079711914063,7.16636962890625,1724338611958.0
4.747,0.0572723388671875,7.255792236328125,8.116671752929689,1724338611968.0
4.757000000000005,-0.0004486083984375,7.168014526367188,5.921481323242188,1724338611978.0
4.766999999999996,-0.1108062744140625,6.861166381835938,6.628338623046876,1724338611988.0
4.777000000000001,-0.386102294921875,7.267904663085938,6.408670043945313,1724338611998.0
4.787000000000006,-0.2011260986328125,7.361065673828126,7.451235961914063,1724338612008.0
4.796999999999997,0.1383209228515625,7.445404052734376,6.351846313476563,1724338612018.0
4.807000000000002,0.226397705078125,7.209884643554688,5.539865112304688,1724338612028.0
4.817000000000007,0.0734222412109375,6.847708129882813,7.120910644531251,1724338612038.0
4.826999999999998,-0.2660247802734375,7.126144409179688,7.473068237304688,1724338612048.0
4.837000000000003,-0.093609619140625,7.042553710937501,7.649819946289063,1724338612058.0
4.846999999999994,-0.0743194580078125,7.037918090820313,5.999539184570313,1724338612068.0
4.856999999999999,-0.2699127197265625,7.320690917968751,5.882601928710938,1724338612078.0
4.867000000000004,-0.2672210693359375,7.445254516601563,6.840679931640626,1724338612088.0
4.876999999999995,-0.165087890625,7.377963256835938,6.915298461914063,1724338612098.0
4.8870000000000005,0.0705810546875,7.03238525390625,6.725387573242188,1724338612108.0
4.896000000000001,0.1102081298828125,6.916644287109375,6.2718444824218755,1724338612117.0
4.906000000000006,0.1614990234375,7.062442016601563,7.185061645507813,1724338612127.0
4.917000000000002,0.2044158935546875,7.364654541015626,7.093395996093751,1724338612138.0
4.926000000000002,0.1912567138671875,7.368093872070313,6.341378784179688,1724338612147.0
4.936000000000007,-0.0192901611328125,7.031039428710938,5.9946044921875,1724338612157.0
4.945999999999998,-0.466851806640625,7.028048706054688,6.526654052734376,1724338612167.0
4.956000000000003,-0.466552734375,7.003225708007813,7.873526000976563,1724338612177.0
4.965999999999994,-0.421990966796875,7.323382568359375,7.285549926757813,1724338612187.0
4.975999999999999,-0.149835205078125,7.281661987304688,5.8745269775390625,1724338612197.0
4.986000000000004,0.16448974609375,7.205697631835938,5.475863647460938,1724338612207.0
4.995999999999995,0.2328277587890625,7.252053833007813,6.737051391601563,1724338612217.0
5.006,0.34453125,7.301400756835938,7.663726806640626,1724338612227.0
5.016000000000005,0.3889434814453125,6.952084350585938,6.751406860351563,1724338612237.0
5.025999999999996,0.5313018798828125,6.7721923828125,5.589361572265625,1724338612247.0
5.036000000000001,0.3832611083984375,7.441067504882813,6.451736450195313,1724338612257.0
5.0460000000000065,0.1700225830078125,7.8135620117187505,7.326522827148438,1724338612267.0
5.055999999999997,-0.5650970458984376,7.734008789062501,6.758584594726563,1724338612277.0
5.0660000000000025,-0.877178955078125,6.989169311523438,6.129635620117188,1724338612287.0
5.076000000000008,-1.16279296875,6.248367309570313,6.318948364257813,1724338612297.0
5.0859999999999985,-1.2139343261718751,6.737799072265625,8.111288452148438,1724338612307.0
5.096000000000004,-0.2379119873046875,7.370486450195313,8.222094726562501,1724338612317.0
5.1059999999999945,0.99052734375,7.685260009765625,5.601324462890625,1724338612327.0
5.116,1.13946533203125,7.309027099609375,5.488125610351563,1724338612337.0
5.126000000000005,0.262286376953125,6.827819824218751,6.0838775634765625,1724338612347.0
5.135999999999996,0.032000732421875,7.361514282226563,7.890274047851563,1724338612357.0
5.146000000000001,0.5671905517578125,7.992855834960938,7.0748535156250005,1724338612367.0
5.156000000000006,0.6543701171875,7.07066650390625,4.903140258789063,1724338612377.0
5.165999999999997,-0.7941864013671875,6.612487792968751,6.368295288085938,1724338612387.0
5.176000000000002,-1.7380584716796876,6.703555297851563,8.326770019531251,1724338612397.0
5.186000000000007,-1.01265869140625,7.310372924804688,8.811416625976562,1724338612407.0
5.195999999999998,-0.1233673095703125,7.445404052734376,6.019277954101563,1724338612417.0
5.206000000000003,0.0710296630859375,7.060198974609375,3.969436645507813,1724338612427.0
5.215999999999994,0.00299072265625,7.1481262207031255,6.379660034179688,1724338612437.0
5.225999999999999,0.5793029785156251,7.543948364257813,8.442361450195314,1724338612447.0
5.236000000000004,1.1131469726562502,7.298410034179688,7.998687744140626,1724338612457.0
5.245999999999995,0.7572509765625001,6.674993896484375,5.110098266601563,1724338612467.0
5.256,-0.0127105712890625,6.877166748046876,5.4969482421875,1724338612477.0
5.266999999999996,-0.45638427734375,7.649819946289063,7.951583862304688,1724338612488.0
5.275000000000006,-0.5704803466796875,7.73819580078125,7.555014038085938,1724338612496.0
5.284999999999997,-0.7213623046875001,7.0533203125,5.686859130859375,1724338612506.0
5.295000000000002,-0.83680419921875,6.667666625976563,4.90179443359375,1724338612516.0
5.305000000000007,-0.5372833251953125,6.797613525390625,7.983734130859376,1724338612526.0
5.314999999999998,-0.0136077880859375,7.250558471679688,9.19886474609375,1724338612536.0
5.325000000000003,0.4689453125,7.207791137695313,7.069171142578125,1724338612546.0
5.335000000000008,0.5887237548828126,7.007263183593751,4.398007202148438,1724338612556.0
5.344999999999999,0.6596038818359375,7.389776611328125,5.104864501953125,1724338612566.0
5.355000000000004,0.370550537109375,7.860964965820313,8.109494018554688,1724338612576.0
5.364999999999995,-0.08194580078125,7.267156982421875,7.435983276367188,1724338612586.0
5.375,-0.2570526123046875,6.864157104492188,5.6285400390625,1724338612596.0
5.385000000000005,0.0593658447265625,7.0957885742187505,4.697827148437501,1724338612606.0
5.394999999999996,0.3781768798828125,7.493704223632813,6.874176025390626,1724338612616.0
5.405000000000001,-0.0148040771484375,7.206295776367188,9.00028076171875,1724338612626.0
5.415000000000006,-0.3303253173828125,6.763369750976563,7.527499389648438,1724338612636.0
5.424999999999997,-0.65736083984375,7.354486083984376,5.857330322265625,1724338612646.0
5.435000000000002,-0.524273681640625,6.7847534179687505,5.854489135742188,1724338612656.0
5.445000000000007,-0.582891845703125,7.241885375976563,6.664825439453126,1724338612666.0
5.454999999999998,-0.4933197021484375,7.593893432617188,7.7148681640625005,1724338612676.0
5.465000000000003,0.115142822265625,7.047189331054688,6.336294555664063,1724338612686.0
5.474999999999994,0.5030395507812501,7.041656494140626,6.316107177734375,1724338612696.0
5.484999999999999,0.481207275390625,7.141995239257813,7.11253662109375,1724338612706.0
5.4950000000000045,-0.04127197265625,7.212277221679688,7.162182617187501,1724338612716.0
5.5049999999999955,0.1084136962890625,7.297213745117188,6.612039184570313,1724338612726.0
5.515000000000001,0.2118927001953125,7.390972900390626,5.51788330078125,1724338612736.0
5.525000000000006,-0.078955078125,7.221697998046875,6.449942016601563,1724338612746.0
5.534999999999997,-0.8185607910156251,7.034030151367188,7.472021484375,1724338612756.0
5.545000000000002,-0.87747802734375,7.031039428710938,7.38828125,1724338612766.0
5.555000000000007,-0.2630340576171875,6.857128906250001,6.9761596679687505,1724338612776.0
5.564999999999998,-0.0880767822265625,7.21422119140625,6.014492797851563,1724338612786.0
5.575000000000003,-0.066094970703125,7.314410400390625,6.736004638671876,1724338612796.0
5.585000000000008,0.12142333984375,7.376019287109376,6.799407958984376,1724338612806.0
5.594999999999999,0.560760498046875,7.278521728515625,6.526953125,1724338612816.0
5.605000000000004,0.6440521240234376,7.167715454101563,6.327322387695313,1724338612826.0
5.614999999999995,0.1783966064453125,7.117919921875001,6.455474853515626,1724338612836.0
5.625,-0.0967498779296875,7.018627929687501,7.383197021484375,1724338612846.0
5.635000000000005,-0.19200439453125,7.432095336914063,6.750958251953126,1724338612856.0
5.6440000000000055,-0.2770904541015625,7.222744750976563,6.3421264648437505,1724338612865.0
5.653999999999996,-0.6193786621093751,6.940869140625001,6.142196655273438,1724338612875.0
5.6640000000000015,-0.8257385253906251,6.895858764648438,7.179678344726563,1724338612885.0
5.674000000000007,-0.3763824462890625,7.096087646484375,7.8733764648437505,1724338612895.0
5.6839999999999975,0.0348419189453125,7.302597045898438,6.667218017578126,1724338612905.0
5.694000000000003,0.5031890869140625,7.23515625,5.7788238525390625,1724338612915.0
5.704000000000008,0.46416015625,7.296615600585938,6.0400634765625005,1724338612925.0
5.715000000000003,0.490478515625,7.319943237304688,6.832455444335938,1724338612936.0
5.724000000000004,0.469244384765625,7.4427124023437505,7.126443481445313,1724338612945.0
5.733999999999995,0.343035888671875,7.269549560546875,5.624053955078125,1724338612955.0
5.744,0.3360076904296875,6.7069946289062505,5.770150756835938,1724338612965.0
5.754000000000005,-0.2572021484375,7.26566162109375,7.096237182617188,1724338612975.0
5.763999999999996,-0.29608154296875,7.276428222656251,8.411257934570314,1724338612985.0
5.774000000000001,-0.6311920166015625,7.385440063476563,7.131826782226563,1724338612995.0
5.784000000000006,-0.8258880615234375,7.361813354492188,5.589212036132813,1724338613005.0
5.793999999999997,-0.9023010253906252,6.529644775390626,5.9712768554687505,1724338613015.0
5.804000000000002,-0.837103271484375,7.0404602050781255,6.933242797851563,1724338613025.0
5.814999999999998,0.1224700927734375,7.425216674804688,8.38538818359375,1724338613036.0
5.823999999999998,1.0457061767578126,7.378411865234376,6.072213745117188,1724338613045.0
5.834000000000003,1.0611083984375,7.06468505859375,6.23087158203125,1724338613055.0
5.843999999999994,0.2045654296875,6.870587158203126,6.601571655273438,1724338613065.0
5.853999999999999,-0.1499847412109375,7.456768798828126,7.153060913085938,1724338613075.0
5.864000000000004,0.1006378173828125,7.739242553710938,7.003823852539063,1724338613085.0
5.873999999999995,0.0892730712890625,7.375271606445313,4.545300292968751,1724338613095.0
5.884,-0.6329864501953125,6.919784545898438,6.631927490234376,1724338613105.0
5.8940000000000055,-1.2468322753906251,6.771444702148438,7.989566040039063,1724338613115.0
5.903999999999996,-0.6987823486328125,7.06827392578125,8.438922119140626,1724338613125.0
5.915000000000006,0.0506927490234375,7.028945922851563,6.80509033203125,1724338613136.0
5.924000000000007,0.24583740234375,7.209884643554688,4.555319213867188,1724338613145.0
5.9339999999999975,0.1359283447265625,7.25968017578125,6.661087036132813,1724338613155.0
5.944000000000003,0.376531982421875,7.545593261718751,7.345364379882813,1724338613165.0
5.954000000000008,0.5950042724609376,7.339083862304688,7.422525024414063,1724338613175.0
5.963999999999999,0.3955230712890625,6.973318481445313,5.570370483398438,1724338613185.0
5.974000000000004,-0.07117919921875,6.898849487304688,5.9279113769531255,1724338613195.0
5.983999999999995,-0.2809783935546875,7.418936157226563,7.720700073242188,1724338613205.0
5.994,-0.366363525390625,7.448992919921875,7.335345458984375,1724338613215.0
6.004000000000005,-0.4649078369140625,6.958364868164063,6.217861938476563,1724338613225.0
6.015000000000001,-0.581396484375,6.701162719726563,5.64349365234375,1724338613236.0
6.022999999999996,-0.477618408203125,6.989318847656251,7.628884887695313,1724338613244.0
6.033000000000001,-0.1547698974609375,7.413253784179688,8.3632568359375,1724338613254.0
6.043000000000006,0.143255615234375,7.249960327148438,6.238049316406251,1724338613264.0
6.052999999999997,0.47552490234375,7.227828979492188,4.833905029296876,1724338613274.0
6.063000000000002,0.5677886962890626,7.262371826171876,6.139056396484375,1724338613284.0
6.0730000000000075,0.29967041015625,7.478900146484375,7.644436645507813,1724338613294.0
6.082999999999998,0.049945068359375,7.163528442382813,7.496096801757813,1724338613304.0
6.0930000000000035,0.0729736328125,7.111639404296875,5.5919036865234375,1724338613314.0
6.102999999999994,0.1332366943359375,7.1885009765625005,5.626596069335938,1724338613324.0
6.114999999999995,0.010467529296875,7.112835693359376,6.722845458984375,1724338613336.0
6.123000000000005,-0.4526458740234375,7.272689819335938,7.163827514648438,1724338613344.0
6.132999999999996,-0.1368255615234375,6.976757812500001,7.260726928710938,1724338613354.0
6.143000000000001,0.5704803466796875,6.989318847656251,6.960757446289063,1724338613364.0
6.153000000000006,-0.149237060546875,8.185009765625,6.562692260742188,1724338613374.0
6.162999999999997,-1.1430541992187502,6.953430175781251,6.789688110351563,1724338613384.0
6.173000000000002,-1.0467529296875,6.156103515625,5.856881713867188,1724338613394.0
6.183000000000007,-0.20157470703125,7.557406616210938,6.989169311523438,1724338613404.0
6.192999999999998,0.4951141357421875,7.384094238281251,7.543350219726563,1724338613414.0
6.203000000000003,0.3040069580078125,7.309774780273438,6.787594604492188,1724338613424.0
6.215000000000003,0.0873291015625,6.792678833007813,6.83739013671875,1724338613436.0
6.222999999999999,0.11663818359375,7.127789306640626,5.6004272460937505,1724338613444.0
6.233000000000004,0.3464752197265625,7.561892700195313,7.194781494140625,1724338613454.0
6.242999999999995,0.05682373046875,7.546939086914063,6.333602905273438,1724338613464.0
6.253,-0.2983245849609375,7.085171508789063,6.386837768554688,1724338613474.0
6.263000000000005,-0.63941650390625,6.6322265625000005,6.999636840820313,1724338613484.0
6.272999999999996,-0.6634918212890626,7.101620483398438,7.208538818359376,1724338613494.0
6.283000000000001,-0.4257293701171875,7.088760375976563,8.010052490234376,1724338613504.0
6.293000000000006,-0.222509765625,7.150219726562501,5.807833862304688,1724338613514.0
6.302999999999997,0.0079254150390625,7.407720947265625,5.86480712890625,1724338613524.0
6.314999999999998,0.5493957519531251,7.4205810546875,6.175692749023438,1724338613536.0
6.3230000000000075,0.6222198486328125,7.344467163085938,7.195529174804688,1724338613544.0
6.332999999999998,0.384307861328125,7.116873168945313,7.255642700195313,1724338613554.0
6.3430000000000035,0.088824462890625,6.743182373046875,6.276031494140626,1724338613564.0
6.352999999999994,-0.0551788330078125,7.006814575195313,6.845016479492188,1724338613574.0
6.3629999999999995,-0.198583984375,7.4756103515625005,6.9013916015625005,1724338613584.0
6.372,-0.6280517578125,7.317102050781251,6.8370910644531255,1724338613593.0
6.382000000000005,-0.8345611572265625,6.813912963867188,6.221600341796876,1724338613603.0
6.391999999999996,-0.737213134765625,6.983187866210938,6.8012023925781255,1724338613613.0
6.402000000000001,-0.1308441162109375,7.308877563476563,7.411309814453125,1724338613623.0
6.412000000000006,0.23507080078125,7.438973999023438,6.672003173828125,1724338613633.0
6.423000000000002,0.616986083984375,7.145285034179688,5.860171508789063,1724338613644.0
6.432000000000002,0.816168212890625,7.2617736816406255,5.921182250976563,1724338613653.0
6.442000000000007,0.68009033203125,7.520471191406251,6.9088684082031255,1724338613663.0
6.451999999999998,0.54132080078125,7.260876464843751,6.837838745117188,1724338613673.0
6.462000000000003,0.082244873046875,7.025656127929688,6.145935058593751,1724338613683.0
6.471999999999994,-0.2062103271484375,6.731069946289063,6.191693115234376,1724338613693.0
6.481999999999999,-0.48748779296875,7.349551391601563,7.236950683593751,1724338613703.0
6.492000000000004,-0.4306640625,7.479348754882813,7.701110839843751,1724338613713.0
6.501999999999995,-0.6706695556640625,7.655502319335938,6.662283325195313,1724338613723.0
6.5120000000000005,-0.82364501953125,7.101919555664063,5.63272705078125,1724338613733.0
6.522000000000006,-0.751568603515625,6.235656738281251,6.185861206054688,1724338613743.0
6.5319999999999965,-0.4031494140625,7.0733581542968755,8.141345214843751,1724338613753.0
6.542000000000002,0.5849853515625001,7.421328735351563,7.80040283203125,1724338613763.0
6.552000000000007,1.2054107666015623,7.468881225585938,5.962603759765625,1724338613773.0
6.561999999999998,0.737213134765625,7.1107421875000005,5.871685791015626,1724338613783.0
6.572000000000003,-0.1661346435546875,7.053619384765626,6.25419921875,1724338613793.0
6.582000000000008,-0.3736907958984375,7.460656738281251,7.587313842773438,1724338613803.0
6.591999999999999,0.0740203857421875,7.797561645507813,6.2793212890625005,1724338613813.0
6.602000000000004,0.047552490234375,7.04674072265625,5.54180908203125,1724338613823.0
6.611999999999995,-0.8575897216796876,6.66392822265625,6.895111083984376,1724338613833.0
6.622,-1.176849365234375,6.806884765625001,8.330209350585939,1724338613843.0
6.632000000000005,-0.3318206787109375,7.229025268554688,7.998837280273438,1724338613853.0
6.641999999999996,0.3736907958984375,7.338635253906251,5.658596801757813,1724338613863.0
6.652000000000001,0.24703369140625,7.172799682617188,4.9514404296875005,1724338613873.0
6.662000000000006,0.058917236328125,7.245324707031251,6.599777221679688,1724338613883.0
6.671999999999997,0.4556365966796875,7.5043212890625,8.077194213867188,1724338613893.0
6.682000000000002,0.614593505859375,7.321737670898438,7.109396362304688,1724338613903.0
6.692000000000007,0.215032958984375,6.652413940429688,5.274737548828125,1724338613913.0
6.701999999999998,-0.3210540771484375,6.970925903320313,6.380557250976563,1724338613923.0
6.712000000000003,-0.43006591796875,7.527349853515625,8.043548583984375,1724338613933.0
6.721999999999994,-0.3566436767578125,7.496246337890626,7.158444213867188,1724338613943.0
6.731999999999999,-0.466253662109375,6.921279907226563,5.532687377929688,1724338613953.0
6.742000000000004,-0.5917144775390626,6.742733764648438,5.6681671142578125,1724338613963.0
6.751999999999995,-0.36845703125,7.060198974609375,8.233160400390625,1724338613973.0
6.7620000000000005,0.028411865234375,7.451235961914063,8.359219360351563,1724338613983.0
6.771000000000001,0.3524566650390625,7.126443481445313,5.927163696289063,1724338613992.0
6.781000000000006,0.5582183837890625,7.1271911621093755,4.586273193359375,1724338614002.0
6.790999999999997,0.5390777587890625,7.481741333007813,6.4512878417968755,1724338614012.0
6.801000000000002,0.2435943603515625,7.5638366699218755,7.981640625000001,1724338614022.0
6.811000000000007,-0.018243408203125,7.103564453125,7.016235351562501,1724338614032.0
6.820999999999998,-0.127703857421875,6.96060791015625,5.502331542968751,1724338614042.0
6.831000000000003,-0.088824462890625,7.248614501953125,5.88634033203125,1724338614052.0
6.840999999999994,-0.118731689453125,7.230520629882813,7.519125366210938,1724338614062.0
6.850999999999999,-0.3360076904296875,6.962103271484375,7.165023803710938,1724338614072.0
6.861000000000004,-0.20157470703125,7.087713623046875,6.032138061523438,1724338614082.0
6.870999999999995,0.670819091796875,6.996047973632813,6.617123413085938,1724338614092.0
6.881,0.611602783203125,7.973715209960938,7.397402954101563,1724338614102.0
6.891000000000005,-0.6356781005859375,7.942462158203125,7.238595581054688,1724338614112.0
6.900999999999996,-1.0561737060546876,5.77628173828125,5.68297119140625,1724338614122.0
6.911000000000001,-0.73392333984375,6.9327941894531255,5.791983032226563,1724338614132.0
6.9210000000000065,-0.0608612060546875,7.640997314453125,8.257833862304688,1724338614142.0
6.930999999999997,0.078057861328125,7.5862670898437505,7.413104248046875,1724338614152.0
6.9410000000000025,-0.0922637939453125,6.892568969726563,6.701312255859375,1724338614162.0
6.951000000000008,-0.10467529296875,6.750210571289063,5.0576110839843755,1724338614172.0
6.9609999999999985,0.2815765380859375,7.296316528320313,7.005169677734376,1724338614182.0
6.971000000000004,0.596051025390625,7.915994262695313,7.533779907226563,1724338614192.0
6.9809999999999945,0.375933837890625,7.307830810546876,6.12200927734375,1724338614202.0
6.991,-0.08194580078125,6.537719726562501,6.005520629882813,1724338614212.0
7.001000000000005,-0.59515380859375,6.84337158203125,6.89122314453125,1724338614222.0
7.010999999999996,-0.5879760742187501,7.463198852539063,8.529690551757813,1724338614232.0
7.021000000000001,-0.5019927978515626,7.0916015625,6.995748901367188,1724338614242.0
7.031000000000006,-0.557769775390625,7.180426025390625,4.962057495117188,1724338614252.0
7.040999999999997,-0.14654541015625,7.284951782226563,5.840283203125001,1724338614262.0
7.051000000000002,0.326885986328125,7.446002197265625,7.381552124023438,1724338614272.0
7.061000000000007,0.450103759765625,7.237698364257813,7.930947875976563,1724338614282.0
7.070999999999998,0.4508514404296875,6.770697021484375,6.2808166503906255,1724338614292.0
7.081000000000003,0.322698974609375,6.828717041015626,5.917294311523438,1724338614302.0
7.090999999999994,0.3796722412109375,7.454376220703126,7.028198242187501,1724338614312.0
7.100999999999999,-0.093310546875,7.809823608398438,7.123303222656251,1724338614322.0
7.111000000000004,-0.5519378662109375,6.896307373046875,6.178982543945313,1724338614332.0
7.120999999999995,-0.9051422119140624,6.712228393554688,5.920584106445313,1724338614342.0
7.131,-0.63941650390625,7.012945556640625,7.6685119628906255,1724338614352.0
7.140000000000001,-0.314923095703125,7.47142333984375,8.088259887695314,1724338614361.0
7.150999999999996,-0.180938720703125,7.099975585937501,6.1985717773437505,1724338614372.0
7.159999999999997,0.4427764892578125,7.119415283203126,5.0157409667968755,1724338614381.0
7.170000000000002,0.720166015625,7.556808471679688,6.34451904296875,1724338614391.0
7.180000000000007,0.8270843505859375,7.504171752929688,7.228128051757813,1724338614401.0
7.189999999999998,0.423486328125,6.921279907226563,7.1840148925781255,1724338614411.0
7.200000000000003,0.1638916015625,6.655404663085938,5.646035766601563,1724338614421.0
7.210000000000008,0.120526123046875,7.390524291992188,6.559701538085938,1724338614431.0
7.219999999999999,-0.02093505859375,7.752401733398438,7.248764038085938,1724338614441.0
7.230000000000004,-0.7367645263671876,7.68436279296875,6.685610961914063,1724338614451.0
7.239999999999995,-1.245635986328125,6.839483642578125,6.495401000976563,1724338614461.0
7.25,-1.0431640625,6.335546875,6.244479370117188,1724338614471.0
7.260000000000005,-0.8164672851562501,6.842773437500001,8.282357788085939,1724338614481.0
7.269999999999996,0.0773101806640625,7.415347290039063,7.515087890625001,1724338614491.0
7.280000000000001,0.9870880126953124,7.545443725585938,5.84805908203125,1724338614501.0
7.290000000000006,1.14664306640625,7.400543212890626,5.518032836914063,1724338614511.0
7.299999999999997,0.4963104248046875,7.031936645507813,6.407772827148438,1724338614521.0
7.310000000000002,-0.049945068359375,7.299008178710938,7.6239501953125,1724338614531.0
7.320000000000007,0.1185821533203125,7.664324951171875,6.725088500976563,1724338614541.0
7.329999999999998,0.218023681640625,7.105209350585938,5.448797607421875,1724338614551.0
7.340000000000003,-0.6799407958984376,6.907223510742188,6.364108276367188,1724338614561.0
7.349999999999994,-1.4892303466796877,6.794622802734375,8.212075805664064,1724338614571.0
7.359999999999999,-1.0228271484375,7.051974487304688,8.151364135742188,1724338614581.0
7.3700000000000045,-0.1081146240234375,7.264913940429688,6.447399902343751,1724338614591.0
7.3799999999999955,0.31881103515625,7.372579956054688,4.569375610351563,1724338614601.0
7.390000000000001,0.395074462890625,7.214071655273438,6.2643676757812505,1724338614611.0
7.400000000000006,0.5459564208984375,7.437179565429688,7.797561645507813,1724338614621.0
7.409999999999997,0.8157196044921876,7.098031616210938,7.643688964843751,1724338614631.0
7.420000000000002,0.596649169921875,6.834698486328126,6.010305786132813,1724338614641.0
7.430000000000007,-0.0462066650390625,7.183267211914063,5.6955322265625,1724338614651.0
7.439999999999998,-0.4015045166015625,7.457516479492188,7.3111206054687505,1724338614661.0
7.450000000000003,-0.6896606445312501,7.505966186523438,7.048535156250001,1724338614671.0
7.460000000000008,-0.7745971679687501,7.096237182617188,6.2553955078125005,1724338614681.0
7.469999999999999,-0.7790832519531251,6.778173828125,6.0146423339843755,1724338614691.0
7.480000000000004,-0.4251312255859375,6.755145263671875,7.443759155273438,1724338614701.0
7.489999999999995,0.08433837890625,7.254895019531251,8.192187500000001,1724338614711.0
7.5,0.5250213623046875,7.277175903320313,6.676040649414063,1724338614721.0
7.510000000000005,0.7910461425781251,7.240390014648438,5.433544921875001,1724338614731.0
7.519000000000005,0.53653564453125,7.291531372070313,5.691195678710938,1724338614740.0
7.530000000000001,0.2373138427734375,7.517330932617188,7.236801147460938,1724338614751.0
7.5390000000000015,-0.1449005126953125,7.280615234375,7.395010375976563,1724338614760.0
7.549000000000007,-0.240155029296875,7.129583740234375,5.825927734375,1724338614770.0
7.558999999999997,-0.2453887939453125,7.0823303222656255,5.951986694335938,1724338614780.0
7.569000000000003,-0.1592559814453125,7.0138427734375,6.265414428710938,1724338614790.0
7.579999999999998,-0.194097900390625,7.275979614257813,7.641296386718751,1724338614801.0
7.588999999999999,0.174658203125,6.990216064453126,7.699765014648438,1724338614810.0
7.599000000000004,0.4673004150390625,7.1550048828125,6.495401000976563,1724338614820.0
7.608999999999995,-0.251519775390625,7.88414306640625,6.407473754882813,1724338614830.0
7.619,-0.605621337890625,6.614730834960938,6.333602905273438,1724338614840.0
7.629000000000005,-0.7017730712890625,7.070516967773438,6.2509094238281255,1724338614850.0
7.638999999999996,-0.2165283203125,7.456918334960938,7.288839721679688,1724338614860.0
7.649000000000001,0.2630340576171875,7.251904296875001,6.676638793945313,1724338614870.0
7.659000000000006,0.0213836669921875,7.020123291015626,7.322036743164063,1724338614880.0
7.668999999999997,-0.1924530029296875,6.8439697265625,6.568524169921876,1724338614890.0
7.679000000000002,-0.0686370849609375,7.190744018554688,6.705349731445313,1724338614900.0
7.689000000000007,0.5022918701171876,7.611837768554688,6.480895996093751,1724338614910.0
7.698999999999998,0.2983245849609375,7.621707153320313,5.82293701171875,1724338614920.0
7.709000000000003,-0.1496856689453125,6.932943725585938,6.61009521484375,1724338614930.0
7.718999999999994,-0.5097686767578126,6.719406127929688,7.1047607421875005,1724338614940.0
7.728999999999999,-0.3868499755859375,7.213174438476563,7.837936401367188,1724338614950.0
7.739000000000004,-0.1786956787109375,6.91275634765625,7.110443115234376,1724338614960.0
7.748999999999995,-0.4574310302734375,7.252203369140625,5.872433471679688,1724338614970.0
7.759,-0.2428466796875,7.321139526367188,6.207992553710938,1724338614980.0
7.769000000000005,0.16209716796875,7.533181762695313,6.559402465820313,1724338614990.0
7.778999999999996,0.3653167724609375,7.254895019531251,6.93907470703125,1724338615000.0
7.7890000000000015,0.35709228515625,6.9731689453125005,6.602169799804688,1724338615010.0
7.799000000000007,0.1245635986328125,6.974813842773438,6.704901123046875,1724338615020.0
7.808999999999997,0.2811279296875,7.1346679687500005,6.999786376953126,1724338615030.0
7.819000000000003,0.021234130859375,7.5488830566406255,6.742135620117188,1724338615040.0
7.829000000000008,-0.27215576171875,6.999337768554688,6.267507934570313,1724338615050.0
7.838999999999999,-0.7322784423828126,6.937728881835938,6.414950561523438,1724338615060.0
7.849000000000004,-0.7083526611328126,7.041656494140626,7.2148193359375,1724338615070.0
7.858999999999995,-0.1449005126953125,7.357925415039063,7.424768066406251,1724338615080.0
7.869,-0.06400146484375,7.458413696289063,6.3720336914062505,1724338615090.0
7.879000000000005,0.38101806640625,6.972271728515626,5.478854370117188,1724338615100.0
7.888000000000005,0.3434844970703125,7.198669433593751,6.7757812500000005,1724338615109.0
7.897999999999996,0.5175445556640625,7.371981811523438,7.248614501953125,1724338615119.0
7.908000000000001,0.461468505859375,7.311419677734375,7.054815673828125,1724338615129.0
7.918000000000006,0.133685302734375,7.002627563476563,5.592800903320313,1724338615139.0
7.927999999999997,-0.0381317138671875,6.734658813476563,6.195132446289063,1724338615149.0
7.938000000000002,-0.53533935546875,7.300354003906251,7.541555786132813,1724338615159.0
7.948000000000008,-0.27454833984375,7.472769165039063,7.381253051757813,1724338615169.0
7.957999999999998,-0.151031494140625,7.5997253417968755,6.205899047851563,1724338615179.0
7.9680000000000035,-0.2672210693359375,7.595538330078125,5.4254699707031255,1724338615189.0
7.977999999999994,-0.4562347412109375,6.701760864257813,6.961505126953125,1724338615199.0
7.988,-0.6551177978515625,6.578543090820313,7.445852661132813,1724338615209.0
7.998000000000005,-0.100189208984375,6.990664672851563,8.13416748046875,1724338615219.0
8.007999999999996,0.7547088623046876,7.3846923828125,6.091653442382813,1724338615229.0
8.018,0.805401611328125,7.529891967773438,6.0998779296875005,1724338615239.0
8.028000000000006,-0.2332763671875,7.008758544921876,6.611141967773438,1724338615249.0
8.037999999999997,-0.7674194335937501,7.145733642578126,6.551626586914063,1724338615259.0
8.048000000000002,-0.0572723388671875,7.639801025390626,7.100125122070313,1724338615269.0
8.058999999999997,0.484796142578125,7.486376953125,5.465097045898438,1724338615280.0
8.067999999999998,-0.0297576904296875,6.978253173828126,6.6217590332031255,1724338615289.0
8.078000000000003,-0.8593841552734376,6.551626586914063,7.670455932617188,1724338615299.0
8.087999999999994,-0.3611297607421875,7.008758544921876,7.832104492187501,1724338615309.0
8.097999999999999,0.3321197509765625,7.368991088867188,7.225286865234375,1724338615319.0
8.108000000000004,0.191107177734375,7.475909423828125,4.672555541992188,1724338615329.0
8.117999999999995,-0.280828857421875,7.0957885742187505,6.013894653320313,1724338615339.0
8.128,-0.2062103271484375,7.403533935546876,7.167416381835938,1724338615349.0
8.138000000000005,0.2806793212890625,7.241436767578126,7.863656616210938,1724338615359.0
8.147999999999996,0.24224853515625,6.9268127441406255,6.481344604492188,1724338615369.0
8.158000000000001,-0.127703857421875,6.8071838378906255,5.9413696289062505,1724338615379.0
8.168000000000006,-0.171368408203125,7.210482788085938,7.22977294921875,1724338615389.0
8.177999999999997,0.0560760498046875,7.613931274414063,7.065731811523438,1724338615399.0
8.188000000000002,0.015252685546875,7.397702026367188,6.417044067382813,1724338615409.0
8.198000000000008,-0.3608306884765625,6.8559326171875,5.327523803710938,1724338615419.0
8.207999999999998,-0.40853271484375,6.882699584960938,6.975262451171876,1724338615429.0
8.218000000000004,-0.11065673828125,7.319046020507813,8.20594482421875,1724338615439.0
8.227999999999994,0.113946533203125,7.30155029296875,7.093246459960938,1724338615449.0
8.238,0.1015350341796875,7.024908447265625,5.745028686523438,1724338615459.0
8.247,-0.0046356201171875,6.965542602539063,5.6412506103515625,1724338615468.0
8.257000000000005,0.01495361328125,7.545294189453125,7.483535766601563,1724338615478.0
8.266999999999996,0.0705810546875,7.419982910156251,7.460955810546875,1724338615488.0
8.277000000000001,0.08433837890625,7.075900268554688,5.8381896972656255,1724338615498.0
8.287000000000006,0.03289794921875,7.0748535156250005,5.602670288085938,1724338615508.0
8.296999999999997,0.246734619140625,7.1630798339843755,6.570169067382813,1724338615518.0
8.307000000000002,0.164788818359375,7.400842285156251,7.431048583984375,1724338615528.0
8.317000000000007,0.16090087890625,7.082479858398438,6.785501098632813,1724338615538.0
8.326999999999998,0.3772796630859375,6.891522216796876,6.4755126953125,1724338615548.0
8.337000000000003,-0.23387451171875,7.720999145507813,6.982290649414063,1724338615558.0
8.346999999999994,-0.9242828369140624,7.3215881347656255,7.419085693359375,1724338615568.0
8.357,-1.12750244140625,6.357678222656251,6.197525024414063,1724338615578.0
8.367000000000004,-0.8028594970703126,7.28599853515625,5.810824584960938,1724338615588.0
8.376999999999995,0.051739501953125,7.38170166015625,7.363009643554688,1724338615598.0
8.387,0.483001708984375,7.590454101562501,7.025955200195313,1724338615608.0
8.397000000000006,0.357391357421875,6.816903686523438,7.211080932617188,1724338615618.0
8.406999999999996,0.16209716796875,6.776528930664063,5.675793457031251,1724338615628.0
8.417000000000002,0.5905181884765626,7.34581298828125,7.054815673828125,1724338615638.0
8.427000000000007,0.6093597412109375,7.862011718750001,6.834249877929688,1724338615648.0
8.436999999999998,-0.09091796875,7.318597412109376,5.932546997070313,1724338615658.0
8.447000000000003,-0.846075439453125,6.557308959960938,6.5066162109375005,1724338615668.0
8.457000000000008,-0.9763214111328126,7.02042236328125,6.901541137695313,1724338615678.0
8.466999999999999,-0.5505920410156251,7.263418579101563,8.398547363281251,1724338615688.0
8.477000000000004,-0.442327880859375,7.096536254882813,6.501980590820313,1724338615698.0
8.486999999999995,-0.4079345703125,7.005618286132813,5.70091552734375,1724338615708.0
8.497,0.2447906494140625,7.328018188476563,6.269302368164063,1724338615718.0
8.507000000000005,0.7675689697265625,7.491909790039063,7.164724731445313,1724338615728.0
8.516999999999996,0.7385589599609376,7.258184814453125,7.153659057617188,1724338615738.0
8.527000000000001,0.377728271484375,6.8918212890625,6.041110229492188,1724338615748.0
8.537000000000006,0.1852752685546875,7.099227905273438,6.4013427734375,1724338615758.0
8.546999999999997,0.139666748046875,7.584173583984375,6.788043212890625,1724338615768.0
8.557000000000002,-0.3069976806640625,7.489517211914063,6.853988647460938,1724338615778.0
8.567000000000007,-0.8227478027343751,6.748416137695313,6.289190673828125,1724338615788.0
8.576999999999998,-1.0397247314453126,6.7518554687500005,6.7662109375,1724338615798.0
8.587000000000003,-0.5028900146484375,7.034179687500001,7.844665527343751,1724338615808.0
8.596999999999994,-0.0928619384765625,7.436431884765626,7.312017822265625,1724338615818.0
8.607,0.18602294921875,7.255792236328125,5.9821929931640625,1724338615828.0
8.617000000000004,0.4463653564453125,6.993505859375,5.5111541748046875,1724338615838.0
8.626999999999995,0.5621063232421876,7.3365417480468755,6.78056640625,1724338615848.0
8.635999999999996,0.6162384033203125,7.569818115234376,7.437329101562501,1724338615857.0
8.646,0.395672607421875,7.120910644531251,6.321939086914063,1724338615867.0
8.656000000000006,0.15970458984375,6.798361206054688,5.373730468750001,1724338615877.0
8.665999999999997,-0.090618896484375,7.1316772460937505,6.681274414062501,1724338615887.0
8.676000000000002,-0.2056121826171875,7.857974243164063,7.7531494140625,1724338615897.0
8.686000000000007,-0.4510009765625,7.331307983398438,7.100424194335938,1724338615907.0
8.695999999999998,-0.7897003173828125,7.114929199218751,6.10526123046875,1724338615917.0
8.707000000000008,-0.89542236328125,6.463998413085938,6.380258178710938,1724338615928.0
8.715999999999994,-0.7891021728515626,6.951187133789063,7.441665649414063,1724338615937.0
8.725999999999999,-0.027813720703125,7.4292541503906255,8.084371948242188,1724338615947.0
8.736000000000004,0.9506011962890626,7.546340942382813,5.428012084960938,1724338615957.0
8.745999999999995,0.8170654296875001,7.304690551757813,6.0388671875,1724338615967.0
8.756,0.160302734375,6.799557495117188,6.711331176757813,1724338615977.0
8.766000000000005,-0.274249267578125,7.338934326171875,7.497741699218751,1724338615987.0
8.775999999999996,0.14654541015625,7.5369201660156255,7.150369262695313,1724338615997.0
8.786000000000001,0.265576171875,7.250857543945313,4.901196289062501,1724338616007.0
8.796000000000006,-0.4844970703125,6.987973022460938,6.500933837890625,1724338616017.0
8.807000000000002,-1.033145141601563,6.974813842773438,7.664624023437501,1724338616028.0
8.816000000000003,-0.6105560302734375,7.148275756835938,8.129830932617189,1724338616037.0
8.826000000000008,0.081646728515625,7.150817871093751,6.491961669921875,1724338616047.0
8.835999999999999,0.161199951171875,7.163528442382813,4.892971801757813,1724338616057.0
8.846000000000004,0.0267669677734375,7.199267578125,6.7832580566406255,1724338616067.0
8.855999999999995,0.2208648681640625,7.389776611328125,7.638754272460938,1724338616077.0
8.866,0.423785400390625,7.23515625,7.410711669921875,1724338616087.0
8.876000000000005,0.2666229248046875,6.847259521484376,5.762075805664063,1724338616097.0
8.885999999999996,-0.170172119140625,7.041207885742188,5.895611572265626,1724338616107.0
8.896,-0.20157470703125,7.530789184570313,7.502078247070313,1724338616117.0
8.906999999999996,-0.1075164794921875,7.5503784179687505,7.03238525390625,1724338616128.0
8.915999999999997,-0.154022216796875,7.092050170898438,5.983987426757813,1724338616137.0
8.926000000000002,-0.3258392333984375,6.809725952148438,5.79661865234375,1724338616147.0
8.936000000000007,-0.3853546142578125,6.932345581054688,7.703652954101563,1724338616157.0
8.945999999999998,-0.0674407958984375,7.180126953125001,8.266207885742189,1724338616167.0
8.956000000000003,0.037384033203125,7.286297607421876,6.605010986328126,1724338616177.0
8.965999999999994,0.126507568359375,7.081732177734375,5.202212524414063,1724338616187.0
8.975999999999999,0.078955078125,7.229922485351563,5.99161376953125,1724338616197.0
8.986000000000004,-0.00299072265625,7.558004760742188,7.603762817382813,1724338616207.0
8.995999999999995,0.0381317138671875,7.323980712890625,7.21123046875,1724338616217.0
9.007000000000005,0.1435546875,7.003973388671875,5.762524414062501,1724338616228.0
9.015,0.2887542724609375,7.044497680664063,5.662335205078126,1724338616236.0
9.025000000000006,0.313726806640625,7.157696533203126,6.872232055664063,1724338616246.0
9.034999999999997,0.1296478271484375,7.460955810546875,7.2528015136718755,1724338616256.0
9.045000000000002,0.276043701171875,6.8894287109375005,7.252203369140625,1724338616266.0
9.055000000000009,0.1697235107421875,7.267456054687501,6.372482299804688,1724338616276.0
9.064999999999998,-0.8046539306640625,7.997640991210938,7.004421997070313,1724338616286.0
9.075000000000005,-1.269412231445313,6.411062622070313,6.835446166992188,1724338616296.0
9.085000000000008,-1.2581970214843752,6.849801635742188,5.803497314453125,1724338616306.0
9.095,-0.3043060302734375,7.347158813476563,7.148724365234376,1724338616316.0
9.107,0.6660339355468751,7.546340942382813,6.721798706054688,1724338616328.0
9.114999999999997,0.7093994140625001,7.1899963378906255,7.686306762695313,1724338616336.0
9.125,0.2896514892578125,6.61368408203125,6.190945434570313,1724338616346.0
9.135000000000003,0.273651123046875,7.105508422851563,6.350650024414063,1724338616356.0
9.144999999999996,0.786260986328125,7.7896362304687505,6.93070068359375,1724338616366.0
9.155,0.2412017822265625,7.710980224609376,5.934939575195313,1724338616376.0
9.165000000000006,-0.7364654541015625,6.881503295898438,6.371884155273438,1724338616386.0
9.174999999999995,-1.2969268798828126,6.542953491210938,6.732116699218751,1724338616396.0
9.185000000000002,-0.8151214599609375,7.304989624023438,8.252450561523439,1724338616406.0
9.195000000000007,-0.3249420166015625,7.030889892578125,7.537966918945313,1724338616416.0
9.207000000000008,-0.357989501953125,7.101321411132813,5.429058837890626,1724338616428.0
9.215000000000003,0.0677398681640625,7.087564086914063,6.1552062988281255,1724338616436.0
9.224999999999994,0.8258880615234375,7.5623413085937505,6.791333007812501,1724338616446.0
9.235,0.9356475830078126,7.529891967773438,7.462600708007813,1724338616456.0
9.245000000000005,0.5461059570312501,7.0000854492187505,6.000286865234376,1724338616466.0
9.254999999999995,0.064898681640625,6.839782714843751,5.976361083984376,1724338616476.0
9.265,0.0095703125,7.406674194335938,7.161734008789063,1724338616486.0
9.275000000000006,-0.3192596435546875,7.634268188476563,7.135266113281251,1724338616496.0
9.284999999999997,-0.787457275390625,6.8559326171875,6.498242187500001,1724338616506.0
9.295000000000002,-1.1251098632812502,6.646133422851563,6.111093139648438,1724338616516.0
9.305000000000009,-0.7304840087890625,6.940121459960938,7.543798828125,1724338616526.0
9.314999999999998,-0.0551788330078125,7.441067504882813,7.915396118164063,1724338616536.0
9.325000000000005,0.1975372314453125,7.3200927734375005,6.322387695312501,1724338616546.0
9.335000000000008,0.63941650390625,7.178631591796876,4.975067138671875,1724338616556.0
9.345,0.7947845458984376,7.359121704101563,6.243582153320313,1724338616566.0
9.355000000000004,0.7584472656250001,7.345663452148438,7.355532836914063,1724338616576.0
9.364999999999997,0.303558349609375,7.0180297851562505,7.268353271484376,1724338616586.0
9.375,0.019439697265625,6.832305908203126,5.963949584960938,1724338616596.0
9.385000000000003,-0.1158905029296875,7.414001464843751,6.000286865234376,1724338616606.0
9.394000000000004,-0.25540771484375,7.691091918945313,6.942514038085938,1724338616615.0
9.403999999999996,-0.7137359619140625,7.679876708984375,7.2172119140625,1724338616625.0
9.414,-1.12152099609375,6.609497070312501,6.7249389648437505,1724338616635.0
9.424000000000008,-0.9535919189453126,6.213824462890625,6.419287109375,1724338616645.0
9.433999999999996,-0.536236572265625,7.153060913085938,7.938275146484376,1724338616655.0
9.444000000000004,0.576910400390625,7.540060424804688,7.066479492187501,1724338616665.0
9.454000000000008,0.9440216064453124,7.797412109375,5.932995605468751,1724338616675.0
9.464,0.6343322753906251,6.932196044921875,5.657849121093751,1724338616685.0
9.474000000000004,0.160601806640625,7.093994140625001,6.34691162109375,1724338616695.0
9.483999999999996,0.082843017578125,7.512097167968751,8.102017211914063,1724338616705.0
9.494,0.2788848876953125,7.449441528320313,6.390576171875001,1724338616715.0
9.504000000000003,-0.17764892578125,7.043899536132813,5.5844268798828125,1724338616725.0
9.513999999999996,-0.755157470703125,6.798361206054688,6.489270019531251,1724338616735.0
9.524,-0.9873870849609376,7.155303955078126,8.136111450195314,1724338616745.0
9.534000000000006,-0.5426666259765626,7.147677612304688,7.940069580078125,1724338616755.0
9.543999999999995,-0.1664337158203125,7.201510620117188,5.535678100585938,1724338616765.0
9.554000000000002,0.1161895751953125,7.071713256835938,5.361019897460938,1724338616775.0
9.564000000000007,0.384307861328125,7.386187744140625,6.942514038085938,1724338616785.0
9.573999999999998,0.4188507080078125,7.418487548828126,7.8847412109375,1724338616795.0
9.584000000000003,0.4469635009765625,6.920083618164063,6.8400817871093755,1724338616805.0
9.593999999999994,0.1975372314453125,6.899298095703125,5.6916442871093755,1724338616815.0
9.604,0.0237762451171875,7.377365112304688,6.3630615234375005,1724338616825.0
9.614000000000004,-0.1734619140625,7.591500854492188,7.171005249023438,1724338616835.0
9.623999999999995,-0.4086822509765625,7.324130249023438,6.644488525390625,1724338616845.0
9.634,-0.465057373046875,6.859970092773438,6.075503540039063,1724338616855.0
9.644000000000004,-0.43544921875,6.866400146484375,6.603067016601563,1724338616865.0
9.653999999999996,-0.1807891845703125,7.099227905273438,7.869189453125,1724338616875.0
9.664,-0.0626556396484375,7.276428222656251,7.445852661132813,1724338616885.0
9.674000000000008,0.2065093994140625,7.148574829101563,5.962155151367188,1724338616895.0
9.683999999999996,0.253314208984375,7.121658325195313,5.899200439453125,1724338616905.0
9.694000000000004,0.13577880859375,7.329812622070313,6.608001708984376,1724338616915.0
9.704000000000008,0.019439697265625,7.367495727539063,7.530938720703125,1724338616925.0
9.714,0.06759033203125,7.278372192382813,6.3833984375,1724338616935.0
9.724000000000004,0.2193695068359375,7.170706176757813,5.526406860351563,1724338616945.0
9.733999999999996,0.239556884765625,6.95462646484375,6.0539703369140625,1724338616955.0
9.742999999999997,0.0180938720703125,7.365701293945313,7.0569091796875005,1724338616964.0
9.753,0.2059112548828125,7.012796020507813,8.143887329101563,1724338616974.0
9.763000000000003,0.2071075439453125,7.365252685546875,6.784454345703126,1724338616984.0
9.772999999999996,-0.5492462158203125,7.6598388671875,6.2099365234375,1724338616994.0
9.783,-1.0460052490234375,6.481344604492188,6.196029663085938,1724338617004.0
9.793000000000006,-1.097894287109375,6.977056884765625,6.693087768554688,1724338617014.0
9.802999999999995,-0.416009521484375,7.505218505859376,7.64847412109375,1724338617024.0
9.813000000000002,0.3898406982421875,7.255194091796875,6.4731201171875,1724338617034.0
9.823000000000008,0.4868896484375,7.123004150390625,6.606655883789063,1724338617044.0
9.832999999999998,0.1972381591796875,6.8535400390625005,6.770697021484375,1724338617054.0
9.843000000000004,0.1748077392578125,7.248614501953125,6.912307739257813,1724338617064.0
9.852999999999994,0.6039764404296876,7.640698242187501,6.765762329101563,1724338617074.0
9.863,0.4021026611328125,7.451834106445313,5.451190185546875,1724338617084.0
9.873000000000005,-0.3593353271484375,7.049581909179688,6.382351684570313,1724338617094.0
9.882999999999996,-0.9407318115234377,6.802847290039063,7.429702758789063,1724338617104.0
9.893,-0.792242431640625,7.188052368164063,7.775280761718751,1724338617114.0
9.903000000000006,-0.3313720703125,6.900643920898438,7.05870361328125,1724338617124.0
9.912999999999997,-0.3533538818359375,7.121060180664063,5.626895141601563,1724338617134.0
9.923000000000002,-0.1517791748046875,7.2034545898437505,6.62205810546875,1724338617144.0
9.933000000000009,0.3626251220703125,7.456619262695313,7.011151123046876,1724338617154.0
9.942999999999998,0.6492858886718751,7.394412231445313,6.880755615234375,1724338617164.0
9.953000000000005,0.6090606689453125,7.023712158203126,6.059652709960938,1724338617174.0
9.962999999999994,0.1894622802734375,7.016384887695313,6.175244140625001,1724338617184.0
9.973,0.1353302001953125,7.284353637695313,7.45706787109375,1724338617194.0
9.983000000000004,-0.1006378173828125,7.509405517578125,6.966290283203126,1724338617204.0
9.992999999999997,-0.399560546875,7.014590454101563,6.154159545898438,1724338617214.0
10.003,-0.8080932617187501,6.846810913085938,6.097485351562501,1724338617224.0
10.013000000000003,-0.8245422363281251,6.833352661132813,7.541555786132813,1724338617234.0
10.022999999999996,-0.3768310546875,7.307382202148438,8.196524047851563,1724338617244.0
10.033,-0.1449005126953125,7.303793334960938,6.406875610351563,1724338617254.0
10.043000000000006,0.405841064453125,7.218707275390625,4.939776611328125,1724338617264.0
10.052999999999995,0.605621337890625,7.334747314453126,6.245974731445313,1724338617274.0
10.063000000000002,0.6545196533203126,7.453927612304688,7.243380737304688,1724338617284.0
10.073000000000008,0.4550384521484375,7.227529907226563,7.523910522460938,1724338617294.0
10.082999999999998,0.270660400390625,6.8296142578125005,5.762973022460938,1724338617304.0
10.093000000000004,0.1317413330078125,6.833203125000001,6.018829345703125,1724338617314.0
10.102999999999994,-0.35589599609375,7.405926513671876,7.221847534179688,1724338617324.0
10.113,-0.421990966796875,7.504470825195313,7.280914306640626,1724338617334.0
10.123000000000005,-0.5624053955078125,7.6789794921875005,6.39775390625,1724338617344.0
10.132999999999996,-0.4631134033203125,7.18790283203125,5.762823486328125,1724338617354.0
10.143,-0.69683837890625,6.475961303710938,6.982888793945313,1724338617364.0
10.152,-0.9218902587890626,6.735107421875001,7.958462524414063,1724338617373.0
10.162000000000006,0.1060211181640625,7.122406005859376,7.766607666015625,1724338617383.0
10.171999999999995,1.2392059326171876,7.828814697265625,5.407675170898438,1724338617393.0
10.182000000000002,1.2194671630859375,7.461105346679688,5.764617919921875,1724338617403.0
10.192000000000007,-0.128302001953125,6.781613159179688,6.528897094726563,1724338617413.0
10.201999999999998,-0.6392669677734375,7.109695434570313,7.6475769042968755,1724338617423.0
10.212000000000003,0.0982452392578125,7.863507080078126,7.1062561035156255,1724338617433.0
10.221999999999994,0.430963134765625,7.250408935546876,5.082135009765626,1724338617443.0
10.232,-0.6554168701171875,6.8161560058593755,6.1477294921875005,1724338617453.0
10.242000000000004,-1.5113616943359376,6.658245849609376,8.15809326171875,1724338617463.0
10.251999999999995,-0.569134521484375,7.15440673828125,8.551074218750001,1724338617473.0
10.262,0.3841583251953125,7.473217773437501,6.5858703613281255,1724338617483.0
10.272000000000006,0.404345703125,7.248764038085938,4.064840698242188,1724338617493.0
10.281999999999996,0.082843017578125,6.9941040039062505,6.096737670898438,1724338617503.0
10.292000000000002,0.276641845703125,7.70230712890625,8.055661010742188,1724338617513.0
10.302000000000008,0.8172149658203126,7.356579589843751,7.975659179687501,1724338617523.0
10.311999999999998,0.41690673828125,6.799258422851563,5.221652221679688,1724338617533.0
10.322000000000005,-0.2782867431640625,6.830212402343751,5.54539794921875,1724338617543.0
10.332000000000008,-0.5857330322265626,7.388580322265626,7.977304077148438,1724338617553.0
10.342,-0.460272216796875,7.5862670898437505,7.764065551757813,1724338617563.0
10.352000000000004,-0.439935302734375,7.135565185546875,6.213824462890625,1724338617573.0
10.361999999999997,-0.6685760498046875,6.687405395507813,4.77977294921875,1724338617583.0
10.372,-0.4027008056640625,6.816754150390626,7.48338623046875,1724338617593.0
10.382000000000003,0.0485992431640625,7.54678955078125,8.781658935546876,1724338617603.0
10.391999999999996,0.5239746093750001,7.365252685546875,6.667218017578126,1724338617613.0
10.402,0.7031188964843751,7.015786743164063,4.866802978515626,1724338617623.0
10.412000000000006,0.4344024658203125,7.109097290039063,5.538220214843751,1724338617633.0
10.421999999999995,0.1351806640625,7.573406982421876,8.104708862304689,1724338617643.0
10.432000000000002,-0.12979736328125,7.358074951171876,7.713522338867188,1724338617653.0
10.442000000000007,-0.199481201171875,6.949841308593751,5.421582031250001,1724338617663.0
10.451999999999998,-0.2226593017578125,6.797164916992188,5.1234069824218755,1724338617673.0
10.462000000000003,-0.208154296875,7.281661987304688,7.02939453125,1724338617683.0
10.471999999999994,-0.150433349609375,7.368392944335938,8.860763549804688,1724338617693.0
10.482,-0.0088226318359375,7.3604675292968755,6.886288452148438,1724338617703.0
10.492000000000004,-0.0578704833984375,7.343719482421876,5.339337158203126,1724338617713.0
10.501999999999995,-0.24464111328125,6.664376831054688,6.09569091796875,1724338617723.0
10.510999999999996,-0.5568725585937501,7.128387451171876,7.4681335449218755,1724338617732.0
10.521,-0.3575408935546875,7.438226318359376,7.81236572265625,1724338617742.0
10.531000000000006,0.6196777343750001,7.268353271484376,5.614483642578126,1724338617752.0
10.540999999999997,0.6584075927734375,7.2288757324218755,6.045745849609375,1724338617762.0
10.551000000000002,-0.1864715576171875,6.826025390625,7.1310791015625,1724338617772.0
10.561000000000009,-0.7001281738281251,7.13048095703125,7.681521606445313,1724338617782.0
10.570999999999998,0.0011962890625,7.478900146484375,7.073956298828126,1724338617792.0
10.581000000000005,0.4939178466796875,7.433291625976563,4.964450073242188,1724338617802.0
10.590999999999994,-0.2908477783203125,7.135116577148438,6.20933837890625,1724338617812.0
10.601,-0.9353485107421876,6.791931152343751,7.576547241210938,1724338617822.0
10.611000000000004,-0.396270751953125,7.2483154296875005,7.919583129882813,1724338617832.0
10.620999999999997,0.5019927978515626,7.213473510742188,6.833352661132813,1724338617842.0
10.631,0.2534637451171875,7.115975952148438,5.202212524414063,1724338617852.0
10.641000000000004,-0.32957763671875,7.044198608398438,6.557608032226563,1724338617862.0
10.650999999999996,-0.0832916259765625,7.344317626953125,7.652212524414063,1724338617872.0
10.661,0.2962310791015625,7.5159851074218755,7.067077636718751,1724338617882.0
10.671000000000006,0.2950347900390625,7.051077270507813,5.560800170898438,1724338617892.0
10.680999999999996,-0.2477813720703125,6.976309204101563,5.9383789062500005,1724338617902.0
10.691000000000004,-0.3312225341796875,7.267904663085938,7.731167602539063,1724338617912.0
10.701000000000008,-0.0841888427734375,7.391571044921876,7.621408081054688,1724338617922.0
10.711,-0.0423187255859375,7.0509277343750005,6.151019287109375,1724338617932.0
10.721000000000004,-0.250323486328125,6.909317016601563,5.63870849609375,1724338617942.0
10.730999999999996,-0.383709716796875,7.127490234375,6.98692626953125,1724338617952.0
10.741,-0.0049346923828125,7.368392944335938,7.853637695312501,1724338617962.0
10.751000000000005,0.1484893798828125,7.290335083007813,6.674844360351563,1724338617972.0
10.760999999999996,0.2720062255859375,7.05032958984375,5.266064453125001,1724338617982.0
10.771,0.161798095703125,7.252352905273438,6.349453735351563,1724338617992.0
10.781000000000006,0.115142822265625,7.467535400390625,7.436581420898438,1724338618002.0
10.790999999999997,0.070281982421875,7.190145874023438,7.48338623046875,1724338618012.0
10.801000000000002,-0.238958740234375,6.862811279296875,5.945257568359375,1724338618022.0
10.811000000000009,-0.2178741455078125,7.02281494140625,5.935537719726563,1724338618032.0
10.820999999999998,-0.2145843505859375,7.163827514648438,7.395758056640625,1724338618042.0
10.831000000000005,-0.15372314453125,7.051824951171875,7.310073852539063,1724338618052.0
10.840999999999994,-0.176751708984375,7.177285766601563,6.699069213867188,1724338618062.0
10.852000000000004,0.2555572509765625,7.530340576171875,5.493807983398438,1724338618073.0
10.861000000000004,0.46954345703125,7.979248046875001,6.291882324218751,1724338618082.0
10.870999999999997,0.203369140625,7.264315795898438,6.897802734375,1724338618092.0
10.879999999999995,-0.458477783203125,6.286947631835938,6.944458007812501,1724338618101.0
10.89,-0.7726531982421876,6.57181396484375,7.6335205078125,1724338618111.0
10.900000000000006,0.0910675048828125,7.366149902343751,7.145883178710938,1724338618121.0
10.909999999999997,0.4079345703125,7.78245849609375,6.474166870117188,1724338618131.0
10.920000000000002,-0.3488677978515625,7.247567749023438,5.996847534179688,1724338618141.0
10.930000000000009,-0.9577789306640626,6.7458740234375005,6.125897216796876,1724338618151.0
10.939999999999998,-0.2968292236328125,7.431945800781251,7.211679077148438,1724338618161.0
10.950000000000005,0.7049133300781251,7.796813964843751,6.902438354492188,1724338618171.0
10.960000000000008,0.6898101806640625,7.039413452148438,5.868844604492188,1724338618181.0
10.97,-0.078656005859375,6.608450317382813,6.525457763671875,1724338618191.0
10.980000000000004,-0.1658355712890625,6.9821411132812505,7.77647705078125,1724338618201.0
10.989999999999997,0.210845947265625,7.461254882812501,7.977154541015626,1724338618211.0
11.0,-0.0945068359375,7.42716064453125,5.711383056640625,1724338618221.0
11.010000000000003,-0.5606109619140626,7.096984863281251,4.7156219482421875,1724338618231.0
11.019999999999996,-0.5812469482421876,7.283456420898438,6.694583129882813,1724338618241.0
11.03,-0.179443359375,7.485330200195313,8.01513671875,1724338618251.0
11.040000000000006,0.0429168701171875,6.910961914062501,7.523910522460938,1724338618261.0
11.049999999999995,-0.0462066650390625,6.4722229003906255,5.873181152343751,1724338618271.0
11.060000000000002,0.0865814208984375,7.059750366210938,6.549832153320313,1724338618281.0
11.070000000000007,0.474627685546875,7.652362060546875,7.602416992187501,1724338618291.0
11.079999999999998,0.3692047119140625,7.677633666992188,6.443661499023438,1724338618301.0
11.090000000000003,-0.04486083984375,6.99649658203125,5.454031372070313,1724338618311.0
11.099999999999994,-0.3521575927734375,6.923074340820313,5.759982299804688,1724338618321.0
11.11,-0.1930511474609375,7.159042358398438,8.13416748046875,1724338618331.0
11.120000000000005,-0.235968017578125,7.503125000000001,7.760028076171875,1724338618341.0
11.129999999999995,-0.212640380859375,6.865652465820313,5.947052001953125,1724338618351.0
11.14,-0.1021331787109375,7.043600463867188,5.615979003906251,1724338618361.0
11.150000000000006,-0.0671417236328125,7.1899963378906255,7.196127319335938,1724338618371.0
11.159999999999997,-0.0554779052734375,7.33145751953125,7.9331909179687505,1724338618381.0
11.170000000000002,-0.09630126953125,7.1310791015625,6.549682617187501,1724338618391.0
11.180000000000009,0.303558349609375,7.225436401367188,5.1353698730468755,1724338618401.0
11.189999999999998,0.4406829833984375,7.419085693359375,6.319546508789063,1724338618411.0
11.200000000000005,0.285614013671875,7.070217895507813,7.156948852539063,1724338618421.0
11.210000000000008,-0.04007568359375,7.046591186523438,6.697573852539063,1724338618431.0
11.22,0.270062255859375,7.2243896484375005,6.127093505859375,1724338618441.0
11.230000000000004,0.929815673828125,7.114480590820313,7.088909912109376,1724338618451.0
11.239000000000004,-0.2118927001953125,8.327816772460938,7.493255615234376,1724338618460.0
11.25,-1.55697021484375,7.1256958007812505,6.988720703125001,1724338618471.0
11.259,-1.6664306640625002,5.5304443359375,5.182473754882813,1724338618480.0
11.269000000000004,-0.7644287109375001,7.456918334960938,6.660787963867188,1724338618490.0
11.278999999999996,0.2187713623046875,7.5354248046875005,8.650814819335938,1724338618500.0
11.289,0.486590576171875,7.549929809570313,6.829165649414063,1724338618510.0
11.299000000000008,0.5164978027343751,6.688302612304688,6.391174316406251,1724338618520.0
11.308999999999996,0.4218414306640625,6.908569335937501,4.829568481445313,1724338618530.0
11.319000000000004,0.741400146484375,7.589706420898438,7.781561279296875,1724338618540.0
11.329000000000008,0.5455078125,7.950238037109376,7.142294311523438,1724338618550.0
11.339,-0.0877777099609375,7.07664794921875,5.530743408203126,1724338618560.0
11.349000000000004,-0.820355224609375,6.394165039062501,6.447998046875001,1724338618570.0
11.358999999999996,-1.2073547363281252,7.029693603515626,7.376766967773438,1724338618580.0
11.369,-0.9464141845703126,7.364804077148438,8.912503051757813,1724338618590.0
11.379000000000003,-0.5745178222656251,7.008160400390626,6.128439331054688,1724338618600.0
11.39,-0.2432952880859375,7.061096191406251,4.7574920654296875,1724338618611.0
11.399,0.5106658935546875,7.446301269531251,6.399249267578125,1724338618620.0
11.409000000000006,0.94566650390625,7.554714965820313,7.814459228515625,1724338618630.0
11.418999999999995,0.82783203125,7.178482055664063,7.399795532226563,1724338618640.0
11.429000000000002,0.5567230224609375,6.687255859375001,5.519976806640625,1724338618650.0
11.439000000000007,0.24344482421875,7.011599731445313,6.286648559570313,1724338618660.0
11.448999999999998,-0.098992919921875,7.651165771484376,7.455422973632813,1724338618670.0
11.459000000000003,-0.7360168457031251,7.554565429687501,7.041506958007813,1724338618680.0
11.468999999999994,-1.0398742675781252,6.7626220703125,5.7559448242187505,1724338618690.0
11.479,-1.0741180419921876,6.793875122070313,6.066082763671876,1724338618700.0
11.489000000000004,-0.4095794677734375,7.120162963867188,8.1239990234375,1724338618710.0
11.498999999999995,-0.127703857421875,7.280166625976563,8.216262817382812,1724338618720.0
11.509,0.2112945556640625,6.930850219726563,6.018380737304688,1724338618730.0
11.519000000000004,0.8134765625000001,7.181173706054688,5.201016235351563,1724338618740.0
11.528999999999996,1.0059295654296876,7.717111206054688,6.159243774414063,1724338618750.0
11.539,0.8220001220703126,7.6445861816406255,7.110891723632813,1724338618760.0
11.549000000000008,0.2172760009765625,6.902288818359375,6.624151611328125,1724338618770.0
11.558999999999996,-0.0480010986328125,6.983486938476563,5.589511108398438,1724338618780.0
11.569000000000004,-0.0013458251953125,7.392318725585938,7.085470581054688,1724338618790.0
11.579000000000008,-0.286212158203125,7.554266357421875,7.194931030273438,1724338618800.0
11.589,-1.2229064941406251,7.240240478515625,7.32547607421875,1724338618810.0
11.599000000000004,-1.287356567382813,6.3540893554687505,6.337042236328125,1724338618820.0
11.608999999999996,-0.8429351806640626,6.664227294921876,6.736453247070313,1724338618830.0
11.619,-0.23746337890625,7.475909423828125,7.795318603515626,1724338618840.0
11.628,0.576611328125,7.405926513671876,6.631179809570313,1724338618849.0
11.638000000000003,0.8604309082031251,7.501779174804688,5.655905151367188,1724338618859.0
11.647999999999996,0.9607696533203126,7.043002319335938,5.88634033203125,1724338618869.0
11.658,0.48330078125,7.300354003906251,7.155303955078126,1724338618879.0
11.668000000000006,0.09390869140625,7.363159179687501,7.604061889648438,1724338618889.0
11.677999999999995,-0.0683380126953125,7.198818969726563,6.0420074462890625,1724338618899.0
11.688000000000002,-0.407037353515625,7.060797119140625,5.928958129882813,1724338618909.0
11.698999999999998,-0.9773681640625,7.019973754882813,6.962551879882813,1724338618920.0
11.707999999999998,-1.1769989013671875,7.154257202148438,7.878460693359376,1724338618929.0
11.718000000000004,-0.60113525390625,7.099377441406251,7.209286499023438,1724338618939.0
11.727999999999994,0.006280517578125,7.210781860351563,5.6363159179687505,1724338618949.0
11.738,0.4083831787109375,7.162780761718751,6.0689239501953125,1724338618959.0
11.748000000000005,0.5206848144531251,7.356878662109375,7.081134033203125,1724338618969.0
11.757999999999996,0.650482177734375,7.253399658203126,7.503573608398438,1724338618979.0
11.768,0.7023712158203126,6.988720703125001,6.542056274414063,1724338618989.0
11.778000000000006,0.2148834228515625,7.173995971679688,5.845217895507813,1724338618999.0
11.787999999999997,-0.1643402099609375,7.422225952148438,6.5290466308593755,1724338619009.0
11.799999999999995,-0.5471527099609376,7.430001831054688,6.936233520507813,1724338619021.0
11.808000000000009,-0.6326873779296875,7.1310791015625,6.666320800781251,1724338619029.0
11.817999999999998,-0.6578094482421876,6.957168579101563,6.433193969726563,1724338619039.0
11.828000000000005,-0.5689849853515625,6.822885131835938,7.098629760742188,1724338619049.0
11.837999999999994,-0.2380615234375,6.930850219726563,7.624249267578126,1724338619059.0
11.848,0.106170654296875,7.304989624023438,6.986178588867188,1724338619069.0
11.858000000000004,0.6219207763671876,7.289886474609376,6.0659332275390625,1724338619079.0
11.867999999999997,0.5902191162109376,7.383795166015625,5.791085815429688,1724338619089.0
11.878,0.3850555419921875,7.334298706054688,6.5051208496093755,1724338619099.0
11.888000000000003,0.1158905029296875,7.304690551757813,7.178182983398438,1724338619109.0
11.899,-0.02811279296875,7.169808959960938,6.531588745117188,1724338619120.0
11.908,-0.0692352294921875,7.19029541015625,6.25419921875,1724338619129.0
11.918000000000006,-0.3297271728515625,7.018777465820313,6.438278198242188,1724338619139.0
11.927999999999995,-0.3599334716796875,6.8619140625,6.986776733398438,1724338619149.0
11.938000000000002,-0.3887939453125,7.151864624023438,7.270895385742188,1724338619159.0
11.948000000000008,0.1855743408203125,7.06229248046875,6.887484741210938,1724338619169.0
11.957999999999998,0.35111083984375,7.674343872070313,6.50841064453125,1724338619179.0
11.968000000000004,-0.076861572265625,7.904629516601563,6.214273071289063,1724338619189.0
11.977999999999994,-0.3090911865234375,6.685162353515626,6.368145751953126,1724338619199.0
11.986999999999997,-0.43724365234375,6.697723388671876,6.391921997070313,1724338619208.0
11.998999999999995,-0.09630126953125,7.187454223632813,7.691390991210938,1724338619220.0
12.007000000000003,0.2308837890625,7.3006530761718755,7.194183349609376,1724338619228.0
12.016999999999996,0.1972381591796875,7.149771118164063,6.7473693847656255,1724338619238.0
12.027,-0.3481201171875,6.944607543945313,6.353790283203126,1724338619248.0
12.037000000000006,-0.4717864990234375,7.1932861328125,6.204852294921875,1724338619258.0
12.046999999999995,0.0131591796875,7.771392822265626,7.0299926757812505,1724338619268.0
12.057000000000002,0.3264373779296875,7.500732421875001,6.002081298828125,1724338619278.0
12.067000000000007,0.012261962890625,6.9001953125,6.315509033203125,1724338619288.0
12.076999999999998,-0.4311126708984375,6.611740112304688,7.324728393554688,1724338619298.0
12.087000000000003,-0.18482666015625,7.157846069335938,7.840927124023438,1724338619308.0
12.099999999999994,0.1715179443359375,7.284951782226563,7.385140991210938,1724338619321.0
12.107,-0.02691650390625,7.310223388671876,5.1398559570312505,1724338619328.0
12.117000000000004,-0.405242919921875,7.154257202148438,5.916995239257813,1724338619338.0
12.126999999999995,-0.2423980712890625,7.419085693359375,6.925616455078125,1724338619348.0
12.137,0.0825439453125,7.340130615234376,7.675839233398438,1724338619358.0
12.147000000000006,0.1419097900390625,6.989468383789063,6.493905639648438,1724338619368.0
12.156999999999996,-0.001495361328125,6.786697387695313,6.129336547851563,1724338619378.0
12.167000000000002,0.0136077880859375,7.168463134765625,7.1451354980468755,1724338619388.0
12.177000000000008,0.1399658203125,7.491909790039063,7.311270141601563,1724338619398.0
12.186999999999998,0.016448974609375,7.327719116210938,6.479251098632813,1724338619408.0
12.200000000000005,-0.27933349609375,6.994253540039063,5.42935791015625,1724338619421.0
12.207000000000008,-0.289501953125,7.069470214843751,6.596487426757813,1724338619428.0
12.217,-0.1375732421875,7.2632690429687505,7.803244018554688,1724338619438.0
12.227000000000004,-0.076263427734375,7.126892089843751,7.201062011718751,1724338619448.0
12.236999999999997,-0.01016845703125,7.125396728515626,6.1028686523437505,1724338619458.0
12.247,0.127105712890625,7.052871704101563,5.855236816406251,1724338619468.0
12.257000000000003,0.2232574462890625,7.5521728515625,6.895709228515625,1724338619478.0
12.266999999999996,0.1048248291015625,7.295867919921876,7.374523925781251,1724338619488.0
12.277,-0.031402587890625,7.069619750976563,6.094494628906251,1724338619498.0
12.287000000000006,-0.0275146484375,6.905578613281251,6.231021118164063,1724338619508.0
12.296999999999995,0.074169921875,7.14005126953125,6.63162841796875,1724338619518.0
12.307000000000002,-0.093310546875,6.9731689453125005,7.778421020507813,1724338619528.0
12.317000000000007,-0.2337249755859375,7.215716552734375,6.644787597656251,1724338619538.0
12.326999999999998,0.0477020263671875,7.584622192382813,6.051129150390626,1724338619548.0
12.337000000000003,0.179443359375,8.023361206054688,5.8008056640625005,1724338619558.0
12.346999999999994,-0.0569732666015625,7.114331054687501,6.894512939453126,1724338619568.0
12.357,-0.8104858398437501,6.404183959960938,7.0195251464843755,1724338619578.0
12.367000000000004,-0.7855133056640625,6.499588012695313,7.541256713867188,1724338619588.0
12.376000000000005,0.38580322265625,7.372579956054688,7.020571899414063,1724338619597.0
12.385999999999996,1.053631591796875,7.907022094726563,6.296368408203126,1724338619607.0
12.396,0.0219818115234375,7.040310668945313,6.479849243164063,1724338619617.0
12.406000000000006,-1.01624755859375,6.584674072265625,6.25718994140625,1724338619627.0
12.417000000000002,-0.402252197265625,7.413104248046875,7.551724243164063,1724338619638.0
12.426000000000002,0.6371734619140625,8.167962646484376,6.059353637695313,1724338619647.0
12.436000000000009,0.5359375000000001,7.134368896484376,5.682522583007813,1724338619657.0
12.445999999999998,-0.7049133300781251,6.4755126953125,6.4874755859375,1724338619667.0
12.456000000000005,-0.711492919921875,6.6830688476562505,8.410211181640626,1724338619677.0
12.465999999999994,0.2420989990234375,7.55576171875,8.541354370117189,1724338619687.0
12.476,0.4358978271484375,7.501181030273438,5.33604736328125,1724338619697.0
12.486999999999997,-0.164788818359375,7.084423828125001,4.363165283203125,1724338619708.0
12.495999999999997,-0.4355987548828125,7.232913208007813,6.447100830078125,1724338619717.0
12.506,0.0785064697265625,7.665072631835938,8.339181518554689,1724338619727.0
12.516000000000004,0.3267364501953125,7.0718627929687505,7.625146484375,1724338619737.0
12.525999999999996,-0.04127197265625,6.430053710937501,5.29417724609375,1724338619747.0
12.536,-0.2743988037109375,6.9537292480468755,6.5335327148437505,1724338619757.0
12.546000000000006,-0.0366363525390625,7.691241455078125,7.951135253906251,1724338619767.0
12.555999999999996,0.085235595703125,7.521517944335938,7.103713989257813,1724338619777.0
12.566000000000004,-0.2729034423828125,6.968084716796875,5.337991333007813,1724338619787.0
12.576000000000008,-0.4646087646484375,6.865353393554688,5.513845825195313,1724338619797.0
12.586,-0.1662841796875,7.270596313476563,7.890573120117188,1724338619807.0
12.596000000000004,0.238958740234375,7.560397338867188,7.865750122070313,1724338619817.0
12.605999999999996,0.3046051025390625,7.057208251953125,6.002230834960938,1724338619827.0
12.616,0.1730133056640625,6.817501831054688,5.244381713867188,1724338619837.0
12.626000000000005,0.060113525390625,7.183416748046875,7.24412841796875,1724338619847.0
12.635999999999996,-0.0803009033203125,7.553518676757813,8.260525512695313,1724338619857.0
12.646,-0.283819580078125,7.116873168945313,6.511550903320313,1724338619867.0
12.656000000000006,-0.3066986083984375,6.922476196289063,5.084228515625,1724338619877.0
12.665999999999997,-0.209649658203125,7.252352905273438,6.339584350585938,1724338619887.0
12.676000000000002,-0.1658355712890625,7.521667480468751,7.8389831542968755,1724338619897.0
12.686000000000009,-0.0,7.051077270507813,7.185659790039063,1724338619907.0
12.695999999999998,0.3330169677734375,6.674246215820313,5.4423675537109375,1724338619917.0
12.706000000000005,0.5076751708984375,7.456619262695313,5.49814453125,1724338619927.0
12.715999999999994,1.031201171875,7.363009643554688,7.972967529296875,1724338619937.0
12.726,0.4018035888671875,7.876666259765625,7.573257446289063,1724338619947.0
12.736000000000004,-0.6981842041015626,7.52286376953125,6.282760620117188,1724338619957.0
12.745999999999997,-1.079052734375,5.726785278320313,5.369842529296875,1724338619967.0
12.756,-1.188214111328125,7.130929565429688,6.666769409179688,1724338619977.0
12.765,-0.6814361572265626,7.553668212890625,9.2628662109375,1724338619986.0
12.775000000000006,-0.203070068359375,7.47740478515625,6.579290771484375,1724338619996.0
12.784999999999997,0.13099365234375,6.744677734375,5.8700408935546875,1724338620006.0
12.795000000000002,0.2444915771484375,7.040310668945313,5.352346801757813,1724338620016.0
12.805000000000009,0.4960113525390625,7.529592895507813,7.740139770507813,1724338620026.0
12.814999999999998,0.9381896972656252,7.791879272460938,7.376467895507813,1724338620036.0
12.825000000000005,0.7774383544921876,7.159490966796875,5.313467407226563,1724338620046.0
12.835000000000008,0.1449005126953125,6.601571655273438,6.033184814453126,1724338620056.0
12.845,-0.8324676513671876,7.062591552734376,7.521966552734376,1724338620066.0
12.855000000000004,-0.997705078125,7.382150268554688,8.636459350585938,1724338620076.0
12.864999999999997,-0.7985229492187501,6.977804565429688,6.454129028320313,1724338620086.0
12.875,-0.7735504150390625,7.132275390625001,4.700967407226563,1724338620096.0
12.885000000000003,-0.428570556640625,7.186557006835938,6.557009887695313,1724338620106.0
12.894999999999996,0.104974365234375,7.51688232421875,7.901190185546875,1724338620116.0
12.905,0.6575103759765626,7.150219726562501,7.685409545898438,1724338620126.0
12.915000000000006,0.8897399902343751,6.809725952148438,5.581585693359376,1724338620136.0
12.924999999999995,0.72196044921875,6.968533325195313,5.921331787109375,1724338620146.0
12.935000000000002,0.4892822265625,7.621408081054688,7.470526123046875,1724338620156.0
12.945000000000007,0.0010467529296875,7.734008789062501,6.984832763671876,1724338620166.0
12.954999999999998,-0.41331787109375,7.04375,5.677587890625,1724338620176.0
12.965000000000003,-0.89063720703125,6.9013916015625005,5.489471435546875,1724338620186.0
12.974999999999994,-0.91815185546875,6.9148498535156255,7.821038818359376,1724338620196.0
12.985,-0.7430450439453126,7.082180786132813,8.704647827148438,1724338620206.0
12.995000000000005,-0.3590362548828125,6.978253173828126,6.9540283203125,1724338620216.0
13.004999999999995,0.2465850830078125,7.139303588867188,5.219857788085938,1724338620226.0
13.015,0.6500335693359376,7.279718017578125,5.7888427734375005,1724338620236.0
13.025000000000006,0.6933990478515626,7.730868530273438,7.235903930664063,1724338620246.0
13.034999999999997,0.5253204345703125,7.2886901855468755,7.317700195312501,1724338620256.0
13.045000000000002,0.3840087890625,7.096685791015625,5.545697021484376,1724338620266.0
13.055000000000009,0.3354095458984375,6.943411254882813,5.804843139648438,1724338620276.0
13.064999999999998,0.0396270751953125,7.168313598632813,6.814511108398438,1724338620286.0
13.075000000000005,-0.5505920410156251,7.378112792968751,7.987322998046875,1724338620296.0
13.085000000000008,-0.491973876953125,7.123751831054688,6.9420654296875,1724338620306.0
13.095,-0.5920135498046876,7.584173583984375,5.97247314453125,1724338620316.0
13.105000000000004,-0.6160888671875,7.0524230957031255,6.526953125,1724338620326.0
13.114999999999997,-0.8538513183593751,6.591104125976563,6.8206420898437505,1724338620336.0
13.123999999999995,-0.6491363525390625,7.030142211914063,7.7986083984375005,1724338620345.0
13.134,0.7834197998046876,7.330709838867188,6.572262573242188,1724338620355.0
13.144000000000004,1.4264251708984377,7.750009155273438,5.884695434570313,1724338620365.0
13.153999999999996,0.6805389404296875,6.984384155273438,6.792678833007813,1724338620375.0
13.164,-0.4798614501953125,6.802847290039063,6.631179809570313,1724338620385.0
13.174000000000008,-0.2534637451171875,7.44151611328125,7.454974365234375,1724338620395.0
13.183999999999996,0.3653167724609375,7.802346801757813,5.905780029296875,1724338620405.0
13.194000000000004,-0.1643402099609375,7.22379150390625,5.492462158203125,1724338620415.0
13.204000000000008,-1.244140625,6.595291137695313,7.025955200195313,1724338620425.0
13.214,-1.11195068359375,6.8879333496093755,8.079736328125001,1724338620435.0
13.224000000000004,0.0650482177734375,7.315008544921875,8.262918090820314,1724338620445.0
13.233999999999996,0.4332061767578125,7.284353637695313,5.335598754882813,1724338620455.0
13.244,0.11424560546875,7.084274291992188,5.116976928710938,1724338620465.0
13.254000000000003,0.24822998046875,7.258782958984376,7.033282470703125,1724338620475.0
13.263999999999996,0.5879760742187501,7.710083007812501,7.710083007812501,1724338620485.0
13.274,0.593658447265625,7.059002685546876,6.903634643554688,1724338620495.0
13.284000000000006,-0.081048583984375,6.741238403320313,5.141949462890626,1724338620505.0
13.293999999999995,-0.4414306640625,7.125396728515626,6.9298034667968755,1724338620515.0
13.304000000000002,-0.329876708984375,7.620062255859375,7.791580200195313,1724338620525.0
13.314000000000007,-0.4155609130859375,7.342523193359376,6.8684936523437505,1724338620535.0
13.323999999999998,-0.6276031494140626,6.721200561523438,5.730673217773438,1724338620545.0
13.334000000000003,-0.6951934814453126,6.767407226562501,6.247320556640625,1724338620555.0
13.343999999999994,-0.083441162109375,7.196426391601563,8.271890258789064,1724338620565.0
13.354,0.334661865234375,7.447348022460938,7.441665649414063,1724338620575.0
13.364000000000004,0.58857421875,7.199417114257813,5.640652465820313,1724338620585.0
13.373999999999995,0.4942169189453125,7.202557373046876,5.289093017578125,1724338620595.0
13.384,0.3662139892578125,7.401589965820313,6.64598388671875,1724338620605.0
13.394000000000004,0.1628448486328125,7.435385131835938,8.099624633789062,1724338620615.0
13.403999999999996,-0.248828125,7.097882080078126,6.354388427734375,1724338620625.0
13.414,-0.21114501953125,7.035226440429688,5.4562744140625,1724338620635.0
13.424000000000008,-0.146246337890625,7.04434814453125,6.399548339843751,1724338620645.0
13.433999999999996,-0.186322021484375,7.165921020507813,7.300802612304688,1724338620655.0
13.444000000000004,-0.3081939697265625,7.133920288085938,8.001977539062501,1724338620665.0
13.454000000000008,0.1356292724609375,6.942364501953126,6.294424438476563,1724338620675.0
13.464,0.27933349609375,7.7387939453125005,6.285452270507813,1724338620685.0
13.474000000000004,-0.220416259765625,7.664624023437501,6.352743530273438,1724338620695.0
13.483000000000004,-0.5289093017578126,6.495700073242188,6.336743164062501,1724338620704.0
13.494,-0.503338623046875,7.024459838867188,7.06468505859375,1724338620715.0
13.503,0.1993316650390625,7.252651977539063,7.2004638671875005,1724338620724.0
13.513999999999996,0.3279327392578125,7.258483886718751,7.094442749023438,1724338620735.0
13.522999999999996,-0.111553955078125,7.009207153320313,6.7383972167968755,1724338620744.0
13.533,-0.4511505126953125,7.019076538085938,6.2897888183593755,1724338620754.0
13.543000000000006,-0.0922637939453125,7.4277587890625005,6.599478149414063,1724338620764.0
13.552999999999995,0.3265869140625,7.738644409179688,6.278125,1724338620774.0
13.563000000000002,0.01854248046875,7.192837524414063,6.381454467773438,1724338620784.0
13.573000000000008,-0.3751861572265625,6.689797973632813,6.803295898437501,1724338620794.0
13.582999999999998,-0.3351104736328125,6.921279907226563,7.466787719726563,1724338620804.0
13.593000000000004,0.121124267578125,7.278073120117188,7.566229248046875,1724338620814.0
13.602999999999994,0.0228790283203125,7.213323974609375,6.407623291015626,1724338620824.0
13.613,-0.404644775390625,7.135565185546875,5.6621856689453125,1724338620834.0
13.623000000000005,-0.228790283203125,7.324728393554688,6.375622558593751,1724338620844.0
13.632999999999996,0.1613494873046875,7.502227783203126,7.167117309570313,1724338620854.0
13.644000000000004,0.2594451904296875,7.197174072265626,6.852493286132813,1724338620865.0
13.653000000000006,-0.0488983154296875,6.806735229492188,6.414501953125001,1724338620874.0
