time,ax,ay,az,timestamp
0.0,-0.72913818359375,7.887582397460938,4.81865234375,1727563602963.0
0.0099999999999766,-0.3539520263671875,7.902984619140626,5.0710693359375005,1727563602973.0
0.0199999999999818,0.3210540771484375,7.596136474609375,6.5592529296875,1727563602983.0
0.0299999999999727,0.6458465576171876,7.432095336914063,6.627590942382813,1727563602993.0
0.0399999999999778,1.120025634765625,6.840380859375,7.202407836914063,1727563603003.0
0.0499999999999545,1.041070556640625,6.663031005859375,7.6454833984375,1727563603013.0
0.0599999999999312,0.06220703125,6.693386840820313,7.2019592285156255,1727563603023.0
0.0709999999998984,-1.0195373535156251,7.096685791015625,7.642044067382813,1727563603034.0
0.0799999999999414,-1.4240325927734376,7.725485229492188,6.746920776367188,1727563603043.0
0.0899999999999181,-1.2921417236328123,7.574902343750001,5.558856201171875,1727563603053.0
0.0999999999998948,-1.926922607421875,7.079190063476563,6.075054931640626,1727563603063.0
0.1099999999998999,-1.137969970703125,6.452334594726563,8.148522949218751,1727563603073.0
0.1200000000000187,-0.697735595703125,6.226834106445313,8.780911254882813,1727563603083.0
0.1299999999999954,-0.4198974609375,6.391622924804688,7.88175048828125,1727563603093.0
0.1389999999998963,0.7315307617187501,7.112835693359376,6.370388793945313,1727563603102.0
0.1490000000000009,2.3888397216796875,8.219851684570314,4.948300170898438,1727563603112.0
0.1589999999999776,2.713034057617188,9.05889892578125,4.16129150390625,1727563603122.0
0.1709999999999354,2.549591064453125,8.104559326171875,4.068280029296876,1727563603134.0
0.1789999999999736,1.5708770751953127,8.731863403320313,5.305691528320313,1727563603142.0
0.1889999999999787,0.7394561767578125,6.834548950195313,7.095339965820313,1727563603152.0
0.1989999999999554,0.9640594482421876,8.181570434570313,3.3630676269531254,1727563603162.0
0.2089999999999321,0.1846771240234375,8.638851928710938,7.589407348632813,1727563603172.0
0.2189999999999372,-0.0955535888671875,7.4205810546875,7.936630249023438,1727563603182.0
0.2289999999999423,-1.0223785400390626,4.4105682373046875,5.0516296386718755,1727563603192.0
0.238999999999919,-2.7287353515625004,5.5603515625,9.611434936523438,1727563603202.0
0.2489999999998957,-3.2287841796875,6.317153930664063,13.595825195312502,1727563603212.0
0.2589999999999008,-1.6299438476562502,7.8838439941406255,6.378164672851563,1727563603222.0
0.2709999999999581,-1.227691650390625,7.90208740234375,2.5301513671875,1727563603234.0
0.2789999999999963,2.278033447265625,7.367047119140626,2.8541961669921876,1727563603242.0
0.288999999999973,1.5798492431640627,7.364953613281251,6.3959594726562505,1727563603252.0
0.2989999999999781,-2.1302917480468753,7.652062988281251,12.556848144531251,1727563603262.0
0.3089999999999833,0.4302154541015625,6.875671386718751,7.409664916992188,1727563603272.0
0.31899999999996,2.938385009765625,7.248464965820313,1.95174560546875,1727563603282.0
0.3289999999999367,2.210592651367188,7.038815307617188,4.904934692382813,1727563603292.0
0.3389999999999418,0.4086822509765625,8.002426147460938,7.226931762695313,1727563603302.0
0.3489999999999327,-2.9576751708984377,7.651315307617188,10.105352783203124,1727563603312.0
0.3589999999999378,-1.73880615234375,7.259979248046876,5.644091796875,1727563603322.0
0.3709999999999809,-1.371246337890625,7.047039794921876,1.4726318359375,1727563603334.0
0.3789999999998912,-0.423785400390625,6.262423706054688,8.422772216796876,1727563603342.0
0.3889999999998963,-0.384906005859375,7.087265014648438,11.198312377929687,1727563603352.0
0.3990000000000009,0.1939483642578125,6.9985900878906255,9.801495361328126,1727563603362.0
0.4089999999999776,0.319708251953125,7.0628906250000005,4.84317626953125,1727563603372.0
0.4189999999999827,1.658206176757813,7.088909912109376,2.1968353271484378,1727563603382.0
0.4289999999999736,2.9430206298828128,9.523358154296876,4.4105682373046875,1727563603392.0
0.4389999999999787,1.2311309814453126,6.9941040039062505,9.63909912109375,1727563603402.0
0.4489999999999554,-1.118829345703125,7.102816772460938,6.3585754394531255,1727563603412.0
0.4589999999999321,-1.5153991699218752,7.935882568359376,5.726934814453125,1727563603422.0
0.4710000000000178,0.6581085205078125,7.968630981445313,4.975067138671875,1727563603434.0
0.4789999999999423,1.218719482421875,8.076596069335938,4.498046875,1727563603442.0
0.488999999999919,-1.1783447265625,6.386239624023438,9.100320434570314,1727563603452.0
0.4979999999999336,-2.6940429687500003,5.978155517578125,9.144134521484377,1727563603461.0
0.5089999999999009,-2.2351165771484376,6.113037109375,9.353634643554688,1727563603472.0
0.5190000000000197,-0.8743377685546876,6.760977172851563,7.549032592773438,1727563603482.0
0.5279999999998921,0.7739990234375,7.662231445312501,3.5015380859375003,1727563603491.0
0.5379999999998972,3.3775726318359376,6.9462524414062505,5.78465576171875,1727563603501.0
0.5480000000000018,1.2191680908203126,7.1436401367187505,7.921527099609375,1727563603511.0
0.5579999999999785,-2.1546661376953127,7.648025512695313,9.835140991210938,1727563603521.0
0.5709999999998985,-1.9810546875,7.236502075195313,5.9717254638671875,1727563603534.0
0.5779999999999745,0.4391876220703125,8.514288330078125,1.122418212890625,1727563603541.0
0.5879999999999797,2.4881317138671877,8.340377807617188,4.629788208007813,1727563603551.0
0.5979999999999563,-0.3129791259765625,7.529144287109376,7.779766845703126,1727563603561.0
0.607999999999933,-0.6960906982421875,7.167864990234375,7.949191284179688,1727563603571.0
0.6179999999999382,1.2429443359375,6.938027954101563,6.847409057617188,1727563603581.0
0.6279999999999433,2.1489837646484378,6.720751953125,5.003927612304688,1727563603591.0
0.63799999999992,1.48758544921875,6.381903076171875,7.799954223632813,1727563603601.0
0.6479999999998967,-0.7240539550781251,6.652264404296876,10.497885131835938,1727563603611.0
0.6579999999999018,-2.378073120117188,6.447848510742188,7.915246582031251,1727563603621.0
0.6680000000000206,-1.93798828125,7.459011840820313,4.226040649414063,1727563603631.0
0.6779999999999973,-1.1387176513671875,8.328414916992188,5.375674438476563,1727563603641.0
0.687999999999974,-0.5372833251953125,9.068917846679687,5.668466186523438,1727563603651.0
0.6979999999999791,0.3946258544921875,7.892666625976563,4.069924926757813,1727563603661.0
0.7079999999999842,0.7858123779296876,6.803445434570313,5.569772338867188,1727563603671.0
0.7179999999999609,1.21124267578125,7.532135009765626,7.784402465820313,1727563603681.0
0.7279999999999376,1.5613067626953123,7.436431884765626,7.104312133789063,1727563603691.0
0.7379999999999427,1.7003753662109375,6.773837280273438,6.971524047851563,1727563603701.0
0.7479999999999336,0.247332763671875,6.1970764160156255,7.682717895507813,1727563603711.0
0.7579999999999387,-1.0621551513671876,6.881652832031251,8.713619995117188,1727563603721.0
0.7679999999999154,-2.732473754882813,6.852792358398438,8.44879150390625,1727563603731.0
0.7779999999998921,-2.5657409667968754,7.135714721679688,5.609548950195313,1727563603741.0
0.7879999999998972,-1.4871368408203125,7.408767700195313,3.933248901367188,1727563603751.0
0.7980000000000018,-0.219818115234375,7.388729858398438,5.891424560546875,1727563603761.0
0.8079999999999785,2.7315765380859376,8.582327270507813,6.265414428710938,1727563603771.0
0.8179999999999836,1.4346496582031252,7.607501220703125,7.011898803710938,1727563603781.0
0.8279999999999745,2.26756591796875,6.234310913085938,7.158294677734376,1727563603791.0
0.8379999999999797,1.3630218505859375,6.72374267578125,6.9836364746093755,1727563603801.0
0.84699999999998,-0.2133880615234375,6.709835815429688,9.172845458984376,1727563603810.0
0.8569999999999851,-2.2119384765625,6.0639892578125005,8.719451904296875,1727563603820.0
0.8669999999999618,-2.3580352783203127,8.378958129882813,5.134921264648438,1727563603830.0
0.8769999999999385,-1.3699005126953123,7.858572387695313,4.34671630859375,1727563603840.0
0.8869999999999436,-1.0125091552734375,7.435684204101563,4.306341552734375,1727563603850.0
0.8969999999999345,-0.211444091796875,7.209884643554688,7.710531616210938,1727563603860.0
0.9069999999999396,0.386102294921875,7.544396972656251,8.150018310546876,1727563603870.0
0.9169999999999164,1.9934661865234375,6.545346069335938,5.9328460693359375,1727563603880.0
0.926999999999893,3.2296813964843754,6.860568237304688,5.474517822265625,1727563603890.0
0.936999999999898,3.539669799804688,8.202804565429688,7.620361328125001,1727563603900.0
0.9470000000000028,1.7281890869140626,7.152313232421876,8.922821044921875,1727563603910.0
0.9569999999999936,-0.9117218017578126,8.2208984375,5.6527648925781255,1727563603920.0
0.9669999999999844,-3.324935913085938,8.051623535156251,5.0022827148437505,1727563603930.0
0.9769999999999754,-2.9416748046875,7.462750244140626,5.0082641601562505,1727563603940.0
0.9869999999999806,-3.318356323242188,7.891021728515626,5.779421997070313,1727563603950.0
0.9969999999999573,-2.436541748046875,6.538467407226563,6.1925903320312505,1727563603960.0
1.006999999999934,-0.5872283935546876,4.5870208740234375,7.316354370117188,1727563603970.0
1.016999999999939,-0.1064697265625,4.753604125976563,8.783154296875,1727563603980.0
1.0269999999999442,1.8868469238281251,9.033627319335938,10.179074096679688,1727563603990.0
1.0369999999999209,4.227984619140625,8.376416015625,7.587014770507813,1727563604000.0
1.0469999999998976,2.455831909179688,7.201809692382813,3.6585510253906257,1727563604010.0
1.056999999999903,2.0688323974609375,8.787640380859376,2.714230346679688,1727563604020.0
1.0669999999998936,0.3596343994140625,8.368789672851562,5.25828857421875,1727563604030.0
1.0769999999999982,-3.8489105224609377,9.021514892578123,8.580084228515625,1727563604040.0
1.0869999999999749,-2.7466796875000004,4.8019042968750005,8.27772216796875,1727563604050.0
1.09699999999998,-2.7658203125000003,5.373431396484375,7.655502319335938,1727563604060.0
1.106999999999985,-0.768316650390625,5.2101379394531255,6.6905456542968755,1727563604070.0
1.1169999999999618,-0.5893218994140625,5.770449829101563,7.654904174804688,1727563604080.0
1.1269999999999385,1.1758026123046876,8.324526977539064,7.994201660156251,1727563604090.0
1.1369999999999436,4.4998413085937505,10.42685546875,4.7395477294921875,1727563604100.0
1.1469999999999343,2.5763580322265627,6.748565673828126,4.05841064453125,1727563604110.0
1.1569999999999396,2.5153472900390628,9.983779907226562,2.1138427734375003,1727563604120.0
1.1669999999999163,0.454290771484375,7.024459838867188,7.275979614257813,1727563604130.0
1.176999999999893,-3.630737304687501,8.838333129882812,9.084320068359377,1727563604140.0
1.186999999999898,-2.1960876464843753,3.1490814208984377,9.633865356445312,1727563604150.0
1.1970000000000027,-2.2626312255859378,5.72484130859375,9.571359252929687,1727563604160.0
1.2069999999999936,-1.1294464111328126,6.465194702148438,6.78116455078125,1727563604170.0
1.2169999999999843,-1.59285888671875,7.172500610351563,3.393572998046875,1727563604180.0
1.2269999999999754,1.8512573242187504,10.60869140625,4.5581604003906255,1727563604190.0
1.2359999999999758,3.943865966796875,8.331405639648438,4.649078369140625,1727563604199.0
1.245999999999981,1.466650390625,6.844418334960938,7.65684814453125,1727563604209.0
1.2559999999999718,0.83680419921875,7.263867187500001,7.356430053710938,1727563604219.0
1.2659999999999627,-1.6655334472656251,6.6740966796875005,7.561892700195313,1727563604229.0
1.2759999999999536,-2.2832672119140627,6.114382934570313,7.64189453125,1727563604239.0
1.2859999999999443,-0.5588165283203126,6.810922241210938,7.94814453125,1727563604249.0
1.2959999999999354,-0.138470458984375,7.169509887695313,6.674844360351563,1727563604259.0
1.3059999999999403,0.515301513671875,7.344915771484375,5.4304046630859375,1727563604269.0
1.3159999999999172,-0.1646392822265625,7.526602172851563,6.622207641601563,1727563604279.0
1.325999999999894,-0.05921630859375,7.702606201171876,6.185861206054688,1727563604289.0
1.335999999999899,-0.0829925537109375,7.205697631835938,6.099728393554688,1727563604299.0
1.3460000000000178,0.313726806640625,7.490264892578126,6.524411010742188,1727563604309.0
1.3559999999999943,0.52576904296875,6.762023925781251,7.621856689453126,1727563604319.0
1.3659999999999712,0.228790283203125,6.710284423828125,7.370037841796876,1727563604329.0
1.3759999999999764,-0.380419921875,6.8625122070312505,7.5743041992187505,1727563604339.0
1.3859999999999817,0.00299072265625,7.309027099609375,6.057260131835938,1727563604349.0
1.3959999999999582,0.1371246337890625,8.265310668945313,5.204006958007813,1727563604359.0
1.4059999999999349,0.476123046875,7.8958068847656255,5.24871826171875,1727563604369.0
1.41599999999994,0.32120361328125,6.981692504882813,4.9107666015625,1727563604379.0
1.425999999999945,0.5507415771484375,7.0449462890625005,8.174093627929688,1727563604389.0
1.4359999999999218,0.1586578369140625,6.829165649414063,9.92740478515625,1727563604399.0
1.4459999999998985,-0.6515289306640626,6.504971313476563,6.7997070312500005,1727563604409.0
1.4559999999999036,-1.0763610839843751,6.7506591796875,6.974365234375001,1727563604419.0
1.4659999999998945,-1.95712890625,7.383047485351563,6.25419921875,1727563604429.0
1.475999999999999,-1.343731689453125,8.122354125976564,5.724093627929688,1727563604439.0
1.4859999999999758,-0.39298095703125,8.1909912109375,5.860769653320313,1727563604449.0
1.495999999999981,1.1236145019531252,7.633221435546876,4.178936767578126,1727563604459.0
1.5059999999999718,2.965750122070313,7.253250122070313,7.028048706054688,1727563604469.0
1.5159999999999627,1.4123687744140625,7.0270019531250005,7.808178710937501,1727563604479.0
1.5259999999999536,0.9479095458984376,7.289138793945313,7.305438232421875,1727563604489.0
1.5359999999999443,0.2274444580078125,7.446600341796875,6.303695678710938,1727563604499.0
1.5459999999999354,-0.5019927978515626,6.952682495117188,5.246923828125,1727563604509.0
1.5559999999999403,-1.780825805664063,7.336392211914063,6.789837646484376,1727563604519.0
1.5659999999999172,-2.841485595703125,7.079937744140626,8.962298583984376,1727563604529.0
1.575999999999894,-2.4011016845703126,6.74527587890625,6.479400634765626,1727563604539.0
1.5849999999999227,-0.9363952636718752,6.578692626953125,6.483288574218751,1727563604548.0
1.5960000000000178,-0.2292388916015625,6.769650268554688,6.858773803710938,1727563604559.0
1.6049999999999045,2.4636077880859375,6.706246948242188,7.935882568359376,1727563604568.0
1.6149999999998954,1.3070953369140623,7.63292236328125,7.625894165039063,1727563604578.0
1.625,1.1572601318359377,8.089755249023439,5.792880249023438,1727563604588.0
1.6349999999999767,1.585980224609375,8.083624267578125,3.7738433837890626,1727563604598.0
1.6449999999999818,0.1389190673828125,7.687951660156251,4.909869384765625,1727563604608.0
1.6549999999999727,-1.375732421875,5.809030151367188,8.463894653320313,1727563604618.0
1.6649999999999778,-1.6993286132812502,7.544247436523438,8.512344360351562,1727563604628.0
1.6749999999999543,-0.5004974365234376,7.060797119140625,7.383645629882813,1727563604638.0
1.6849999999999312,-0.1052734375,7.564883422851563,3.3684509277343753,1727563604648.0
1.6949999999999363,1.4063873291015625,7.082928466796876,5.887387084960938,1727563604658.0
1.7049999999999417,0.7846160888671876,7.72862548828125,7.473217773437501,1727563604668.0
1.714999999999918,0.820654296875,6.764566040039063,8.679226684570313,1727563604678.0
1.7249999999998948,1.0827911376953123,7.626492309570313,6.627142333984375,1727563604688.0
1.7349999999999,0.538330078125,7.425515747070313,4.597189331054688,1727563604698.0
1.7450000000000188,-0.0151031494140625,7.454376220703126,5.642147827148438,1727563604708.0
1.7549999999999957,-1.5399230957031251,7.632324218750001,8.148822021484376,1727563604718.0
1.764999999999972,-2.3233428955078126,6.99888916015625,7.25609130859375,1727563604728.0
1.7749999999999773,-0.8344116210937501,6.662283325195313,6.376370239257813,1727563604738.0
1.7849999999999824,-0.52337646484375,7.011749267578126,6.049633789062501,1727563604748.0
1.794999999999959,0.8107849121093751,7.294223022460938,7.260128784179688,1727563604758.0
1.804999999999936,1.5909149169921877,7.75673828125,7.4875732421875005,1727563604768.0
1.8149999999999409,1.1799896240234375,7.136761474609376,6.486129760742188,1727563604778.0
1.824999999999932,0.8033081054687501,7.678231811523438,4.772894287109375,1727563604788.0
1.8349999999999227,0.51380615234375,7.482638549804688,5.875872802734375,1727563604798.0
1.8449999999999136,-0.1457977294921875,7.763317871093751,6.815109252929688,1727563604808.0
1.8549999999999045,-0.731231689453125,7.0942932128906255,6.704602050781251,1727563604818.0
1.8649999999998952,-1.0648468017578123,6.685162353515626,6.788790893554688,1727563604828.0
1.875,-0.861029052734375,6.418090820312501,7.665670776367188,1727563604838.0
1.8849999999999767,-1.0528839111328123,6.758584594726563,8.141046142578126,1727563604848.0
1.8949999999999816,-0.7538116455078125,7.116424560546876,7.977752685546876,1727563604858.0
1.9049999999999727,0.010467529296875,7.627090454101563,5.520425415039063,1727563604868.0
1.9149999999999776,0.4248321533203125,7.723391723632813,4.8113250732421875,1727563604878.0
1.9249999999999543,0.92353515625,7.416543579101563,5.940621948242188,1727563604888.0
1.9349999999999312,0.6688751220703125,7.447048950195313,6.802398681640626,1727563604898.0
1.9449999999999363,0.7571014404296875,7.359271240234375,7.429702758789063,1727563604908.0
1.953999999999937,0.983648681640625,7.007711791992188,6.090606689453125,1727563604917.0
1.964999999999918,0.166583251953125,7.1071533203125,6.194384765625,1727563604928.0
1.9739999999999327,-0.5007965087890626,6.980047607421875,7.2976623535156255,1727563604937.0
1.9839999999999376,-0.8593841552734376,6.930252075195313,7.110293579101563,1727563604947.0
1.9939999999999145,-0.765325927734375,7.538565063476563,7.3488037109375,1727563604957.0
2.003999999999891,-0.2995208740234375,6.969580078125,6.73929443359375,1727563604967.0
2.0139999999998963,-0.408831787109375,7.009954833984375,5.723345947265625,1727563604977.0
2.024000000000001,-0.1562652587890625,6.792379760742188,8.086764526367189,1727563604987.0
2.0339999999999776,0.263482666015625,8.059548950195314,6.61009521484375,1727563604997.0
2.0439999999999827,0.50184326171875,8.509204101562501,4.975515747070313,1727563605007.0
2.0539999999999736,0.7123901367187501,7.434487915039063,4.399951171875,1727563605017.0
2.0639999999999787,0.5863311767578125,7.082778930664063,5.5859222412109375,1727563605027.0
2.073999999999955,-0.387896728515625,6.597982788085938,9.437973022460938,1727563605037.0
2.083999999999932,-0.84158935546875,6.740939331054688,9.080432128906253,1727563605047.0
2.0939999999999372,-0.9544891357421876,6.785949707031251,7.198370361328125,1727563605057.0
2.1039999999999424,-1.0563232421875002,7.060198974609375,5.378665161132813,1727563605067.0
2.113999999999919,-1.143951416015625,7.807131958007813,5.17215576171875,1727563605077.0
2.1239999999998957,-0.55567626953125,7.560098266601563,7.2889892578125,1727563605087.0
2.133999999999901,0.2080047607421875,7.511199951171876,6.4258666992187505,1727563605097.0
2.1440000000000197,0.653173828125,6.972122192382813,6.684115600585938,1727563605107.0
2.1539999999999964,1.2293365478515623,6.633572387695313,6.991412353515625,1727563605117.0
2.163999999999973,1.41461181640625,7.244427490234376,6.880157470703126,1727563605127.0
2.173999999999978,0.9823028564453126,7.056759643554688,7.718756103515625,1727563605137.0
2.1839999999999833,0.2241546630859375,7.594192504882813,5.9149017333984375,1727563605147.0
2.19399999999996,-0.2259490966796875,7.581781005859376,5.403787231445313,1727563605157.0
2.2039999999999367,-0.6280517578125,7.9331909179687505,5.260830688476563,1727563605167.0
2.213999999999942,-0.6111541748046876,8.223739624023438,5.562445068359375,1727563605177.0
2.2239999999999327,-0.0396270751953125,7.201510620117188,6.7159667968750005,1727563605187.0
2.233999999999938,-0.190509033203125,6.345416259765625,7.120312500000001,1727563605197.0
2.2439999999999145,-0.3342132568359375,6.015988159179688,8.898895263671875,1727563605207.0
2.253999999999891,-0.210546875,6.517233276367188,9.111386108398438,1727563605217.0
2.2639999999998963,0.01256103515625,7.040609741210938,7.072610473632813,1727563605227.0
2.274000000000001,-0.2050140380859375,7.833599853515626,4.9083740234375,1727563605237.0
2.2839999999999776,-0.113348388671875,7.636660766601563,4.31082763671875,1727563605247.0
2.2939999999999827,0.1015350341796875,8.0689697265625,5.419039916992188,1727563605257.0
2.3039999999999736,0.7135864257812501,8.238244628906251,6.826922607421875,1727563605267.0
2.3139999999999787,1.117034912109375,7.651165771484376,6.192440795898438,1727563605277.0
2.322999999999979,1.2887023925781251,6.487774658203126,6.344369506835938,1727563605286.0
2.332999999999984,0.00777587890625,5.848806762695313,8.460455322265625,1727563605296.0
2.342999999999961,-0.91097412109375,6.698171997070313,10.128680419921876,1727563605306.0
2.3529999999999376,-1.940380859375,7.33385009765625,7.881301879882813,1727563605316.0
2.3629999999999427,-1.5527832031250002,7.701260375976563,3.697579956054688,1727563605326.0
2.3729999999999336,-0.8007659912109376,7.951583862304688,3.161492919921875,1727563605336.0
2.3829999999999387,-0.6675292968750001,7.506265258789063,7.043899536132813,1727563605346.0
2.3929999999999154,-0.11065673828125,7.215118408203126,8.623300170898439,1727563605356.0
2.402999999999892,0.8016632080078125,6.654058837890625,8.142691040039063,1727563605366.0
2.4129999999998972,2.447906494140625,6.820193481445313,5.6711578369140625,1727563605376.0
2.423000000000002,2.72813720703125,7.392169189453125,5.710635375976563,1727563605386.0
2.4329999999999785,1.2092987060546876,7.624996948242188,7.772290039062501,1727563605396.0
2.4429999999999836,-0.49466552734375,7.829412841796875,6.537869262695313,1727563605406.0
2.4529999999999745,-1.846621704101563,7.421478271484376,4.849905395507813,1727563605416.0
2.4629999999999797,-1.0477996826171876,7.227978515625001,4.8487091064453125,1727563605426.0
2.4729999999999563,-1.59884033203125,6.758135986328125,7.553817749023438,1727563605436.0
2.482999999999933,-1.6250091552734376,6.700714111328126,9.893460083007811,1727563605446.0
2.492999999999938,-0.751568603515625,6.512298583984376,8.081680297851562,1727563605456.0
2.5029999999999433,0.0007476806640625,7.084573364257813,5.460760498046875,1727563605466.0
2.51299999999992,1.4958099365234376,7.873226928710938,5.279672241210938,1727563605476.0
2.5229999999998967,2.1735076904296875,7.299905395507813,6.573458862304688,1727563605486.0
2.5329999999999018,0.497955322265625,7.356579589843751,7.57071533203125,1727563605496.0
2.543000000000021,-0.007476806640625,7.5234619140625005,6.4243713378906255,1727563605506.0
2.5529999999999973,0.906787109375,8.275030517578125,4.209292602539063,1727563605516.0
2.562999999999974,0.5745178222656251,7.978350830078125,4.3724365234375,1727563605526.0
2.572999999999979,-0.276641845703125,6.694134521484376,6.817950439453125,1727563605536.0
2.582999999999984,-1.331170654296875,6.45517578125,9.457412719726562,1727563605546.0
2.592999999999961,-1.9713348388671876,6.593945312500001,8.969326782226563,1727563605556.0
2.6029999999999376,-0.169573974609375,6.292480468750001,6.406277465820313,1727563605566.0
2.6129999999999427,0.5266662597656251,7.75255126953125,5.330963134765625,1727563605576.0
2.6229999999999336,-0.2083038330078125,7.944854736328126,6.966140747070313,1727563605586.0
2.6329999999999387,-0.1320404052734375,7.697821044921875,5.7937774658203125,1727563605596.0
2.6429999999999154,0.8465240478515625,7.319943237304688,5.7010650634765625,1727563605606.0
2.652999999999892,0.9287689208984377,7.026254272460938,6.544598388671876,1727563605616.0
2.6629999999998972,0.03529052734375,6.964346313476563,7.6000244140625,1727563605626.0
2.673000000000002,-0.2824737548828125,6.97257080078125,8.490960693359376,1727563605636.0
2.6829999999999785,-0.1263580322265625,7.327569580078125,6.683966064453125,1727563605646.0
2.6919999999998936,-0.4484588623046875,7.243081665039063,5.621661376953125,1727563605655.0
2.701999999999998,-0.917852783203125,7.4187866210937505,5.556912231445313,1727563605665.0
2.711999999999975,-1.31173095703125,7.577743530273438,6.551327514648438,1727563605675.0
2.72199999999998,0.0635528564453125,7.4803955078125,7.353738403320313,1727563605685.0
2.731999999999985,0.8285797119140625,7.073806762695313,6.279769897460938,1727563605695.0
2.741999999999962,0.6640899658203125,6.613833618164063,6.534729003906251,1727563605705.0
2.7519999999999385,0.1006378173828125,6.6740966796875005,8.245571899414063,1727563605715.0
2.76299999999992,0.34752197265625,7.630679321289063,7.726382446289063,1727563605726.0
2.7719999999999345,0.1766021728515625,7.437927246093751,5.9253692626953125,1727563605735.0
2.7819999999999396,-0.2787353515625,7.271942138671876,4.142599487304688,1727563605745.0
2.7919999999999163,-0.70521240234375,7.108050537109375,6.44620361328125,1727563605755.0
2.801999999999893,-0.5417694091796875,7.5402099609375,8.759677124023439,1727563605765.0
2.811999999999898,-0.1027313232421875,7.094442749023438,7.265960693359376,1727563605775.0
2.8220000000000027,0.2995208740234375,7.181771850585938,4.803997802734376,1727563605785.0
2.8319999999999936,0.7177734375,7.78245849609375,4.969085693359375,1727563605795.0
2.8419999999999845,0.9757232666015626,7.903433227539063,7.0712646484375,1727563605805.0
2.851999999999975,0.398065185546875,6.751556396484376,8.12818603515625,1727563605815.0
2.8629999999999427,-0.5326477050781251,6.532186889648438,7.002926635742188,1727563605826.0
2.8719999999999573,-0.7128387451171876,6.672451782226563,6.856082153320313,1727563605835.0
2.881999999999934,-0.1939483642578125,7.706793212890625,6.397903442382813,1727563605845.0
2.891999999999939,-0.2181732177734375,7.852740478515625,6.472671508789063,1727563605855.0
2.901999999999944,-0.4550384521484375,7.451834106445313,5.2763824462890625,1727563605865.0
2.911999999999921,-0.2319305419921875,6.967935180664063,5.612539672851563,1727563605875.0
2.9219999999998976,0.7107452392578125,7.43553466796875,7.218258666992188,1727563605885.0
2.9319999999999027,1.246533203125,7.476208496093751,7.884442138671876,1727563605895.0
2.9419999999998936,0.7448394775390625,6.8924194335937505,6.9806457519531255,1727563605905.0
2.951999999999998,-0.2857635498046875,6.405380249023438,6.324331665039063,1727563605915.0
2.9629999999999797,-0.5277130126953126,7.337887573242188,7.094442749023438,1727563605926.0
2.97199999999998,-0.5754150390625,7.956817626953126,7.715914916992188,1727563605935.0
2.981999999999985,-0.7421478271484375,7.577893066406251,5.291485595703126,1727563605945.0
2.991999999999962,-1.1940460205078125,7.12449951171875,4.814465332031251,1727563605955.0
3.0019999999999385,-0.9218902587890626,6.874624633789063,7.441366577148438,1727563605965.0
3.0119999999999436,0.1878173828125,7.433740234375,8.273385620117189,1727563605975.0
3.0219999999999345,0.5588165283203126,6.98453369140625,7.683615112304688,1727563605985.0
3.030999999999935,1.030303955078125,6.7922302246093755,5.550332641601563,1727563605994.0
3.0419999999999163,0.8948242187500001,7.310073852539063,5.9431640625,1727563606005.0
3.051999999999893,0.385504150390625,7.8270202636718755,7.431646728515625,1727563606015.0
3.062999999999974,0.100787353515625,7.583874511718751,6.427960205078126,1727563606026.0
3.0720000000000027,-0.3366058349609375,7.643988037109375,4.959814453125,1727563606035.0
3.0819999999999936,-0.6332855224609375,6.8684936523437505,5.852694702148438,1727563606045.0
3.0909999999998945,-0.569732666015625,7.131976318359375,7.316952514648438,1727563606054.0
3.100999999999999,-0.4520477294921875,6.894064331054688,9.141891479492188,1727563606064.0
3.110999999999976,-0.3354095458984375,6.488522338867188,6.963449096679688,1727563606074.0
3.120999999999981,-0.145648193359375,6.620712280273438,6.485830688476563,1727563606084.0
3.130999999999972,0.0761138916015625,7.7052978515625,6.656301879882813,1727563606094.0
3.1409999999999627,0.337353515625,8.019772338867188,5.9682861328125005,1727563606104.0
3.1509999999999536,0.5659942626953125,7.936929321289063,5.566781616210938,1727563606114.0
3.1629999999998972,0.442327880859375,7.310372924804688,5.2313720703125,1727563606126.0
3.170999999999935,0.3970184326171875,7.083526611328126,6.226086425781251,1727563606134.0
3.1809999999999405,0.316717529296875,7.258633422851563,8.208337402343751,1727563606144.0
3.1909999999999172,0.3772796630859375,7.220501708984376,7.065133666992188,1727563606154.0
3.200999999999894,0.059515380859375,6.960757446289063,6.361267089843751,1727563606164.0
3.210999999999899,-0.5232269287109376,6.592300415039063,6.71776123046875,1727563606174.0
3.221000000000018,-1.0483978271484375,7.497293090820313,6.963897705078126,1727563606184.0
3.2309999999999945,-0.7659240722656251,7.651016235351563,7.020721435546876,1727563606194.0
3.2409999999999712,0.3859527587890625,7.377365112304688,4.753903198242188,1727563606204.0
3.2509999999999764,0.392083740234375,7.368093872070313,5.6524658203125,1727563606214.0
3.26299999999992,0.198883056640625,7.103564453125,8.193084716796875,1727563606226.0
3.270999999999958,0.2770904541015625,7.057656860351563,7.94395751953125,1727563606234.0
3.280999999999935,0.5323486328125,7.041058349609376,7.082031250000001,1727563606244.0
3.29099999999994,0.026617431640625,6.784902954101563,5.988772583007813,1727563606254.0
3.300999999999945,-0.7393066406250001,7.363308715820313,5.794525146484375,1727563606264.0
3.310999999999922,-0.8465240478515625,7.775131225585938,7.525106811523438,1727563606274.0
3.3209999999998985,-0.249127197265625,7.843768310546875,6.211132812500001,1727563606284.0
3.3309999999999036,-0.169873046875,7.013394165039063,5.927313232421875,1727563606294.0
3.3409999999998945,-0.5636016845703126,6.7518554687500005,6.44261474609375,1727563606304.0
3.350999999999999,-0.16688232421875,6.992309570312501,7.760327148437501,1727563606314.0
3.3629999999999427,0.7475311279296876,7.358673095703126,8.189495849609376,1727563606326.0
3.370999999999981,0.9284698486328126,7.4062255859375,6.0191284179687505,1727563606334.0
3.380999999999972,0.1233673095703125,6.987973022460938,5.085723876953125,1727563606344.0
3.3909999999999627,-0.4077850341796875,7.192538452148438,6.731967163085938,1727563606354.0
3.3999999999999773,-0.3037078857421875,7.936181640625,7.728775024414063,1727563606363.0
3.4099999999999824,-0.0584686279296875,7.4756103515625005,6.280517578125001,1727563606373.0
3.420999999999935,-0.2280426025390625,6.7458740234375005,4.998544311523438,1727563606384.0
3.429999999999936,-0.430364990234375,6.788790893554688,6.656301879882813,1727563606393.0
3.4409999999999172,-0.1380218505859375,6.933840942382813,9.233108520507812,1727563606404.0
3.449999999999932,0.174359130859375,7.1585937500000005,8.197122192382814,1727563606413.0
3.4629999999999797,0.1556671142578125,7.401141357421875,5.2819152832031255,1727563606426.0
3.4699999999999136,0.3720458984375,7.598080444335938,3.7325714111328128,1727563606433.0
3.4799999999999045,0.498553466796875,8.065829467773439,6.178683471679688,1727563606443.0
3.4899999999998954,0.2160797119140625,7.527798461914063,8.070913696289063,1727563606453.0
3.5,-0.095703125,6.919934082031251,6.424221801757813,1727563606463.0
3.5099999999999767,-0.034393310546875,6.64957275390625,6.340332031250001,1727563606473.0
3.519999999999982,0.2567535400390625,7.270596313476563,6.578692626953125,1727563606483.0
3.5299999999999727,0.0222808837890625,7.4172912597656255,7.925564575195313,1727563606493.0
3.539999999999978,-0.637921142578125,6.848156738281251,7.398599243164063,1727563606503.0
3.5499999999999545,-0.9286193847656252,6.872232055664063,5.726336669921875,1727563606513.0
3.559999999999931,-0.23028564453125,7.500433349609375,5.965893554687501,1727563606523.0
3.5699999999999363,0.444720458984375,7.790682983398438,6.141299438476563,1727563606533.0
3.5799999999999415,0.5522369384765625,7.653857421875,6.251956176757813,1727563606543.0
3.589999999999918,0.40673828125,7.08023681640625,6.812716674804688,1727563606553.0
3.599999999999895,0.5061798095703125,7.159790039062501,6.790884399414063,1727563606563.0
3.6099999999999,0.4888336181640625,6.782360839843751,7.565631103515625,1727563606573.0
3.620000000000019,-0.2456878662109375,7.0090576171875005,7.2842041015625005,1727563606583.0
3.629999999999995,-0.9094787597656252,7.281213378906251,6.671704101562501,1727563606593.0
3.639999999999972,-0.7104461669921875,7.61258544921875,5.878863525390625,1727563606603.0
3.6499999999999777,-0.4350006103515625,7.727429199218751,5.954379272460938,1727563606613.0
3.6599999999999824,-0.628948974609375,7.059750366210938,6.7069946289062505,1727563606623.0
3.669999999999959,-0.733624267578125,6.923971557617188,6.807781982421876,1727563606633.0
3.679999999999936,0.2391082763671875,6.926513671875001,7.677484130859376,1727563606643.0
3.689999999999941,1.1240631103515626,7.518676757812501,6.911709594726563,1727563606653.0
3.699999999999932,0.9790130615234376,7.16995849609375,6.252105712890626,1727563606663.0
3.7099999999999222,0.1481903076171875,6.930401611328126,6.0962890625,1727563606673.0
3.7199999999999136,-0.1550689697265625,7.500433349609375,7.125247192382813,1727563606683.0
3.729999999999905,0.055029296875,7.900442504882813,6.605609130859375,1727563606693.0
3.7399999999998954,-0.0037384033203125,7.512396240234375,5.04833984375,1727563606703.0
3.75,-0.36845703125,6.895858764648438,5.543453979492188,1727563606713.0
3.7599999999999767,-0.6473419189453126,6.900344848632813,7.7163635253906255,1727563606723.0
3.769999999999982,-0.30804443359375,6.742584228515626,9.200061035156253,1727563606733.0
3.7799999999999727,-0.0354400634765625,7.099676513671875,7.305737304687501,1727563606743.0
3.788999999999973,-0.0478515625,7.160687255859376,5.307635498046875,1727563606752.0
3.798999999999978,0.1197784423828125,7.538116455078126,5.272195434570313,1727563606762.0
3.8089999999999833,0.1263580322265625,7.753298950195313,7.114929199218751,1727563606772.0
3.81899999999996,0.21473388671875,7.486376953125,6.9253173828125005,1727563606782.0
3.8289999999999367,0.2561553955078125,7.170108032226563,5.685812377929688,1727563606792.0
3.838999999999942,0.5239746093750001,7.267456054687501,5.646185302734375,1727563606802.0
3.8489999999999327,0.4789642333984375,7.296914672851563,7.269848632812501,1727563606812.0
3.858999999999938,-0.0483001708984375,7.041506958007813,8.112185668945314,1727563606822.0
3.8689999999999145,-0.5528350830078126,6.703555297851563,6.909765625,1727563606832.0
3.878999999999891,-0.5444610595703125,7.397103881835938,5.599978637695313,1727563606842.0
3.888999999999896,0.214434814453125,7.727728271484375,5.4348907470703125,1727563606852.0
3.899000000000001,0.32060546875,7.371234130859375,6.432446289062501,1727563606862.0
3.9089999999999776,-0.252716064453125,7.477255249023438,7.429852294921876,1727563606872.0
3.9189999999999823,-0.251519775390625,6.606655883789063,7.572958374023438,1727563606882.0
3.9289999999999736,0.0776092529296875,6.7961181640625,6.429006958007813,1727563606892.0
3.9389999999999783,0.0466552734375,7.012646484375001,7.607949829101563,1727563606902.0
3.948999999999955,-0.3672607421875,7.675540161132813,6.945654296875,1727563606912.0
3.958999999999932,-0.5852844238281251,7.678829956054688,5.845068359375,1727563606922.0
3.9689999999999377,0.019140625,7.43314208984375,5.127294921875,1727563606932.0
3.9789999999999424,0.171368408203125,7.524209594726563,5.958865356445313,1727563606942.0
3.988999999999919,-0.093609619140625,6.875521850585938,7.989865112304688,1727563606952.0
3.998999999999896,0.0204864501953125,7.105508422851563,7.506713867187501,1727563606962.0
4.008999999999901,0.4773193359375,6.845016479492188,7.270895385742188,1727563606972.0
4.01900000000002,0.4032989501953125,7.132873535156251,5.941220092773438,1727563606982.0
4.028999999999996,-0.3883453369140625,7.506713867187501,6.379660034179688,1727563606992.0
4.038999999999973,-0.6881652832031251,7.235604858398438,7.066329956054688,1727563607002.0
4.048999999999978,-0.5399749755859375,7.596884155273438,6.086270141601563,1727563607012.0
4.058999999999983,-0.146246337890625,7.412655639648438,6.334201049804688,1727563607022.0
4.06899999999996,-0.1167877197265625,6.9058776855468755,6.202310180664063,1727563607032.0
4.078999999999937,0.0417205810546875,6.981393432617188,7.232015991210938,1727563607042.0
4.088999999999942,0.468048095703125,6.985430908203125,8.254693603515626,1727563607052.0
4.098999999999933,0.7932891845703126,7.071563720703126,6.384744262695313,1727563607062.0
4.108999999999938,0.5277130126953126,7.26207275390625,6.3436218261718755,1727563607072.0
4.1189999999999145,-0.120526123046875,7.633221435546876,5.719906616210938,1727563607082.0
4.128999999999891,-0.13577880859375,7.899395751953126,5.565286254882813,1727563607092.0
4.13799999999992,-0.090618896484375,8.1120361328125,6.359771728515626,1727563607101.0
4.147999999999897,-0.1380218505859375,6.851596069335938,5.886788940429688,1727563607111.0
4.157999999999902,-0.602630615234375,6.504821777343751,7.14244384765625,1727563607121.0
4.168999999999983,-0.6605010986328126,6.614880371093751,9.132919311523438,1727563607132.0
4.177999999999997,0.174359130859375,7.093695068359375,7.590005493164063,1727563607141.0
4.187999999999974,0.3744384765625,7.431646728515625,6.363510131835938,1727563607151.0
4.197999999999979,0.1526763916015625,7.049282836914063,4.825531005859375,1727563607161.0
4.207999999999984,-0.252716064453125,7.682717895507813,5.6198669433593755,1727563607171.0
4.217999999999961,0.2883056640625,8.063885498046876,7.246670532226563,1727563607181.0
4.227999999999938,0.9476104736328126,7.78245849609375,5.254550170898438,1727563607191.0
4.237999999999943,0.887945556640625,7.119564819335938,5.411862182617188,1727563607201.0
4.247999999999934,0.0333465576171875,6.509906005859375,8.079287719726564,1727563607211.0
4.257999999999939,-0.783270263671875,6.492559814453125,9.123498535156251,1727563607221.0
4.267999999999915,-0.7662231445312501,6.718209838867188,8.460006713867188,1727563607231.0
4.277999999999892,-0.7074554443359375,7.3978515625,5.8651062011718755,1727563607241.0
4.287999999999897,-0.6933990478515626,7.930499267578125,3.824386596679688,1727563607251.0
4.298000000000002,-0.5375823974609375,8.043399047851564,5.933743286132813,1727563607261.0
4.3079999999999785,-0.145947265625,7.645932006835938,7.178182983398438,1727563607271.0
4.317999999999984,0.3653167724609375,6.683367919921875,6.969879150390626,1727563607281.0
4.3279999999999745,0.7319793701171875,6.598880004882813,7.054965209960938,1727563607291.0
4.33799999999998,0.96002197265625,6.828268432617188,7.7076904296875,1727563607301.0
4.347999999999956,0.499749755859375,7.333401489257813,7.718756103515625,1727563607311.0
4.357999999999933,-0.33077392578125,7.370486450195313,6.356182861328126,1727563607321.0
4.367999999999938,-0.6000885009765625,7.522564697265626,4.7963714599609375,1727563607331.0
4.377999999999943,-0.59156494140625,7.984631347656251,5.354290771484376,1727563607341.0
4.38799999999992,-0.3234466552734375,7.794720458984376,6.534579467773438,1727563607351.0
4.397999999999897,-0.3461761474609375,6.825576782226563,7.032684326171876,1727563607361.0
4.407999999999902,0.0258697509765625,6.437081909179688,7.178482055664063,1727563607371.0
4.418000000000021,0.476422119140625,6.716564941406251,8.232263183593751,1727563607381.0
4.427999999999997,0.5311523437500001,6.811370849609376,7.633819580078126,1727563607391.0
4.437999999999974,0.0749176025390625,7.169509887695313,6.577496337890626,1727563607401.0
4.447999999999979,-0.411822509765625,7.637857055664063,5.9874267578125,1727563607411.0
4.457999999999984,-0.1676300048828125,7.925265502929688,5.00706787109375,1727563607421.0
4.467999999999961,-0.0587677001953125,8.19398193359375,5.574258422851563,1727563607431.0
4.477999999999938,0.081048583984375,7.282409667968751,6.004772949218751,1727563607441.0
4.487999999999943,0.1688262939453125,6.775033569335938,6.6845642089843755,1727563607451.0
4.497999999999934,0.3222503662109375,6.824530029296875,8.387033081054689,1727563607461.0
4.507999999999939,0.7053619384765626,6.867596435546876,7.701110839843751,1727563607471.0
4.516999999999939,0.2117431640625,7.0748535156250005,7.023861694335938,1727563607480.0
4.526999999999944,-0.5911163330078125,7.069470214843751,6.211132812500001,1727563607490.0
4.536999999999921,-0.9045440673828126,7.247268676757813,5.9874267578125,1727563607500.0
4.546999999999898,-0.7599426269531251,8.156597900390626,6.166870117187501,1727563607510.0
4.5579999999999785,0.0608612060546875,7.922125244140625,5.27025146484375,1727563607521.0
4.566999999999894,0.7076049804687501,6.972122192382813,5.178884887695313,1727563607530.0
4.576999999999998,0.72913818359375,7.039712524414063,7.992855834960938,1727563607540.0
4.586999999999975,0.3928314208984375,6.624899291992188,9.24537048339844,1727563607550.0
4.59699999999998,0.380120849609375,6.667666625976563,7.383197021484375,1727563607560.0
4.606999999999985,0.0438140869140625,7.013992309570313,6.5173828125,1727563607570.0
4.616999999999962,-0.59036865234375,7.772439575195313,4.9454589843750005,1727563607580.0
4.6269999999999385,-1.0757629394531252,8.02650146484375,6.124700927734375,1727563607590.0
4.636999999999944,-0.9094787597656252,7.723989868164063,6.295172119140625,1727563607600.0
4.6469999999999345,-0.4053924560546875,7.102667236328125,5.9817443847656255,1727563607610.0
4.65699999999994,-0.146844482421875,6.440521240234376,7.775280761718751,1727563607620.0
4.666999999999916,0.160302734375,6.845913696289063,8.020071411132813,1727563607630.0
4.676999999999893,0.7182220458984375,7.133322143554688,7.877264404296875,1727563607640.0
4.686999999999898,1.0180419921875,7.406524658203126,6.060848999023438,1727563607650.0
4.697000000000003,0.38699951171875,7.422674560546875,4.919589233398438,1727563607660.0
4.706999999999994,-0.3386993408203125,7.626791381835938,5.848358154296875,1727563607670.0
4.7169999999999845,-0.4029998779296875,7.630230712890626,7.2991577148437505,1727563607680.0
4.726999999999975,-0.3090911865234375,7.57310791015625,6.444857788085938,1727563607690.0
4.736999999999981,-0.331072998046875,6.942364501953126,5.953033447265625,1727563607700.0
4.746999999999957,-0.407635498046875,6.593197631835938,6.747817993164063,1727563607710.0
4.756999999999934,-0.2564544677734375,6.813613891601563,8.465988159179688,1727563607720.0
4.766999999999939,0.1601531982421875,7.244277954101563,8.027847290039062,1727563607730.0
4.776999999999944,0.4206451416015625,7.165472412109375,5.836843872070313,1727563607740.0
4.786999999999921,0.3243438720703125,7.534228515625,4.615731811523438,1727563607750.0
4.796999999999898,0.2776885986328125,7.784103393554688,6.1142333984375,1727563607760.0
4.806999999999903,0.2310333251953125,7.684661865234376,7.310372924804688,1727563607770.0
4.816999999999894,-0.0426177978515625,7.270147705078125,6.539663696289063,1727563607780.0
4.826999999999998,-0.0620574951171875,6.62564697265625,6.013446044921875,1727563607790.0
4.836999999999975,-0.1266571044921875,7.16397705078125,6.75963134765625,1727563607800.0
4.84699999999998,-0.1813873291015625,7.1810241699218755,8.37821044921875,1727563607810.0
4.856999999999985,-0.385504150390625,6.992758178710938,7.128237915039063,1727563607820.0
4.866999999999962,-0.5510406494140625,6.988421630859375,5.8534423828125,1727563607830.0
4.875999999999976,-0.132489013671875,7.530639648437501,5.493508911132813,1727563607839.0
4.886999999999944,0.485693359375,7.4265625,6.432147216796875,1727563607850.0
4.895999999999958,0.4888336181640625,7.967733764648438,6.853689575195313,1727563607859.0
4.905999999999935,0.378326416015625,7.118069458007813,6.828717041015626,1727563607869.0
4.916999999999916,0.4607208251953125,6.8610168457031255,5.5126495361328125,1727563607880.0
4.925999999999945,0.313726806640625,7.139303588867188,7.677035522460938,1727563607889.0
4.935999999999922,-0.2328277587890625,7.249661254882813,7.942462158203125,1727563607899.0
4.9459999999998985,-0.7950836181640626,7.015637207031251,6.640151977539063,1727563607909.0
4.955999999999904,-0.8780761718750001,7.306634521484376,5.927761840820313,1727563607919.0
4.9659999999998945,-0.581097412109375,7.506115722656251,5.819348144531251,1727563607929.0
4.975999999999999,-0.5399749755859375,7.394711303710938,7.189099121093751,1727563607939.0
4.985999999999976,-0.378924560546875,7.194631958007813,6.955075073242188,1727563607949.0
4.995999999999981,0.3186614990234375,6.836343383789063,6.509457397460938,1727563607959.0
5.005999999999972,0.947760009765625,7.306634521484376,6.746621704101563,1727563607969.0
5.015999999999963,0.9682464599609376,7.271194458007813,7.159042358398438,1727563607979.0
5.025999999999954,0.394775390625,7.3111206054687505,6.418240356445313,1727563607989.0
5.0359999999999445,0.093011474609375,7.35538330078125,6.40732421875,1727563607999.0
5.045999999999935,-0.01854248046875,7.781411743164063,5.610745239257813,1727563608009.0
5.0559999999999405,-0.3168670654296875,7.535275268554688,5.8127685546875005,1727563608019.0
5.065999999999917,-0.6406127929687501,7.080535888671876,6.547589111328126,1727563608029.0
5.075999999999894,-0.81885986328125,6.599627685546875,7.711129760742188,1727563608039.0
5.085999999999899,-0.538330078125,6.797912597656251,8.120858764648439,1727563608049.0
5.096000000000018,-0.15013427734375,6.703555297851563,7.637258911132813,1727563608059.0
5.1059999999999945,0.1063201904296875,7.396057128906251,5.964547729492188,1727563608069.0
5.115999999999971,0.3506622314453125,7.676138305664063,5.906527709960938,1727563608079.0
5.125999999999976,0.6670806884765625,7.800851440429688,5.710186767578126,1727563608089.0
5.1359999999999815,0.5347412109375,7.352691650390626,6.29666748046875,1727563608099.0
5.145999999999958,0.3075958251953125,7.29197998046875,6.335696411132813,1727563608109.0
5.155999999999935,0.3620269775390625,7.343121337890626,6.584973144531251,1727563608119.0
5.16599999999994,0.3473724365234375,7.409515380859376,6.669161987304688,1727563608129.0
5.175999999999945,-0.1493865966796875,6.868643188476563,6.912008666992188,1727563608139.0
5.185999999999922,-0.9304138183593752,6.704751586914063,7.496844482421875,1727563608149.0
5.1959999999998985,-1.2197662353515626,6.738098144531251,7.724588012695313,1727563608159.0
5.205999999999904,-0.6343322753906251,7.537518310546876,6.294723510742188,1727563608169.0
5.2159999999998945,0.177947998046875,8.016781616210938,5.084378051757813,1727563608179.0
5.225999999999999,0.8589355468750001,7.320690917968751,4.850503540039063,1727563608189.0
5.235999999999976,0.8483184814453125,7.473068237304688,6.975860595703126,1727563608199.0
5.245999999999981,0.6126495361328126,7.308428955078125,8.674441528320314,1727563608209.0
5.255999999999972,0.5754150390625,6.354687500000001,7.036871337890625,1727563608219.0
5.265999999999963,-0.057720947265625,6.730322265625,6.56822509765625,1727563608229.0
5.275999999999954,-0.9135162353515626,7.307232666015626,7.072610473632813,1727563608239.0
5.284999999999982,-1.2218597412109375,7.860516357421876,6.67589111328125,1727563608248.0
5.294999999999959,-1.0473510742187502,7.913900756835938,5.8670501708984375,1727563608258.0
5.304999999999936,-0.491375732421875,7.099526977539063,4.976263427734375,1727563608268.0
5.314999999999941,-0.2752960205078125,7.132275390625001,6.4515869140625,1727563608278.0
5.324999999999932,0.4299163818359375,6.945654296875,8.808575439453126,1727563608288.0
5.334999999999923,1.200625610351563,7.192089843750001,7.4923583984375,1727563608298.0
5.344999999999914,1.3355072021484375,6.824230957031251,6.484933471679688,1727563608308.0
5.3549999999999045,0.6615478515625001,7.201660156250001,5.4703308105468755,1727563608318.0
5.364999999999895,-0.428271484375,7.607501220703125,6.822735595703126,1727563608328.0
5.375,-0.739605712890625,7.715914916992188,7.179678344726563,1727563608338.0
5.384999999999977,-1.00906982421875,7.663876342773438,5.5041259765625,1727563608348.0
5.394999999999982,-1.050640869140625,6.997991943359375,5.374777221679688,1727563608358.0
5.404999999999973,-0.5836395263671875,6.733612060546876,6.765014648437501,1727563608368.0
5.414999999999978,0.189910888671875,7.053619384765626,9.099871826171876,1727563608378.0
5.4249999999999545,0.8338134765625,6.9420654296875,7.947994995117188,1727563608388.0
5.434999999999931,0.964208984375,6.854586791992188,5.449993896484376,1727563608398.0
5.444999999999936,0.8545989990234376,7.5025268554687505,5.5226684570312505,1727563608408.0
5.4549999999999415,0.4510009765625,8.030838012695312,6.377117919921876,1727563608418.0
5.464999999999918,-0.051141357421875,7.974612426757813,6.418988037109376,1727563608428.0
5.474999999999895,-0.6122009277343751,7.018627929687501,5.855535888671875,1727563608438.0
5.4849999999999,-0.919049072265625,6.868643188476563,5.586520385742188,1727563608448.0
5.495000000000019,-0.6791931152343751,6.954327392578126,8.394509887695314,1727563608458.0
5.5049999999999955,-0.29608154296875,7.118368530273438,8.533279418945312,1727563608468.0
5.514999999999972,-0.14774169921875,6.728378295898438,6.767706298828125,1727563608478.0
5.524999999999977,0.0805999755859375,6.791781616210938,5.8441711425781255,1727563608488.0
5.534999999999982,0.444720458984375,7.711279296875,5.8199462890625,1727563608498.0
5.544999999999959,0.8457763671875,7.9825378417968755,6.501980590820313,1727563608508.0
5.554999999999936,0.901104736328125,7.75673828125,5.3332061767578125,1727563608518.0
5.564999999999941,0.658856201171875,7.456619262695313,5.671307373046876,1727563608528.0
5.574999999999932,0.01016845703125,6.996795654296876,7.519125366210938,1727563608538.0
5.584999999999923,-0.5202362060546876,6.521270751953126,7.838534545898438,1727563608548.0
5.594999999999914,-0.9036468505859376,6.57181396484375,8.40692138671875,1727563608558.0
5.6049999999999045,-1.0706787109375,7.347308349609375,6.847857666015625,1727563608568.0
5.613999999999919,-0.6610992431640625,7.544396972656251,5.40423583984375,1727563608577.0
5.623999999999896,-0.3001190185546875,8.025753784179688,5.489321899414063,1727563608587.0
5.633999999999901,-0.1939483642578125,7.253399658203126,6.509307861328126,1727563608597.0
5.64400000000002,0.0539825439453125,7.11552734375,6.630581665039063,1727563608607.0
5.654999999999973,0.6936981201171876,6.973468017578125,7.669259643554688,1727563608618.0
5.664999999999978,1.2556549072265626,7.11552734375,6.916793823242188,1727563608628.0
5.673999999999978,0.5357879638671875,7.044647216796876,7.123901367187501,1727563608637.0
5.683999999999983,-0.3994110107421875,6.8984008789062505,6.791033935546875,1727563608647.0
5.69399999999996,-0.760540771484375,7.500433349609375,6.294424438476563,1727563608657.0
5.703999999999937,-0.290997314453125,8.10306396484375,6.051278686523438,1727563608667.0
5.713999999999942,-0.1341339111328125,7.652960205078125,5.102322387695313,1727563608677.0
5.723999999999933,-0.250921630859375,7.17294921875,5.359075927734375,1727563608687.0
5.733999999999938,-0.011065673828125,6.603665161132813,8.350994873046876,1727563608697.0
5.7439999999999145,0.3787750244140625,6.916046142578126,8.45118408203125,1727563608707.0
5.7549999999999955,0.413616943359375,6.5469909667968755,7.829562377929688,1727563608718.0
5.763999999999896,-0.055029296875,6.984683227539063,6.127392578125001,1727563608727.0
5.774000000000001,-0.5429656982421875,7.5847717285156255,5.797067260742188,1727563608737.0
5.783999999999978,-0.3787750244140625,7.976107788085938,6.292480468750001,1727563608747.0
5.793999999999983,-0.14893798828125,7.935733032226563,5.748019409179688,1727563608757.0
5.803999999999974,0.0273651123046875,7.295120239257813,5.41380615234375,1727563608767.0
5.813999999999979,0.3087921142578125,6.920233154296875,6.385791015625,1727563608777.0
5.823999999999955,0.7511199951171875,7.247866821289063,7.829263305664063,1727563608787.0
5.833999999999932,0.93310546875,6.996795654296876,8.077194213867188,1727563608797.0
5.843999999999937,0.3034088134765625,6.840829467773438,6.656750488281251,1727563608807.0
5.8549999999999045,-0.4702911376953125,6.770098876953125,6.282611083984375,1727563608818.0
5.863999999999919,-0.9393859863281252,7.507611083984376,6.551177978515626,1727563608827.0
5.873999999999896,-0.7194183349609375,8.278170776367189,5.946603393554688,1727563608837.0
5.883999999999901,-0.008673095703125,7.471124267578125,5.1009765625000005,1727563608847.0
5.89400000000002,0.1589569091796875,6.975711059570313,5.4688354492187505,1727563608857.0
5.903999999999996,0.1783966064453125,7.224838256835938,8.853286743164062,1727563608867.0
5.913999999999973,0.334063720703125,6.749014282226563,8.922073364257812,1727563608877.0
5.923999999999978,0.4747772216796875,6.468185424804688,6.392669677734376,1727563608887.0
5.933999999999983,0.00299072265625,7.0736572265625,6.253601074218751,1727563608897.0
5.94399999999996,-0.40135498046875,7.784252929687501,5.97666015625,1727563608907.0
5.9549999999999415,-0.5522369384765625,8.3823974609375,6.394314575195313,1727563608918.0
5.963999999999942,-0.392681884765625,7.378860473632813,5.937033081054688,1727563608927.0
5.973999999999933,-0.489581298828125,6.846661376953126,5.230923461914063,1727563608937.0
5.982999999999933,-0.6271545410156251,6.580038452148438,8.266207885742189,1727563608946.0
5.992999999999938,0.3461761474609375,7.19029541015625,8.48468017578125,1727563608956.0
6.002999999999943,0.8525054931640625,7.1914916992187505,7.568621826171875,1727563608966.0
6.01299999999992,0.5594146728515625,7.137509155273438,5.14224853515625,1727563608976.0
6.022999999999897,-0.1567138671875,7.246072387695313,5.22239990234375,1727563608986.0
6.032999999999902,-0.293988037109375,7.738943481445313,7.275531005859375,1727563608996.0
6.043000000000021,-0.09749755859375,7.914498901367188,6.9277099609375,1727563609006.0
6.0559999999999405,-0.135479736328125,7.173995971679688,5.666821289062501,1727563609019.0
6.062999999999974,-0.418402099609375,6.522167968750001,5.659494018554688,1727563609026.0
6.072999999999979,-0.3381011962890625,6.990963745117188,8.098577880859375,1727563609036.0
6.082999999999984,0.150433349609375,7.064236450195313,9.166864013671876,1727563609046.0
6.092999999999961,0.3695037841796875,7.054815673828125,6.121411132812501,1727563609056.0
6.102999999999938,0.2343231201171875,7.241436767578126,5.12310791015625,1727563609066.0
6.112999999999943,0.22789306640625,7.755093383789063,5.460162353515625,1727563609076.0
6.122999999999934,0.1954437255859375,8.0641845703125,6.79013671875,1727563609086.0
6.132999999999939,0.15013427734375,7.45946044921875,6.944906616210938,1727563609096.0
6.142999999999915,-0.074468994140625,6.788491821289063,5.416796875,1727563609106.0
6.155999999999935,-0.2432952880859375,6.80150146484375,6.817800903320313,1727563609119.0
6.162999999999897,-0.09749755859375,7.115676879882813,8.614328002929689,1727563609126.0
6.173000000000002,-0.222808837890625,7.142593383789063,7.816104125976563,1727563609136.0
6.1829999999999785,-0.4804595947265625,6.783706665039063,6.1312805175781255,1727563609146.0
6.192999999999984,-0.2818756103515625,7.228576660156251,5.1024719238281255,1727563609156.0
6.2029999999999745,0.157611083984375,8.244525146484376,5.965594482421875,1727563609166.0
6.21299999999998,0.7554565429687501,7.559948730468751,6.516784667968751,1727563609176.0
6.222999999999956,0.7597930908203125,7.624249267578126,5.45926513671875,1727563609186.0
6.232999999999933,0.4475616455078125,6.586917114257813,7.6072021484375005,1727563609196.0
6.242999999999938,0.0853851318359375,6.828268432617188,7.675839233398438,1727563609206.0
6.2549999999999955,-0.4167572021484375,6.712078857421876,8.465689086914063,1727563609218.0
6.26299999999992,-0.7886535644531251,7.263418579101563,6.869091796875001,1727563609226.0
6.272999999999897,-1.0965484619140626,7.625894165039063,4.961309814453125,1727563609236.0
6.282999999999902,-0.4918243408203125,7.903881835937501,5.21282958984375,1727563609246.0
6.293000000000021,-0.354400634765625,7.6700073242187505,6.741238403320313,1727563609256.0
6.302999999999997,-0.1140960693359375,6.844119262695313,7.090405273437501,1727563609266.0
6.312999999999974,0.248529052734375,6.6397033691406255,7.470825195312501,1727563609276.0
6.322999999999979,0.9854431152343752,7.010403442382813,7.236801147460938,1727563609286.0
6.332999999999984,1.1746063232421875,7.425665283203125,6.969879150390626,1727563609296.0
6.342999999999961,0.18004150390625,7.234259033203125,6.550131225585938,1727563609306.0
6.351999999999975,-0.6488372802734376,7.215267944335938,5.6173248291015625,1727563609315.0
6.361999999999981,-0.6362762451171875,7.722344970703125,6.447250366210938,1727563609325.0
6.371999999999957,-0.24464111328125,7.953378295898438,6.061297607421875,1727563609335.0
6.381999999999934,-0.2400054931640625,7.02042236328125,5.723794555664063,1727563609345.0
6.391999999999939,-0.152825927734375,6.808380126953126,6.653460693359375,1727563609355.0
6.401999999999944,0.195892333984375,6.79910888671875,8.565130615234375,1727563609365.0
6.411999999999921,0.4472625732421875,6.804342651367188,7.945303344726563,1727563609375.0
6.421999999999898,0.33795166015625,7.04674072265625,6.660040283203125,1727563609385.0
6.431999999999903,-0.0955535888671875,7.464544677734375,5.780020141601563,1727563609395.0
6.441999999999894,-0.3055023193359375,7.822085571289063,5.499041748046875,1727563609405.0
6.451999999999998,-0.23507080078125,7.734756469726563,6.507363891601563,1727563609415.0
6.461999999999975,-0.2576507568359375,7.363159179687501,6.0663818359375,1727563609425.0
6.47199999999998,-0.03828125,7.019076538085938,6.220404052734375,1727563609435.0
6.481999999999985,0.3832611083984375,7.074105834960938,7.45347900390625,1727563609445.0
6.491999999999962,0.61907958984375,7.092050170898438,7.481741333007813,1727563609455.0
6.5019999999999385,0.4653564453125,6.923522949218751,7.141995239257813,1727563609465.0
6.511999999999944,0.030206298828125,7.323233032226563,5.8550872802734375,1727563609475.0
6.5219999999999345,0.04306640625,7.724588012695313,5.282662963867188,1727563609485.0
6.53199999999994,0.3695037841796875,7.362710571289063,6.2239929199218755,1727563609495.0
6.541999999999916,-0.127105712890625,7.700811767578125,7.111639404296875,1727563609505.0
6.551999999999893,-0.9582275390625,6.591403198242188,7.6311279296875005,1727563609515.0
6.561999999999898,-0.7813262939453126,6.530841064453125,6.685311889648438,1727563609525.0
6.572000000000003,-0.2740997314453125,7.352841186523438,8.083773803710939,1727563609535.0
6.581999999999994,-0.1335357666015625,7.5997253417968755,6.600973510742188,1727563609545.0
6.5919999999999845,-0.3306243896484375,7.303793334960938,5.4333953857421875,1727563609555.0
6.601999999999975,0.0145050048828125,7.398150634765625,5.4251708984375,1727563609565.0
6.611999999999981,0.8079437255859375,7.584622192382813,6.3944641113281255,1727563609575.0
6.621999999999957,0.7596435546875,7.371981811523438,8.161532592773439,1727563609585.0
6.631999999999934,0.093011474609375,6.617871093750001,7.058105468750001,1727563609595.0
6.641999999999939,-0.3730926513671875,6.759930419921876,6.376669311523438,1727563609605.0
6.651999999999944,-0.1813873291015625,7.287493896484375,7.212875366210938,1727563609615.0
6.661999999999921,-0.36187744140625,7.760626220703125,6.5903564453125005,1727563609625.0
6.671999999999898,-0.9902282714843752,7.440319824218751,5.973519897460938,1727563609635.0
6.681999999999903,-0.9042449951171876,6.820343017578126,5.973968505859375,1727563609645.0
6.690999999999917,-0.27933349609375,7.401589965820313,6.899597167968751,1727563609654.0
6.701999999999998,0.545806884765625,7.395010375976563,7.854534912109376,1727563609665.0
6.711999999999975,0.7300354003906251,6.8610168457031255,6.404183959960938,1727563609675.0
6.72199999999998,0.7437927246093751,6.712826538085938,6.190496826171875,1727563609685.0
6.7309999999999945,0.6180328369140625,7.340579223632813,7.187155151367188,1727563609694.0
6.740999999999971,0.4670013427734375,7.479049682617188,7.231268310546875,1727563609704.0
6.750999999999976,-0.097796630859375,7.9720703125,5.5515289306640625,1727563609714.0
6.7609999999999815,-0.4526458740234375,7.643389892578125,4.4684387207031255,1727563609724.0
6.770999999999958,-0.3090911865234375,7.505517578125,5.583828735351563,1727563609734.0
6.780999999999935,-0.5321990966796876,7.078591918945313,8.294918823242188,1727563609744.0
6.79099999999994,-0.40853271484375,6.582131958007813,8.004669189453125,1727563609754.0
6.800999999999945,-0.205462646484375,6.558355712890625,7.6933349609375,1727563609764.0
6.810999999999922,0.231781005859375,6.9516357421875,6.603366088867188,1727563609774.0
6.8209999999998985,0.303857421875,7.4292541503906255,6.518429565429688,1727563609784.0
6.830999999999904,-0.1401153564453125,7.516433715820313,6.555364990234375,1727563609794.0
6.8409999999998945,-0.055029296875,7.514938354492188,5.248419189453125,1727563609804.0
6.850999999999999,0.365765380859375,8.085418701171875,5.282662963867188,1727563609814.0
6.860999999999976,0.9023010253906252,7.389178466796875,5.5211730957031255,1727563609824.0
6.870999999999981,0.6866699218750001,7.020721435546876,7.026104736328126,1727563609834.0
6.880999999999972,-0.076263427734375,6.886138916015626,9.231314086914065,1727563609844.0
6.890999999999963,-0.4242340087890625,6.563888549804688,7.714569091796876,1727563609854.0
6.900999999999954,-0.5001983642578125,6.852792358398438,6.394015502929688,1727563609864.0
6.9109999999999445,-0.68128662109375,7.6834655761718755,6.203207397460938,1727563609874.0
6.920999999999935,-1.0262664794921876,7.865899658203125,5.849703979492188,1727563609884.0
6.9309999999999405,-0.6811370849609375,7.688998413085938,5.7922821044921875,1727563609894.0
6.940999999999917,0.0195892333984375,7.101022338867188,6.398202514648438,1727563609904.0
6.950999999999894,0.44202880859375,6.893466186523438,6.9985900878906255,1727563609914.0
6.960999999999899,0.46116943359375,6.842324829101563,8.391519165039064,1727563609924.0
6.971000000000018,0.530255126953125,6.864755249023438,7.633370971679688,1727563609934.0
6.9809999999999945,0.499151611328125,7.3942626953125,5.99400634765625,1727563609944.0
6.990999999999971,0.1763031005859375,7.530191040039063,5.769552612304688,1727563609954.0
7.000999999999976,-0.3536529541015625,7.707092285156251,5.369842529296875,1727563609964.0
7.0109999999999815,-0.5040863037109375,7.732513427734376,6.607553100585938,1727563609974.0
7.020999999999958,-0.31522216796875,7.361962890625,6.553421020507813,1727563609984.0
7.030999999999935,0.029010009765625,6.814212036132813,6.199468994140625,1727563609994.0
7.04099999999994,0.0085235595703125,6.645236206054688,7.790682983398438,1727563610004.0
7.050999999999945,-0.2117431640625,6.61009521484375,8.206243896484375,1727563610014.0
7.060999999999922,-0.2364166259765625,6.712527465820313,8.050576782226564,1727563610024.0
7.0709999999998985,-0.3201568603515625,7.367794799804688,6.4004455566406255,1727563610034.0
7.0799999999999415,-0.1203765869140625,7.695278930664063,4.708743286132813,1727563610043.0
7.089999999999918,0.0871795654296875,8.307031250000001,5.070919799804688,1727563610053.0
7.100999999999999,0.3961212158203125,7.820889282226563,6.1970764160156255,1727563610064.0
7.1099999999999,0.6193786621093751,7.094891357421876,6.425567626953126,1727563610073.0
7.120000000000019,0.5754150390625,6.9073730468750005,7.125247192382813,1727563610083.0
7.1299999999999955,0.814373779296875,7.086666870117188,6.95701904296875,1727563610093.0
7.139999999999972,0.6253601074218751,7.115078735351563,7.183416748046875,1727563610103.0
7.149999999999977,-0.3165679931640625,6.999786376953126,7.230221557617188,1727563610113.0
7.159999999999982,-1.3210021972656252,6.714620971679688,7.028945922851563,1727563610123.0
7.169999999999959,-1.523623657226563,7.088012695312501,6.768753051757813,1727563610133.0
7.179999999999936,-0.9351989746093752,8.198617553710939,5.507415771484375,1727563610143.0
7.189999999999941,0.2217620849609375,7.932144165039063,4.750762939453125,1727563610153.0
7.199999999999932,0.972882080078125,7.017431640625,5.366403198242188,1727563610163.0
7.209999999999923,1.239056396484375,7.054367065429688,8.518475341796876,1727563610173.0
7.219999999999914,0.7562042236328126,6.630282592773438,9.34840087890625,1727563610183.0
7.229999999999904,0.7630828857421875,6.5634399414062505,6.961654663085938,1727563610193.0
7.239999999999895,-0.00777587890625,7.0434509277343755,6.157299804687501,1727563610203.0
7.25,-0.7627838134765625,7.8748718261718755,5.578744506835938,1727563610213.0
7.259999999999977,-1.729983520507813,8.3823974609375,6.228628540039063,1727563610223.0
7.269999999999982,-1.5767089843750002,7.49833984375,5.982791137695313,1727563610233.0
7.279999999999973,-0.5465545654296875,6.994403076171875,5.17813720703125,1727563610243.0
7.289999999999978,-0.2044158935546875,6.472073364257813,8.12698974609375,1727563610253.0
7.299999999999955,0.31103515625,6.774435424804688,8.802145385742188,1727563610263.0
7.309999999999931,1.4868377685546876,7.198669433593751,7.806234741210938,1727563610273.0
7.319999999999936,2.057916259765625,7.227679443359375,5.680429077148438,1727563610283.0
7.329999999999941,0.7723541259765626,7.634417724609375,4.536776733398438,1727563610293.0
7.339999999999918,-0.717474365234375,7.831954956054688,6.562542724609376,1727563610303.0
7.349999999999895,-1.1674285888671876,7.783206176757813,6.98453369140625,1727563610313.0
7.3599999999999,-0.91217041015625,7.224688720703125,5.8322082519531255,1727563610323.0
7.370000000000019,-1.0252197265625,6.380706787109376,6.361865234375,1727563610333.0
7.3799999999999955,-0.6673797607421875,6.564785766601563,8.151513671875001,1727563610343.0
7.389999999999972,0.0171966552734375,6.918438720703126,9.272286987304687,1727563610353.0
7.399999999999977,0.596649169921875,6.979598999023438,7.1436401367187505,1727563610363.0
7.409999999999982,0.675604248046875,7.301251220703126,4.77020263671875,1727563610373.0
7.419999999999959,0.951947021484375,7.823431396484375,4.9538330078125,1727563610383.0
7.429999999999936,0.6391174316406251,8.37821044921875,5.897854614257813,1727563610393.0
7.439999999999941,0.4556365966796875,8.071511840820314,6.450241088867188,1727563610403.0
7.448999999999955,0.0901702880859375,6.865951538085938,5.634371948242188,1727563610412.0
7.459999999999923,-0.4439727783203125,6.700564575195313,6.235208129882813,1727563610423.0
7.468999999999937,-0.6507812500000001,6.609347534179688,9.27064208984375,1727563610432.0
7.478999999999942,-0.6177337646484375,7.0138427734375,8.46673583984375,1727563610442.0
7.488999999999919,-0.5819946289062501,6.859072875976563,6.863708496093751,1727563610452.0
7.498999999999896,-0.50244140625,6.9327941894531255,5.229129028320313,1727563610462.0
7.508999999999901,-0.332568359375,7.61796875,5.5799407958984375,1727563610472.0
7.51900000000002,0.4167572021484375,8.253198242187501,6.789837646484376,1727563610482.0
7.528999999999996,1.0054809570312502,7.571612548828125,5.5021820068359375,1727563610492.0
7.538999999999973,1.2024200439453123,7.201510620117188,5.014843750000001,1727563610502.0
7.548999999999978,0.929815673828125,7.353588867187501,8.317498779296876,1727563610512.0
7.558999999999983,0.0342437744140625,6.509158325195313,8.172149658203125,1727563610522.0
7.56899999999996,-0.4092803955078125,6.522167968750001,7.479348754882813,1727563610532.0
7.578999999999937,-0.8553466796875001,7.417739868164063,7.119415283203126,1727563610542.0
7.588999999999942,-1.3404418945312502,7.491909790039063,4.958169555664063,1727563610552.0
7.598999999999933,-1.072174072265625,8.132073974609376,5.774786376953125,1727563610562.0
7.608999999999938,-0.46356201171875,7.579238891601563,6.519476318359375,1727563610572.0
7.618999999999915,-0.1471435546875,6.769351196289063,6.507214355468751,1727563610582.0
7.628999999999891,0.1320404052734375,6.664077758789063,7.794720458984376,1727563610592.0
7.638999999999896,0.8037567138671876,6.805239868164063,7.511947631835938,1727563610602.0
7.649000000000001,1.5403717041015623,7.689147949218751,7.1795288085937505,1727563610612.0
7.658999999999978,0.846075439453125,7.0913024902343755,6.165374755859376,1727563610622.0
7.668999999999983,-0.2552581787109375,7.30693359375,5.404385375976563,1727563610632.0
7.678999999999974,-1.003237915039063,7.673147583007813,6.7662109375,1727563610642.0
7.688999999999979,-0.293389892578125,8.186206054687501,5.8909759521484375,1727563610652.0
7.698999999999955,0.017047119140625,6.880157470703126,5.656951904296875,1727563610662.0
7.708999999999932,-0.2189208984375,6.7961181640625,6.339285278320313,1727563610672.0
7.718999999999937,-0.401654052734375,6.416595458984376,9.460552978515626,1727563610682.0
7.728999999999942,-0.1134979248046875,6.727182006835938,8.763714599609376,1727563610692.0
7.738999999999919,-0.191107177734375,7.041656494140626,6.54130859375,1727563610702.0
7.748999999999896,0.0100189208984375,7.700961303710938,4.260733032226563,1727563610712.0
7.758999999999901,-0.04486083984375,8.067474365234375,5.244381713867188,1727563610722.0
7.76900000000002,0.1326385498046875,7.777224731445313,6.897952270507813,1727563610732.0
7.778999999999996,0.110357666015625,7.190444946289063,6.903485107421876,1727563610742.0
7.788999999999973,0.437542724609375,6.797763061523438,6.345864868164063,1727563610752.0
7.798999999999978,0.73272705078125,7.360617065429688,6.430203247070313,1727563610762.0
7.807999999999979,0.9553863525390626,7.228277587890625,6.984085083007813,1727563610771.0
7.81899999999996,0.2836700439453125,7.409963989257813,7.089508056640626,1727563610782.0
7.8279999999999745,-0.7898498535156251,6.68187255859375,7.023861694335938,1727563610791.0
7.83799999999998,-0.938787841796875,7.016683959960938,6.163879394531251,1727563610801.0
7.847999999999956,-0.95224609375,7.539761352539063,6.911410522460938,1727563610811.0
7.857999999999933,-0.319708251953125,7.832254028320313,5.5545196533203125,1727563610821.0
7.867999999999938,0.0530853271484375,6.794323730468751,6.209487915039063,1727563610831.0
7.877999999999943,0.3132781982421875,7.328018188476563,7.05032958984375,1727563610841.0
7.88799999999992,0.4987030029296875,7.196127319335938,8.409613037109375,1727563610851.0
7.897999999999897,0.7736999511718751,6.990066528320313,6.351248168945313,1727563610861.0
7.907999999999902,0.506927490234375,6.911709594726563,6.194235229492188,1727563610871.0
7.918000000000021,-0.32060546875,7.443460083007813,6.658843994140626,1727563610881.0
7.927999999999997,-0.6252105712890625,7.73460693359375,6.817501831054688,1727563610891.0
7.937999999999974,-0.6551177978515625,7.674343872070313,6.270648193359375,1727563610901.0
7.947999999999979,-0.40853271484375,7.138406372070313,5.301055908203125,1727563610911.0
7.957999999999984,-0.6196777343750001,6.9746643066406255,7.035675048828126,1727563610921.0
7.967999999999961,-0.4366455078125,6.8490539550781255,8.260675048828126,1727563610931.0
7.977999999999938,0.4843475341796875,7.361514282226563,7.166818237304688,1727563610941.0
7.987999999999943,0.942974853515625,7.134368896484376,6.560598754882813,1727563610951.0
7.997999999999934,0.6228179931640625,7.243679809570313,5.0770507812500005,1727563610961.0
8.007999999999939,-0.171368408203125,7.424618530273438,6.863708496093751,1727563610971.0
8.017999999999915,-0.16448974609375,7.505667114257813,7.5503784179687505,1727563610981.0
8.027999999999892,-0.1843780517578125,7.5832763671875005,5.8834991455078125,1727563610991.0
8.037999999999897,-0.3354095458984375,7.052124023437501,5.8067871093750005,1727563611001.0
8.048000000000002,-0.52158203125,6.695779418945313,6.441717529296875,1727563611011.0
8.057999999999979,-0.399261474609375,6.998141479492188,8.392565917968751,1727563611021.0
8.067999999999984,0.17705078125,7.114630126953125,8.289834594726564,1727563611031.0
8.077999999999975,0.4306640625,7.195080566406251,5.671307373046876,1727563611041.0
8.08799999999998,0.321502685546875,7.5114990234375005,4.856335449218751,1727563611051.0
8.097999999999956,0.345428466796875,7.736999511718751,5.9742675781250005,1727563611061.0
8.107999999999933,0.2417999267578125,7.865750122070313,7.234558105468751,1727563611071.0
8.117999999999938,-0.0351409912109375,6.9866271972656255,6.77757568359375,1727563611081.0
8.127999999999943,-0.25421142578125,6.789987182617188,5.768655395507813,1727563611091.0
8.13799999999992,-0.3375030517578125,6.969879150390626,7.425964355468751,1727563611101.0
8.147999999999897,-0.1637420654296875,7.262521362304688,7.903283691406251,1727563611111.0
8.157999999999902,-0.317913818359375,7.158294677734376,7.256390380859376,1727563611121.0
8.16800000000002,-0.3677093505859375,6.945803833007813,5.4902191162109375,1727563611131.0
8.177999999999997,0.0494964599609375,7.319644165039063,5.478854370117188,1727563611141.0
8.186999999999898,0.5339935302734375,8.259329223632813,6.4635498046875,1727563611150.0
8.197000000000003,0.8882446289062501,7.249212646484375,6.423474121093751,1727563611160.0
8.206999999999994,0.545806884765625,7.134817504882813,5.8535919189453125,1727563611170.0
8.216999999999985,0.1772003173828125,6.952084350585938,8.108895874023439,1727563611180.0
8.226999999999975,-0.2295379638671875,6.917541503906251,7.631427001953125,1727563611190.0
8.23699999999998,-0.5999389648437501,6.824380493164063,7.082031250000001,1727563611200.0
8.247999999999934,-0.945965576171875,7.3559814453125005,6.708938598632813,1727563611211.0
8.256999999999934,-1.0475006103515625,7.593743896484376,5.328869628906251,1727563611220.0
8.266999999999939,-0.1984344482421875,7.840927124023438,6.143392944335938,1727563611230.0
8.276999999999944,0.106768798828125,7.535723876953125,6.6606384277343755,1727563611240.0
8.28699999999992,0.2824737548828125,6.689199829101563,6.501681518554688,1727563611250.0
8.296999999999898,0.3123809814453125,6.906475830078126,7.716812133789063,1727563611260.0
8.306999999999903,0.8457763671875,7.021768188476563,7.390225219726563,1727563611270.0
8.316999999999894,0.814373779296875,7.605258178710938,6.4632507324218755,1727563611280.0
8.326999999999998,-0.0635528564453125,7.127041625976563,6.385342407226563,1727563611290.0
8.336999999999975,-0.841290283203125,7.32547607421875,5.342477416992188,1727563611300.0
8.34699999999998,-0.7916442871093751,7.577444458007813,7.110293579101563,1727563611310.0
8.356999999999985,-0.1583587646484375,7.888330078125,6.414202880859375,1727563611320.0
8.366999999999962,-0.12979736328125,6.759481811523438,5.929705810546875,1727563611330.0
8.376999999999938,0.0055328369140625,6.7363037109375,6.541159057617188,1727563611340.0
8.386999999999944,0.18482666015625,6.651367187500001,8.976803588867188,1727563611350.0
8.396999999999935,0.3952239990234375,7.197921752929688,7.825674438476563,1727563611360.0
8.40699999999994,0.29488525390625,7.149472045898438,6.131878662109376,1727563611370.0
8.416999999999916,0.0414215087890625,7.748962402343751,4.442568969726563,1727563611380.0
8.426999999999893,-0.2334259033203125,7.903283691406251,5.6786346435546875,1727563611390.0
8.436999999999898,-0.1167877197265625,7.592398071289063,7.167117309570313,1727563611400.0
8.447999999999979,-0.2675201416015625,7.184912109375,6.671255493164063,1727563611411.0
8.456999999999994,0.016748046875,6.739593505859376,6.276181030273438,1727563611420.0
8.466999999999985,0.4317108154296875,7.138705444335938,6.895559692382813,1727563611430.0
8.476999999999975,0.4031494140625,7.033432006835938,7.978649902343751,1727563611440.0
8.48699999999998,-0.0811981201171875,7.085919189453126,7.345065307617188,1727563611450.0
8.496999999999957,-0.427972412109375,6.862213134765626,6.3615661621093755,1727563611460.0
8.506999999999934,-0.1878173828125,7.921377563476563,4.707546997070313,1727563611470.0
8.516999999999939,0.29189453125,8.083624267578125,5.584127807617188,1727563611480.0
8.526999999999944,0.7131378173828126,7.409515380859376,5.892172241210938,1727563611490.0
8.53699999999992,0.021832275390625,6.833950805664063,7.730120849609375,1727563611500.0
8.548000000000002,-0.318511962890625,6.411660766601563,8.531185913085938,1727563611511.0
8.556999999999903,-0.1754058837890625,6.616824340820313,7.60062255859375,1727563611520.0
8.565999999999917,-0.16807861328125,7.22080078125,7.134967041015625,1727563611529.0
8.576999999999998,-0.5504425048828125,7.984481811523438,5.652316284179688,1727563611540.0
8.585999999999899,-0.9052917480468752,7.867694091796875,5.122210693359375,1727563611549.0
8.596000000000018,-0.3548492431640625,7.469778442382813,5.613735961914063,1727563611559.0
8.605999999999995,0.2157806396484375,7.365701293945313,6.542803955078125,1727563611569.0
8.615999999999971,0.533245849609375,6.708340454101563,7.979397583007813,1727563611579.0
8.625999999999976,0.487188720703125,6.667666625976563,8.061941528320313,1727563611589.0
8.635999999999981,0.4352996826171875,6.907522583007813,7.419982910156251,1727563611599.0
8.646999999999935,0.2403045654296875,7.280764770507813,6.209637451171876,1727563611610.0
8.655999999999935,-0.289501953125,7.799804687500001,5.420535278320313,1727563611619.0
8.66599999999994,-0.73870849609375,7.716213989257813,5.854489135742188,1727563611629.0
8.675999999999945,-0.902899169921875,7.389028930664063,6.274536132812501,1727563611639.0
8.685999999999922,-0.5516387939453126,7.0377685546875,6.919635009765625,1727563611649.0
8.695999999999898,-0.106768798828125,6.813015747070313,7.660736083984376,1727563611659.0
8.705999999999904,0.26796875,6.821838378906251,7.24771728515625,1727563611669.0
8.715999999999894,0.6944458007812501,6.728976440429688,7.30394287109375,1727563611679.0
8.725999999999999,0.682781982421875,7.2258850097656255,6.721499633789063,1727563611689.0
8.735999999999976,0.465057373046875,7.586117553710938,6.277975463867188,1727563611699.0
8.747999999999934,0.16090087890625,7.846609497070313,5.513845825195313,1727563611711.0
8.755999999999972,0.036187744140625,8.170654296875,4.5447021484375005,1727563611719.0
8.765999999999963,0.057122802734375,7.780963134765625,5.828619384765625,1727563611729.0
8.775999999999954,-0.2201171875,6.688153076171876,7.257437133789063,1727563611739.0
8.785999999999945,-0.66812744140625,6.579290771484375,8.006613159179688,1727563611749.0
8.795999999999935,-0.49705810546875,6.393118286132813,8.757882690429689,1727563611759.0
8.80599999999994,0.061907958984375,7.0449462890625005,7.052273559570313,1727563611769.0
8.815999999999917,-0.0345428466796875,7.371533203125001,6.340032958984375,1727563611779.0
8.825999999999894,-0.3742889404296875,7.33743896484375,5.511602783203125,1727563611789.0
8.835999999999899,-0.2582489013671875,7.424319458007813,5.887237548828125,1727563611799.0
8.847999999999956,0.3231475830078125,8.462548828125001,5.9114624023437505,1727563611811.0
8.855999999999995,1.0343414306640626,7.393066406250001,5.193838500976563,1727563611819.0
8.865999999999971,1.2939361572265626,7.148275756835938,5.569622802734376,1727563611829.0
8.875999999999976,0.4577301025390625,6.615179443359375,9.20828552246094,1727563611839.0
8.884999999999977,-0.2468841552734375,6.776977539062501,8.929998779296875,1727563611848.0
8.894999999999982,-0.42767333984375,6.788641357421875,7.421328735351563,1727563611858.0
8.904999999999973,-0.9202453613281252,7.102069091796875,5.305392456054688,1727563611868.0
8.914999999999978,-1.4452667236328125,7.895956420898438,4.993460083007813,1727563611878.0
8.924999999999955,-1.163690185546875,8.051174926757813,6.527850341796875,1727563611888.0
8.934999999999931,-0.1203765869140625,7.674194335937501,6.453231811523438,1727563611898.0
8.947999999999979,0.39537353515625,6.639254760742188,6.65196533203125,1727563611911.0
8.955999999999904,0.6290985107421876,6.353341674804688,7.448095703125,1727563611919.0
8.964999999999918,0.5456573486328126,6.790435791015626,8.432192993164064,1727563611928.0
8.974999999999895,0.995611572265625,7.734906005859376,7.416543579101563,1727563611938.0
8.9849999999999,0.6308929443359376,7.43912353515625,5.569772338867188,1727563611948.0
8.995000000000019,-0.5655456542968751,7.549032592773438,3.9162017822265622,1727563611958.0
9.004999999999995,-1.006228637695313,7.415048217773438,6.79312744140625,1727563611968.0
9.014999999999972,-0.62147216796875,8.070166015625,7.379608154296876,1727563611978.0
9.024999999999975,0.0073272705078125,7.021319580078125,6.518429565429688,1727563611988.0
9.034999999999982,0.14893798828125,6.567028808593751,5.725588989257813,1727563611998.0
9.048000000000002,-0.0542816162109375,6.411959838867188,7.8509460449218755,1727563612011.0
9.054999999999936,0.0782073974609375,6.894662475585938,9.202902221679688,1727563612018.0
9.06499999999994,0.1502838134765625,7.318896484375,7.723391723632813,1727563612028.0
9.074999999999932,0.1137969970703125,7.568771362304688,4.47232666015625,1727563612038.0
9.084999999999924,-0.1108062744140625,7.756887817382813,3.867752075195313,1727563612048.0
9.094999999999914,-0.1000396728515625,7.966238403320313,6.424072265625001,1727563612058.0
9.104999999999905,-0.0061309814453125,7.531387329101563,7.987322998046875,1727563612068.0
9.114999999999895,0.2749969482421875,6.921279907226563,6.438427734375001,1727563612078.0
9.125,0.5749664306640625,6.8864379882812505,5.821142578125,1727563612088.0
9.134999999999977,0.621771240234375,6.825277709960938,7.149322509765626,1727563612098.0
9.144999999999982,0.031402587890625,7.331008911132813,8.423669433593751,1727563612108.0
9.154999999999973,-0.6916046142578125,6.840380859375,7.9212280273437505,1727563612118.0
9.164999999999978,-0.8578887939453126,7.083377075195313,4.82762451171875,1727563612128.0
9.174999999999956,-0.3898406982421875,8.195028686523438,4.487130737304688,1727563612138.0
9.184999999999931,0.5178436279296875,7.957714843750001,5.6173248291015625,1727563612148.0
9.194999999999936,0.6226684570312501,7.011749267578126,7.158145141601563,1727563612158.0
9.20499999999994,0.08314208984375,6.911111450195313,8.533129882812501,1727563612168.0
9.214999999999918,0.0982452392578125,6.085971069335938,7.871282958984375,1727563612178.0
9.224999999999897,0.3768310546875,7.11851806640625,6.832455444335938,1727563612188.0
9.2349999999999,-0.2117431640625,7.905825805664063,7.243829345703125,1727563612198.0
9.24500000000002,-0.9464141845703126,7.608099365234375,4.885345458984375,1727563612208.0
9.254999999999995,-1.1420074462890626,7.641146850585938,4.7739410400390625,1727563612218.0
9.264999999999972,-0.29847412109375,7.380206298828125,6.562692260742188,1727563612228.0
9.274,0.3811676025390625,7.363009643554688,7.437030029296875,1727563612237.0
9.283999999999978,0.1209747314453125,6.448147583007813,9.026300048828126,1727563612247.0
9.293999999999984,0.13218994140625,6.521420288085938,6.648974609375,1727563612257.0
9.303999999999974,0.5471527099609376,7.1720520019531255,6.44620361328125,1727563612267.0
9.31399999999998,0.7735504150390625,7.828515625,6.43424072265625,1727563612277.0
9.323999999999955,-0.1326385498046875,7.918685913085938,5.5515289306640625,1727563612287.0
9.333999999999932,-0.8874969482421876,7.233062744140626,5.958566284179688,1727563612297.0
9.343999999999935,-0.791943359375,6.954177856445313,6.589608764648438,1727563612307.0
9.353999999999942,-0.3026611328125,7.413702392578125,7.495498657226563,1727563612317.0
9.36399999999992,-0.0155517578125,6.833352661132813,7.566079711914063,1727563612327.0
9.373999999999896,0.0189910888671875,6.57181396484375,6.475662231445313,1727563612337.0
9.3839999999999,0.1878173828125,6.993206787109376,7.2028564453125,1727563612347.0
9.39400000000002,0.5788543701171875,7.372280883789063,7.183566284179688,1727563612357.0
9.403999999999996,0.4945159912109375,7.479647827148438,6.289041137695313,1727563612367.0
9.413999999999971,-0.044561767578125,7.864105224609376,5.061798095703125,1727563612377.0
9.423999999999978,0.11663818359375,7.866049194335938,4.808035278320313,1727563612387.0
9.433999999999983,0.340045166015625,7.852142333984376,6.324630737304688,1727563612397.0
9.44399999999996,0.029608154296875,6.955822753906251,7.334896850585938,1727563612407.0
9.453999999999937,-0.3724945068359375,6.377117919921876,7.401141357421875,1727563612417.0
9.463999999999942,-0.4557861328125,6.6190673828125,8.237646484375,1727563612427.0
9.473999999999933,-0.0227294921875,7.108648681640625,7.3822998046875,1727563612437.0
9.483999999999938,-0.076263427734375,7.489218139648438,6.369491577148438,1727563612447.0
9.493999999999916,-0.5079742431640626,7.2267822265625,5.5515289306640625,1727563612457.0
9.503999999999891,-0.4338043212890625,7.356430053710938,5.554818725585938,1727563612467.0
9.513999999999896,0.1691253662109375,8.211029052734375,6.455923461914063,1727563612477.0
9.524,0.9553863525390626,7.207641601562501,6.061746215820313,1727563612487.0
9.533999999999978,0.9607696533203126,7.111938476562501,5.933294677734375,1727563612497.0
9.543999999999984,0.2775390625,6.847708129882813,8.652908325195312,1727563612507.0
9.553999999999974,-0.0861328125,7.014291381835938,7.837188720703126,1727563612517.0
9.56399999999998,-0.212640380859375,6.875372314453125,6.7997070312500005,1727563612527.0
9.573999999999955,-0.6093597412109375,7.410562133789063,5.906228637695313,1727563612537.0
9.583999999999932,-1.16817626953125,7.624398803710938,5.4154510498046875,1727563612547.0
9.593999999999935,-0.6702209472656251,7.804440307617188,6.513494873046875,1727563612557.0
9.603999999999942,-0.10347900390625,7.499835205078125,7.030590820312501,1727563612567.0
9.61399999999992,0.1640411376953125,6.5724121093750005,6.477755737304688,1727563612577.0
9.622999999999934,0.01973876953125,6.676339721679688,7.655651855468751,1727563612586.0
9.63299999999994,0.5061798095703125,7.061843872070313,7.702606201171876,1727563612596.0
9.642999999999915,0.9476104736328126,7.833001708984376,6.498541259765625,1727563612606.0
9.653999999999996,0.497955322265625,7.392169189453125,5.821890258789063,1727563612617.0
9.662999999999895,-0.4062896728515625,7.123004150390625,4.8068389892578125,1727563612626.0
9.673000000000002,-0.7496246337890625,7.586117553710938,7.342373657226563,1727563612636.0
9.68299999999998,-0.11903076171875,7.829711914062501,7.339532470703125,1727563612646.0
9.69399999999996,0.1769012451171875,7.005020141601563,5.5543701171875,1727563612657.0
9.702999999999976,-0.0171966552734375,6.635665893554688,5.85284423828125,1727563612666.0
9.71299999999998,-0.262884521484375,6.651367187500001,8.46494140625,1727563612676.0
9.722999999999956,-0.146844482421875,7.084872436523438,8.843716430664063,1727563612686.0
9.732999999999931,0.02572021484375,7.244427490234376,6.710882568359375,1727563612696.0
9.742999999999938,0.0669921875,7.459161376953125,4.291088867187501,1727563612706.0
9.752999999999943,-0.11903076171875,7.85244140625,4.92392578125,1727563612716.0
9.76299999999992,-0.034393310546875,7.552471923828126,7.556210327148438,1727563612726.0
9.772999999999897,0.0312530517578125,7.441815185546876,7.282409667968751,1727563612736.0
9.782999999999902,0.316119384765625,6.85234375,6.1851135253906255,1727563612746.0
9.79300000000002,0.590069580078125,6.930401611328126,5.985931396484375,1727563612756.0
9.802999999999995,0.3194091796875,7.220352172851563,7.581930541992188,1727563612766.0
9.812999999999974,-0.2382110595703125,7.210333251953125,8.186654663085939,1727563612776.0
9.82299999999998,-0.536834716796875,6.976608276367188,6.463699340820313,1727563612786.0
9.832999999999984,-0.4376922607421875,7.368243408203125,4.916149902343751,1727563612796.0
9.84299999999996,-0.1045257568359375,7.960107421875,5.145687866210938,1727563612806.0
9.852999999999938,0.4296173095703125,7.482638549804688,6.603216552734375,1727563612816.0
9.862999999999944,0.4227386474609375,6.919485473632813,7.600323486328126,1727563612826.0
9.872999999999934,0.04007568359375,6.902587890625001,8.027099609375,1727563612836.0
9.88299999999994,0.0171966552734375,6.5712158203125,7.196127319335938,1727563612846.0
9.892999999999915,-0.0945068359375,7.133322143554688,6.32657470703125,1727563612856.0
9.902999999999892,-0.5434143066406251,7.7196533203125,7.108499145507813,1727563612866.0
9.912999999999895,-0.9368438720703126,7.706045532226563,5.83609619140625,1727563612876.0
9.923000000000002,-0.6021820068359376,7.519573974609376,5.079144287109376,1727563612886.0
9.93299999999998,0.1040771484375,7.400094604492188,6.217114257812501,1727563612896.0
9.942999999999984,0.555975341796875,7.144238281250001,7.586566162109375,1727563612906.0
9.952999999999976,0.3111846923828125,6.707592773437501,8.238693237304688,1727563612916.0
9.96299999999998,0.3898406982421875,6.7413879394531255,6.981393432617188,1727563612926.0
9.972999999999956,0.6610992431640625,7.309774780273438,6.196029663085938,1727563612936.0
9.981999999999983,0.26019287109375,7.685708618164063,6.036923217773438,1727563612945.0
9.991999999999962,-0.6183319091796875,7.66103515625,6.021969604492188,1727563612955.0
10.001999999999938,-1.152923583984375,7.181771850585938,6.515887451171875,1727563612965.0
10.01299999999992,-0.9015533447265626,7.066479492187501,6.679629516601563,1727563612976.0
10.021999999999936,-0.4655059814453125,7.100424194335938,7.376766967773438,1727563612985.0
10.03199999999994,-0.0177947998046875,6.802847290039063,7.254147338867188,1727563612995.0
10.041999999999916,0.278436279296875,6.8012023925781255,6.922924804687501,1727563613005.0
10.052999999999995,0.8556457519531251,7.135714721679688,6.947598266601563,1727563613016.0
10.061999999999898,1.0836883544921876,7.5892578125,6.645086669921875,1727563613025.0
10.072000000000005,0.6727630615234376,7.589556884765625,5.678933715820313,1727563613035.0
10.081999999999994,0.1305450439453125,7.698269653320313,5.169314575195313,1727563613045.0
10.091999999999985,-0.1667327880859375,8.126541137695312,5.589810180664063,1727563613055.0
10.101999999999975,-0.1021331787109375,7.443759155273438,6.346313476562501,1727563613065.0
10.11199999999998,-0.5314514160156251,6.799407958984376,7.143939208984375,1727563613075.0
10.121999999999955,-1.0346405029296877,6.203805541992188,8.154803466796876,1727563613085.0
10.131999999999934,-0.817364501953125,6.44022216796875,8.652908325195312,1727563613095.0
10.14199999999994,-0.18123779296875,7.190744018554688,7.65146484375,1727563613105.0
10.151999999999944,0.2292388916015625,7.586117553710938,5.562594604492188,1727563613115.0
10.16199999999992,0.182733154296875,7.517929077148438,4.648779296875,1727563613125.0
10.171999999999898,0.389691162109375,7.594342041015626,5.6632324218750005,1727563613135.0
10.181999999999904,0.7481292724609375,8.217309570312501,6.694732666015626,1727563613145.0
10.191999999999894,1.119876098632813,7.582977294921876,5.75833740234375,1727563613155.0
10.201999999999998,1.1449981689453126,6.732266235351563,5.4154510498046875,1727563613165.0
10.211999999999977,0.0722259521484375,6.689648437500001,8.574551391601563,1727563613175.0
10.22199999999998,-0.8671600341796876,6.821987915039063,9.471917724609376,1727563613185.0
10.231999999999983,-1.1903076171875,6.671554565429688,7.385589599609376,1727563613195.0
10.241999999999962,-1.3525543212890625,7.259530639648438,5.482144165039063,1727563613205.0
10.251999999999938,-1.0875762939453126,7.845712280273438,4.744332885742188,1727563613215.0
10.261999999999944,-0.5117126464843751,8.183215332031251,5.975164794921875,1727563613225.0
10.271999999999936,0.39656982421875,7.526602172851563,7.121807861328126,1727563613235.0
10.28199999999994,0.9017028808593752,6.727182006835938,6.552374267578125,1727563613245.0
10.291999999999916,1.0477996826171876,6.407025146484376,7.553219604492188,1727563613255.0
10.301999999999891,0.8062988281250001,6.858624267578126,8.152859497070313,1727563613265.0
10.311999999999898,0.5025909423828125,7.664324951171875,7.154257202148438,1727563613275.0
10.322000000000005,-0.1673309326171875,7.4181884765625,5.844769287109376,1727563613285.0
10.331999999999994,-0.983349609375,7.590005493164063,4.102374267578125,1727563613295.0
10.341999999999985,-1.23756103515625,7.596136474609375,6.404782104492188,1727563613305.0
10.351999999999975,-0.6102569580078125,7.770944213867188,7.498788452148438,1727563613315.0
10.36199999999998,0.0593658447265625,7.000982666015625,6.549383544921875,1727563613325.0
10.37099999999998,0.4843475341796875,6.332855224609376,6.612338256835938,1727563613334.0
10.381999999999934,0.5420684814453125,6.486428833007813,7.694381713867188,1727563613345.0
10.390999999999964,0.557470703125,7.011599731445313,8.844912719726564,1727563613354.0
10.400999999999954,0.174658203125,7.412954711914063,7.319046020507813,1727563613364.0
10.410999999999945,-0.20755615234375,7.651315307617188,4.02252197265625,1727563613374.0
10.420999999999935,-0.3689056396484375,7.928106689453125,4.307986450195313,1727563613384.0
10.43099999999994,-0.388494873046875,8.066427612304688,6.485980224609375,1727563613394.0
10.440999999999915,-0.24583740234375,7.311718750000001,7.310671997070313,1727563613404.0
10.450999999999894,0.1280029296875,6.700863647460938,6.952532958984375,1727563613414.0
10.4609999999999,0.5837890625000001,6.6905456542968755,6.688153076171876,1727563613424.0
10.471000000000018,0.7810272216796875,6.768453979492188,7.787841796875001,1727563613434.0
10.480999999999996,0.1407135009765625,7.310821533203126,8.159439086914062,1727563613444.0
10.490999999999971,-0.5872283935546876,7.053619384765626,6.656451416015625,1727563613454.0
10.500999999999976,-0.6603515625,7.282110595703125,4.884747314453126,1727563613464.0
10.51099999999998,-0.447412109375,8.166168212890625,4.936785888671875,1727563613474.0
10.520999999999958,0.1185821533203125,8.188299560546875,5.591754150390625,1727563613484.0
10.530999999999937,0.59814453125,6.843670654296876,6.398501586914063,1727563613494.0
10.54099999999994,0.730633544921875,6.681723022460938,7.858871459960938,1727563613504.0
10.550999999999943,0.3419891357421875,6.45816650390625,9.485226440429688,1727563613514.0
10.560999999999922,0.0634033203125,6.626394653320313,7.3335510253906255,1727563613524.0
10.570999999999898,-0.3829620361328125,7.312316894531251,6.6172729492187505,1727563613534.0
10.580999999999904,-0.9263763427734376,8.120709228515626,5.058807373046875,1727563613544.0
10.590999999999894,-0.988134765625,8.070016479492189,4.703359985351563,1727563613554.0
10.601,-0.8049530029296875,7.603762817382813,6.122158813476563,1727563613564.0
10.610999999999976,-0.10228271484375,6.866549682617188,6.743331909179688,1727563613574.0
10.62099999999998,0.407635498046875,6.6023193359375005,8.661431884765626,1727563613584.0
10.630999999999972,0.7116424560546876,6.52037353515625,8.518325805664062,1727563613594.0
10.640999999999964,0.8394958496093751,7.04434814453125,6.691293334960938,1727563613604.0
10.650999999999954,0.5342926025390625,7.496246337890626,5.9821929931640625,1727563613614.0
10.660999999999945,0.13218994140625,7.920330810546876,4.7859039306640625,1727563613624.0
10.670999999999935,-0.6273040771484375,7.92421875,5.890676879882813,1727563613634.0
10.68099999999994,-0.837103271484375,7.278073120117188,6.600225830078125,1727563613644.0
10.690999999999915,-0.9096282958984376,6.913204956054688,7.0135437011718755,1727563613654.0
10.700999999999894,-0.5824432373046875,6.646731567382813,7.919284057617188,1727563613664.0
10.709999999999924,-0.066693115234375,6.6546569824218755,7.568322753906251,1727563613673.0
10.719999999999914,0.3043060302734375,7.032833862304688,7.1391540527343755,1727563613683.0
10.729999999999905,0.70401611328125,7.29197998046875,6.365304565429688,1727563613693.0
10.739999999999895,0.7245025634765625,7.510452270507813,5.8057403564453125,1727563613703.0
10.750999999999976,0.50184326171875,7.972369384765625,5.71885986328125,1727563613714.0
10.76099999999998,0.3913360595703125,7.738046264648438,5.7457763671875,1727563613724.0
10.769999999999982,0.2172760009765625,7.868441772460938,5.447750854492188,1727563613733.0
10.779999999999973,-0.11065673828125,6.759481811523438,6.956420898437501,1727563613743.0
10.789999999999978,-0.5121612548828125,6.824380493164063,7.256838989257813,1727563613753.0
10.799999999999956,-0.742596435546875,6.591403198242188,8.822183227539064,1727563613763.0
10.809999999999931,-0.5357879638671875,6.86490478515625,7.45048828125,1727563613773.0
10.819999999999936,-0.481207275390625,7.1017700195312505,6.450540161132813,1727563613783.0
10.82999999999994,-0.3614288330078125,7.482937622070313,5.78465576171875,1727563613793.0
10.839999999999918,-0.0264678955078125,7.434188842773438,5.734860229492188,1727563613803.0
10.849999999999897,0.6000885009765625,8.011398315429688,6.060848999023438,1727563613813.0
10.8599999999999,0.9565826416015626,7.633670043945313,5.7563934326171875,1727563613823.0
10.87000000000002,1.1699707031250002,6.811819458007813,5.6560546875,1727563613833.0
10.879999999999995,0.9471618652343752,7.141247558593751,8.340078735351563,1727563613843.0
10.889999999999972,-0.19559326171875,7.021319580078125,8.695376586914064,1727563613853.0
10.899999999999975,-0.48868408203125,6.833950805664063,6.499288940429688,1727563613863.0
10.909999999999982,-1.06290283203125,7.207492065429688,6.120962524414063,1727563613873.0
10.91999999999996,-1.5133056640625,7.758383178710938,5.647979736328125,1727563613883.0
10.929999999999936,-1.16817626953125,7.753298950195313,6.540710449218751,1727563613893.0
10.93999999999994,-0.352008056640625,7.350448608398438,6.447100830078125,1727563613903.0
10.949999999999932,0.29249267578125,6.714022827148438,6.508261108398438,1727563613913.0
10.959999999999924,0.7331756591796875,6.9492431640625005,7.755990600585938,1727563613923.0
10.969999999999914,1.0256683349609377,6.8400817871093755,8.07196044921875,1727563613933.0
10.979999999999905,0.8572906494140625,7.510153198242188,6.439025878906251,1727563613943.0
10.989999999999895,0.490478515625,7.361065673828126,5.842825317382813,1727563613953.0
11.0,-0.2130889892578125,7.626492309570313,5.054769897460938,1727563613963.0
11.009999999999977,-0.70281982421875,7.75015869140625,6.332406616210938,1727563613973.0
11.019999999999982,-0.4831512451171875,7.653408813476563,6.894512939453126,1727563613983.0
11.029999999999973,-0.3940277099609375,7.009655761718751,6.211282348632813,1727563613993.0
11.039999999999978,-0.0850860595703125,6.657199096679688,6.633871459960938,1727563614003.0
11.049999999999956,-0.1075164794921875,6.496896362304688,8.570663452148438,1727563614013.0
11.059999999999931,-0.0801513671875,6.801351928710938,8.170654296875,1727563614023.0
11.069999999999936,-0.1520782470703125,6.96300048828125,7.428805541992188,1727563614033.0
11.07999999999994,-0.15970458984375,7.43314208984375,5.1757446289062505,1727563614043.0
11.088999999999942,-0.045458984375,8.114279174804688,4.79532470703125,1727563614052.0
11.099999999999897,0.1511810302734375,8.010052490234376,6.172253417968751,1727563614063.0
11.108999999999938,0.450103759765625,7.670605468750001,5.848806762695313,1727563614072.0
11.12000000000002,0.4689453125,6.846511840820313,6.840829467773438,1727563614083.0
11.128999999999891,0.6727630615234376,7.0479370117187505,6.4994384765625,1727563614092.0
11.139999999999972,0.7493255615234375,7.017730712890626,7.80997314453125,1727563614103.0
11.149999999999975,0.232977294921875,7.147378540039063,7.425366210937501,1727563614113.0
11.158999999999978,-0.7195678710937501,6.638507080078125,7.023712158203126,1727563614122.0
11.168999999999984,-1.3878448486328123,7.145584106445313,6.408071899414063,1727563614132.0
11.178999999999974,-1.1940460205078125,7.408767700195313,6.26317138671875,1727563614142.0
11.18899999999998,-0.339447021484375,8.316302490234376,5.2968688964843755,1727563614152.0
11.198999999999955,0.424383544921875,7.264614868164063,5.684017944335938,1727563614162.0
11.208999999999932,0.8350097656250001,6.900494384765626,6.250610351562501,1727563614172.0
11.218999999999935,0.7935882568359376,7.036273193359375,9.207537841796876,1727563614182.0
11.228999999999942,0.8365051269531251,6.645385742187501,8.153158569335938,1727563614192.0
11.239999999999895,0.4629638671875,6.808978271484375,5.992361450195313,1727563614203.0
11.248999999999896,-0.4421783447265625,7.493405151367188,6.068624877929688,1727563614212.0
11.2589999999999,-1.0400238037109375,8.031585693359375,5.7708984375000005,1727563614222.0
11.26900000000002,-1.137969970703125,8.0593994140625,6.351547241210938,1727563614232.0
11.278999999999996,-0.7801300048828126,7.133920288085938,5.773440551757813,1727563614242.0
11.288999999999971,-0.5399749755859375,6.7267333984375,6.1501220703125,1727563614252.0
11.298999999999978,0.0578704833984375,6.664227294921876,8.902932739257814,1727563614262.0
11.308999999999983,0.9434234619140626,7.174444580078125,8.237796020507814,1727563614272.0
11.31899999999996,1.1129974365234376,7.076049804687501,6.640750122070313,1727563614282.0
11.328999999999937,0.7793823242187501,7.159191894531251,5.0052734375000005,1727563614292.0
11.339999999999918,-0.0610107421875,7.826272583007813,5.533285522460938,1727563614303.0
11.348999999999933,-0.3683074951171875,7.814010620117188,7.267456054687501,1727563614312.0
11.358999999999938,-0.5695831298828126,7.61497802734375,6.117373657226563,1727563614322.0
11.368999999999916,-0.8267852783203126,6.869540405273438,6.009408569335938,1727563614332.0
11.378999999999891,-0.7472320556640626,6.653610229492188,6.760379028320313,1727563614342.0
11.388999999999896,-0.218621826171875,6.854586791992188,8.561691284179688,1727563614352.0
11.399,0.447412109375,7.125396728515626,8.139849853515626,1727563614362.0
11.408999999999978,0.6518280029296876,7.053170776367188,5.766561889648438,1727563614372.0
11.418999999999984,0.6249114990234376,7.196426391601563,5.28460693359375,1727563614382.0
11.428999999999974,0.3457275390625,8.049380493164064,6.157000732421875,1727563614392.0
11.43999999999994,0.343634033203125,7.990762329101563,6.565533447265626,1727563614403.0
11.448999999999955,0.0560760498046875,7.405926513671876,5.854937744140625,1727563614412.0
11.458999999999932,-0.5461059570312501,6.688153076171876,5.880657958984376,1727563614422.0
11.46799999999996,-0.6782958984375,6.613833618164063,7.72025146484375,1727563614431.0
11.477999999999938,-0.5414703369140625,7.284802246093751,9.009402465820314,1727563614441.0
11.487999999999944,-0.1383209228515625,7.075003051757813,7.0883117675781255,1727563614451.0
11.497999999999934,-0.1036285400390625,6.945205688476563,5.234213256835938,1727563614461.0
11.5089999999999,-0.1197784423828125,7.2513061523437505,5.604165649414063,1727563614472.0
11.517999999999915,0.3153717041015625,7.739691162109375,6.985580444335938,1727563614481.0
11.527999999999892,0.7390075683593751,8.032781982421875,6.577047729492188,1727563614491.0
11.539999999999978,0.9535919189453126,7.058554077148438,4.9788055419921875,1727563614503.0
11.548000000000002,0.5860321044921876,7.066479492187501,6.104214477539063,1727563614511.0
11.55799999999998,-0.1837799072265625,7.146929931640625,8.841622924804689,1727563614521.0
11.567999999999984,-0.5254699707031251,6.854885864257813,8.040408325195314,1727563614531.0
11.577999999999976,-0.7617370605468751,6.819595336914063,6.483886718750001,1727563614541.0
11.58799999999998,-0.843084716796875,7.31650390625,5.4408721923828125,1727563614551.0
11.597999999999956,-0.7463348388671875,7.753598022460938,6.215469360351563,1727563614561.0
11.607999999999931,-0.2537628173828125,7.951284790039063,7.021319580078125,1727563614571.0
11.617999999999938,0.1661346435546875,6.954925537109376,6.474615478515625,1727563614581.0
11.627999999999943,0.2675201416015625,6.812866210937501,6.0031280517578125,1727563614591.0
11.639999999999972,0.5985931396484375,6.917541503906251,7.787393188476563,1727563614603.0
11.647999999999897,0.7614379882812501,7.503723144531251,7.634268188476563,1727563614611.0
11.657999999999902,0.411224365234375,7.3248779296875,6.6262451171875005,1727563614621.0
11.66800000000002,-0.25660400390625,7.073208618164063,5.388684082031251,1727563614631.0
11.677999999999995,-0.6672302246093751,7.40323486328125,5.751309204101563,1727563614641.0
11.687999999999974,-0.4248321533203125,7.935733032226563,7.242932128906251,1727563614651.0
11.69799999999998,-0.0991424560546875,7.531686401367188,6.419436645507813,1727563614661.0
11.707999999999984,0.046356201171875,6.857727050781251,5.4019927978515625,1727563614671.0
11.71799999999996,0.0490478515625,6.595291137695313,7.14603271484375,1727563614681.0
11.727999999999938,0.2480804443359375,6.954476928710938,8.602813720703125,1727563614691.0
11.739999999999895,0.078656005859375,6.911260986328125,8.335592651367188,1727563614703.0
11.747999999999934,-0.1299468994140625,7.132125854492188,5.636016845703125,1727563614711.0
11.75799999999994,-0.2334259033203125,7.585968017578126,4.934243774414063,1727563614721.0
11.767999999999915,-0.233575439453125,7.988818359375,6.0310913085937505,1727563614731.0
11.777999999999892,-0.0701324462890625,7.588211059570313,6.884194946289063,1727563614741.0
11.787999999999895,-0.0480010986328125,7.240539550781251,6.44261474609375,1727563614751.0
11.798000000000002,0.3530548095703125,6.782510375976563,6.042755126953125,1727563614761.0
11.80799999999998,0.75784912109375,7.178631591796876,7.037020874023438,1727563614771.0
11.817999999999984,0.5837890625000001,7.172799682617188,8.157046508789064,1727563614781.0
11.826999999999998,-0.1655364990234375,6.874774169921875,7.204351806640625,1727563614790.0
11.839999999999918,-0.6548187255859376,6.8044921875,6.238049316406251,1727563614803.0
11.847999999999956,-0.555975341796875,7.835394287109375,5.268606567382813,1727563614811.0
11.856999999999983,-0.0856842041015625,8.224935913085938,5.360720825195313,1727563614820.0
11.866999999999962,0.5715270996093751,7.192388916015625,5.969332885742188,1727563614830.0
11.876999999999938,0.13338623046875,6.938327026367188,7.464993286132813,1727563614840.0
11.88799999999992,-0.173162841796875,6.780865478515626,8.747116088867188,1727563614851.0
11.896999999999936,0.151629638671875,6.492858886718751,7.490863037109375,1727563614860.0
11.90699999999994,0.14295654296875,7.438375854492188,6.550131225585938,1727563614870.0
11.916999999999916,-0.544012451171875,7.615426635742188,6.132626342773438,1727563614880.0
11.926999999999891,-0.8734405517578125,7.645333862304688,5.149725341796875,1727563614890.0
11.93999999999994,-0.5662933349609376,7.725186157226563,6.026455688476563,1727563614903.0
11.947000000000005,0.295184326171875,7.25369873046875,6.4901672363281255,1727563614910.0
11.956999999999994,0.3650177001953125,6.9806457519531255,7.419534301757813,1727563614920.0
11.966999999999985,0.0725250244140625,6.468334960937501,8.326470947265626,1727563614930.0
11.976999999999975,0.3072967529296875,7.029244995117188,6.909017944335938,1727563614940.0
11.98699999999998,0.5121612548828125,7.322036743164063,6.75723876953125,1727563614950.0
11.996999999999955,0.165087890625,7.723391723632813,5.250363159179688,1727563614960.0
12.006999999999934,-0.68427734375,7.688400268554688,5.7489166259765625,1727563614970.0
12.01699999999994,-0.8338134765625,7.082180786132813,6.950289916992188,1727563614980.0
12.026999999999944,-0.6074157714843751,7.322784423828126,6.749313354492188,1727563614990.0
12.03699999999992,-0.081048583984375,6.988421630859375,7.505068969726563,1727563615000.0
12.046999999999898,0.156414794921875,6.764117431640625,6.632824707031251,1727563615010.0
12.056999999999904,0.289202880859375,6.896008300781251,6.959262084960938,1727563615020.0
12.066999999999894,0.6087615966796875,7.226333618164063,7.43553466796875,1727563615030.0
12.076999999999998,0.5788543701171875,7.374673461914063,6.52994384765625,1727563615040.0
12.086999999999977,0.2166778564453125,7.736550903320313,5.502630615234375,1727563615050.0
12.09699999999998,-0.078057861328125,7.722943115234376,5.098135375976563,1727563615060.0
12.106999999999983,0.023626708984375,8.059100341796876,5.501882934570313,1727563615070.0
12.116999999999962,-0.1060211181640625,6.97855224609375,7.610641479492188,1727563615080.0
12.126999999999938,-0.4984039306640625,6.7383972167968755,6.87686767578125,1727563615090.0
12.136999999999944,-0.6099578857421876,6.347509765625,8.306732177734375,1727563615100.0
12.146999999999936,-0.1009368896484375,7.03836669921875,7.578341674804688,1727563615110.0
12.15699999999994,0.13817138671875,7.348355102539063,6.815109252929688,1727563615120.0
12.16599999999994,-0.13338623046875,7.435086059570313,5.776132202148438,1727563615129.0
12.175999999999943,-0.197088623046875,7.161135864257813,5.228829956054688,1727563615139.0
12.185999999999922,0.2428466796875,8.074652099609375,6.1103454589843755,1727563615149.0
12.195999999999898,0.7977752685546876,7.865002441406251,6.264218139648438,1727563615159.0
12.205999999999904,0.995611572265625,6.783706665039063,5.419338989257813,1727563615169.0
12.215999999999894,0.3081939697265625,6.838287353515626,7.949340820312501,1727563615179.0
12.226,-0.334661865234375,6.9776550292968755,9.000131225585939,1727563615189.0
12.23699999999998,-0.371746826171875,6.925915527343751,7.068124389648438,1727563615200.0
12.24599999999998,-0.5887237548828126,7.315008544921875,5.825927734375,1727563615209.0
12.255999999999972,-0.9497039794921877,7.616622924804688,5.1353698730468755,1727563615219.0
12.265999999999964,-0.9867889404296876,7.709933471679688,6.400296020507813,1727563615229.0
12.275999999999954,-0.2791839599609375,7.566229248046875,7.1585937500000005,1727563615239.0
12.285999999999945,0.359185791015625,6.795819091796876,6.626992797851563,1727563615249.0
12.295999999999935,0.499749755859375,6.8341003417968755,6.903036499023438,1727563615259.0
12.30599999999994,0.4912261962890625,6.79013671875,7.997940063476563,1727563615269.0
12.315999999999915,0.5381805419921876,7.4660400390625,6.938476562500001,1727563615279.0
12.325999999999894,0.3889434814453125,7.444058227539063,6.3825012207031255,1727563615289.0
12.3359999999999,-0.1810882568359375,7.4205810546875,4.94486083984375,1727563615299.0
12.346000000000018,-0.5217315673828126,7.681671142578126,5.6457366943359375,1727563615309.0
12.355999999999996,-0.258099365234375,7.704998779296876,7.413851928710938,1727563615319.0
12.365999999999971,-0.0765625,7.202108764648438,6.347360229492188,1727563615329.0
12.375999999999976,0.0614593505859375,6.693386840820313,6.363360595703125,1727563615339.0
12.38599999999998,-0.054132080078125,6.439474487304688,7.941415405273438,1727563615349.0
12.395999999999958,-0.225799560546875,6.914700317382813,8.061941528320313,1727563615359.0
12.405999999999937,-0.23746337890625,6.888381958007813,8.123550415039062,1727563615369.0
12.41599999999994,-0.3117828369140625,7.500732421875001,5.3765716552734375,1727563615379.0
12.425999999999943,-0.17764892578125,7.757336425781251,4.549337768554688,1727563615389.0
12.435999999999922,0.1404144287109375,8.184561157226563,5.674447631835938,1727563615399.0
12.445999999999898,0.4774688720703125,7.6095947265625,6.681274414062501,1727563615409.0
12.455999999999904,0.5492462158203125,7.061096191406251,6.628488159179688,1727563615419.0
12.465999999999894,0.62745361328125,6.703854370117188,6.778921508789063,1727563615429.0
12.476,0.74169921875,7.1573974609375,7.081582641601563,1727563615439.0
12.485999999999976,0.268865966796875,7.111340332031251,7.739392089843751,1727563615449.0
12.49599999999998,-0.6461456298828125,6.990664672851563,7.068124389648438,1727563615459.0
12.505999999999972,-1.4023498535156251,6.943112182617188,6.46055908203125,1727563615469.0
12.515999999999964,-1.30096435546875,7.271194458007813,6.030194091796876,1727563615479.0
12.525999999999954,-0.3611297607421875,8.334844970703125,5.522219848632813,1727563615489.0
12.535999999999945,0.5743682861328125,7.739392089843751,5.365206909179688,1727563615499.0
12.545999999999935,1.1303436279296877,6.677536010742188,5.900396728515625,1727563615509.0
12.55599999999994,1.1569610595703126,7.04434814453125,8.807528686523439,1727563615519.0
12.56499999999994,0.7050628662109375,6.690396118164063,9.122152709960938,1727563615528.0
12.574999999999932,0.3007171630859375,6.685610961914063,6.328518676757813,1727563615538.0
12.584999999999924,-0.5266662597656251,7.330111694335938,6.050082397460938,1727563615548.0
12.596000000000018,-1.2765899658203126,7.848104858398438,5.567828369140625,1727563615559.0
12.604999999999905,-1.6602996826171876,8.18560791015625,6.098980712890626,1727563615568.0
12.614999999999895,-1.2404022216796875,7.343121337890626,6.525607299804688,1727563615578.0
12.625,-0.2615386962890625,6.848605346679688,5.6288391113281255,1727563615588.0
12.634999999999977,0.262286376953125,6.581234741210938,8.441613769531251,1727563615598.0
12.644999999999982,0.8454772949218751,6.885989379882813,8.301348876953126,1727563615608.0
12.654999999999973,1.5399230957031251,7.227230834960938,6.876568603515626,1727563615618.0
12.664999999999978,1.6873657226562502,7.413253784179688,5.743234252929688,1727563615628.0
12.674999999999956,0.5266662597656251,7.68675537109375,4.773342895507813,1727563615638.0
12.684999999999931,-0.881964111328125,7.825823974609375,6.823782348632813,1727563615648.0
12.694999999999936,-1.5985412597656252,7.36435546875,7.034628295898438,1727563615658.0
12.70499999999994,-1.1831298828125,7.030740356445313,6.076849365234375,1727563615668.0
12.714999999999918,-1.1541198730468751,6.522018432617188,7.116424560546876,1727563615678.0
12.724999999999897,-0.4667022705078125,6.679928588867188,7.890274047851563,1727563615688.0
12.7349999999999,0.2500244140625,7.143341064453126,8.260076904296875,1727563615698.0
12.74500000000002,0.6497344970703125,7.017880249023438,6.4183898925781255,1727563615708.0
12.754999999999995,1.2921417236328123,7.172500610351563,5.2116333007812505,1727563615718.0
12.764999999999972,1.2764404296875,8.087362670898438,5.948098754882813,1727563615728.0
12.774999999999975,0.4885345458984375,7.9589111328125,6.110195922851563,1727563615738.0
12.784999999999982,0.44920654296875,8.311816406250001,5.12071533203125,1727563615748.0
12.79499999999996,0.0088226318359375,7.08621826171875,5.706298828125,1727563615758.0
12.804999999999936,-0.6332855224609375,6.588562011718751,6.701312255859375,1727563615768.0
12.81499999999994,-1.54141845703125,6.5568603515625,9.6169677734375,1727563615778.0
12.824999999999932,-0.8517578125,6.576150512695313,8.730517578125001,1727563615788.0
12.834999999999924,-0.3392974853515625,6.984683227539063,6.402987670898438,1727563615798.0
12.844999999999914,-0.161199951171875,7.305737304687501,5.4568725585937505,1727563615808.0
12.854999999999905,-0.0873291015625,7.383795166015625,5.601174926757813,1727563615818.0
12.864999999999895,0.3291290283203125,7.914349365234376,6.619964599609376,1727563615828.0
12.875,0.8417388916015626,8.279666137695314,5.6886535644531255,1727563615838.0
12.884999999999977,1.4376403808593752,6.833053588867188,4.2830139160156255,1727563615848.0
12.894999999999982,2.013055419921875,7.293176269531251,7.062442016601563,1727563615858.0
12.904999999999973,0.154620361328125,7.140948486328125,10.07574462890625,1727563615868.0
12.914999999999978,-1.3489654541015623,6.337789916992188,7.497293090820313,1727563615878.0
12.923999999999978,-1.2179718017578125,6.833352661132813,6.522766113281251,1727563615887.0
12.933999999999983,-1.2317291259765626,7.693634033203126,5.2131286621093755,1727563615897.0
12.94399999999996,-1.4048919677734375,7.828366088867188,6.0225677490234375,1727563615907.0
12.953999999999937,-0.9239837646484376,7.8033935546875,7.008010864257813,1727563615917.0
12.963999999999942,0.0662445068359375,6.746472167968751,6.117523193359375,1727563615927.0
12.973999999999933,0.7621856689453126,6.9103637695312505,6.754995727539063,1727563615937.0
12.983999999999938,1.1811859130859377,6.837838745117188,8.319143676757813,1727563615947.0
12.993999999999916,1.1624938964843752,7.165023803710938,7.416094970703125,1727563615957.0
13.004999999999995,0.6119018554687501,7.456021118164063,6.562692260742188,1727563615968.0
13.013999999999896,0.0704315185546875,7.129284667968751,5.337991333007813,1727563615977.0
13.024,-0.6914550781250001,8.014688110351564,4.9574218750000005,1727563615987.0
13.033999999999978,-0.5444610595703125,7.959210205078126,7.118667602539063,1727563615997.0
13.043999999999984,-0.4498046875,7.414300537109376,5.87198486328125,1727563616007.0
13.053999999999974,-0.2537628173828125,6.634320068359376,5.98443603515625,1727563616017.0
13.06399999999998,-0.0907684326171875,6.3481079101562505,8.616720581054688,1727563616027.0
13.073999999999955,-0.2450897216796875,6.64000244140625,8.610140991210939,1727563616037.0
13.083999999999932,-0.081048583984375,6.597235107421875,8.350546264648438,1727563616047.0
13.093999999999935,-0.23447265625,7.446151733398438,5.955575561523438,1727563616057.0
13.103999999999942,-0.1194793701171875,7.794720458984376,4.200320434570313,1727563616067.0
13.11399999999992,0.103179931640625,8.169458007812501,5.487826538085938,1727563616077.0
13.123999999999896,0.4361968994140625,8.020220947265626,6.268106079101563,1727563616087.0
13.1339999999999,0.7008758544921876,7.221997070312501,6.330014038085938,1727563616097.0
13.14400000000002,0.77100830078125,6.8550354003906255,6.346762084960938,1727563616107.0
13.153999999999996,1.0264160156250002,7.1720520019531255,6.786846923828126,1727563616117.0
13.163999999999971,0.582891845703125,7.062142944335938,8.066427612304688,1727563616127.0
13.173999999999978,-0.42049560546875,6.831558227539063,7.448544311523438,1727563616137.0
13.183999999999983,-1.250421142578125,6.6337219238281255,7.131826782226563,1727563616147.0
13.19399999999996,-1.7787322998046875,7.061096191406251,6.423922729492188,1727563616157.0
13.203999999999937,-1.5104644775390623,8.116522216796875,5.561846923828125,1727563616167.0
13.213999999999942,-0.18721923828125,8.206692504882813,4.8961120605468755,1727563616177.0
13.223999999999933,1.1602508544921877,6.804791259765626,5.1313323974609375,1727563616187.0
13.233999999999938,1.855593872070313,7.298410034179688,8.038763427734375,1727563616197.0
13.243999999999916,1.129296875,6.604861450195313,9.715512084960938,1727563616207.0
13.253999999999891,1.0289581298828123,6.52635498046875,6.968234252929688,1727563616217.0
13.26299999999992,0.4055419921875,7.192837524414063,6.4348388671875005,1727563616226.0
13.274,-0.5274139404296876,7.97386474609375,5.39825439453125,1727563616237.0
13.282999999999902,-2.470785522460938,8.045791625976562,5.8191986083984375,1727563616246.0
13.29300000000002,-2.1815826416015627,7.395907592773438,6.259133911132813,1727563616256.0
13.302999999999995,-1.1509796142578126,7.001132202148438,5.636914062500001,1727563616266.0
13.312999999999974,-0.5100677490234375,6.572113037109376,8.3034423828125,1727563616276.0
13.32299999999998,0.7935882568359376,6.839035034179688,8.569317626953126,1727563616286.0
13.332999999999984,1.6964874267578127,6.968533325195313,7.214370727539063,1727563616296.0
13.34299999999996,1.785760498046875,7.298260498046876,6.041409301757813,1727563616306.0
13.352999999999938,1.0723236083984375,7.6685119628906255,5.0576110839843755,1727563616316.0
13.362999999999944,0.20875244140625,8.051623535156251,6.0609985351562505,1727563616326.0
13.372999999999934,-0.4409820556640625,7.554266357421875,6.716415405273438,1727563616336.0
13.38299999999994,-1.5865783691406252,7.262521362304688,5.8535919189453125,1727563616346.0
13.392999999999915,-1.5110626220703125,6.542654418945313,7.112686157226563,1727563616356.0
13.402999999999892,-0.8583374023437501,6.838287353515626,7.726382446289063,1727563616366.0
13.412999999999895,-0.4652069091796875,6.7087890625,8.354135131835939,1727563616376.0
13.423000000000002,0.0330474853515625,6.925167846679688,6.764117431640625,1727563616386.0
13.43299999999998,0.7837188720703125,7.087265014648438,6.079690551757813,1727563616396.0
13.442999999999984,1.550091552734375,8.048632812500001,5.705850219726563,1727563616406.0
13.452999999999976,0.9921722412109376,7.931546020507813,5.756692504882813,1727563616416.0
13.46299999999998,0.7198669433593751,8.038763427734375,5.4467041015625,1727563616426.0
13.472999999999956,0.2621368408203125,7.099676513671875,6.0943450927734375,1727563616436.0
13.482999999999931,-0.179742431640625,7.079190063476563,6.419436645507813,1727563616446.0
13.492999999999938,-0.8321685791015626,7.013693237304688,8.281161499023439,1727563616456.0
