time,ax,ay,az,timestamp
0.0,-0.3790740966796875,7.200314331054688,6.479251098632813,1728067647181.0
0.0070000000000334,0.0465057373046875,7.110891723632813,6.209786987304688,1728067647188.0
0.0170000000000385,0.6492858886718751,7.247119140625,6.831558227539063,1728067647198.0
0.0270000000000294,0.796728515625,7.206744384765625,6.966439819335938,1728067647208.0
0.0370000000000345,0.4655059814453125,6.630282592773438,7.351196289062501,1728067647218.0
0.0470000000000112,0.0118133544921875,6.980197143554688,6.192141723632813,1728067647228.0
0.0569999999999879,-0.152825927734375,7.416992187500001,6.572561645507813,1728067647238.0
0.066999999999993,-0.18841552734375,7.604061889648438,6.04185791015625,1728067647248.0
0.0769999999999981,-0.5926116943359375,7.341027832031251,6.268704223632813,1728067647258.0
0.0869999999999748,-0.7841674804687501,6.817950439453125,6.731219482421875,1728067647268.0
0.0989999999999184,-0.5441619873046876,6.638357543945313,7.260427856445313,1728067647280.0
0.1069999999999566,0.047552490234375,7.249212646484375,7.772738647460938,1728067647288.0
0.1169999999999475,0.6458465576171876,6.970925903320313,6.187356567382813,1728067647298.0
0.1269999999999527,0.8985626220703126,7.222445678710938,6.143991088867188,1728067647308.0
0.1369999999999294,0.7864105224609376,7.033731079101563,6.546093750000001,1728067647318.0
0.1469999999999061,0.4012054443359375,7.458114624023438,6.944607543945313,1728067647328.0
0.1569999999999112,0.3880462646484375,7.5877624511718755,6.108401489257813,1728067647338.0
0.1669999999999163,0.49287109375,7.747915649414063,4.623059082031251,1728067647348.0
0.1780000000000967,0.7064086914062501,7.7148681640625005,5.1862121582031255,1728067647359.0
0.1880000000000734,0.52576904296875,7.263119506835938,6.603515625000001,1728067647369.0
0.2000000000000312,0.236566162109375,7.038516235351563,7.846759033203125,1728067647381.0
0.2080000000000694,0.176153564453125,6.642095947265625,7.308728027343751,1728067647389.0
0.2180000000000745,0.107666015625,6.805389404296876,6.513195800781251,1728067647399.0
0.2280000000000512,-0.1993316650390625,7.204202270507813,6.631478881835938,1728067647409.0
0.2380000000000279,-0.5462554931640625,7.174893188476563,6.884793090820313,1728067647419.0
0.248000000000033,-0.2500244140625,6.945953369140626,6.447250366210938,1728067647429.0
0.2580000000000382,-0.7532135009765626,8.391220092773438,4.3462677001953125,1728067647439.0
0.2680000000000149,-0.42587890625,5.396310424804688,7.072012329101563,1728067647449.0
0.2779999999999916,2.4316070556640628,9.1360595703125,9.34600830078125,1728067647459.0
0.2879999999999967,0.4942169189453125,7.650717163085938,7.789337158203126,1728067647469.0
0.2999999999999545,-1.549493408203125,6.801950073242188,3.1091552734375,1728067647481.0
0.3079999999999785,-0.7917938232421876,2.812774658203125,5.6363159179687505,1728067647489.0
0.3179999999999694,-0.8839080810546875,9.672296142578126,10.39261169433594,1728067647499.0
0.3279999999999461,2.014849853515625,8.286544799804688,9.77054138183594,1728067647509.0
0.3379999999999512,0.270660400390625,6.803894042968751,2.6915008544921877,1728067647519.0
0.3479999999999563,0.0330474853515625,8.661581420898438,0.0590667724609375,1728067647529.0
0.3589999999999094,0.7527648925781251,5.882601928710938,8.44400634765625,1728067647540.0
0.3689999999999145,0.68427734375,9.170602416992187,10.789480590820313,1728067647550.0
0.3789999999998912,-1.3338623046875,4.750164794921876,8.436529541015625,1728067647560.0
0.3889999999998679,-0.94686279296875,7.233959960937501,2.651275634765625,1728067647570.0
0.398999999999873,1.197186279296875,7.089508056640626,6.528598022460938,1728067647580.0
0.4090000000000913,1.149783325195313,8.197421264648439,7.7552429199218755,1728067647590.0
0.419000000000068,-1.33565673828125,6.232366943359375,8.963793945312501,1728067647600.0
0.4290000000000731,-0.9884338378906252,6.3092285156250005,5.5769500732421875,1728067647610.0
0.4390000000000782,1.0611083984375,8.235253906250001,4.698873901367188,1728067647620.0
0.4490000000000549,2.3816619873046876,7.473965454101563,6.638806152343751,1728067647630.0
0.4590000000000316,0.572125244140625,6.914102172851563,6.7386962890625,1728067647640.0
0.4690000000000367,-0.841290283203125,6.890176391601563,8.035324096679688,1728067647650.0
0.4790000000000276,0.038580322265625,6.888232421875,6.140850830078126,1728067647660.0
0.4890000000000327,0.408831787109375,7.6430908203125005,6.0091094970703125,1728067647670.0
0.5,-0.1825836181640625,6.853988647460938,6.042755126953125,1728067647681.0
0.5099999999999767,-1.0315002441406251,7.202108764648438,7.252053833007813,1728067647691.0
0.5189999999999912,-0.5389282226562501,7.329214477539063,7.595687866210938,1728067647700.0
0.5299999999999585,0.13577880859375,7.132125854492188,5.8740783691406255,1728067647711.0
0.5399999999999494,0.1126007080078125,7.038067626953126,5.745327758789063,1728067647721.0
0.5499999999999545,-0.0862823486328125,6.8699890136718755,7.159191894531251,1728067647731.0
0.5599999999999312,0.263482666015625,7.169808959960938,7.834796142578125,1728067647741.0
0.5699999999999079,0.4523468017578125,7.29197998046875,7.006964111328125,1728067647751.0
0.579999999999913,0.4266265869140625,7.265811157226563,4.629339599609375,1728067647761.0
0.5899999999999181,0.4629638671875,7.353588867187501,5.937033081054688,1728067647771.0
0.5999999999998948,0.0737213134765625,7.198519897460938,7.168014526367188,1728067647781.0
0.6099999999998715,-0.1948455810546875,7.230969238281251,7.723092651367188,1728067647791.0
0.6199999999998766,-0.14774169921875,6.747219848632813,6.366500854492188,1728067647801.0
0.6300000000000949,0.2379119873046875,7.08262939453125,4.613787841796875,1728067647811.0
0.6400000000000716,0.7173248291015626,8.090802001953126,6.288891601562501,1728067647821.0
0.6510000000000531,1.023126220703125,8.460305786132814,6.436782836914063,1728067647832.0
0.6600000000000676,0.3138763427734375,7.479049682617188,6.72135009765625,1728067647841.0
0.6700000000000728,0.0641510009765625,6.12559814453125,6.039315795898438,1728067647851.0
0.6800000000000495,-0.616986083984375,5.947201538085938,7.488320922851563,1728067647861.0
0.6910000000000167,-0.8254394531250001,6.384594726562501,8.743527221679688,1728067647872.0
0.7009999999999934,-0.25361328125,7.576995849609376,7.832702636718751,1728067647882.0
0.7109999999999985,0.378924560546875,7.638156127929688,4.883251953125001,1728067647892.0
0.7209999999999894,0.2361175537109375,7.844515991210938,4.502084350585938,1728067647902.0
0.7309999999999945,-0.276641845703125,6.935186767578125,6.889129638671876,1728067647912.0
0.7409999999999712,-0.260791015625,7.061096191406251,7.741485595703126,1728067647922.0
0.7529999999999148,0.364569091796875,7.608398437500001,7.183715820312501,1728067647934.0
0.760999999999953,1.229486083984375,7.27762451171875,4.027456665039063,1728067647942.0
0.7709999999999582,1.8868469238281251,7.348205566406251,5.787496948242188,1728067647952.0
0.7809999999999349,0.3683074951171875,6.939373779296876,8.116372680664064,1728067647962.0
0.7909999999999116,-1.2795806884765626,6.633422851562501,8.830258178710938,1728067647972.0
0.8009999999999167,-1.073968505859375,6.870587158203126,6.811819458007813,1728067647982.0
0.8109999999999076,-0.0841888427734375,7.104312133789063,4.6273956298828125,1728067647992.0
0.8209999999999127,-0.035888671875,8.932092285156251,4.989871215820313,1728067648002.0
0.8309999999998894,-0.512908935546875,6.326425170898438,6.882101440429688,1728067648012.0
0.8409999999998661,0.306549072265625,6.649273681640626,8.56064453125,1728067648022.0
0.8509999999998712,1.1376708984375,6.732116699218751,7.403384399414063,1728067648032.0
0.8610000000000895,1.8203033447265624,7.021618652343751,6.574505615234376,1728067648042.0
0.8710000000000662,0.60950927734375,7.161434936523438,6.069223022460938,1728067648052.0
0.8820000000000334,-1.0612579345703126,7.378411865234376,6.228778076171875,1728067648063.0
0.8920000000000385,-0.4906280517578125,7.901339721679688,6.37083740234375,1728067648073.0
0.9020000000000294,-0.21114501953125,7.409515380859376,5.466143798828125,1728067648083.0
0.9120000000000346,-0.6494354248046875,6.75963134765625,6.4156982421875,1728067648093.0
0.9220000000000113,-0.4376922607421875,6.820343017578126,7.622604370117188,1728067648103.0
0.931999999999988,0.1628448486328125,6.809576416015625,8.336788940429688,1728067648113.0
0.9419999999999932,0.8466735839843751,6.962103271484375,6.899148559570313,1728067648123.0
0.9519999999999982,0.6959411621093751,6.872082519531251,5.5944458007812505,1728067648133.0
0.9619999999999748,0.3727935791015625,7.460955810546875,5.989370727539063,1728067648143.0
0.9719999999999516,0.5993408203125,7.420132446289063,6.329266357421876,1728067648153.0
0.9819999999999568,0.704315185546875,7.655502319335938,6.584823608398438,1728067648163.0
0.9919999999999476,0.1921539306640625,7.507611083984376,5.752505493164063,1728067648173.0
1.0019999999999527,0.040374755859375,7.385739135742188,6.190646362304688,1728067648183.0
1.01299999999992,-0.370550537109375,7.382598876953126,7.519424438476563,1728067648194.0
1.021999999999906,-0.60950927734375,6.351397705078125,6.762771606445313,1728067648203.0
1.0319999999999112,-0.98035888671875,6.266461181640626,7.1870056152343755,1728067648213.0
1.0429999999998785,-0.3398956298828125,7.235305786132813,6.811520385742188,1728067648224.0
1.0530000000000967,0.7038665771484376,7.834347534179688,6.432147216796875,1728067648234.0
1.0630000000000734,1.4301635742187502,7.965341186523438,5.583081054687501,1728067648244.0
1.0730000000000786,0.5447601318359375,6.622955322265626,6.1003265380859375,1728067648254.0
1.0830000000000697,-0.2603424072265625,6.703106689453126,7.242483520507813,1728067648264.0
1.0930000000000746,-0.086431884765625,7.521517944335938,7.546041870117188,1728067648274.0
1.1030000000000513,0.529058837890625,7.3846923828125,6.1070556640625,1728067648284.0
1.113000000000028,-0.0234771728515625,7.218408203125,5.180081176757813,1728067648294.0
1.123000000000033,-0.6232666015625,6.624899291992188,7.070516967773438,1728067648304.0
1.1330000000000382,-0.7406524658203125,7.102667236328125,8.166467285156251,1728067648314.0
1.143000000000015,-0.001495361328125,7.513592529296876,7.428057861328125,1728067648324.0
1.1529999999999916,0.63822021484375,7.488470458984375,4.4195404052734375,1728067648334.0
1.1629999999999967,0.6147430419921875,7.044647216796876,4.770651245117188,1728067648344.0
1.1729999999999876,0.569732666015625,7.256838989257813,7.37572021484375,1728067648354.0
1.1829999999999783,0.430364990234375,7.408767700195313,8.697619628906251,1728067648364.0
1.1929999999999694,0.38341064453125,6.670806884765626,6.744229125976563,1728067648374.0
1.202999999999946,0.02332763671875,6.548037719726563,5.025460815429688,1728067648384.0
1.2139999999999134,-0.3407928466796875,7.291381835937501,6.823333740234376,1728067648395.0
1.2239999999999185,-0.5773590087890625,7.763616943359375,7.675390625,1728067648405.0
1.2339999999999094,-0.38221435546875,7.464395141601563,6.403286743164063,1728067648415.0
1.2439999999999145,0.135479736328125,7.009506225585938,4.555917358398438,1728067648425.0
1.2539999999998912,0.490478515625,6.996945190429688,6.02989501953125,1728067648435.0
1.263999999999868,0.6198272705078125,7.201211547851563,8.434884643554689,1728067648445.0
1.273999999999873,0.40374755859375,7.0150390625000005,8.064035034179689,1728067648455.0
1.2840000000000913,0.489581298828125,6.816305541992188,5.8909759521484375,1728067648465.0
1.294000000000068,0.4658050537109375,6.981243896484376,5.067929077148438,1728067648475.0
1.304000000000073,-0.009271240234375,7.417739868164063,6.497344970703126,1728067648485.0
1.3140000000000782,-0.4290191650390625,7.805337524414063,7.4666381835937505,1728067648495.0
1.324000000000055,-0.1915557861328125,7.598678588867188,6.149822998046876,1728067648505.0
1.3340000000000316,0.212939453125,7.425366210937501,5.155557250976563,1728067648515.0
1.3440000000000367,0.1634429931640625,6.964944458007813,6.625946044921876,1728067648525.0
1.3540000000000276,-0.4350006103515625,6.260629272460938,7.942761230468751,1728067648535.0
1.3640000000000327,-0.432757568359375,6.513046264648438,8.47989501953125,1728067648545.0
1.3740000000000094,0.49346923828125,7.047787475585938,6.5395141601562505,1728067648555.0
1.383999999999986,1.0747161865234376,7.80638427734375,5.225241088867188,1728067648565.0
1.3949999999999676,0.4379913330078125,7.8494506835937505,5.8031982421875,1728067648576.0
1.4049999999999585,-0.5476013183593751,7.042105102539063,6.678433227539063,1728067648586.0
1.4149999999999494,-0.5733215332031251,7.075900268554688,7.047787475585938,1728067648596.0
1.4249999999999543,0.2429962158203125,7.451834106445313,6.032437133789063,1728067648606.0
1.4349999999999312,0.9697418212890626,7.366748046875,5.6273437500000005,1728067648616.0
1.444999999999908,0.4684967041015625,6.863558959960938,6.842922973632813,1728067648626.0
1.454999999999913,-0.2069580078125,6.592001342773438,8.225234985351562,1728067648636.0
1.464999999999918,-0.2471832275390625,6.941018676757813,8.092596435546875,1728067648646.0
1.4749999999998948,0.064300537109375,7.386337280273438,5.694036865234375,1728067648656.0
1.4849999999998715,0.0203369140625,7.486077880859376,4.733267211914063,1728067648666.0
1.4949999999998766,-0.236566162109375,7.414300537109376,5.7481689453125,1728067648676.0
1.505000000000095,-0.2693145751953125,7.416842651367188,7.680325317382813,1728067648686.0
1.5150000000000716,0.2307342529296875,6.9731689453125005,7.399945068359376,1728067648696.0
1.5250000000000767,0.668426513671875,6.641946411132813,6.1261962890625,1728067648706.0
1.5350000000000676,0.63642578125,6.960757446289063,6.48209228515625,1728067648716.0
1.5450000000000728,0.448309326171875,7.350598144531251,7.219903564453125,1728067648726.0
1.55600000000004,0.171368408203125,7.558004760742188,6.800305175781251,1728067648737.0
1.5660000000000167,0.061309814453125,7.267605590820313,5.337841796875001,1728067648747.0
1.5759999999999934,-0.11065673828125,7.188351440429688,5.562145996093751,1728067648757.0
1.5859999999999983,-0.3828125,7.1899963378906255,7.004122924804688,1728067648767.0
1.5959999999999894,-0.42767333984375,7.0018798828125,7.990612792968751,1728067648777.0
1.6089999999999094,-0.1069183349609375,6.898550415039063,6.970925903320313,1728067648790.0
1.6159999999999712,0.279632568359375,6.938327026367188,6.064138793945313,1728067648797.0
1.625999999999948,0.439337158203125,7.246520996093751,6.154309082031251,1728067648807.0
1.635999999999953,0.469842529296875,7.273886108398438,6.723593139648438,1728067648817.0
1.6459999999999582,0.529058837890625,7.365551757812501,6.390277099609375,1728067648827.0
1.6559999999999349,0.7005767822265625,7.417889404296876,5.975164794921875,1728067648837.0
1.6659999999999116,0.7868591308593751,7.418637084960938,5.846264648437501,1728067648847.0
1.675999999999917,0.03289794921875,7.8389831542968755,7.102368164062501,1728067648857.0
1.6859999999999076,-0.638519287109375,6.570767211914063,7.225735473632813,1728067648867.0
1.695999999999913,-0.9483581542968752,6.0938964843750005,6.7234436035156255,1728067648877.0
1.7090000000000316,-0.9326568603515626,6.941018676757813,7.412805175781251,1728067648890.0
1.715999999999866,0.107666015625,7.507611083984376,6.635516357421875,1728067648897.0
1.727000000000075,0.5752655029296876,7.864404296875,6.331808471679688,1728067648908.0
1.73700000000008,0.5196380615234375,7.083676147460938,5.501882934570313,1728067648918.0
1.7470000000000567,0.30325927734375,6.904232788085938,6.327621459960938,1728067648928.0
1.7570000000000334,0.51859130859375,7.189547729492188,7.499984741210938,1728067648938.0
1.7670000000000383,0.7707092285156251,7.496545410156251,6.605758666992188,1728067648948.0
1.7770000000000294,0.5879760742187501,7.051226806640625,6.162832641601563,1728067648958.0
1.7870000000000346,-0.291595458984375,6.690097045898438,6.2912841796875005,1728067648968.0
1.7970000000000113,-0.9359466552734376,7.1870056152343755,7.665072631835938,1728067648978.0
1.8089999999999549,-0.6178833007812501,7.366448974609376,7.313961791992188,1728067648990.0
1.816999999999993,-0.2035186767578125,7.362261962890625,5.42935791015625,1728067648998.0
1.8269999999999984,0.137274169921875,7.218408203125,5.256793212890625,1728067649008.0
1.8369999999999749,0.3983642578125,7.125845336914063,6.641348266601563,1728067649018.0
1.8469999999999516,0.6407623291015625,7.2288757324218755,8.1120361328125,1728067649028.0
1.856999999999957,0.8525054931640625,7.021917724609375,7.147677612304688,1728067649038.0
1.8669999999999476,0.6996795654296876,6.763967895507813,5.621661376953125,1728067649048.0
1.8769999999999527,0.2093505859375,7.001730346679688,6.205300903320313,1728067649058.0
1.8869999999999296,-0.275146484375,7.752999877929688,7.180276489257813,1728067649068.0
1.896999999999906,-0.448907470703125,7.658642578125001,6.570468139648438,1728067649078.0
1.9090000000000913,-0.255108642578125,7.04434814453125,5.210885620117188,1728067649090.0
1.9179999999998785,-0.171368408203125,6.962850952148438,6.011502075195313,1728067649099.0
1.9280000000000967,-0.04127197265625,6.965393066406251,7.883544921875001,1728067649109.0
1.9380000000000737,0.2100982666015625,7.0377685546875,8.07196044921875,1728067649119.0
1.9480000000000783,0.6412109375,7.052572631835938,6.309527587890625,1728067649129.0
1.9580000000000697,0.7261474609375,6.917990112304688,5.18890380859375,1728067649139.0
1.9680000000000744,0.4472625732421875,7.128985595703125,6.426763916015625,1728067649149.0
1.9780000000000513,-0.06639404296875,7.940069580078125,7.503274536132813,1728067649159.0
1.988000000000028,-0.0327484130859375,7.4325439453125,6.169113159179688,1728067649169.0
1.998000000000033,0.2379119873046875,7.654006958007813,4.964749145507813,1728067649179.0
2.008999999999986,-0.0907684326171875,6.639254760742188,6.274685668945313,1728067649190.0
2.018000000000015,-0.5929107666015625,6.478652954101563,7.979696655273438,1728067649199.0
2.0279999999999916,-0.6851745605468751,6.846661376953126,9.245968627929688,1728067649209.0
2.0379999999999967,0.349615478515625,7.050030517578126,5.982791137695313,1728067649219.0
2.0479999999999876,0.9428253173828126,7.757186889648438,5.012301635742188,1728067649229.0
2.0579999999999785,0.3768310546875,7.419384765625001,5.624652099609375,1728067649239.0
2.06899999999996,-0.3868499755859375,7.064535522460938,7.210333251953125,1728067649250.0
2.077999999999946,-0.1969390869140625,7.374972534179688,7.6191650390625005,1728067649259.0
2.088999999999914,0.8516082763671876,7.287792968750001,5.344570922851563,1728067649270.0
2.0989999999999185,0.874188232421875,7.227230834960938,5.6117919921875,1728067649280.0
2.1099999999998715,0.0892730712890625,6.8819519042968755,6.888980102539063,1728067649291.0
2.1189999999999145,-0.5082733154296876,6.884793090820313,8.636907958984375,1728067649300.0
2.128999999999891,-0.2630340576171875,7.198370361328125,7.335345458984375,1728067649310.0
2.138999999999868,0.188116455078125,7.195678710937501,5.015591430664063,1728067649320.0
2.148999999999873,-0.177349853515625,7.299307250976563,5.198025512695313,1728067649330.0
2.1590000000000913,-0.30804443359375,7.222296142578125,6.901541137695313,1728067649340.0
2.169000000000068,-0.015252685546875,7.548284912109375,8.081381225585938,1728067649350.0
2.179000000000073,0.544012451171875,6.884793090820313,6.384893798828125,1728067649360.0
2.189000000000078,0.7200164794921875,6.665423583984375,5.511303710937501,1728067649370.0
2.199000000000055,0.3937286376953125,7.142892456054688,6.880007934570313,1728067649380.0
2.2090000000000316,0.262884521484375,7.582528686523438,7.673147583007813,1728067649390.0
2.2190000000000367,0.242547607421875,7.482638549804688,6.4064270019531255,1728067649400.0
2.2290000000000276,0.1915557861328125,7.0138427734375,4.747323608398438,1728067649410.0
2.239999999999995,-0.26617431640625,7.067526245117188,6.139804077148438,1728067649421.0
2.25,-0.4079345703125,7.211978149414063,7.992108154296876,1728067649431.0
2.2599999999999767,-0.23507080078125,7.300204467773438,7.726681518554688,1728067649441.0
2.2699999999999676,0.18243408203125,6.775631713867188,5.756692504882813,1728067649451.0
2.2799999999999585,0.343634033203125,6.903634643554688,5.634970092773438,1728067649461.0
2.2899999999999494,0.15850830078125,7.074105834960938,7.136761474609376,1728067649471.0
2.2999999999999545,0.3536529541015625,7.444357299804688,7.385440063476563,1728067649481.0
2.309999999999931,0.654669189453125,7.646978759765625,6.29906005859375,1728067649491.0
2.319999999999908,1.011163330078125,7.19388427734375,4.574459838867188,1728067649501.0
2.329999999999913,0.3102874755859375,7.935733032226563,6.299957275390626,1728067649511.0
2.339999999999918,-0.5130584716796875,6.8251281738281255,7.829562377929688,1728067649521.0
2.349999999999895,-0.7825225830078125,6.1167755126953125,7.323831176757813,1728067649531.0
2.3599999999998715,-0.5929107666015625,6.7952209472656255,7.36136474609375,1728067649541.0
2.3699999999998766,0.0007476806640625,7.256390380859376,6.208441162109375,1728067649551.0
2.380000000000095,0.06878662109375,7.772439575195313,6.716714477539063,1728067649561.0
2.3900000000000716,0.0131591796875,7.361514282226563,5.976809692382813,1728067649571.0
2.4000000000000767,0.0399261474609375,6.999636840820313,5.913107299804688,1728067649581.0
2.4100000000000676,0.5882751464843751,7.085470581054688,6.689797973632813,1728067649591.0
2.4200000000000728,0.9625640869140626,7.503424072265625,6.784005737304688,1728067649601.0
2.43100000000004,0.7083526611328126,7.119415283203126,6.977355957031251,1728067649612.0
2.4410000000000167,0.2044158935546875,6.6591430664062505,6.4019409179687505,1728067649622.0
2.4509999999999934,-0.42647705078125,7.159490966796875,7.064086914062501,1728067649632.0
2.4609999999999985,-0.4421783447265625,7.298110961914063,6.8071838378906255,1728067649642.0
2.4709999999999894,-0.4661041259765625,7.446151733398438,6.14713134765625,1728067649652.0
2.4809999999999945,-0.418701171875,7.264166259765625,5.6183715820312505,1728067649662.0
2.4909999999999712,0.0330474853515625,7.091751098632813,6.202609252929688,1728067649672.0
2.500999999999948,0.5070770263671875,7.208987426757813,7.556060791015626,1728067649682.0
2.510999999999953,0.7490264892578126,6.922476196289063,7.249362182617188,1728067649692.0
2.520999999999958,0.5833404541015625,6.716564941406251,6.686209106445313,1728067649702.0
2.530999999999935,0.5313018798828125,6.985879516601563,6.481643676757813,1728067649712.0
2.5409999999999116,0.15611572265625,7.886236572265625,6.471475219726563,1728067649722.0
2.5509999999999167,0.0357391357421875,7.590304565429688,5.6871582031250005,1728067649732.0
2.5609999999999076,-0.1637420654296875,7.278073120117188,5.480499267578125,1728067649742.0
2.5709999999999127,-0.4224395751953125,7.138406372070313,6.4991394042968755,1728067649752.0
2.5809999999998894,-0.055029296875,6.849203491210938,7.718905639648438,1728067649762.0
2.590999999999866,0.073870849609375,7.093246459960938,7.611538696289063,1728067649772.0
2.602000000000075,0.3497650146484375,6.769052124023438,6.403884887695313,1728067649783.0
2.61200000000008,0.2770904541015625,6.8879333496093755,6.1764404296875,1728067649793.0
2.6220000000000567,0.218621826171875,7.111938476562501,6.574057006835938,1728067649803.0
2.6320000000000334,0.23387451171875,7.73759765625,6.854287719726563,1728067649813.0
2.6420000000000385,0.4050933837890625,7.706942749023438,5.7863006591796875,1728067649823.0
2.6520000000000294,0.5686859130859375,7.664474487304688,5.068975830078125,1728067649833.0
2.6620000000000346,0.12740478515625,7.408468627929688,6.468334960937501,1728067649843.0
2.6720000000000113,-0.2558563232421875,6.250610351562501,7.615426635742188,1728067649853.0
2.681999999999988,-0.6969879150390625,6.322238159179688,8.50382080078125,1728067649863.0
2.691999999999993,-0.327783203125,6.86490478515625,7.211380004882813,1728067649873.0
2.701999999999998,0.3916351318359375,7.562042236328126,5.8232360839843755,1728067649883.0
2.711999999999975,0.2077056884765625,7.960256958007813,5.627194213867188,1728067649893.0
2.7219999999999516,-0.1837799072265625,7.065283203125,5.87198486328125,1728067649903.0
2.7319999999999567,-0.2600433349609375,7.183566284179688,6.842773437500001,1728067649913.0
2.7419999999999476,0.6133972167968751,7.318597412109376,6.748715209960938,1728067649923.0
2.7519999999999527,1.2142333984375,7.356729125976563,6.28111572265625,1728067649933.0
2.7619999999999294,0.7905975341796876,6.845614624023438,6.35887451171875,1728067649943.0
2.7729999999998967,-0.0919647216796875,6.695629882812501,7.306036376953125,1728067649954.0
2.782999999999874,-0.381915283203125,7.305737304687501,7.687652587890626,1728067649964.0
2.7929999999998785,-0.1724151611328125,7.316653442382813,6.370388793945313,1728067649974.0
2.8030000000000967,-0.46715087890625,7.342822265625,5.041461181640625,1728067649984.0
2.8130000000000734,-0.6446502685546875,7.072610473632813,6.007464599609375,1728067649994.0
2.8230000000000786,-0.3093902587890625,7.307232666015626,7.499984741210938,1728067650004.0
2.8330000000000695,0.345428466796875,7.1212097167968755,7.471124267578125,1728067650014.0
2.8430000000000746,0.881964111328125,6.723294067382813,6.2419372558593755,1728067650024.0
2.8530000000000513,0.7599426269531251,6.885391235351563,6.292630004882813,1728067650034.0
2.863000000000028,0.62506103515625,7.423272705078125,7.229623413085938,1728067650044.0
2.873000000000033,0.3820648193359375,7.589706420898438,6.725238037109375,1728067650054.0
2.883000000000038,0.160601806640625,7.478152465820313,5.1682678222656255,1728067650064.0
2.893000000000015,-0.07835693359375,7.209735107421875,5.137164306640625,1728067650074.0
2.9029999999999916,-0.2989227294921875,7.249960327148438,6.959262084960938,1728067650084.0
2.9129999999999967,-0.43963623046875,7.016235351562501,8.272937011718751,1728067650094.0
2.9239999999999498,-0.3243438720703125,6.65555419921875,7.326373291015625,1728067650105.0
2.9329999999999785,0.06280517578125,6.775332641601563,6.060549926757813,1728067650114.0
2.94399999999996,0.3261383056640625,6.948944091796876,6.12918701171875,1728067650125.0
2.9539999999999367,0.5157501220703126,7.559500122070313,6.86729736328125,1728067650135.0
2.963999999999914,0.506927490234375,7.800253295898438,6.770098876953125,1728067650145.0
2.9739999999999185,0.6883148193359375,7.477554321289063,5.065386962890625,1728067650155.0
2.9839999999999094,0.5417694091796875,7.761224365234376,5.883648681640626,1728067650165.0
2.9939999999999145,-0.088226318359375,6.687106323242188,6.797912597656251,1728067650175.0
3.003999999999891,-0.7149322509765625,6.247619628906251,7.894161987304688,1728067650185.0
3.013999999999868,-0.6670806884765625,6.80748291015625,8.030838012695312,1728067650195.0
3.023999999999873,0.1481903076171875,7.183416748046875,6.332406616210938,1728067650205.0
3.0340000000000913,0.317315673828125,7.763467407226563,6.126943969726563,1728067650215.0
3.044000000000068,-0.229388427734375,7.291680908203125,5.687307739257813,1728067650225.0
3.054000000000073,-0.357989501953125,7.079190063476563,6.496746826171876,1728067650235.0
3.064000000000078,0.3784759521484375,7.498040771484376,6.5649353027343755,1728067650245.0
3.074000000000055,1.2088500976562502,7.328466796875,6.276629638671875,1728067650255.0
3.0840000000000316,0.8713470458984376,6.837838745117188,6.609646606445313,1728067650265.0
3.0940000000000367,-0.118731689453125,6.555813598632813,7.577893066406251,1728067650275.0
3.1040000000000276,-0.4370941162109375,7.015487670898438,7.8464599609375005,1728067650285.0
3.1140000000000327,-0.187518310546875,7.546041870117188,6.2643676757812505,1728067650295.0
3.125,-0.1434051513671875,7.593145751953125,4.784707641601563,1728067650306.0
3.1349999999999767,-0.3871490478515625,7.240539550781251,5.269204711914063,1728067650316.0
3.1449999999999676,-0.1496856689453125,7.315008544921875,7.251904296875001,1728067650326.0
3.1549999999999585,0.4438232421875,7.111489868164063,8.049978637695313,1728067650336.0
3.1649999999999494,0.8377014160156251,6.62205810546875,6.630432128906251,1728067650346.0
3.1749999999999545,0.5773590087890625,6.4961486816406255,6.399398803710938,1728067650356.0
3.184999999999931,0.222210693359375,7.296914672851563,7.050479125976563,1728067650366.0
3.194999999999908,0.032000732421875,7.825076293945313,7.032684326171876,1728067650376.0
3.204999999999913,-0.0204864501953125,7.609445190429688,5.142098999023438,1728067650386.0
3.214999999999918,-0.16568603515625,7.123303222656251,4.8270263671875,1728067650396.0
3.224999999999895,-0.2842681884765625,7.203305053710938,6.714172363281251,1728067650406.0
3.2349999999998715,-0.064599609375,7.041058349609376,8.331405639648438,1728067650416.0
3.2449999999998766,0.325689697265625,6.903335571289063,7.563088989257813,1728067650426.0
3.255000000000095,0.53055419921875,6.763519287109376,5.973370361328126,1728067650436.0
3.2650000000000716,0.3234466552734375,6.904083251953126,6.206646728515626,1728067650446.0
3.2750000000000767,-0.0174957275390625,7.448394775390626,7.0090576171875005,1728067650456.0
3.2850000000000676,-0.1134979248046875,7.383496093750001,6.675442504882813,1728067650466.0
3.2950000000000728,0.2283416748046875,7.235305786132813,5.3641601562500005,1728067650476.0
3.30600000000004,0.417803955078125,7.504171752929688,5.786450195312501,1728067650487.0
3.31899999999996,0.3698028564453125,7.6086975097656255,6.618618774414063,1728067650500.0
3.3259999999999934,0.16329345703125,7.402188110351563,7.678530883789063,1728067650507.0
3.3359999999999985,-0.0429168701171875,6.450540161132813,6.724191284179688,1728067650517.0
3.3459999999999894,-0.273052978515625,6.0898590087890625,6.489868164062501,1728067650527.0
3.3559999999999945,-0.368756103515625,7.191790771484375,7.590753173828125,1728067650537.0
3.3659999999999712,0.0910675048828125,7.699914550781251,6.887185668945313,1728067650547.0
3.375999999999948,0.363372802734375,7.817749023437501,5.84805908203125,1728067650557.0
3.385999999999953,0.054132080078125,7.001730346679688,4.993460083007813,1728067650567.0
3.395999999999958,-0.256304931640625,6.879708862304688,6.690396118164063,1728067650577.0
3.405999999999935,0.03648681640625,7.40323486328125,8.064633178710938,1728067650587.0
3.419000000000082,0.8175140380859376,7.32547607421875,6.729125976562501,1728067650600.0
3.4259999999999167,0.8468231201171875,6.932495117187501,5.50352783203125,1728067650607.0
3.436999999999884,0.244342041015625,6.865203857421876,6.0539703369140625,1728067650618.0
3.446999999999875,-0.2154815673828125,7.31590576171875,7.983734130859376,1728067650628.0
3.4559999999998894,-0.1972381591796875,7.547088623046876,7.191940307617188,1728067650637.0
3.467000000000084,-0.0327484130859375,7.117919921875001,5.2554473876953125,1728067650648.0
3.477000000000075,-0.214434814453125,6.934588623046875,5.2669616699218755,1728067650658.0
3.487000000000066,-0.363372802734375,7.216613769531251,7.437478637695313,1728067650668.0
3.4970000000000567,-0.1472930908203125,7.145883178710938,8.348004150390626,1728067650678.0
3.507000000000019,0.3282318115234375,6.92711181640625,6.502877807617188,1728067650688.0
3.5189999999999912,0.6455474853515626,6.855633544921876,5.3629638671875,1728067650700.0
3.5270000000000294,0.6404632568359375,7.424020385742188,6.334350585937501,1728067650708.0
3.5370000000000203,0.3590362548828125,7.630081176757813,7.477554321289063,1728067650718.0
3.5470000000000113,0.21951904296875,7.251455688476563,6.300854492187501,1728067650728.0
3.557000000000002,0.2824737548828125,7.20823974609375,5.205203247070313,1728067650738.0
3.566999999999993,0.1978363037109375,7.158892822265625,5.9623046875000005,1728067650748.0
3.576999999999984,-0.1661346435546875,7.146780395507813,7.709185791015625,1728067650758.0
3.586999999999975,-0.5091705322265625,6.947000122070313,7.996145629882813,1728067650768.0
3.596999999999966,-0.3273345947265625,6.754995727539063,6.454428100585938,1728067650778.0
3.6069999999999567,0.05323486328125,6.883895874023438,5.77628173828125,1728067650788.0
3.6189999999999,0.3315216064453125,7.333999633789063,6.337191772460938,1728067650800.0
3.626999999999967,0.23507080078125,7.761672973632813,7.261325073242188,1728067650808.0
3.6379999999999058,0.6044250488281251,7.329513549804688,5.984286499023438,1728067650819.0
3.6479999999998967,0.783270263671875,7.855581665039063,5.502630615234375,1728067650829.0
3.657999999999859,0.502142333984375,6.662283325195313,6.291583251953125,1728067650839.0
3.6679999999998785,-0.2017242431640625,6.546093750000001,7.392169189453125,1728067650849.0
3.6780000000000967,-0.7098480224609376,6.95103759765625,8.579486083984376,1728067650859.0
3.6880000000000592,-0.0076263427734375,7.095489501953126,6.238796997070313,1728067650869.0
3.6980000000000786,0.1601531982421875,7.664324951171875,5.9253692626953125,1728067650879.0
3.7080000000000695,-0.4015045166015625,7.176239013671876,5.668316650390626,1728067650889.0
3.7190000000000367,-0.7701110839843751,7.126892089843751,6.913653564453125,1728067650900.0
3.7280000000000513,0.042169189453125,7.2842041015625005,7.1271911621093755,1728067650909.0
3.738000000000042,1.1156890869140623,7.352392578125,5.866302490234375,1728067650919.0
3.748000000000033,1.1455963134765623,7.035226440429688,6.439175415039063,1728067650929.0
3.758000000000024,0.3126800537109375,6.643740844726563,6.9955993652343755,1728067650939.0
3.768000000000015,-0.1975372314453125,7.117172241210938,8.103363037109375,1728067650949.0
3.778000000000006,0.056524658203125,7.466787719726563,6.578991699218751,1728067650959.0
3.7879999999999967,-0.01734619140625,7.407720947265625,4.839138793945313,1728067650969.0
3.797999999999987,-0.500946044921875,7.313214111328126,5.297915649414063,1728067650979.0
3.8079999999999785,-0.4457672119140625,7.226333618164063,7.127639770507813,1728067650989.0
3.8189999999999458,0.0817962646484375,7.363458251953125,8.003323364257813,1728067651000.0
3.8289999999999367,0.655865478515625,6.660488891601563,6.565234375,1728067651010.0
3.838999999999899,0.6329864501953125,6.596188354492188,6.0554656982421875,1728067651020.0
3.8489999999999185,0.3578399658203125,7.09219970703125,7.054217529296875,1728067651030.0
3.8589999999999094,0.339447021484375,7.761224365234376,7.362710571289063,1728067651040.0
3.8689999999999,0.2295379638671875,7.510751342773438,5.8319091796875,1728067651050.0
3.878999999999891,-0.0512908935546875,6.982888793945313,4.74747314453125,1728067651060.0
3.888999999999882,-0.4158599853515625,7.136013793945313,6.572113037109376,1728067651070.0
3.898999999999873,-0.2519683837890625,7.366598510742188,7.987921142578125,1728067651080.0
3.9090000000000913,0.07716064453125,7.134368896484376,7.417440795898438,1728067651090.0
3.919000000000082,0.3602325439453125,6.692190551757813,5.6046142578125,1728067651100.0
3.929000000000073,0.24464111328125,6.8490539550781255,6.235507202148438,1728067651110.0
3.939000000000064,0.0835906982421875,7.1944824218750005,7.32607421875,1728067651120.0
3.949000000000055,0.379522705078125,7.202557373046876,7.3009521484375,1728067651130.0
3.959000000000046,0.4436737060546875,7.722793579101563,5.806637573242188,1728067651140.0
3.9690000000000367,0.4385894775390625,7.387084960937501,4.979104614257813,1728067651150.0
3.980000000000004,0.0094207763671875,7.871133422851563,6.282012939453126,1728067651161.0
3.989999999999995,-0.2304351806640625,6.909466552734376,7.502676391601563,1728067651171.0
3.999999999999986,-0.331671142578125,6.264068603515626,7.083975219726563,1728067651181.0
4.009999999999977,-0.40614013671875,6.673947143554688,7.489666748046876,1728067651191.0
4.019999999999968,0.3075958251953125,7.0913024902343755,6.514541625976563,1728067651201.0
4.0299999999999585,0.538330078125,8.109344482421875,6.814810180664063,1728067651211.0
4.039999999999949,0.173162841796875,7.179379272460938,5.7205047607421875,1728067651221.0
4.04999999999994,-0.334063720703125,6.67589111328125,5.768954467773438,1728067651231.0
4.059999999999931,-0.161798095703125,7.5144897460937505,7.101919555664063,1728067651241.0
4.069999999999922,0.8309722900390626,7.717709350585938,6.321340942382813,1728067651251.0
4.079999999999913,0.9497039794921877,7.232015991210938,6.41629638671875,1728067651261.0
4.089999999999904,0.19918212890625,6.538616943359376,5.9587158203125,1728067651271.0
4.099999999999895,-0.42288818359375,6.670059204101563,8.170205688476564,1728067651281.0
4.109999999999886,-0.1987335205078125,7.4361328125,7.870086669921876,1728067651291.0
4.119999999999877,0.0133087158203125,7.343869018554688,5.852694702148438,1728067651301.0
4.130000000000095,-0.1739105224609375,7.242932128906251,4.463653564453125,1728067651311.0
4.140000000000086,-0.2803802490234375,7.2049499511718755,6.243283081054688,1728067651321.0
4.150000000000077,-0.03349609375,7.3963562011718755,8.039511108398438,1728067651331.0
4.161000000000044,0.4610198974609375,6.992160034179688,7.402337646484376,1728067651342.0
4.171000000000035,0.7023712158203126,6.574954223632813,5.926715087890625,1728067651352.0
4.181000000000026,0.5313018798828125,7.147827148437501,6.053372192382813,1728067651362.0
4.191000000000017,0.395672607421875,7.609893798828126,7.299456787109375,1728067651372.0
4.200999999999979,0.1685272216796875,7.438674926757813,6.625347900390626,1728067651382.0
4.2109999999999985,-0.1583587646484375,7.1511169433593755,5.4957519531250005,1728067651392.0
4.220999999999989,-0.2284912109375,7.024310302734375,5.647381591796876,1728067651402.0
4.23099999999998,-0.1362274169921875,7.361065673828126,7.436880493164063,1728067651412.0
4.240999999999971,-0.1206756591796875,7.214669799804688,7.676586914062501,1728067651422.0
4.250999999999962,0.0001495361328125,6.652862548828126,6.573608398437501,1728067651432.0
4.260999999999953,0.1136474609375,6.778323364257813,6.1267944335937505,1728067651442.0
4.270999999999944,0.38939208984375,7.404431152343751,6.447250366210938,1728067651452.0
4.280999999999935,0.7026702880859376,7.37392578125,6.7144714355468755,1728067651462.0
4.290999999999926,0.5896209716796875,7.728176879882813,5.717364501953125,1728067651472.0
4.300999999999917,0.683380126953125,7.049880981445313,6.0494842529296875,1728067651482.0
4.310999999999908,0.44322509765625,7.621408081054688,6.334350585937501,1728067651492.0
4.321999999999875,-0.330474853515625,7.541555786132813,7.921078491210938,1728067651503.0
4.332000000000093,-0.7722045898437501,5.9608093261718755,6.469979858398438,1728067651513.0
4.342000000000084,-1.05213623046875,6.424520874023438,6.902288818359375,1728067651523.0
4.352000000000075,-0.4498046875,7.322186279296876,7.448544311523438,1728067651533.0
4.362000000000066,0.2548095703125,7.850497436523438,6.6038146972656255,1728067651543.0
4.372000000000057,0.527264404296875,7.495648193359376,5.972024536132813,1728067651553.0
4.382000000000019,0.328082275390625,6.819894409179688,4.9095703125000005,1728067651563.0
4.3920000000000385,0.477020263671875,7.179229736328126,7.303045654296875,1728067651573.0
4.4020000000000294,0.7985229492187501,7.375271606445313,7.328765869140626,1728067651583.0
4.41200000000002,0.8623748779296876,7.324429321289063,6.526205444335938,1728067651593.0
4.422000000000011,0.3198577880859375,6.701910400390625,6.043203735351563,1728067651603.0
4.432000000000002,-0.7265960693359376,6.8221374511718755,6.792379760742188,1728067651613.0
4.441999999999993,-0.9482086181640624,7.473367309570313,7.918835449218751,1728067651623.0
4.451999999999984,-0.5731719970703125,7.472171020507813,6.244180297851563,1728067651633.0
4.461999999999975,-0.1326385498046875,7.253848266601563,4.9758148193359375,1728067651643.0
4.471999999999966,0.1825836181640625,6.983038330078125,5.78465576171875,1728067651653.0
4.481999999999957,0.5464050292968751,7.268353271484376,7.942910766601563,1728067651663.0
4.491999999999948,0.8347106933593751,6.931896972656251,8.076296997070314,1728067651673.0
4.502999999999915,0.8523559570312501,6.757388305664063,6.222348022460938,1728067651684.0
4.512999999999906,0.5715270996093751,6.953430175781251,5.819348144531251,1728067651694.0
4.522999999999897,0.075067138671875,7.769747924804688,6.209487915039063,1728067651704.0
4.532999999999859,-0.3001190185546875,7.872329711914063,6.578692626953125,1728067651714.0
4.5429999999998785,-0.2705108642578125,7.293774414062501,5.524911499023438,1728067651724.0
4.553000000000097,-0.4024017333984375,6.930551147460938,5.9294067382812505,1728067651734.0
4.563000000000059,-0.09869384765625,6.686657714843751,7.4636474609375005,1728067651744.0
4.573000000000079,0.0251220703125,7.121359252929688,8.409613037109375,1728067651754.0
4.5830000000000695,0.3720458984375,6.8798583984375,7.074105834960938,1728067651764.0
4.59300000000006,0.5456573486328126,7.002627563476563,5.505770874023438,1728067651774.0
4.603000000000051,0.29249267578125,7.33145751953125,5.867349243164063,1728067651784.0
4.613000000000042,0.16927490234375,7.572061157226563,6.414202880859375,1728067651794.0
4.623000000000033,0.2047149658203125,7.245773315429688,6.5688232421875,1728067651804.0
4.633000000000024,0.431561279296875,7.494451904296875,5.919985961914063,1728067651814.0
4.643000000000015,0.460870361328125,7.087863159179688,6.43065185546875,1728067651824.0
4.653000000000006,0.138470458984375,7.461703491210938,6.8789611816406255,1728067651834.0
4.662999999999997,-0.3584381103515625,7.148574829101563,7.778271484375001,1728067651844.0
4.673999999999964,-0.477618408203125,6.033782958984375,6.008212280273438,1728067651855.0
4.683999999999955,-0.413916015625,6.914102172851563,7.111639404296875,1728067651865.0
4.693999999999946,-0.12919921875,7.512545776367188,6.876718139648438,1728067651875.0
4.703999999999937,0.4367950439453125,7.734457397460938,6.581533813476563,1728067651885.0
4.713999999999899,0.2331268310546875,7.368841552734375,5.9054809570312505,1728067651895.0
4.7239999999999185,0.130096435546875,6.740640258789063,5.4239746093750005,1728067651905.0
4.733999999999909,0.0808990478515625,7.1406494140625005,7.812216186523438,1728067651915.0
4.7439999999999,0.5296569824218751,7.42357177734375,6.711331176757813,1728067651925.0
4.753999999999891,0.7747467041015625,7.257138061523438,6.6800781250000005,1728067651935.0
4.763999999999882,0.3629241943359375,6.939373779296876,5.322888183593751,1728067651945.0
4.773999999999873,-0.198284912109375,6.977505493164063,7.240090942382813,1728067651955.0
4.784000000000091,-0.5052825927734376,7.490115356445313,7.6550537109375005,1728067651965.0
4.794000000000082,-0.2115936279296875,7.025656127929688,6.3376403808593755,1728067651975.0
4.804000000000073,-0.1327880859375,7.141247558593751,5.5806884765625,1728067651985.0
4.814000000000064,-0.136676025390625,7.156500244140625,6.041409301757813,1728067651995.0
4.825000000000031,-0.016448974609375,7.046591186523438,7.979248046875001,1728067652006.0
4.834000000000046,0.217724609375,7.092050170898438,7.064236450195313,1728067652015.0
4.844000000000037,0.6512298583984375,6.901840209960938,6.546841430664063,1728067652025.0
4.855000000000004,0.6775482177734375,7.319644165039063,5.5276031494140625,1728067652036.0
4.864999999999995,0.4921234130859375,7.600772094726563,6.494802856445313,1728067652046.0
4.874999999999986,0.3443817138671875,7.464694213867188,6.419735717773438,1728067652056.0
4.884999999999977,0.2014251708984375,7.360018920898438,5.9993896484375,1728067652066.0
4.894999999999968,0.1039276123046875,6.945953369140626,6.242236328125,1728067652076.0
4.9049999999999585,-0.2286407470703125,6.911111450195313,7.043151855468751,1728067652086.0
4.914999999999949,-0.4604217529296875,7.0090576171875005,8.03128662109375,1728067652096.0
4.92499999999994,-0.440533447265625,6.843820190429688,6.89720458984375,1728067652106.0
4.934999999999931,-0.211444091796875,7.024459838867188,6.181076049804688,1728067652116.0
4.944999999999922,0.103179931640625,7.44510498046875,5.6143341064453125,1728067652126.0
4.954999999999913,0.45877685546875,7.269699096679688,6.317453002929688,1728067652136.0
4.964999999999904,0.867010498046875,7.578341674804688,6.44859619140625,1728067652146.0
4.974999999999895,0.9709381103515624,7.368093872070313,6.5831787109375,1728067652156.0
4.984999999999886,1.0110137939453123,7.151565551757813,5.978604125976563,1728067652166.0
4.994999999999877,0.1718170166015625,7.5318359375,7.299307250976563,1728067652176.0
5.005000000000095,-0.6107055664062501,6.293377685546876,6.862811279296875,1728067652186.0
5.015000000000086,-1.042266845703125,6.616375732421876,6.980795288085938,1728067652196.0
5.028999999999982,-0.9503021240234376,7.304989624023438,7.054516601562501,1728067652210.0
5.036000000000044,-0.091815185546875,7.579837036132813,6.045596313476563,1728067652217.0
5.046000000000035,0.0919647216796875,7.664025878906251,6.616525268554688,1728067652227.0
5.056000000000026,0.1105072021484375,6.6884521484375,5.739645385742188,1728067652237.0
5.066000000000017,0.33555908203125,7.080685424804688,7.156500244140625,1728067652247.0
5.075999999999979,0.91875,7.240988159179688,6.833053588867188,1728067652257.0
5.0859999999999985,1.473828125,7.449591064453125,6.347061157226563,1728067652267.0
5.095999999999989,0.7726531982421876,6.941168212890625,6.251657104492188,1728067652277.0
5.10599999999998,-0.19080810546875,6.886737060546875,6.7010131835937505,1728067652287.0
5.115999999999971,-1.0732208251953126,7.411309814453125,7.515536499023438,1728067652297.0
5.128999999999891,-0.6542205810546875,7.349252319335938,6.1881042480468755,1728067652310.0
5.135999999999953,-0.5205352783203125,7.259829711914063,5.568127441406251,1728067652317.0
5.145999999999944,-0.3659149169921875,6.920083618164063,6.023016357421875,1728067652327.0
5.155999999999935,0.1478912353515625,7.188351440429688,7.72264404296875,1728067652337.0
5.165999999999926,0.5987426757812501,7.137808227539063,7.5847717285156255,1728067652347.0
5.175999999999917,1.287506103515625,6.820791625976563,6.151916503906251,1728067652357.0
5.186999999999884,0.814373779296875,6.865652465820313,6.114083862304688,1728067652368.0
5.196999999999875,0.3557464599609375,7.571163940429688,6.6666198730468755,1728067652378.0
5.207000000000093,0.172265625,7.811169433593751,6.726135253906251,1728067652388.0
5.217000000000084,-0.1789947509765625,7.353439331054688,5.226287841796875,1728067652398.0
5.228000000000051,-0.5042358398437501,7.014590454101563,5.746823120117188,1728067652409.0
5.237000000000066,-0.5208343505859375,6.9148498535156255,7.2961669921875005,1728067652418.0
5.247000000000057,-0.262286376953125,6.989767456054688,8.397799682617189,1728067652428.0
5.257000000000019,0.153125,6.983038330078125,7.049282836914063,1728067652438.0
5.2670000000000385,0.5161987304687501,6.901541137695313,5.587567138671876,1728067652448.0
5.2770000000000294,0.3868499755859375,7.168612670898438,6.2404418945312505,1728067652458.0
5.28700000000002,0.1997802734375,7.545593261718751,6.682769775390626,1728067652468.0
5.297000000000011,0.35230712890625,7.177584838867188,6.627441406250001,1728067652478.0
5.307000000000002,0.630743408203125,7.299456787109375,5.457470703125001,1728067652488.0
5.316999999999993,0.5636016845703126,7.590753173828125,6.501531982421875,1728067652498.0
5.328999999999937,0.0494964599609375,7.319345092773438,6.707742309570313,1728067652510.0
5.337999999999951,-0.37802734375,7.376168823242188,7.389776611328125,1728067652519.0
5.346999999999966,-0.4677490234375,6.121112060546875,6.349752807617188,1728067652528.0
5.356999999999957,-0.4867401123046875,6.6785827636718755,6.688751220703126,1728067652538.0
5.366999999999948,-0.3659149169921875,7.315008544921875,7.91405029296875,1728067652548.0
5.377999999999915,0.4031494140625,7.592248535156251,6.201712036132813,1728067652559.0
5.387999999999906,0.5283111572265625,7.765859985351563,6.1447387695312505,1728067652569.0
5.397999999999897,0.3455780029296875,6.691293334960938,5.094247436523438,1728067652579.0
5.407999999999859,-0.0719268798828125,7.0972839355468755,7.3942626953125,1728067652589.0
5.4179999999998785,0.23985595703125,7.425515747070313,7.3470092773437505,1728067652599.0
5.429000000000073,0.8824127197265625,7.510452270507813,6.134121704101563,1728067652610.0
5.438000000000059,0.6682769775390626,6.917990112304688,5.547192382812501,1728067652619.0
5.448000000000079,-0.1957427978515625,6.876568603515626,6.510653686523438,1728067652629.0
5.4580000000000695,-0.6464447021484375,7.201809692382813,8.586962890625001,1728067652639.0
5.46800000000006,-0.3192596435546875,7.248764038085938,6.772640991210938,1728067652649.0
5.478000000000051,0.04366455078125,7.172650146484376,5.258737182617188,1728067652659.0
5.488000000000042,-0.00179443359375,7.0975830078125,5.2998596191406255,1728067652669.0
5.498000000000033,-0.135479736328125,7.175790405273438,7.658941650390625,1728067652679.0
5.508000000000024,0.1317413330078125,7.153808593750001,7.9690795898437505,1728067652689.0
5.518000000000015,0.6132476806640625,6.920382690429688,6.420333862304688,1728067652699.0
5.528000000000006,0.769512939453125,6.984683227539063,5.431002807617188,1728067652709.0
5.538999999999973,0.4394866943359375,7.6236511230468755,6.256442260742188,1728067652720.0
5.548999999999964,0.1831817626953125,7.440170288085938,7.179229736328126,1728067652730.0
5.558999999999955,0.0267669677734375,7.31949462890625,6.17943115234375,1728067652740.0
5.568999999999946,-0.000299072265625,6.99290771484375,5.799160766601563,1728067652750.0
5.578999999999937,-0.0671417236328125,6.9926086425781255,6.421829223632813,1728067652760.0
5.588999999999899,-0.3321197509765625,7.1765380859375005,8.021267700195313,1728067652770.0
5.5989999999999185,-0.2806793212890625,6.964794921875001,7.314559936523438,1728067652780.0
5.608999999999909,-0.091815185546875,6.840829467773438,6.25120849609375,1728067652790.0
5.6189999999999,0.1918548583984375,7.192538452148438,5.674447631835938,1728067652800.0
5.628999999999891,0.3218017578125,7.592547607421875,6.432147216796875,1728067652810.0
5.638999999999882,0.5972473144531251,7.260876464843751,6.488372802734376,1728067652820.0
5.648999999999873,0.8466735839843751,7.257736206054688,6.098532104492188,1728067652830.0
5.659000000000091,0.7686157226562501,7.331008911132813,6.451138305664063,1728067652840.0
5.669000000000082,0.6380706787109376,7.2411376953125,6.667965698242188,1728067652850.0
5.679000000000073,-0.3467742919921875,7.698120117187501,7.597781372070313,1728067652860.0
5.689000000000064,-0.81885986328125,6.2697509765625,6.102719116210938,1728067652870.0
5.700000000000031,-1.0494445800781251,6.505569458007813,6.535775756835938,1728067652881.0
5.710000000000022,-0.7813262939453126,7.359869384765625,7.386785888671875,1728067652891.0
5.720000000000013,0.198583984375,7.64249267578125,6.8849426269531255,1728067652901.0
5.730000000000004,0.4115234375,7.512246704101563,6.226385498046875,1728067652911.0
5.739999999999995,0.6599029541015625,6.645535278320313,5.320046997070313,1728067652921.0
5.749999999999986,0.5911163330078125,7.176837158203125,7.107302856445313,1728067652931.0
5.759999999999977,0.7976257324218751,7.368243408203125,7.248464965820313,1728067652941.0
5.769999999999968,0.8822631835937501,7.5040222167968755,6.343322753906251,1728067652951.0
5.7799999999999585,0.2863616943359375,6.9001953125,5.821142578125,1728067652961.0
5.789999999999949,-0.5464050292968751,6.829464721679688,6.622805786132813,1728067652971.0
5.79999999999994,-1.0893707275390625,7.253549194335938,7.938873291015626,1728067652981.0
5.809999999999931,-0.7405029296875001,7.38768310546875,6.772491455078126,1728067652991.0
5.819999999999922,-0.1027313232421875,7.169659423828126,5.4015441894531255,1728067653001.0
5.829999999999913,0.112152099609375,7.01683349609375,5.516836547851563,1728067653011.0
5.839999999999904,0.5372833251953125,7.280316162109376,7.638455200195313,1728067653021.0
5.849999999999895,0.8408416748046875,7.139602661132813,7.756588745117188,1728067653031.0
5.859999999999886,0.98035888671875,6.792678833007813,6.4468017578125005,1728067653041.0
5.869999999999877,0.6314910888671875,6.961056518554688,5.68895263671875,1728067653051.0
5.881000000000071,0.11005859375,7.542153930664063,6.457418823242188,1728067653062.0
5.891000000000062,-0.2851654052734375,7.810421752929688,6.799258422851563,1728067653072.0
5.901000000000053,-0.34752197265625,7.354187011718751,5.746075439453126,1728067653082.0
5.911000000000044,-0.3793731689453125,6.862960815429688,5.780468750000001,1728067653092.0
5.921000000000035,-0.26138916015625,6.8969055175781255,7.066030883789063,1728067653102.0
5.931000000000026,0.04605712890625,6.972869873046876,8.439669799804689,1728067653112.0
5.941000000000017,0.281427001953125,7.069021606445313,7.129434204101563,1728067653122.0
5.950999999999979,0.6045745849609375,6.876419067382813,5.7803192138671875,1728067653132.0
5.9609999999999985,0.41810302734375,7.31949462890625,5.674447631835938,1728067653142.0
5.970999999999989,0.2065093994140625,7.613931274414063,6.487774658203126,1728067653152.0
5.98099999999998,0.21473388671875,7.213323974609375,6.702957153320313,1728067653162.0
5.990999999999971,0.3303253173828125,7.108050537109375,5.918789672851563,1728067653172.0
6.000999999999962,0.3072967529296875,7.4068237304687505,6.808828735351563,1728067653182.0
6.010999999999953,0.021832275390625,7.348205566406251,6.575701904296875,1728067653192.0
6.020999999999944,-0.2465850830078125,7.26805419921875,7.251007080078126,1728067653202.0
6.030999999999935,-0.3135772705078125,6.40433349609375,6.242535400390626,1728067653212.0
6.040999999999926,-0.2561553955078125,6.795370483398438,6.64957275390625,1728067653222.0
6.050999999999917,-0.152825927734375,7.316952514648438,7.627838134765626,1728067653232.0
6.061999999999884,0.4978057861328125,7.452282714843751,6.218609619140626,1728067653243.0
6.071999999999875,0.496759033203125,7.733859252929688,6.384295654296875,1728067653253.0
6.082000000000093,0.1822845458984375,6.757537841796876,5.380758666992188,1728067653263.0
6.092000000000084,-0.1777984619140625,7.0569091796875005,7.321289062500001,1728067653273.0
6.102000000000075,-0.048150634765625,7.361514282226563,7.100424194335938,1728067653283.0
6.112000000000066,0.6311920166015625,7.454824829101563,6.191842651367188,1728067653293.0
6.122000000000057,0.605023193359375,7.096237182617188,5.74637451171875,1728067653303.0
6.132000000000019,0.0013458251953125,6.962551879882813,6.436932373046876,1728067653313.0
6.1420000000000385,-0.3409423828125,7.0748535156250005,8.179177856445314,1728067653323.0
6.1520000000000294,-0.06519775390625,7.248913574218751,6.761425781250001,1728067653333.0
6.16200000000002,0.1878173828125,7.209884643554688,5.735159301757813,1728067653343.0
6.172000000000011,0.0231781005859375,7.0464416503906255,5.403189086914063,1728067653353.0
6.182000000000002,-0.1915557861328125,7.222146606445313,7.447796630859376,1728067653363.0
6.191999999999993,-0.1140960693359375,7.2064453125,7.670755004882813,1728067653373.0
6.201999999999984,0.3409423828125,6.97257080078125,6.325527954101563,1728067653383.0
6.212999999999951,0.5715270996093751,6.94266357421875,5.729776000976563,1728067653394.0
6.221999999999966,0.360382080078125,7.520770263671875,6.351547241210938,1728067653403.0
6.232999999999933,0.3150726318359375,7.361514282226563,7.401141357421875,1728067653414.0
6.242999999999924,0.2223602294921875,7.287493896484375,6.141000366210938,1728067653424.0
6.252999999999915,0.193499755859375,7.015487670898438,5.801702880859375,1728067653434.0
6.262999999999906,0.1018341064453125,7.118817138671876,6.334051513671875,1728067653444.0
6.272999999999897,-0.2597442626953125,7.2291748046875,7.688250732421875,1728067653454.0
6.282999999999859,-0.3252410888671875,7.007412719726563,7.266857910156251,1728067653464.0
6.2929999999998785,-0.1715179443359375,6.910214233398438,6.232217407226563,1728067653474.0
6.303000000000097,-0.00418701171875,7.043301391601563,5.991763305664063,1728067653484.0
6.313000000000059,0.1338348388671875,7.365551757812501,6.445007324218751,1728067653494.0
6.323000000000079,0.48031005859375,7.123901367187501,6.897952270507813,1728067653504.0
6.3330000000000695,0.7349700927734375,7.5997253417968755,6.434539794921876,1728067653514.0
6.34300000000006,0.787457275390625,7.323681640625001,5.917294311523438,1728067653524.0
6.353000000000051,0.508123779296875,7.5967346191406255,6.099130249023438,1728067653534.0
6.363000000000042,-0.1709197998046875,6.8550354003906255,7.263418579101563,1728067653544.0
6.373000000000033,-0.6074157714843751,6.443362426757813,6.716564941406251,1728067653554.0
6.383000000000024,-0.7520172119140626,6.8879333496093755,7.548135375976563,1728067653564.0
6.393000000000015,-0.172564697265625,7.217959594726563,6.397305297851563,1728067653574.0
6.403999999999982,0.2480804443359375,7.760177612304688,6.669760131835938,1728067653585.0
6.413999999999973,-0.0183929443359375,7.285250854492188,6.087167358398438,1728067653595.0
6.423999999999964,-0.0958526611328125,6.717910766601563,6.056661987304688,1728067653605.0
6.433999999999955,0.2905487060546875,7.3933654785156255,7.030441284179688,1728067653615.0
6.443999999999946,1.0735198974609377,7.468582153320313,6.221600341796876,1728067653625.0
6.453999999999937,1.0205841064453125,7.1630798339843755,6.608450317382813,1728067653635.0
6.463999999999899,0.1451995849609375,6.797164916992188,6.380856323242188,1728067653645.0
6.4739999999999185,-0.430364990234375,6.832754516601563,7.683615112304688,1728067653655.0
6.483999999999909,-0.432159423828125,7.494451904296875,7.014291381835938,1728067653665.0
6.4939999999999,-0.2038177490234375,7.433740234375,5.701214599609376,1728067653675.0
6.503999999999891,-0.355596923828125,7.220501708984376,5.209539794921875,1728067653685.0
6.513999999999882,-0.189013671875,7.007861328125,6.52396240234375,1728067653695.0
6.523999999999873,0.27095947265625,7.3464111328125,8.1311767578125,1728067653705.0
6.534000000000091,0.694744873046875,6.963449096679688,6.969430541992188,1728067653715.0
6.544000000000082,0.8018127441406251,6.606356811523438,6.043652343750001,1728067653725.0
6.554000000000073,0.439935302734375,7.141098022460938,6.283956909179688,1728067653735.0
6.564000000000064,0.21951904296875,7.702157592773438,7.26207275390625,1728067653745.0
6.575000000000031,-0.0,7.524807739257813,6.310574340820313,1728067653756.0
6.585000000000022,-0.2364166259765625,7.191342163085938,5.167071533203125,1728067653766.0
6.595000000000013,-0.323895263671875,6.975711059570313,6.073709106445313,1728067653776.0
6.605000000000004,-0.2124908447265625,7.197174072265626,7.669708251953126,1728067653786.0
6.614999999999995,0.0234771728515625,7.1496215820312505,7.884890747070313,1728067653796.0
6.624999999999986,0.3102874755859375,6.761874389648438,6.2302734375,1728067653806.0
6.634999999999977,0.43843994140625,6.934738159179688,5.962454223632813,1728067653816.0
6.644999999999968,0.2806793212890625,7.312167358398438,6.624600219726563,1728067653826.0
6.6549999999999585,0.182733154296875,7.640997314453125,6.907971191406251,1728067653836.0
6.664999999999949,0.3392974853515625,6.844268798828126,5.865255737304688,1728067653846.0
6.67499999999994,0.3976165771484375,7.28360595703125,5.616726684570313,1728067653856.0
6.684999999999931,0.35230712890625,7.607800292968751,7.2830078125,1728067653866.0
6.694999999999922,0.0183929443359375,7.47740478515625,6.821838378906251,1728067653876.0
6.704999999999913,-0.274249267578125,7.252053833007813,6.8146606445312505,1728067653886.0
6.714999999999904,-0.2423980712890625,6.0789428710937505,5.59324951171875,1728067653896.0
6.725999999999871,-0.4206451416015625,6.960159301757813,7.3948608398437505,1728067653907.0
6.738000000000042,-0.2280426025390625,7.267605590820313,8.082727050781251,1728067653919.0
6.74600000000008,0.4837493896484375,7.571762084960938,6.205151367187501,1728067653927.0
6.756000000000071,0.5426666259765626,7.480844116210938,5.576202392578125,1728067653937.0
6.766000000000062,0.2296875,6.750958251953126,5.386441040039063,1728067653947.0
6.776000000000053,-0.28651123046875,7.30992431640625,7.875619506835938,1728067653957.0
6.786000000000044,0.1532745361328125,7.387234497070313,7.0090576171875005,1728067653967.0
6.796000000000035,0.8830108642578126,7.429104614257813,5.810525512695313,1728067653977.0
6.806000000000026,0.6642395019531251,6.94505615234375,5.4483489990234375,1728067653987.0
6.816000000000017,-0.299371337890625,6.834698486328126,7.225286865234375,1728067653997.0
6.825999999999979,-0.6252105712890625,7.1690612792968755,8.528494262695313,1728067654007.0
6.837999999999951,-0.0614593505859375,7.185958862304688,6.6023193359375005,1728067654019.0
6.845999999999989,0.2136871337890625,7.279119873046875,4.827923583984376,1728067654027.0
6.85599999999998,-0.03529052734375,7.152911376953125,5.639157104492188,1728067654037.0
6.865999999999971,-0.32359619140625,7.1908935546875,7.833749389648438,1728067654047.0
6.875999999999962,0.0049346923828125,7.059451293945313,7.858721923828125,1728067654057.0
6.885999999999953,0.6422576904296875,6.901092529296876,6.220254516601563,1728067654067.0
6.895999999999944,0.7170257568359375,7.164724731445313,5.35040283203125,1728067654077.0
6.905999999999935,0.454888916015625,7.5399108886718755,6.547140502929688,1728067654087.0
6.916999999999902,0.268865966796875,7.505667114257813,7.112686157226563,1728067654098.0
6.925999999999917,0.1227691650390625,7.201211547851563,6.187057495117188,1728067654107.0
6.939000000000064,0.09091796875,6.978103637695313,5.612539672851563,1728067654120.0
6.946999999999875,-0.0509918212890625,7.0299926757812505,6.7004150390625,1728067654128.0
6.957000000000093,-0.385504150390625,7.245773315429688,7.964144897460938,1728067654138.0
6.967000000000084,-0.355596923828125,6.874026489257813,7.304092407226563,1728067654148.0
6.977000000000075,-0.152825927734375,6.887335205078125,6.0420074462890625,1728067654158.0
6.987000000000066,0.1009368896484375,7.284802246093751,5.578146362304688,1728067654168.0
6.997000000000057,0.497357177734375,7.433590698242188,6.525607299804688,1728067654178.0
7.007000000000019,0.73990478515625,7.333401489257813,6.518429565429688,1728067654188.0
7.0170000000000385,0.78775634765625,7.500134277343751,6.6516662597656255,1728067654198.0
7.0270000000000294,0.8765808105468751,6.999038696289063,6.1167755126953125,1728067654208.0
7.037999999999997,0.298175048828125,7.735653686523438,6.70938720703125,1728067654219.0
7.047000000000011,-0.5621063232421876,6.72135009765625,7.293176269531251,1728067654228.0
7.057000000000002,-0.9112731933593752,6.337939453125,6.081784057617188,1728067654238.0
7.066999999999993,-0.9510498046875,7.032086181640626,7.617071533203125,1728067654248.0
7.076999999999984,-0.1275543212890625,7.468881225585938,6.514840698242188,1728067654258.0
7.087999999999951,0.2787353515625,7.724737548828125,6.836791992187501,1728067654269.0
7.097999999999942,0.1867706298828125,6.981991577148438,5.657101440429688,1728067654279.0
7.107999999999933,0.3225494384765625,6.949542236328125,6.1152801513671875,1728067654289.0
7.117999999999924,0.7110443115234375,7.335794067382813,7.331008911132813,1728067654299.0
7.127999999999915,1.017742919921875,7.453927612304688,6.249264526367188,1728067654309.0
7.137999999999906,0.8362060546875001,7.104312133789063,6.6166748046875,1728067654319.0
7.147999999999897,-0.1072174072265625,6.742584228515626,6.167916870117188,1728067654329.0
7.157999999999859,-0.6431549072265625,7.120910644531251,7.7172607421875,1728067654339.0
7.1679999999998785,-0.7756439208984376,7.446600341796875,6.8505493164062505,1728067654349.0
7.178000000000097,-0.5031890869140625,7.189547729492188,5.7604309082031255,1728067654359.0
7.188000000000059,-0.2977264404296875,7.153210449218751,5.62674560546875,1728067654369.0
7.198000000000079,0.136077880859375,7.135565185546875,6.84097900390625,1728067654379.0
7.208000000000069,0.5588165283203126,7.210632324218751,7.965191650390626,1728067654389.0
7.21800000000006,0.7780364990234375,6.941467285156251,6.461605834960938,1728067654399.0
7.228000000000051,1.0483978271484375,6.813763427734376,6.132028198242188,1728067654409.0
7.239000000000047,0.5683868408203125,7.316653442382813,6.311322021484376,1728067654420.0
7.248000000000033,0.066094970703125,7.668362426757813,7.080386352539063,1728067654429.0
7.259,-0.1460968017578125,7.467684936523438,5.918191528320313,1728067654440.0
7.268000000000015,-0.3503631591796875,7.145883178710938,5.387188720703126,1728067654449.0
7.278000000000006,-0.4520477294921875,7.013244628906251,6.524859619140625,1728067654459.0
7.288999999999973,-0.2839691162109375,7.008309936523438,7.936181640625,1728067654470.0
7.298999999999964,-0.1341339111328125,6.8894287109375005,7.766607666015625,1728067654480.0
7.308999999999955,0.3648681640625,6.9372802734375005,6.195730590820313,1728067654490.0
7.318999999999946,0.6144439697265626,7.132574462890625,5.944509887695313,1728067654500.0
7.328999999999937,0.41929931640625,7.433889770507813,6.193188476562501,1728067654510.0
7.338999999999899,0.234771728515625,7.414151000976563,6.694284057617188,1728067654520.0
7.3489999999999185,0.399859619140625,6.842025756835938,6.02152099609375,1728067654530.0
7.358999999999909,0.5341430664062501,7.615277099609376,6.413455200195313,1728067654540.0
7.3689999999999,0.361279296875,7.559201049804688,6.826773071289063,1728067654550.0
7.378999999999891,-0.2663238525390625,7.451235961914063,6.362762451171876,1728067654560.0
7.388999999999882,-0.566741943359375,6.669012451171875,7.0359741210937505,1728067654570.0
7.398999999999873,-0.462664794921875,6.335845947265626,6.218759155273438,1728067654580.0
7.409000000000091,-0.5205352783203125,7.100424194335938,8.031585693359375,1728067654590.0
7.419000000000082,0.1413116455078125,7.198220825195313,6.706845092773438,1728067654600.0
7.4300000000000495,0.7686157226562501,7.787841796875001,6.0838775634765625,1728067654611.0
7.439000000000064,0.6328369140625001,7.4205810546875,5.643344116210938,1728067654620.0
7.450000000000031,0.1891632080078125,6.677236938476563,6.292630004882813,1728067654631.0
7.460000000000022,-0.1870697021484375,7.335644531250001,7.707092285156251,1728067654641.0
7.470000000000013,0.40255126953125,7.378860473632813,6.299359130859376,1728067654651.0
7.480000000000004,0.8824127197265625,7.431198120117188,5.867648315429688,1728067654661.0
7.489999999999995,0.1742095947265625,6.873577880859376,5.7843566894531255,1728067654671.0
7.499999999999986,-0.64599609375,6.8326049804687505,7.8033935546875,1728067654681.0
7.509999999999977,-0.5015441894531251,7.227529907226563,8.032034301757813,1728067654691.0
7.519999999999968,0.0662445068359375,7.216763305664063,6.117672729492188,1728067654701.0
7.5299999999999585,0.1063201904296875,7.203005981445313,5.023068237304688,1728067654711.0
7.539999999999949,-0.050543212890625,7.014889526367188,6.263619995117188,1728067654721.0
7.550999999999917,-0.060711669921875,7.3822998046875,8.006912231445312,1728067654732.0
7.559999999999931,0.4335052490234375,7.1885009765625005,7.14244384765625,1728067654741.0
7.569999999999922,0.8006164550781251,6.856381225585938,5.5166870117187505,1728067654751.0
7.579999999999913,0.4885345458984375,7.072610473632813,5.891873168945313,1728067654761.0
7.59099999999988,0.198583984375,7.525555419921876,7.378411865234376,1728067654772.0
7.600999999999871,0.0485992431640625,7.463946533203125,7.085919189453126,1728067654782.0
7.6110000000000895,0.073272705078125,7.201211547851563,5.378964233398438,1728067654792.0
7.62100000000008,0.0669921875,6.919934082031251,5.59683837890625,1728067654802.0
7.631000000000071,-0.2977264404296875,7.097732543945313,7.423272705078125,1728067654812.0
7.641000000000062,-0.5007965087890626,7.071414184570313,8.301498413085938,1728067654822.0
7.651000000000053,-0.0662445068359375,6.965841674804688,6.744528198242188,1728067654832.0
7.661000000000044,0.2803802490234375,7.138555908203125,5.158847045898438,1728067654842.0
7.671000000000035,0.4198974609375,7.108648681640625,5.8175537109375,1728067654852.0
7.681000000000026,0.4122711181640625,7.240689086914063,7.232913208007813,1728067654862.0
7.691000000000017,0.4242340087890625,7.758682250976563,7.3846923828125,1728067654872.0
7.700999999999979,0.8267852783203126,7.169509887695313,5.739645385742188,1728067654882.0
7.7109999999999985,0.533843994140625,7.5796875,5.215521240234375,1728067654892.0
7.720999999999989,-0.2591461181640625,6.949392700195313,7.191192626953126,1728067654902.0
7.73099999999998,-0.8423370361328125,6.492410278320313,7.426712036132813,1728067654912.0
7.740999999999971,-0.7524658203125001,6.879559326171876,7.768850708007813,1728067654922.0
7.750999999999962,0.0466552734375,7.0593017578125,5.955874633789063,1728067654932.0
7.760999999999953,0.407635498046875,7.730120849609375,6.217114257812501,1728067654942.0
7.770999999999944,0.0695343017578125,7.388879394531251,6.6845642089843755,1728067654952.0
7.780999999999935,-0.1526763916015625,6.874774169921875,6.307135009765625,1728067654962.0
7.791999999999902,0.413916015625,7.226034545898438,6.6669189453125,1728067654973.0
7.801999999999893,0.9663024902343752,7.410263061523438,5.843423461914063,1728067654983.0
7.811999999999884,0.841290283203125,7.333700561523438,6.806585693359375,1728067654993.0
7.821999999999875,0.016448974609375,6.737649536132813,7.031936645507813,1728067655003.0
7.832000000000093,-0.5636016845703126,6.880755615234375,7.257736206054688,1728067655013.0
7.842000000000084,-0.325390625,7.296914672851563,6.818399047851563,1728067655023.0
7.852000000000075,-0.126806640625,7.469180297851563,5.639456176757813,1728067655033.0
7.862000000000066,-0.3446807861328125,7.312466430664063,5.827871704101563,1728067655043.0
7.872000000000057,-0.140863037109375,7.0344787597656255,6.519326782226563,1728067655053.0
7.882000000000019,0.3533538818359375,7.268502807617188,7.641296386718751,1728067655063.0
7.8920000000000385,0.7886535644531251,7.053768920898438,6.703555297851563,1728067655073.0
7.902000000000029,0.73511962890625,6.765164184570313,6.2314697265625005,1728067655083.0
7.91200000000002,0.370849609375,6.99051513671875,6.593646240234375,1728067655093.0
7.922000000000011,0.109759521484375,7.572360229492188,7.137957763671875,1728067655103.0
7.932000000000002,0.0698333740234375,7.542901611328125,6.300555419921875,1728067655113.0
7.941999999999993,-0.158807373046875,7.3009521484375,5.0860229492187505,1728067655123.0
7.95299999999996,-0.3692047119140625,7.005767822265626,6.219805908203125,1728067655134.0
7.962999999999951,-0.23746337890625,7.0868164062500005,7.599575805664063,1728067655144.0
7.972999999999942,-0.10347900390625,7.034927368164063,7.94395751953125,1728067655154.0
7.982999999999933,0.3816162109375,6.878512573242188,6.250610351562501,1728067655164.0
7.992999999999924,0.472833251953125,7.074554443359376,6.001483154296875,1728067655174.0
8.002999999999915,0.310736083984375,7.289288330078126,6.392071533203126,1728067655184.0
8.012999999999906,0.1685272216796875,7.3583740234375,6.927859497070313,1728067655194.0
8.022999999999897,0.28890380859375,6.984234619140626,6.1046630859375,1728067655204.0
8.03299999999986,0.4643096923828125,7.542453002929688,5.948098754882813,1728067655214.0
8.042999999999878,0.4574310302734375,7.531536865234376,6.511550903320313,1728067655224.0
8.053000000000097,0.0447113037109375,7.581332397460938,6.616824340820313,1728067655234.0
8.06300000000006,-0.4523468017578125,6.856680297851563,7.286447143554688,1728067655244.0
8.073000000000079,-0.4448699951171875,6.152664184570313,6.1525146484375,1728067655254.0
8.08300000000007,-0.5187408447265626,6.877316284179688,7.804290771484376,1728067655264.0
8.09300000000006,-0.0142059326171875,7.352392578125,6.925167846679688,1728067655274.0
8.103000000000051,0.5890228271484376,7.794570922851563,6.343771362304688,1728067655284.0
8.113000000000042,0.4366455078125,7.433441162109376,5.3521972656250005,1728067655294.0
8.123000000000033,0.1948455810546875,6.782809448242188,5.995501708984375,1728067655304.0
8.133000000000024,-0.0494964599609375,7.282858276367188,7.705447387695313,1728067655314.0
8.143000000000015,0.458477783203125,7.358822631835938,6.623703002929688,1728067655324.0
8.153000000000006,0.8650665283203126,7.325326538085938,6.166421508789063,1728067655334.0
8.163999999999973,0.347821044921875,6.860119628906251,5.5754547119140625,1728067655345.0
8.173999999999964,-0.487786865234375,6.927410888671876,7.718008422851563,1728067655355.0
8.183999999999955,-0.575714111328125,7.337887573242188,7.813412475585938,1728067655365.0
8.193999999999946,-0.1368255615234375,7.127041625976563,6.278573608398438,1728067655375.0
8.203999999999937,-0.0626556396484375,7.1813232421875,5.041012573242188,1728067655385.0
8.2139999999999,-0.0387298583984375,7.109844970703126,6.300854492187501,1728067655395.0
8.223999999999918,-0.0411224365234375,7.298410034179688,7.902984619140626,1728067655405.0
8.23399999999991,0.385504150390625,7.066180419921875,7.033880615234375,1728067655415.0
8.2439999999999,0.8519073486328126,6.9163452148437505,5.971127319335938,1728067655425.0
8.253999999999891,0.6416595458984375,7.160238647460938,5.851498413085938,1728067655435.0
8.263999999999882,0.3279327392578125,7.5019287109375,7.178482055664063,1728067655445.0
8.273999999999873,0.0303558349609375,7.4301513671875,6.7662109375,1728067655455.0
8.284000000000091,-0.0,7.212875366210938,5.565884399414063,1728067655465.0
8.295000000000087,0.007177734375,7.046142578125001,5.788394165039063,1728067655476.0
8.30500000000005,-0.256005859375,7.074105834960938,7.278820800781251,1728067655486.0
8.31500000000004,-0.5037872314453126,7.001431274414063,8.163327026367188,1728067655496.0
8.325000000000031,-0.1626953125,6.856829833984375,6.901242065429688,1728067655506.0
8.335000000000022,0.26497802734375,7.067077636718751,5.746524047851563,1728067655516.0
8.347999999999942,0.3576904296875,7.377664184570313,5.72723388671875,1728067655529.0
8.355000000000004,0.5135070800781251,7.2770263671875,6.727780151367188,1728067655536.0
8.364999999999995,0.5432647705078125,7.4516845703125005,6.632974243164063,1728067655546.0
8.374999999999986,0.8529541015625001,7.331756591796876,6.213824462890625,1728067655556.0
8.384999999999977,0.820355224609375,7.262222290039063,5.922677612304688,1728067655566.0
8.394999999999968,-0.045758056640625,7.558453369140626,7.017132568359376,1728067655576.0
8.404999999999959,-0.7621856689453126,6.517831420898438,7.363458251953125,1728067655586.0
8.41499999999995,-0.9800598144531252,6.4856811523437505,6.792379760742188,1728067655596.0
8.42499999999994,-0.6625946044921875,7.057955932617188,7.036273193359375,1728067655606.0
8.434999999999931,-0.00538330078125,7.549032592773438,6.365603637695313,1728067655616.0
8.448000000000079,0.33795166015625,7.755691528320313,6.435437011718751,1728067655629.0
8.454999999999913,0.3976165771484375,7.02281494140625,5.8072357177734375,1728067655636.0
8.464999999999904,0.5662933349609376,6.995001220703125,6.380557250976563,1728067655646.0
8.475999999999871,0.7879058837890626,7.16397705078125,7.22020263671875,1728067655657.0
8.484999999999886,0.8048034667968751,7.348654174804688,6.735256958007813,1728067655666.0
8.49600000000008,0.42408447265625,7.035675048828126,6.54429931640625,1728067655677.0
8.506000000000071,-0.415411376953125,6.912158203125,6.285751342773438,1728067655687.0
8.516000000000062,-0.8418884277343751,7.206893920898438,7.0464416503906255,1728067655697.0
8.526000000000053,-0.6548187255859376,7.361215209960938,6.842324829101563,1728067655707.0
8.536000000000044,-0.3784759521484375,7.362411499023438,5.885144042968751,1728067655717.0
8.547000000000011,0.046356201171875,6.999188232421876,5.929257202148438,1728067655728.0
8.556000000000026,0.5166473388671875,7.149472045898438,6.8714843750000005,1728067655737.0
8.566000000000017,0.8196075439453125,7.126443481445313,7.639501953125,1728067655747.0
8.57599999999998,0.9278717041015626,6.929953002929688,6.618618774414063,1728067655757.0
8.585999999999999,0.6495849609375001,6.950888061523438,6.175244140625001,1728067655767.0
8.59599999999999,0.2235565185546875,7.425814819335938,6.335845947265626,1728067655777.0
8.60599999999998,-0.2154815673828125,7.6275390625,6.5679260253906255,1728067655787.0
8.615999999999971,-0.444720458984375,7.3787109375,5.945257568359375,1728067655797.0
8.625999999999962,-0.511114501953125,7.078442382812501,5.866900634765625,1728067655807.0
8.63699999999993,-0.215631103515625,6.938925170898438,6.930850219726563,1728067655818.0
8.647999999999897,-0.03050537109375,6.965243530273438,7.85244140625,1728067655829.0
8.656999999999911,0.2208648681640625,6.932196044921875,7.325326538085938,1728067655838.0
8.666999999999902,0.575115966796875,6.958065795898438,6.196179199218751,1728067655848.0
8.676999999999893,0.5444610595703125,7.378860473632813,5.812918090820313,1728067655858.0
8.686999999999884,0.4502532958984375,7.453628540039063,6.2718444824218755,1728067655868.0
8.696999999999875,0.144451904296875,7.372280883789063,6.456820678710938,1728067655878.0
8.707000000000093,0.0832916259765625,6.828567504882813,6.234609985351563,1728067655888.0
8.717000000000084,0.1975372314453125,7.252203369140625,6.602618408203125,1728067655898.0
8.727000000000075,0.2860626220703125,7.484881591796875,6.907522583007813,1728067655908.0
8.737000000000066,0.0444122314453125,7.474563598632813,6.6083007812500005,1728067655918.0
8.748000000000033,-0.2121917724609375,7.212725830078125,6.5021301269531255,1728067655929.0
8.75700000000002,-0.326287841796875,6.406576538085938,6.299209594726563,1728067655938.0
8.767000000000039,-0.4409820556640625,6.832904052734375,7.374822998046875,1728067655948.0
8.77700000000003,-0.0943572998046875,7.208538818359376,7.444058227539063,1728067655958.0
8.78700000000002,0.5227783203125,7.511349487304688,6.180178833007813,1728067655968.0
8.797000000000011,0.5779571533203125,7.468731689453126,5.803646850585938,1728067655978.0
8.807999999999979,0.1679290771484375,6.891970825195313,6.286050415039063,1728067655989.0
8.816999999999993,-0.33197021484375,7.048535156250001,7.365701293945313,1728067655998.0
8.82799999999996,0.165985107421875,7.422824096679688,6.76322021484375,1728067656009.0
8.837999999999951,0.87149658203125,7.555911254882813,5.6751953125000005,1728067656019.0
8.847999999999942,0.64898681640625,7.129882812500001,5.511602783203125,1728067656029.0
8.857999999999933,-0.104376220703125,6.875372314453125,7.16038818359375,1728067656039.0
8.867999999999924,-0.346923828125,7.064535522460938,8.144635009765626,1728067656049.0
8.877999999999915,-0.0459075927734375,7.089358520507813,6.987823486328126,1728067656059.0
8.887999999999906,-0.005682373046875,7.068722534179688,5.4628540039062505,1728067656069.0
8.897999999999897,-0.3730926513671875,7.055862426757813,5.8857421875,1728067656079.0
8.90799999999986,-0.557171630859375,7.307232666015626,7.39964599609375,1728067656089.0
8.917999999999878,0.015850830078125,7.208688354492188,7.286895751953126,1728067656099.0
8.928000000000097,0.6051727294921876,7.1316772460937505,6.133374023437501,1728067656109.0
8.93800000000006,0.7548583984375,7.06827392578125,5.6711578369140625,1728067656119.0
8.948000000000079,0.7026702880859376,7.246670532226563,6.889578247070313,1728067656129.0
8.95800000000007,0.5070770263671875,7.536621093750001,7.088012695312501,1728067656139.0
8.96800000000006,0.5564239501953125,7.281961059570313,6.00955810546875,1728067656149.0
8.978000000000051,0.316717529296875,7.194183349609376,5.364010620117188,1728067656159.0
8.988000000000042,-0.2875579833984375,6.990963745117188,6.679928588867188,1728067656169.0
8.99900000000001,-0.7958312988281251,7.020721435546876,8.138504028320312,1728067656180.0
9.009,-0.7591949462890626,6.998141479492188,7.461105346679688,1728067656190.0
9.018999999999991,-0.34034423828125,6.913803100585938,6.0210723876953125,1728067656200.0
9.028999999999982,0.0734222412109375,7.060348510742188,5.448498535156251,1728067656210.0
9.038999999999971,0.4400848388671875,7.332354736328125,6.918887329101563,1728067656220.0
9.048999999999964,0.7505218505859376,7.415347290039063,7.20225830078125,1728067656230.0
9.058999999999957,1.1479888916015626,7.452731323242188,6.048587036132813,1728067656240.0
9.068999999999946,1.074566650390625,7.629483032226563,5.342776489257813,1728067656250.0
9.078999999999937,0.484796142578125,7.111639404296875,6.369342041015625,1728067656260.0
9.0889999999999,-0.466253662109375,6.6995178222656255,7.684213256835938,1728067656270.0
9.098999999999918,-1.1448486328125,6.644937133789063,7.739691162109375,1728067656280.0
9.10899999999991,-0.8967681884765626,6.957916259765626,6.676339721679688,1728067656290.0
9.1189999999999,-0.0689361572265625,7.599575805664063,5.72484130859375,1728067656300.0
9.128999999999891,0.0258697509765625,7.6939331054687505,6.31461181640625,1728067656310.0
9.138999999999882,-0.13697509765625,6.860717773437501,6.630581665039063,1728067656320.0
9.150000000000077,0.2121917724609375,6.909466552734376,6.902737426757813,1728067656331.0
9.159000000000091,0.9893310546875,7.435086059570313,6.4970458984375,1728067656340.0
9.169000000000082,1.4019012451171875,7.380355834960938,6.066680908203125,1728067656350.0
9.18000000000005,1.1841766357421877,6.979000854492188,6.500335693359376,1728067656361.0
9.19000000000004,-0.26617431640625,6.8221374511718755,7.158743286132813,1728067656371.0
9.200000000000031,-1.126904296875,7.188949584960938,7.448394775390626,1728067656381.0
9.210000000000022,-0.4367950439453125,7.499984741210938,6.182571411132813,1728067656391.0
9.220000000000011,-0.5345916748046875,7.455422973632813,5.183370971679688,1728067656401.0
9.230000000000004,-0.4813568115234375,6.927560424804688,6.0345306396484375,1728067656411.0
9.239999999999997,0.0001495361328125,7.14244384765625,7.5623413085937505,1728067656421.0
9.249999999999986,0.5680877685546876,7.271194458007813,7.740139770507813,1728067656431.0
9.259999999999977,1.442724609375,6.722097778320313,6.166571044921875,1728067656441.0
9.269999999999968,0.9166564941406252,6.819595336914063,5.96051025390625,1728067656451.0
9.27999999999996,0.3626251220703125,7.412655639648438,7.047189331054688,1728067656461.0
9.28999999999995,0.0791046142578125,7.730270385742188,6.9118591308593755,1728067656471.0
9.29999999999994,-0.410626220703125,7.420431518554688,5.5331359863281255,1728067656481.0
9.309999999999931,-0.591864013671875,6.936981201171876,5.210885620117188,1728067656491.0
9.319999999999922,-0.5513397216796876,7.008309936523438,7.269848632812501,1728067656501.0
9.329999999999911,-0.3360076904296875,7.117919921875001,8.333798217773438,1728067656511.0
9.339999999999904,0.2462860107421875,6.913055419921876,7.1421447753906255,1728067656521.0
9.350999999999871,0.649884033203125,7.0000854492187505,5.489022827148438,1728067656532.0
9.36100000000009,0.6765014648437501,7.135565185546875,5.927462768554688,1728067656542.0
9.37100000000008,0.4897308349609375,7.446450805664063,7.02879638671875,1728067656552.0
9.381000000000071,0.2441925048828125,7.117770385742188,6.952084350585938,1728067656562.0
9.391000000000062,0.281427001953125,7.274185180664063,5.810375976562501,1728067656572.0
9.401000000000051,0.3581390380859375,7.456768798828126,5.863760375976563,1728067656582.0
9.411000000000044,0.023028564453125,7.716064453125001,6.337490844726563,1728067656592.0
9.421000000000037,-0.401953125,7.227679443359375,7.432394409179688,1728067656602.0
9.431000000000026,-0.5393768310546876,6.213375854492188,6.737051391601563,1728067656612.0
9.441000000000017,-0.5356384277343751,6.53831787109375,7.212277221679688,1728067656622.0
9.45099999999998,-0.0130096435546875,7.206893920898438,7.305587768554688,1728067656632.0
9.461,0.638519287109375,7.825375366210938,6.320294189453126,1728067656642.0
9.47099999999999,0.50543212890625,7.619912719726563,5.717214965820313,1728067656652.0
9.48099999999998,0.2432952880859375,6.743930053710938,5.499041748046875,1728067656662.0
9.490999999999971,-0.0820953369140625,7.140499877929688,7.378411865234376,1728067656672.0
9.500999999999962,0.2869598388671875,7.435385131835938,7.175790405273438,1728067656682.0
9.51199999999993,0.7123901367187501,7.301849365234376,6.302947998046876,1728067656693.0
9.52199999999992,0.3222503662109375,6.9582153320312505,5.448049926757813,1728067656703.0
9.531999999999911,-0.2154815673828125,6.943859863281251,6.923223876953125,1728067656713.0
9.541999999999902,-0.3650177001953125,7.296466064453125,8.056558227539064,1728067656723.0
9.551999999999891,-0.173760986328125,7.168164062500001,6.744229125976563,1728067656733.0
9.561999999999884,-0.0904693603515625,7.128836059570313,5.350851440429688,1728067656743.0
9.571999999999877,-0.0073272705078125,6.956420898437501,5.788693237304688,1728067656753.0
9.582000000000091,-0.041571044921875,7.432394409179688,7.595538330078125,1728067656763.0
9.592000000000084,0.232977294921875,7.190594482421876,7.406674194335938,1728067656773.0
9.602000000000077,0.5688354492187501,6.881353759765625,6.0998779296875005,1728067656783.0
9.612000000000066,0.536834716796875,7.029843139648438,5.800656127929688,1728067656793.0
9.622000000000057,0.4462158203125,7.44510498046875,6.9178405761718755,1728067656803.0
9.63200000000002,0.1327880859375,7.506265258789063,7.1152282714843755,1728067656813.0
9.64200000000004,0.0545806884765625,7.197622680664063,5.672354125976563,1728067656823.0
9.65200000000003,0.1559661865234375,7.064086914062501,5.680429077148438,1728067656833.0
9.66200000000002,-0.0985443115234375,7.159939575195313,6.928158569335938,1728067656843.0
9.672000000000011,-0.401055908203125,7.0255065917968755,8.085568237304688,1728067656853.0
9.682000000000002,-0.33974609375,6.919934082031251,7.078741455078125,1728067656863.0
9.691999999999991,0.0055328369140625,6.970925903320313,5.840432739257813,1728067656873.0
9.70299999999996,0.3369049072265625,7.253399658203126,5.708392333984375,1728067656884.0
9.712999999999951,0.4693939208984375,7.338336181640625,6.682620239257813,1728067656894.0
9.722999999999942,0.5085723876953125,7.661483764648438,6.978851318359376,1728067656904.0
9.732999999999931,0.829327392578125,7.139901733398438,6.1405517578125,1728067656914.0
9.742999999999924,0.7729522705078126,7.658193969726563,5.686410522460938,1728067656924.0
9.752999999999917,-0.044561767578125,6.878063964843751,7.01683349609375,1728067656934.0
9.762999999999906,-0.6821838378906251,6.406127929687501,7.151864624023438,1728067656944.0
9.772999999999897,-0.9281707763671876,7.021170043945313,7.96549072265625,1728067656954.0
9.78299999999986,-0.303857421875,7.113882446289063,6.209637451171876,1728067656964.0
9.792999999999878,0.0689361572265625,7.670755004882813,6.064886474609375,1728067656974.0
9.803000000000097,-0.1399658203125,7.277175903320313,6.17105712890625,1728067656984.0
9.81300000000006,-0.040673828125,7.003375244140625,6.3959594726562505,1728067656994.0
9.82300000000008,0.5938079833984375,7.279718017578125,7.215267944335938,1728067657004.0
9.83300000000007,1.1325866699218752,7.254296875,5.969631958007813,1728067657014.0
9.84300000000006,1.0887725830078123,7.153808593750001,6.679180908203126,1728067657024.0
9.853000000000051,0.224603271484375,6.842773437500001,6.5688232421875,1728067657034.0
9.864000000000049,-0.3979156494140625,7.159640502929688,7.443460083007813,1728067657045.0
9.87400000000001,-0.3617279052734375,7.4205810546875,6.555514526367188,1728067657055.0
9.884,-0.4595245361328125,7.169808959960938,5.717962646484375,1728067657065.0
9.893999999999991,-0.7572509765625001,7.257885742187501,5.966043090820313,1728067657075.0
9.903999999999982,-0.3192596435546875,7.018179321289063,6.996945190429688,1728067657085.0
9.913999999999971,0.4194488525390625,7.290933227539063,7.5144897460937505,1728067657095.0
9.923999999999964,0.7273437500000001,6.961505126953125,6.3884826660156255,1728067657105.0
9.933999999999957,1.0322479248046876,6.795819091796876,6.194235229492188,1728067657115.0
9.943999999999946,0.6613983154296875,7.207492065429688,6.8206420898437505,1728067657125.0
9.953999999999937,0.3590362548828125,7.563986206054688,7.1095458984375,1728067657135.0
9.9639999999999,0.0961517333984375,7.492657470703126,5.805441284179688,1728067657145.0
9.973999999999918,-0.16568603515625,7.196426391601563,5.1189208984375005,1728067657155.0
9.98399999999991,-0.4879364013671875,7.094442749023438,6.52396240234375,1728067657165.0
9.9939999999999,-0.5036376953125,7.120013427734375,7.936779785156251,1728067657175.0
10.003999999999891,-0.2343231201171875,6.9178405761718755,7.605108642578125,1728067657185.0
10.015000000000086,0.1583587646484375,6.772940063476563,6.1955810546875005,1728067657196.0
10.025000000000077,0.50662841796875,7.1406494140625005,6.072512817382813,1728067657206.0
10.035000000000068,0.4032989501953125,7.382449340820313,6.667367553710938,1728067657216.0
10.045000000000089,0.37742919921875,7.3455139160156255,6.616525268554688,1728067657226.0
10.057000000000002,0.4998992919921875,6.867446899414063,6.1525146484375,1728067657238.0
10.06500000000004,0.496160888671875,7.659240722656251,6.0370727539062505,1728067657246.0
10.075000000000031,0.4115234375,7.484432983398438,6.570318603515625,1728067657256.0
10.085000000000022,-0.0584686279296875,7.7328125,6.422726440429688,1728067657266.0
10.095000000000011,-0.405242919921875,6.574505615234376,6.847109985351563,1728067657276.0
10.105000000000004,-0.57242431640625,6.204702758789063,6.529794311523438,1728067657286.0
10.114999999999997,-0.6948944091796876,7.027301025390625,8.28968505859375,1728067657296.0
10.124999999999986,0.132489013671875,7.263867187500001,6.827072143554688,1728067657306.0
10.134999999999977,0.6603515625,7.931097412109375,5.840283203125001,1728067657316.0
10.144999999999968,0.4206451416015625,7.208538818359376,5.186361694335938,1728067657326.0
10.15799999999986,0.0394775390625,6.812118530273438,6.450091552734375,1728067657339.0
10.16499999999995,-0.002691650390625,7.3843933105468755,8.048184204101563,1728067657346.0
10.17499999999994,0.6500335693359376,7.417739868164063,6.315509033203125,1728067657356.0
10.185999999999908,0.8583374023437501,7.125994873046875,5.653512573242188,1728067657367.0
10.194999999999922,0.1973876953125,6.937728881835938,5.699868774414063,1728067657376.0
10.204999999999911,-0.4720855712890625,7.088760375976563,8.093045043945313,1728067657386.0
10.21599999999988,-0.3617279052734375,7.327420043945313,7.720401000976563,1728067657397.0
10.224999999999897,-0.0904693603515625,7.085470581054688,5.848956298828125,1728067657406.0
10.23600000000009,-0.1182830810546875,7.135864257812501,5.020974731445313,1728067657417.0
10.24600000000008,-0.086431884765625,7.0138427734375,6.786099243164063,1728067657427.0
10.25700000000002,-0.0394775390625,7.522415161132813,8.114428710937501,1728067657438.0
10.266000000000062,0.3712982177734375,6.999786376953126,6.747219848632813,1728067657447.0
10.276000000000051,0.6951934814453126,6.74766845703125,5.384197998046876,1728067657457.0
10.286000000000044,0.4978057861328125,7.235006713867188,6.343322753906251,1728067657467.0
10.296000000000037,0.2917449951171875,7.567425537109376,7.574603271484375,1728067657477.0
10.306000000000026,0.078057861328125,7.356579589843751,6.703555297851563,1728067657487.0
10.316000000000017,0.0874786376953125,7.109695434570313,5.093350219726563,1728067657497.0
10.32599999999998,0.14534912109375,7.1436401367187505,5.790188598632813,1728067657507.0
10.336,-0.1493865966796875,7.210183715820313,7.681521606445313,1728067657517.0
10.34599999999999,-0.4517486572265625,7.054217529296875,7.976406860351563,1728067657527.0
10.356999999999957,-0.161199951171875,6.711331176757813,6.558804321289063,1728067657538.0
10.366999999999948,0.191705322265625,7.136312866210938,5.485134887695313,1728067657548.0
10.375999999999962,0.311334228515625,7.159790039062501,6.3558837890625,1728067657557.0
10.38699999999993,0.3132781982421875,7.182070922851563,7.207342529296875,1728067657568.0
10.39699999999992,0.3117828369140625,7.626641845703125,6.998440551757813,1728067657578.0
10.406999999999911,0.7104461669921875,7.336691284179688,5.40244140625,1728067657588.0
10.416999999999902,0.599639892578125,7.819992065429688,5.6158294677734375,1728067657598.0
10.426999999999891,0.0207855224609375,6.731219482421875,6.990664672851563,1728067657608.0
10.436999999999884,-0.723455810546875,6.585720825195313,7.485180664062501,1728067657618.0
10.446999999999877,-0.669622802734375,6.769500732421876,7.911807250976563,1728067657628.0
10.45800000000007,0.256304931640625,7.191790771484375,5.7553466796875,1728067657639.0
10.467000000000084,0.53773193359375,7.896255493164063,6.338986206054688,1728067657648.0
10.477000000000077,-0.074468994140625,7.151416015625,6.190945434570313,1728067657658.0
10.487000000000066,-0.5164978027343751,6.719555664062501,6.768005371093751,1728067657668.0
10.497000000000057,0.1287506103515625,7.405776977539063,7.032086181640626,1728067657678.0
10.50700000000002,1.024172973632813,7.458413696289063,5.774188232421875,1728067657688.0
10.51700000000004,0.8260375976562501,7.176837158203125,6.337042236328125,1728067657698.0
10.52700000000003,-0.11663818359375,6.691592407226563,6.787594604492188,1728067657708.0
10.53700000000002,-0.401055908203125,7.013394165039063,7.9445556640625,1728067657718.0
10.547000000000011,0.051739501953125,7.360168457031251,6.930999755859376,1728067657728.0
10.55799999999998,0.131890869140625,7.512396240234375,5.080191040039063,1728067657739.0
10.56799999999997,-0.2459869384765625,7.178182983398438,5.442666625976563,1728067657749.0
10.57799999999996,-0.201873779296875,7.083526611328126,6.7952209472656255,1728067657759.0
10.587999999999951,0.3075958251953125,7.53482666015625,8.046688842773438,1728067657769.0
10.597999999999942,0.687567138671875,6.954476928710938,6.47850341796875,1728067657779.0
10.607999999999931,0.4185516357421875,6.51199951171875,5.768655395507813,1728067657789.0
10.617999999999924,0.0832916259765625,6.965542602539063,7.027749633789063,1728067657799.0
10.627999999999917,-0.0049346923828125,7.681671142578126,7.711129760742188,1728067657809.0
10.637999999999906,0.0931610107421875,7.469927978515625,6.271096801757813,1728067657819.0
10.647999999999897,-0.0411224365234375,7.242483520507813,4.570272827148438,1728067657829.0
10.65799999999986,-0.1727142333984375,6.939523315429688,6.102719116210938,1728067657839.0
10.667999999999878,-0.08194580078125,7.292727661132813,8.059698486328125,1728067657849.0
10.678000000000097,0.0946563720703125,7.139602661132813,7.929153442382813,1728067657859.0
10.68800000000006,0.49227294921875,6.79552001953125,5.776132202148438,1728067657869.0
10.69800000000008,0.4765716552734375,7.129882812500001,5.595492553710938,1728067657879.0
10.70800000000007,0.2775390625,7.296615600585938,6.74228515625,1728067657889.0
10.71800000000006,-0.058917236328125,7.3368408203125,7.320391845703125,1728067657899.0
10.728000000000051,0.0937591552734375,6.711331176757813,6.249563598632813,1728067657909.0
10.739000000000049,0.398663330078125,7.709634399414063,6.054718017578125,1728067657920.0
10.74900000000001,0.262286376953125,7.419534301757813,6.416146850585938,1728067657930.0
10.759,-0.142657470703125,7.709634399414063,6.4527832031250005,1728067657940.0
10.768999999999991,-0.31282958984375,6.644338989257813,6.875372314453125,1728067657950.0
10.778999999999982,-0.055029296875,6.480746459960938,6.284255981445313,1728067657960.0
10.788999999999971,-0.2444915771484375,6.966290283203126,8.1790283203125,1728067657970.0
10.798999999999964,0.287408447265625,7.258483886718751,6.516485595703125,1728067657980.0
10.808999999999957,0.3792236328125,7.880255126953125,6.7174621582031255,1728067657990.0
10.818999999999946,0.256304931640625,6.93668212890625,5.01304931640625,1728067658000.0
10.828999999999937,-0.1906585693359375,6.982589721679688,6.383547973632813,1728067658010.0
10.8389999999999,-0.236865234375,7.363607788085938,7.507012939453125,1728067658020.0
10.848999999999918,0.6619964599609376,7.6694091796875,6.262124633789063,1728067658030.0
10.85899999999991,0.8910858154296876,7.021469116210938,6.270947265625001,1728067658040.0
10.8689999999999,0.2528656005859375,6.796566772460938,5.572613525390626,1728067658050.0
10.878999999999891,-0.3964202880859375,6.854437255859375,8.501577758789063,1728067658060.0
10.888999999999882,-0.2648284912109375,7.292279052734376,7.398449707031251,1728067658070.0
10.900000000000077,0.045159912109375,7.236053466796876,6.0938964843750005,1728067658081.0
10.910000000000068,-0.0910675048828125,7.336093139648438,4.702462768554688,1728067658091.0
10.920000000000089,-0.281427001953125,7.03238525390625,6.493008422851563,1728067658101.0
10.93000000000005,-0.1685272216796875,7.322634887695313,7.971621704101563,1728067658111.0
10.94000000000004,0.3781768798828125,7.046142578125001,7.23814697265625,1728067658121.0
10.950000000000031,0.771307373046875,6.737799072265625,5.938977050781251,1728067658131.0
10.960000000000022,0.588873291015625,7.348654174804688,5.678784179687501,1728067658141.0
10.970000000000011,0.5091705322265625,7.4771057128906255,7.184762573242188,1728067658151.0
10.980000000000004,0.2274444580078125,7.542004394531251,6.515289306640626,1728067658161.0
10.989999999999997,0.1069183349609375,7.104312133789063,5.861517333984375,1728067658171.0
10.999999999999986,-0.1481903076171875,6.93369140625,5.824880981445313,1728067658181.0
11.009999999999977,-0.4266265869140625,7.090255737304688,7.575500488281251,1728067658191.0
11.019999999999968,-0.4103271484375,7.186856079101563,7.898199462890625,1728067658201.0
11.02999999999996,-0.2420989990234375,6.865802001953125,6.493307495117188,1728067658211.0
11.03999999999995,0.1096099853515625,6.970477294921875,5.7260375976562505,1728067658221.0
11.04999999999994,0.28890380859375,7.323681640625001,6.215170288085938,1728067658231.0
11.059999999999931,0.5842376708984376,7.531088256835938,6.923522949218751,1728067658241.0
11.070999999999929,0.8396453857421876,7.056610107421876,6.1387573242187505,1728067658252.0
11.08099999999989,0.9520965576171876,7.495797729492188,5.80020751953125,1728067658262.0
11.09099999999988,0.9127685546875,7.258035278320313,6.645086669921875,1728067658272.0
11.100999999999871,0.082843017578125,7.742532348632813,6.968832397460938,1728067658282.0
11.11100000000009,-0.811383056640625,6.788043212890625,7.418936157226563,1728067658292.0
11.12100000000008,-1.101931762695313,6.144140625,6.078045654296876,1728067658302.0
11.131000000000071,-1.3275817871093751,6.862213134765626,7.387533569335938,1728067658312.0
11.141000000000062,-0.3479705810546875,7.535873413085938,6.979299926757813,1728067658322.0
11.151000000000051,0.2325286865234375,7.761373901367188,6.338836669921876,1728067658332.0
11.161000000000044,0.8554962158203125,7.274783325195313,5.584576416015626,1728067658342.0
11.171000000000037,1.1414093017578126,6.859820556640625,5.9687347412109375,1728067658352.0
11.181000000000026,0.6847259521484376,7.153958129882813,7.652511596679688,1728067658362.0
11.191000000000017,0.7913452148437501,7.356878662109375,6.799407958984376,1728067658372.0
11.20099999999998,0.7428955078125,7.204052734375001,6.138308715820313,1728067658382.0
11.211,0.1891632080078125,7.014590454101563,5.967538452148438,1728067658392.0
11.22099999999999,-1.11553955078125,6.969879150390626,7.211679077148438,1728067658402.0
11.23099999999998,-1.747927856445313,7.271194458007813,7.554565429687501,1728067658412.0
11.240999999999971,-0.557470703125,7.364056396484376,6.225189208984376,1728067658422.0
11.251999999999969,-0.1484893798828125,7.124649047851563,5.315859985351563,1728067658433.0
11.26199999999993,0.8418884277343751,6.98692626953125,6.249264526367188,1728067658443.0
11.27199999999992,0.91336669921875,7.2288757324218755,7.996594238281251,1728067658453.0
11.281999999999911,1.0615570068359377,7.075601196289063,7.403533935546876,1728067658463.0
11.291999999999902,1.0346405029296877,6.875521850585938,5.876470947265625,1728067658473.0
11.301999999999891,0.3736907958984375,7.124649047851563,5.818450927734375,1728067658483.0
11.311999999999884,-0.096002197265625,7.600772094726563,6.664675903320313,1728067658493.0
11.321999999999877,-0.7125396728515625,7.828665161132813,6.574356079101563,1728067658503.0
11.332000000000091,-0.4852447509765625,7.2856994628906255,5.448199462890625,1728067658513.0
11.342000000000084,-0.23865966796875,6.787594604492188,5.9792022705078125,1728067658523.0
11.352000000000077,-0.2009765625,6.685012817382813,7.928854370117188,1728067658533.0
11.362000000000066,-0.014654541015625,6.87926025390625,8.625991821289062,1728067658543.0
11.372000000000057,0.374737548828125,7.071115112304688,6.8131652832031255,1728067658553.0
11.38200000000002,0.9090301513671876,7.310671997070313,4.9469543457031255,1728067658563.0
11.39200000000004,0.736614990234375,7.365252685546875,5.3272247314453125,1728067658573.0
11.40200000000003,0.073272705078125,7.323681640625001,6.789837646484376,1728067658583.0
11.412999999999997,0.069384765625,7.411459350585938,7.162930297851563,1728067658594.0
11.422999999999988,0.413616943359375,7.5043212890625,6.346014404296875,1728067658604.0
11.43299999999998,0.4077850341796875,7.146331787109376,5.520275878906251,1728067658614.0
11.44299999999997,-0.188116455078125,7.359719848632813,6.948495483398438,1728067658624.0
11.45299999999996,-0.7146331787109376,6.457717895507813,7.799505615234375,1728067658634.0
11.462999999999951,-0.6941467285156251,6.496746826171876,7.163827514648438,1728067658644.0
11.472999999999942,0.0025421142578125,7.184762573242188,6.820791625976563,1728067658654.0
11.482999999999931,0.49466552734375,7.400094604492188,5.541510009765625,1728067658664.0
11.492999999999924,0.5284606933593751,8.005267333984376,6.793576049804688,1728067658674.0
11.502999999999917,0.15731201171875,7.144387817382813,6.042306518554688,1728067658684.0
11.512999999999906,0.1260589599609375,6.845465087890625,6.53233642578125,1728067658694.0
11.522999999999897,0.1954437255859375,7.128985595703125,6.707742309570313,1728067658704.0
11.53299999999986,0.5208343505859375,7.337139892578126,6.521868896484375,1728067658714.0
11.542999999999878,0.3696533203125,7.229324340820313,6.941616821289063,1728067658724.0
11.553000000000097,-0.0336456298828125,6.857427978515625,6.151916503906251,1728067658734.0
11.56300000000006,-0.369952392578125,7.099526977539063,7.279867553710938,1728067658744.0
11.57300000000008,-0.2229583740234375,7.281063842773438,6.528298950195313,1728067658754.0
11.584000000000046,-0.00897216796875,7.351644897460938,6.340032958984375,1728067658765.0
11.59300000000006,0.007177734375,7.101022338867188,5.8438720703125,1728067658774.0
11.604000000000028,0.1435546875,7.140350341796876,6.692190551757813,1728067658785.0
11.614000000000049,0.1748077392578125,7.074105834960938,7.4995361328125005,1728067658795.0
11.62400000000001,0.3692047119140625,6.987973022460938,6.6097961425781255,1728067658805.0
11.634,0.4341033935546875,6.964645385742188,6.703854370117188,1728067658815.0
11.643999999999991,0.31881103515625,7.398300170898438,6.061148071289063,1728067658825.0
11.653999999999982,0.20157470703125,7.429702758789063,6.635067749023438,1728067658835.0
11.666999999999902,0.17705078125,7.535574340820313,5.734262084960938,1728067658848.0
11.673999999999964,0.164190673828125,7.190444946289063,6.096438598632813,1728067658855.0
11.683999999999957,0.12860107421875,6.988571166992188,6.658544921875,1728067658865.0
11.693999999999946,-0.1446014404296875,6.865652465820313,7.716213989257813,1728067658875.0
11.703999999999937,-0.240155029296875,6.847409057617188,7.413403320312501,1728067658885.0
11.7139999999999,-0.01973876953125,7.162930297851563,6.398052978515626,1728067658895.0
11.723999999999918,0.135479736328125,7.2154174804687505,5.8008056640625005,1728067658905.0
11.73399999999991,0.1374237060546875,7.112835693359376,5.8820037841796875,1728067658915.0
11.7439999999999,0.2459869384765625,7.630978393554688,7.045245361328125,1728067658925.0
11.753999999999891,0.6712677001953126,7.5144897460937505,6.531738281250001,1728067658935.0
11.76700000000004,0.7852142333984375,7.448843383789063,5.751309204101563,1728067658948.0
11.775000000000077,0.354998779296875,7.118966674804688,6.514840698242188,1728067658956.0
11.785000000000068,-0.3434844970703125,6.291732788085938,7.133322143554688,1728067658966.0
11.795000000000089,-0.7004272460937501,6.818399047851563,7.998239135742188,1728067658976.0
11.80500000000005,-0.318212890625,7.258483886718751,6.902139282226563,1728067658986.0
11.81500000000004,0.1481903076171875,7.509704589843751,5.526556396484375,1728067658996.0
11.825000000000031,-0.021533203125,7.622305297851563,5.991912841796875,1728067659006.0
11.835000000000022,-0.2935394287109375,6.972271728515626,6.344967651367188,1728067659016.0
11.845000000000011,0.042169189453125,7.122854614257813,7.270147705078125,1728067659026.0
11.855000000000004,0.7775878906250001,7.243978881835938,6.531289672851563,1728067659036.0
11.866999999999948,1.0818939208984375,7.123602294921875,6.233413696289063,1728067659048.0
11.874999999999986,0.5725738525390626,6.91514892578125,6.752154541015625,1728067659056.0
11.884999999999977,-0.26737060546875,7.004421997070313,7.273138427734375,1728067659066.0
11.894999999999968,-0.3285308837890625,7.338485717773438,7.092349243164063,1728067659076.0
11.90499999999996,-0.1867706298828125,7.413104248046875,5.558258056640625,1728067659086.0
11.91499999999995,-0.29967041015625,7.344467163085938,5.540762329101563,1728067659096.0
11.925999999999917,-0.4574310302734375,7.054217529296875,6.500784301757813,1728067659107.0
11.934999999999931,0.058917236328125,7.111489868164063,7.792477416992188,1728067659116.0
11.944999999999922,0.606817626953125,7.081134033203125,7.1908935546875,1728067659126.0
11.95599999999989,0.8100372314453126,6.793875122070313,5.971426391601563,1728067659137.0
11.967000000000084,0.5330963134765625,6.920083618164063,6.459512329101563,1728067659148.0
11.975999999999871,0.253314208984375,7.5473876953125005,7.048834228515625,1728067659157.0
11.98600000000009,0.101385498046875,7.604510498046875,6.6645263671875,1728067659167.0
11.99600000000008,0.0189910888671875,7.350598144531251,5.097238159179688,1728067659177.0
12.006000000000071,-0.16927490234375,7.073806762695313,5.771795654296875,1728067659187.0
12.016000000000062,-0.361279296875,7.0748535156250005,7.400842285156251,1728067659197.0
12.026000000000051,-0.279632568359375,6.922775268554688,8.241683959960938,1728067659207.0
12.036000000000044,0.1112548828125,6.93369140625,6.791333007812501,1728067659217.0
12.046000000000037,0.421990966796875,7.057507324218751,5.627044677734375,1728067659227.0
12.056000000000026,0.402252197265625,7.343869018554688,6.1761413574218755,1728067659237.0
12.06799999999997,0.136077880859375,7.296765136718751,6.808828735351563,1728067659249.0
12.07599999999998,0.1926025390625,6.95103759765625,6.833801269531251,1728067659257.0
12.086,0.450103759765625,7.338934326171875,6.0266052246093755,1728067659267.0
12.09599999999999,0.557171630859375,7.593743896484376,6.1381591796875,1728067659277.0
12.10599999999998,0.262884521484375,7.77647705078125,6.234759521484375,1728067659287.0
12.115999999999971,-0.177947998046875,7.066329956054688,6.904681396484375,1728067659297.0
12.126999999999969,-0.472833251953125,6.249264526367188,6.678134155273438,1728067659308.0
12.13699999999993,-0.5618072509765626,6.561346435546875,7.602267456054688,1728067659318.0
12.14699999999992,-0.136077880859375,7.222296142578125,7.377664184570313,1728067659328.0
12.156999999999911,0.4855438232421875,7.664923095703125,6.188851928710938,1728067659338.0
12.166999999999902,0.4442718505859375,7.747915649414063,5.629586791992188,1728067659348.0
12.176999999999891,0.0477020263671875,6.754248046875,5.771047973632813,1728067659358.0
12.186999999999884,-0.1930511474609375,7.128237915039063,7.409365844726563,1728067659368.0
12.196999999999877,0.2971282958984375,7.471722412109376,7.0419555664062505,1728067659378.0
12.207000000000091,0.9221893310546876,7.319046020507813,5.8520965576171875,1728067659388.0
12.217000000000084,0.6163879394531251,7.031039428710938,5.677587890625,1728067659398.0
12.227000000000077,-0.0453094482421875,6.881353759765625,7.033731079101563,1728067659408.0
12.237000000000066,-0.3991119384765625,7.210482788085938,8.270843505859375,1728067659418.0
12.247000000000057,-0.1638916015625,7.167416381835938,6.650469970703125,1728067659428.0
12.25700000000002,-0.0725250244140625,7.279119873046875,5.099630737304688,1728067659438.0
12.268000000000017,-0.169573974609375,7.017880249023438,5.698971557617188,1728067659449.0
12.278000000000006,-0.1818359375,7.360018920898438,7.557556152343751,1728067659459.0
12.287999999999997,0.1012359619140625,7.258035278320313,7.764663696289063,1728067659469.0
12.297999999999988,0.5446105957031251,6.797164916992188,6.0071655273437505,1728067659479.0
12.30799999999998,0.64898681640625,6.889877319335938,5.807534790039063,1728067659489.0
12.31799999999997,0.4687957763671875,7.460955810546875,6.993057250976563,1728067659499.0
12.32799999999996,0.2021728515625,7.5249572753906255,7.255493164062501,1728067659509.0
12.337999999999951,0.184527587890625,7.262969970703126,5.7978149414062505,1728067659519.0
12.347999999999942,0.0862823486328125,7.0688720703125005,5.228829956054688,1728067659529.0
12.357999999999931,-0.1090118408203125,7.092947387695313,6.860867309570313,1728067659539.0
12.367999999999924,-0.42169189453125,7.1932861328125,8.096783447265626,1728067659549.0
12.377999999999917,-0.32718505859375,6.940719604492188,7.161285400390626,1728067659559.0
12.387999999999906,0.119329833984375,6.954476928710938,5.7484680175781255,1728067659569.0
12.397999999999897,0.26378173828125,7.006515502929688,5.840731811523438,1728067659579.0
12.40799999999986,0.265576171875,7.005917358398438,7.254895019531251,1728067659589.0
12.417999999999878,0.2404541015625,7.757186889648438,7.4307495117187505,1728067659599.0
12.428000000000097,0.6853240966796875,7.440319824218751,5.7623748779296875,1728067659609.0
12.43800000000006,0.6844268798828126,7.753448486328126,4.717715454101563,1728067659619.0
12.44800000000008,0.3461761474609375,6.840829467773438,6.577047729492188,1728067659629.0
12.45800000000007,-0.484197998046875,6.707144165039063,7.715167236328125,1728067659639.0
12.46800000000006,-0.7971771240234375,6.714920043945313,8.561242675781251,1728067659649.0
12.479000000000028,0.1170867919921875,6.957916259765626,5.9966979980468755,1728067659660.0
12.489000000000049,0.4218414306640625,7.8273193359375,5.7619262695312505,1728067659670.0
12.49900000000001,-0.09510498046875,7.402188110351563,6.18541259765625,1728067659680.0
12.509,-0.6521270751953125,6.816006469726563,6.816604614257813,1728067659690.0
12.518999999999991,-0.1239654541015625,7.338934326171875,7.096536254882813,1728067659700.0
12.528999999999982,0.96839599609375,7.432992553710938,5.639904785156251,1728067659710.0
12.538999999999971,1.2350189208984377,7.246371459960938,6.250012207031251,1728067659720.0
12.548999999999964,0.27275390625,6.757388305664063,6.824530029296875,1728067659730.0
12.558999999999957,-0.279931640625,6.908419799804688,8.038165283203126,1728067659740.0
12.568999999999946,0.0155517578125,7.274334716796876,7.16337890625,1728067659750.0
12.578999999999937,0.0737213134765625,7.465591430664063,5.161090087890625,1728067659760.0
12.5889999999999,-0.2600433349609375,7.374374389648438,5.338589477539063,1728067659770.0
12.598999999999918,-0.7050628662109375,6.975711059570313,6.572561645507813,1728067659780.0
12.60899999999991,-0.024224853515625,7.474114990234376,7.947247314453126,1728067659790.0
12.6189999999999,0.6220703125,7.029693603515626,6.824230957031251,1728067659800.0
12.628999999999891,0.730633544921875,6.6166748046875,5.74517822265625,1728067659810.0
12.640000000000086,0.3823638916015625,6.832904052734375,6.895559692382813,1728067659821.0
12.650000000000077,0.222808837890625,7.612734985351563,7.625445556640625,1728067659831.0
12.660000000000068,0.171368408203125,7.491909790039063,6.572262573242188,1728067659841.0
12.670000000000089,0.081048583984375,7.27762451171875,4.6134887695312505,1728067659851.0
12.68000000000005,-0.241949462890625,7.090405273437501,5.800357055664063,1728067659861.0
12.69000000000004,-0.3297271728515625,7.239492797851563,7.686605834960938,1728067659871.0
12.700000000000031,-0.117535400390625,7.16995849609375,8.100521850585938,1728067659881.0
12.710000000000022,0.2752960205078125,6.751705932617188,6.181823730468751,1728067659891.0
12.720000000000011,0.3718963623046875,6.9298034667968755,5.640652465820313,1728067659901.0
12.730000000000004,0.2914459228515625,7.210931396484376,6.858773803710938,1728067659911.0
12.739999999999997,0.053533935546875,7.293923950195313,7.347158813476563,1728067659921.0
12.749999999999986,0.151629638671875,6.742434692382813,6.576300048828125,1728067659931.0
12.759999999999977,0.4855438232421875,7.666567993164063,5.662783813476563,1728067659941.0
12.769999999999968,0.290997314453125,7.875021362304688,5.882452392578125,1728067659951.0
12.77999999999996,0.0825439453125,7.685708618164063,6.227731323242188,1728067659961.0
12.78999999999995,-0.09031982421875,6.586019897460938,7.003524780273438,1728067659971.0
12.800999999999917,-0.2696136474609375,6.367996215820313,6.827072143554688,1728067659982.0
12.809999999999931,-0.292193603515625,6.768902587890626,8.311816406250001,1728067659991.0
12.820999999999929,0.2893524169921875,7.3126159667968755,6.5918518066406255,1728067660002.0
12.83099999999989,0.576910400390625,8.01334228515625,6.042156982421876,1728067660012.0
12.84099999999988,0.130694580078125,7.1855102539062505,5.169464111328125,1728067660022.0
12.850999999999871,-0.409130859375,6.685910034179688,6.441567993164063,1728067660032.0
12.86100000000009,-0.460272216796875,7.466937255859375,7.815505981445313,1728067660042.0
12.87100000000008,0.6990814208984375,7.58507080078125,6.320443725585938,1728067660052.0
12.881000000000071,1.0623046875000002,7.060946655273438,5.765066528320313,1728067660062.0
12.891000000000062,0.3096893310546875,6.881652832031251,5.678335571289063,1728067660072.0
12.901000000000051,-0.169573974609375,6.835147094726563,8.486325073242188,1728067660082.0
12.911000000000044,-0.14833984375,7.339233398437501,7.808328247070313,1728067660092.0
12.921000000000037,0.1009368896484375,7.313961791992188,5.6739990234375,1728067660102.0
12.931000000000026,-0.06519775390625,7.127340698242188,4.559207153320313,1728067660112.0
12.941000000000017,-0.3512603759765625,7.132125854492188,6.4752136230468755,1728067660122.0
12.95099999999998,-0.2009765625,7.505068969726563,8.34949951171875,1728067660132.0
12.961,0.27933349609375,7.034179687500001,7.023712158203126,1728067660142.0
12.97099999999999,0.61549072265625,6.564486694335938,5.614633178710938,1728067660152.0
12.98099999999998,0.4496551513671875,7.204052734375001,6.196029663085938,1728067660162.0
12.991999999999948,0.30684814453125,7.458712768554688,7.755392456054688,1728067660173.0
13.001999999999969,0.0777587890625,7.3787109375,6.68785400390625,1728067660183.0
13.01199999999993,0.1825836181640625,7.168762207031251,5.1607910156250005,1728067660193.0
13.02199999999992,0.158209228515625,7.206893920898438,5.539715576171876,1728067660203.0
13.031999999999911,-0.131591796875,7.277175903320313,7.446600341796875,1728067660213.0
13.041999999999902,-0.280828857421875,7.072161865234375,8.113082885742188,1728067660223.0
13.051999999999891,-0.2172760009765625,6.7413879394531255,6.495849609375001,1728067660233.0
13.061999999999884,0.2356689453125,6.904531860351563,5.661587524414063,1728067660243.0
13.071999999999877,0.3395965576171875,7.422076416015625,6.2389465332031255,1728067660253.0
13.082000000000091,0.304156494140625,6.9253173828125005,7.232763671875,1728067660263.0
13.092000000000084,0.341839599609375,7.614080810546875,6.992010498046875,1728067660273.0
13.102000000000077,0.5585174560546875,7.45946044921875,5.82652587890625,1728067660283.0
13.112000000000066,0.5299560546875001,7.604510498046875,5.22598876953125,1728067660293.0
13.122000000000057,0.04007568359375,7.047189331054688,6.9462524414062505,1728067660303.0
13.13200000000002,-0.52158203125,6.5873657226562505,7.124050903320313,1728067660313.0
13.14200000000004,-0.7158294677734376,6.6681152343750005,8.104708862304689,1728067660323.0
13.15200000000003,0.0928619384765625,7.022366333007813,6.379360961914063,1728067660333.0
13.16200000000002,0.451300048828125,7.841226196289063,6.301303100585938,1728067660343.0
13.172999999999988,-0.0162994384765625,7.36375732421875,6.121560668945313,1728067660354.0
13.18299999999998,-0.332568359375,6.760678100585938,6.1078033447265625,1728067660364.0
13.19299999999997,-0.0004486083984375,7.414001464843751,7.026254272460938,1728067660374.0
13.20299999999996,1.012060546875,7.483685302734376,5.947052001953125,1728067660384.0
13.212999999999951,0.9884338378906252,7.107452392578126,6.761575317382813,1728067660394.0
13.222999999999942,-0.0207855224609375,6.736453247070313,6.454428100585938,1728067660404.0
13.232999999999931,-0.3141754150390625,6.878063964843751,7.931097412109375,1728067660414.0
13.242999999999924,-0.0695343017578125,7.403384399414063,6.985430908203125,1728067660424.0
13.252999999999917,-0.0562255859375,7.451235961914063,5.416348266601563,1728067660434.0
13.262999999999906,-0.3180633544921875,7.246520996093751,5.367001342773438,1728067660444.0
13.272999999999897,-0.231781005859375,7.0419555664062505,6.494354248046876,1728067660454.0
13.28299999999986,0.2160797119140625,7.480545043945313,7.975808715820313,1728067660464.0
13.292999999999878,0.75784912109375,6.883746337890625,6.6310302734375,1728067660474.0
13.303000000000097,0.567938232421875,6.637759399414063,6.222348022460938,1728067660484.0
13.314000000000064,0.2238555908203125,6.98154296875,6.824380493164063,1728067660495.0
13.32300000000008,0.1063201904296875,7.608847045898438,7.486825561523438,1728067660504.0
13.334000000000046,-0.081048583984375,7.443759155273438,6.069223022460938,1728067660515.0
13.344000000000037,-0.0665435791015625,7.242932128906251,4.757342529296875,1728067660525.0
13.354000000000028,-0.135479736328125,7.227230834960938,6.167617797851563,1728067660535.0
13.364000000000049,-0.043963623046875,7.207043457031251,7.646679687500001,1728067660545.0
13.376999999999969,0.1236663818359375,7.093395996093751,7.964144897460938,1728067660558.0
13.384,0.387896728515625,6.642095947265625,6.0595031738281255,1728067660565.0
13.393999999999991,0.3584381103515625,7.004272460937501,6.057708740234375,1728067660575.0
13.403999999999982,0.2284912109375,7.241436767578126,6.6621337890625005,1728067660585.0
13.413999999999971,0.0563751220703125,7.0916015625,7.194183349609376,1728067660595.0
13.423999999999964,0.031402587890625,7.424618530273438,6.320144653320313,1728067660605.0
13.433999999999957,0.365765380859375,7.694680786132813,5.5709686279296875,1728067660615.0
13.443999999999946,0.19320068359375,7.760626220703125,5.65665283203125,1728067660625.0
13.453999999999937,0.0701324462890625,7.189846801757813,6.863259887695313,1728067660635.0
13.4639999999999,-0.1936492919921875,6.245077514648438,7.354037475585938,1728067660645.0
13.475999999999871,-0.32718505859375,6.461306762695313,7.688101196289063,1728067660657.0
13.48399999999991,0.1347320556640625,6.9447570800781255,7.38828125,1728067660665.0
13.4939999999999,0.606817626953125,7.763916015625001,6.0472412109375,1728067660675.0
13.505000000000097,0.20037841796875,7.852590942382813,5.921182250976563,1728067660686.0
13.513999999999882,-0.3437835693359375,6.839334106445313,5.420834350585938,1728067660695.0
13.525000000000077,-0.438739013671875,7.2028564453125,7.000384521484375,1728067660706.0
13.535000000000068,0.2397064208984375,7.516583251953126,6.823333740234376,1728067660716.0
13.545000000000089,1.050640869140625,7.307232666015626,6.350350952148438,1728067660726.0
13.55500000000005,0.6129486083984376,6.690097045898438,6.363958740234375,1728067660736.0
13.56500000000004,-0.0705810546875,6.725985717773438,7.185958862304688,1728067660746.0
13.576999999999984,-0.112152099609375,7.226483154296876,8.196374511718751,1728067660758.0
13.585000000000022,-0.0037384033203125,7.421627807617188,5.983987426757813,1728067660766.0
13.595000000000011,-0.10108642578125,7.376019287109376,4.996899414062501,1728067660776.0
13.605000000000004,-0.3052032470703125,7.18192138671875,5.621063232421875,1728067660786.0
13.614999999999997,-0.3572418212890625,7.299008178710938,7.672998046875,1728067660796.0
