time,ax,ay,az,timestamp
0.0,-0.08553466796875,7.058255004882813,6.993804931640626,1728062925744.0
0.0099999999999909,-0.084039306640625,7.177435302734375,6.7865478515625,1728062925754.0
0.019999999999996,0.1614990234375,7.140200805664063,6.304144287109375,1728062925764.0
0.0299999999999727,0.265277099609375,7.378860473632813,6.0734100341796875,1728062925774.0
0.039999999999992,0.5345916748046875,7.577444458007813,5.893218994140625,1728062925784.0
0.0499999999999971,0.9024505615234376,7.782907104492188,5.87437744140625,1728062925794.0
0.0599999999999738,1.0702301025390626,7.668063354492188,5.263372802734375,1728062925804.0
0.0699999999999931,0.8984130859375,7.3404296875,5.838040161132813,1728062925814.0
0.0799999999999983,0.5012451171875001,7.348205566406251,6.8640075683593755,1728062925824.0
0.0909999999999797,0.40374755859375,6.781463623046876,7.35777587890625,1728062925835.0
0.100999999999999,-0.13697509765625,6.565383911132813,7.574154663085938,1728062925845.0
0.11099999999999,-0.5692840576171876,6.618170166015625,6.820193481445313,1728062925855.0
0.1209999999999951,-0.6703704833984375,7.179977416992188,7.354336547851563,1728062925865.0
0.1310000000000002,-0.4696929931640625,7.467385864257813,6.491213989257813,1728062925875.0
0.1409999999999911,-0.6631927490234375,7.526901245117188,5.786151123046875,1728062925885.0
0.1509999999999962,-0.6685760498046875,7.1376586914062505,6.253451538085938,1728062925895.0
0.1609999999999729,-0.2109954833984375,6.872531127929688,6.439773559570313,1728062925905.0
0.1709999999999922,0.1721160888671875,7.390673828125,7.711578369140626,1728062925915.0
0.1809999999999973,0.7988220214843751,6.845465087890625,6.53592529296875,1728062925925.0
0.190999999999974,0.9829010009765624,7.1735473632812505,6.574655151367188,1728062925935.0
0.2009999999999934,1.0277618408203126,7.049133300781251,6.457717895507813,1728062925945.0
0.2109999999999985,0.7146331787109376,7.305139160156251,6.3092285156250005,1728062925955.0
0.2209999999999752,0.398065185546875,7.409664916992188,6.808529663085938,1728062925965.0
0.2309999999999945,-0.0779083251953125,7.315008544921875,5.7544494628906255,1728062925975.0
0.2419999999999902,-0.5326477050781251,7.260128784179688,6.530392456054688,1728062925986.0
0.2519999999999953,-0.7926910400390625,6.939523315429688,6.611889648437501,1728062925996.0
0.261999999999972,-0.7499237060546875,7.035675048828126,7.611389160156251,1728062926006.0
0.2719999999999913,-0.0653472900390625,6.9061767578125,7.213623046875001,1728062926016.0
0.2819999999999965,0.46715087890625,6.9516357421875,6.428558349609376,1728062926026.0
0.2919999999999731,0.8590850830078126,7.292578125,6.210235595703126,1728062926036.0
0.3019999999999925,0.8499633789062501,7.434936523437501,6.164028930664063,1728062926046.0
0.3119999999999976,0.5447601318359375,7.603463745117188,6.159991455078125,1728062926056.0
0.3219999999999743,0.3967193603515625,7.464395141601563,5.878713989257813,1728062926066.0
0.3319999999999936,0.16568603515625,7.282110595703125,6.1405517578125,1728062926076.0
0.3419999999999987,-0.160003662109375,7.184762573242188,6.385641479492188,1728062926086.0
0.3519999999999754,-0.5802001953125,7.063040161132813,7.186108398437501,1728062926096.0
0.3619999999999947,-0.5540313720703125,6.884344482421875,7.124050903320313,1728062926106.0
0.3719999999999999,-0.5740692138671876,6.982888793945313,6.572711181640625,1728062926116.0
0.3819999999999766,-0.234173583984375,6.644937133789063,6.878811645507813,1728062926126.0
0.3919999999999959,0.0849365234375,6.791482543945313,7.763317871093751,1728062926136.0
0.402000000000001,-0.1173858642578125,7.498040771484376,7.429702758789063,1728062926146.0
0.4119999999999777,0.4897308349609375,7.33983154296875,5.843722534179688,1728062926156.0
0.421999999999997,1.3824615478515625,7.754644775390625,4.699920654296875,1728062926166.0
0.4329999999999927,1.5133056640625,7.553817749023438,5.776730346679688,1728062926177.0
0.4419999999999788,0.71597900390625,7.213473510742188,6.435437011718751,1728062926186.0
0.4529999999999745,0.2438934326171875,7.2447265625,7.389178466796875,1728062926197.0
0.4629999999999938,0.4332061767578125,7.324130249023438,6.5592529296875,1728062926207.0
0.472999999999999,0.01854248046875,7.0377685546875,6.408221435546875,1728062926217.0
0.4829999999999756,-1.0217803955078126,6.250311279296875,7.226632690429688,1728062926227.0
0.492999999999995,-1.7769378662109376,6.901541137695313,7.789337158203126,1728062926237.0
0.5030000000000001,-0.7542602539062501,7.38768310546875,7.351345825195313,1728062926247.0
0.5129999999999768,0.515899658203125,7.552920532226563,5.17813720703125,1728062926257.0
0.5229999999999961,0.6907073974609376,7.2647644042968755,5.396160888671876,1728062926267.0
0.5330000000000013,0.6192291259765625,6.837838745117188,6.882699584960938,1728062926277.0
0.542999999999978,0.8984130859375,7.222595214843751,8.09110107421875,1728062926287.0
0.5529999999999973,1.1595031738281252,7.586117553710938,6.734060668945313,1728062926297.0
0.5629999999999882,1.0075744628906251,7.079190063476563,4.751959228515625,1728062926307.0
0.5729999999999791,-0.018243408203125,7.287643432617188,5.64169921875,1728062926317.0
0.5829999999999984,-0.8372528076171876,7.54918212890625,7.294821166992188,1728062926327.0
0.5939999999999941,-0.6784454345703126,7.241885375976563,7.456021118164063,1728062926338.0
0.6029999999999802,-0.4415802001953125,6.709237670898438,6.334500122070313,1728062926347.0
0.6139999999999759,-0.4629638671875,6.570468139648438,6.193936157226563,1728062926358.0
0.6239999999999952,-0.4140655517578125,7.177285766601563,7.583126831054688,1728062926368.0
0.6340000000000003,0.2770904541015625,7.385140991210938,7.3846923828125,1728062926378.0
0.643999999999977,1.1624938964843752,7.296017456054688,5.941220092773438,1728062926388.0
0.6539999999999964,1.6456451416015627,6.963897705078126,5.4568725585937505,1728062926398.0
0.6640000000000015,1.1880645751953125,7.131527709960938,6.9058776855468755,1728062926408.0
0.6739999999999782,0.4352996826171875,7.4786010742187505,7.478302001953126,1728062926418.0
0.6839999999999975,0.12022705078125,7.760327148437501,5.659942626953125,1728062926428.0
0.6939999999999884,0.0970489501953125,7.264465332031251,4.2356109619140625,1728062926438.0
0.7039999999999793,-0.4137664794921875,7.063937377929688,5.938229370117188,1728062926448.0
0.7139999999999986,-0.9821533203125,7.124798583984376,9.073553466796875,1728062926458.0
0.7239999999999895,-1.0609588623046875,7.325326538085938,8.699114990234376,1728062926468.0
0.7339999999999947,-0.8261871337890626,6.682919311523438,6.336444091796875,1728062926478.0
0.7439999999999998,-0.5217315673828126,6.202609252929688,4.339089965820313,1728062926488.0
0.7539999999999907,0.06519775390625,7.171902465820313,7.269400024414063,1728062926498.0
0.7639999999999958,0.98992919921875,8.085717773437501,8.094091796875,1728062926508.0
0.7739999999999725,1.9056884765625,7.332952880859375,6.199169921875001,1728062926518.0
0.7849999999999966,1.8714447021484375,6.991561889648438,4.832409667968751,1728062926529.0
0.7939999999999969,0.6352294921875,6.66990966796875,6.595889282226563,1728062926538.0
0.8049999999999784,-0.4391876220703125,7.498638916015626,8.526998901367188,1728062926549.0
0.8149999999999977,-0.681585693359375,7.573556518554688,6.910812377929688,1728062926559.0
0.8249999999999886,-0.5790039062500001,7.364056396484376,3.869995117187501,1728062926569.0
0.8349999999999795,-0.6424072265625,7.171154785156251,5.197726440429688,1728062926579.0
0.8449999999999989,-0.8874969482421876,6.989767456054688,8.371182250976563,1728062926589.0
0.8549999999999898,-0.6021820068359376,6.967636108398438,9.306082153320313,1728062926599.0
0.8649999999999949,0.4580291748046875,6.5918518066406255,6.635815429687501,1728062926609.0
0.875,1.206756591796875,7.027151489257813,4.592703247070313,1728062926619.0
0.8849999999999909,1.0594635009765625,7.578491210937501,6.293527221679688,1728062926629.0
0.894999999999996,0.47373046875,7.609445190429688,7.306634521484376,1728062926639.0
0.9049999999999728,0.3222503662109375,7.302896118164063,6.887484741210938,1728062926649.0
0.914999999999992,0.46715087890625,7.187753295898438,4.941571044921876,1728062926659.0
0.9249999999999972,0.260491943359375,7.22618408203125,5.6711578369140625,1728062926669.0
0.934999999999974,-0.23507080078125,7.312466430664063,7.398599243164063,1728062926679.0
0.9449999999999932,-0.5323486328125,7.071713256835938,7.734307861328125,1728062926689.0
0.9549999999999984,-0.279931640625,6.740640258789063,6.7548461914062505,1728062926699.0
0.964999999999975,-0.1401153564453125,6.8370910644531255,6.031240844726563,1728062926709.0
0.9749999999999944,-0.27215576171875,7.19627685546875,7.020272827148438,1728062926719.0
0.98599999999999,-0.1134979248046875,7.322186279296876,7.290335083007813,1728062926730.0
0.9959999999999952,0.3530548095703125,7.201510620117188,6.2793212890625005,1728062926740.0
1.0060000000000002,0.8577392578125,7.275979614257813,5.36954345703125,1728062926750.0
1.0159999999999911,0.9455169677734376,7.363308715820313,6.280068969726563,1728062926760.0
1.0259999999999962,0.6732116699218751,7.223641967773438,7.254296875,1728062926770.0
1.035999999999973,0.3171661376953125,7.081433105468751,7.1810241699218755,1728062926780.0
1.0459999999999925,0.1795928955078125,7.005169677734376,6.09927978515625,1728062926790.0
1.0559999999999974,-0.048150634765625,7.005917358398438,5.935687255859375,1728062926800.0
1.065999999999974,-0.3497650146484375,7.246221923828125,6.746322631835938,1728062926810.0
1.0789999999999793,-0.5633026123046876,7.249362182617188,7.568023681640626,1728062926823.0
1.0859999999999983,-0.305352783203125,7.170108032226563,6.618170166015625,1728062926830.0
1.0959999999999752,0.0737213134765625,7.615127563476563,6.315060424804688,1728062926840.0
1.1059999999999943,0.0586181640625,6.842324829101563,6.159991455078125,1728062926850.0
1.1159999999999997,-0.018841552734375,6.544448852539063,6.669161987304688,1728062926860.0
1.1269999999999951,0.2735015869140625,7.374822998046875,7.453778076171876,1728062926871.0
1.136999999999972,1.28182373046875,7.702755737304688,5.843273925781251,1728062926881.0
1.1469999999999914,1.5571197509765626,7.672698974609376,5.549285888671875,1728062926891.0
1.1569999999999965,0.3470733642578125,6.933990478515626,6.161785888671876,1728062926901.0
1.1669999999999732,-0.7840179443359375,6.701461791992188,7.803244018554688,1728062926911.0
1.1789999999999736,-0.8230468750000001,7.117172241210938,7.857376098632813,1728062926923.0
1.1869999999999976,-0.3354095458984375,7.290335083007813,5.888583374023438,1728062926931.0
1.1969999999999743,-0.3925323486328125,7.149771118164063,5.4857330322265625,1728062926941.0
1.2069999999999936,-0.576611328125,7.082180786132813,6.640151977539063,1728062926951.0
1.2169999999999987,-0.090020751953125,7.247567749023438,7.9947998046875,1728062926961.0
1.2269999999999754,0.813177490234375,7.212277221679688,6.8236328125000005,1728062926971.0
1.2369999999999948,1.274346923828125,7.043151855468751,5.3701416015625005,1728062926981.0
1.247,0.97677001953125,7.186257934570313,5.918041992187501,1728062926991.0
1.2569999999999766,0.6243133544921875,7.401290893554688,7.213323974609375,1728062927001.0
1.266999999999996,0.21473388671875,7.390225219726563,7.41160888671875,1728062927011.0
1.2789999999999964,-0.2714080810546875,7.002627563476563,5.834451293945313,1728062927023.0
1.2869999999999775,-0.7074554443359375,6.880307006835938,5.8939666748046875,1728062927031.0
1.296999999999997,-0.8258880615234375,7.298260498046876,7.003375244140625,1728062927041.0
1.3079999999999927,-0.4338043212890625,7.437329101562501,7.559051513671876,1728062927052.0
1.3169999999999789,0.09510498046875,7.02281494140625,6.281564331054688,1728062927061.0
1.3279999999999743,0.5688354492187501,6.756042480468751,5.800057983398438,1728062927072.0
1.337999999999994,0.778485107421875,7.176837158203125,7.046292114257813,1728062927082.0
1.347999999999999,0.8717956542968751,7.338037109375,7.460955810546875,1728062927092.0
1.3579999999999757,0.7221099853515626,7.4038330078125005,6.415548706054688,1728062927102.0
1.367999999999995,0.4502532958984375,7.209136962890626,5.045797729492188,1728062927112.0
1.378999999999991,0.063104248046875,7.256689453125,6.082531738281251,1728062927123.0
1.3879999999999768,-0.5178436279296875,7.291680908203125,7.413851928710938,1728062927132.0
1.397999999999996,-0.6747070312500001,7.042553710937501,7.36375732421875,1728062927142.0
1.4080000000000013,-0.4053924560546875,6.852642822265626,6.393118286132813,1728062927152.0
1.417999999999978,0.0554779052734375,6.93369140625,5.9104156494140625,1728062927162.0
1.4279999999999973,0.35469970703125,7.041357421875,7.220950317382813,1728062927172.0
1.4379999999999882,0.3739898681640625,7.491012573242188,7.343569946289063,1728062927182.0
1.447999999999979,0.6859222412109376,7.231268310546875,6.261676025390625,1728062927192.0
1.4579999999999984,0.8266357421875,7.761224365234376,4.999142456054688,1728062927202.0
1.467999999999989,0.6226684570312501,7.315457153320313,6.099728393554688,1728062927212.0
1.4789999999999992,-0.15372314453125,6.730770874023438,7.001281738281251,1728062927223.0
1.488999999999976,-0.7645782470703125,6.740341186523438,8.232263183593751,1728062927233.0
1.4979999999999905,-0.2624359130859375,6.930252075195313,6.820343017578126,1728062927242.0
1.5090000000000003,0.221014404296875,7.527349853515625,6.001782226562501,1728062927253.0
1.518999999999977,-0.03768310546875,7.359121704101563,6.162384033203126,1728062927263.0
1.5289999999999964,-0.4921234130859375,6.895111083984376,6.631927490234376,1728062927273.0
1.5390000000000017,-0.11424560546875,7.257138061523438,7.247418212890626,1728062927283.0
1.5489999999999782,0.9024505615234376,7.52286376953125,5.933743286132813,1728062927293.0
1.5589999999999975,1.2282897949218752,7.424768066406251,5.67998046875,1728062927303.0
1.5689999999999884,0.5987426757812501,6.961953735351563,6.284555053710938,1728062927313.0
1.5799999999999983,0.0124114990234375,6.8236328125000005,7.9436584472656255,1728062927324.0
1.5889999999999986,-0.0542816162109375,7.102368164062501,7.618267822265626,1728062927333.0
1.5989999999999895,-0.1380218505859375,7.325177001953126,5.9623046875000005,1728062927343.0
1.6089999999999949,-0.3572418212890625,7.2258850097656255,5.214175415039063,1728062927353.0
1.6189999999999998,-0.5214324951171876,7.326672363281251,6.245974731445313,1728062927363.0
1.628999999999991,-0.229986572265625,7.416693115234375,7.61796875,1728062927373.0
1.6389999999999958,0.3150726318359375,7.005169677734376,6.897055053710938,1728062927383.0
1.6489999999999725,0.599041748046875,6.801950073242188,6.224441528320313,1728062927393.0
1.6599999999999966,0.6670806884765625,6.92711181640625,6.533682250976563,1728062927404.0
1.668999999999997,0.5072265625000001,7.3933654785156255,7.2258850097656255,1728062927413.0
1.6799999999999784,0.434552001953125,7.373477172851563,6.725836181640625,1728062927424.0
1.6899999999999975,0.121722412109375,7.294970703125,5.548837280273438,1728062927434.0
1.6999999999999886,-0.1158905029296875,7.172500610351563,5.677737426757813,1728062927444.0
1.7099999999999795,-0.277838134765625,7.387832641601563,7.012197875976563,1728062927454.0
1.7199999999999989,-0.23746337890625,7.154257202148438,7.419982910156251,1728062927464.0
1.7299999999999898,-0.0022430419921875,6.833502197265625,6.671853637695313,1728062927474.0
1.7399999999999949,0.1212738037109375,6.862362670898438,6.274237060546875,1728062927484.0
1.75,0.3449798583984375,7.137060546875,6.906924438476563,1728062927494.0
1.759999999999991,0.2319305419921875,7.382150268554688,7.2363525390625005,1728062927504.0
1.769999999999996,0.2507720947265625,7.2886901855468755,6.08372802734375,1728062927514.0
1.7799999999999727,0.3276336669921875,7.097882080078126,5.504574584960938,1728062927524.0
1.789999999999992,0.503936767578125,7.270596313476563,5.934042358398438,1728062927534.0
1.7999999999999972,0.33077392578125,7.550527954101563,7.448394775390626,1728062927544.0
1.809999999999974,0.2555572509765625,7.068722534179688,6.794174194335938,1728062927554.0
1.8199999999999932,0.1344329833984375,7.578341674804688,6.601870727539063,1728062927564.0
1.8299999999999983,-0.2256500244140625,6.670956420898438,6.350949096679688,1728062927574.0
1.839999999999975,-0.5389282226562501,6.541159057617188,6.738845825195313,1728062927584.0
1.850999999999999,-0.7363159179687501,7.355532836914063,7.780215454101563,1728062927595.0
1.86099999999999,0.332867431640625,7.300204467773438,5.882153320312501,1728062927605.0
1.8709999999999951,0.929815673828125,7.7402893066406255,5.910565185546876,1728062927615.0
1.881,0.5624053955078125,7.0957885742187505,5.927163696289063,1728062927625.0
1.8909999999999911,-0.06400146484375,6.781912231445313,7.530789184570313,1728062927635.0
1.900999999999996,0.0614593505859375,7.098330688476563,7.61258544921875,1728062927645.0
1.910999999999973,0.578704833984375,7.384094238281251,6.066680908203125,1728062927655.0
1.9209999999999925,0.344232177734375,7.352243041992188,5.47960205078125,1728062927665.0
1.9309999999999976,-0.2968292236328125,6.979449462890625,6.3660522460937505,1728062927675.0
1.940999999999974,-0.6389678955078125,7.236502075195313,7.726382446289063,1728062927685.0
1.9509999999999936,-0.06759033203125,7.123452758789063,7.028945922851563,1728062927695.0
1.9609999999999983,0.3186614990234375,7.069470214843751,5.9193878173828125,1728062927705.0
1.9709999999999752,0.20576171875,7.123452758789063,5.836395263671875,1728062927715.0
1.9809999999999943,0.254510498046875,7.216015625000001,7.229922485351563,1728062927725.0
1.9909999999999997,0.299072265625,7.293475341796875,7.3846923828125,1728062927735.0
2.0009999999999764,0.4000091552734375,7.0389648437500005,6.318649291992188,1728062927745.0
2.0109999999999957,0.1710693359375,7.047189331054688,5.802151489257813,1728062927755.0
2.021000000000001,0.0901702880859375,7.289886474609376,6.3510986328125005,1728062927765.0
2.0319999999999965,0.166583251953125,7.661334228515625,7.040310668945313,1728062927776.0
2.041999999999973,0.2914459228515625,7.192687988281251,6.252853393554688,1728062927786.0
2.0519999999999925,0.156414794921875,6.874774169921875,6.054867553710938,1728062927796.0
2.0619999999999976,-0.0025421142578125,6.9507385253906255,6.833352661132813,1728062927806.0
2.0719999999999743,0.0991424560546875,7.196725463867188,7.761972045898438,1728062927816.0
2.0819999999999936,-0.0019439697265625,7.238296508789063,6.815856933593751,1728062927826.0
2.0919999999999987,0.051141357421875,6.987225341796876,5.5902587890625,1728062927836.0
2.101999999999975,0.0022430419921875,7.184463500976563,6.167916870117188,1728062927846.0
2.1119999999999948,0.050543212890625,7.438973999023438,6.952832031250001,1728062927856.0
2.122,0.1891632080078125,7.42117919921875,7.170257568359376,1728062927866.0
2.1319999999999766,0.3781768798828125,7.006964111328125,5.734112548828126,1728062927876.0
2.141999999999996,0.446514892578125,6.884344482421875,5.985333251953126,1728062927886.0
2.152000000000001,0.3720458984375,6.888232421875,7.103863525390626,1728062927896.0
2.1619999999999777,0.36187744140625,7.543499755859376,7.882498168945313,1728062927906.0
2.171999999999997,0.140264892578125,7.356280517578125,6.469082641601563,1728062927916.0
2.182000000000002,-0.0240753173828125,7.510751342773438,4.719509887695313,1728062927926.0
2.191999999999979,-0.23865966796875,7.037020874023438,6.454428100585938,1728062927936.0
2.2029999999999745,-0.4969085693359375,6.970477294921875,7.04075927734375,1728062927947.0
2.212999999999994,-0.5401245117187501,6.787445068359376,8.612832641601564,1728062927957.0
2.222999999999999,0.198883056640625,6.961505126953125,5.864657592773438,1728062927967.0
2.2329999999999757,1.027313232421875,7.559201049804688,6.051876831054688,1728062927977.0
2.242999999999995,0.7288391113281251,7.48697509765625,6.3017517089843755,1728062927987.0
2.253,-0.0151031494140625,6.741836547851563,7.069619750976563,1728062927997.0
2.262999999999977,-0.32060546875,7.301849365234376,7.105957031250001,1728062928007.0
2.272999999999996,0.5471527099609376,7.516433715820313,5.384646606445313,1728062928017.0
2.2830000000000013,0.7991210937500001,7.666567993164063,5.843572998046875,1728062928027.0
2.292999999999978,-0.067889404296875,6.952832031250001,6.137112426757813,1728062928037.0
2.3029999999999973,-0.6003875732421875,6.5329345703125,8.303591918945314,1728062928047.0
2.312999999999988,-0.2758941650390625,6.970028686523438,7.834197998046876,1728062928057.0
2.322999999999979,0.343634033203125,7.339682006835938,6.246871948242188,1728062928067.0
2.3329999999999984,0.152825927734375,7.294522094726563,5.146136474609375,1728062928077.0
2.3429999999999893,-0.131591796875,7.17833251953125,5.950491333007813,1728062928087.0
2.353999999999999,0.092413330078125,7.46005859375,7.633071899414063,1728062928098.0
2.3629999999999995,0.5336944580078126,7.344766235351563,6.72135009765625,1728062928107.0
2.3739999999999952,0.6667816162109376,6.895858764648438,6.025857543945313,1728062928118.0
2.3829999999999956,0.2854644775390625,6.923672485351563,5.9578186035156255,1728062928127.0
2.393999999999977,0.2047149658203125,7.268502807617188,7.557855224609376,1728062928138.0
2.4039999999999964,0.1081146240234375,7.435833740234376,7.294073486328125,1728062928148.0
2.4140000000000015,-0.035589599609375,7.076947021484376,5.7384490966796875,1728062928158.0
2.423999999999978,-0.28052978515625,6.898849487304688,5.825927734375,1728062928168.0
2.4339999999999975,-0.324493408203125,7.273138427734375,6.892120361328126,1728062928178.0
2.4439999999999884,-0.050543212890625,7.417440795898438,7.746270751953125,1728062928188.0
2.4539999999999793,0.2178741455078125,7.042703247070313,6.189300537109376,1728062928198.0
2.463999999999998,0.4418792724609375,6.878213500976563,5.77508544921875,1728062928208.0
2.4739999999999895,0.4127197265625,7.195379638671875,6.7025085449218755,1728062928218.0
2.4839999999999947,0.41571044921875,7.398748779296875,7.516134643554688,1728062928228.0
2.494,0.2681182861328125,7.215716552734375,6.721649169921876,1728062928238.0
2.5039999999999907,0.185723876953125,7.067974853515626,5.003927612304688,1728062928248.0
2.513999999999996,0.24703369140625,6.980496215820313,6.190197753906251,1728062928258.0
2.5239999999999725,0.0734222412109375,7.465890502929688,7.3126159667968755,1728062928268.0
2.533999999999992,-0.022430419921875,7.204800415039063,7.652810668945313,1728062928278.0
2.543999999999997,-0.0856842041015625,7.424618530273438,5.8805084228515625,1728062928288.0
2.5549999999999784,0.0414215087890625,7.088162231445313,6.09927978515625,1728062928299.0
2.563999999999993,-0.160302734375,6.78714599609375,6.484335327148438,1728062928308.0
2.5749999999999886,-0.5124603271484376,7.050180053710938,7.701858520507813,1728062928319.0
2.5849999999999795,0.19080810546875,7.010253906250001,6.760528564453126,1728062928329.0
2.594999999999999,1.12869873046875,7.674942016601563,5.468087768554688,1728062928339.0
2.6049999999999898,1.033145141601563,7.468881225585938,6.385791015625,1728062928349.0
2.614999999999995,-0.0826934814453125,6.71177978515625,6.737799072265625,1728062928359.0
2.625,-0.572723388671875,6.967935180664063,7.833450317382813,1728062928369.0
2.634999999999991,-0.0275146484375,7.374374389648438,6.267208862304688,1728062928379.0
2.644999999999996,0.4391876220703125,7.465292358398438,5.430554199218751,1728062928389.0
2.6549999999999727,-0.1691253662109375,7.16636962890625,6.11363525390625,1728062928399.0
2.664999999999992,-0.6347808837890625,6.772341918945313,7.581781005859376,1728062928409.0
2.674999999999997,-0.0811981201171875,7.0509277343750005,8.050576782226564,1728062928419.0
2.684999999999974,0.6090606689453125,7.374374389648438,6.078793334960938,1728062928429.0
2.694999999999993,0.7835693359375001,7.248614501953125,5.187408447265625,1728062928439.0
2.7049999999999983,0.3446807861328125,7.162332153320313,6.095989990234376,1728062928449.0
2.71599999999998,0.1592559814453125,7.314410400390625,7.649969482421875,1728062928460.0
2.7249999999999943,0.233575439453125,7.310671997070313,7.208389282226563,1728062928469.0
2.73599999999999,0.1825836181640625,6.921878051757813,5.6831207275390625,1728062928480.0
2.745999999999995,-0.1003387451171875,7.026553344726563,5.82293701171875,1728062928490.0
2.756,-0.219219970703125,7.400543212890626,7.134518432617188,1728062928500.0
2.765999999999991,-0.0061309814453125,7.293923950195313,7.523312377929688,1728062928510.0
2.775999999999996,0.078057861328125,7.021618652343751,6.151766967773438,1728062928520.0
2.7890000000000015,0.2280426025390625,6.905429077148438,5.745626831054688,1728062928533.0
2.7959999999999923,0.2660247802734375,7.264913940429688,6.894662475585938,1728062928540.0
2.8059999999999974,0.310137939453125,7.404132080078125,7.4564697265625,1728062928550.0
2.815999999999974,0.28651123046875,7.1197143554687505,6.510055541992188,1728062928560.0
2.8259999999999934,0.142657470703125,6.966888427734376,5.577548217773438,1728062928570.0
2.8359999999999985,0.1686767578125,7.260427856445313,6.465493774414063,1728062928580.0
2.845999999999975,0.01375732421875,7.476058959960938,7.268203735351563,1728062928590.0
2.8559999999999945,-0.033197021484375,7.156948852539063,6.694284057617188,1728062928600.0
2.8659999999999997,-0.02392578125,6.762921142578126,5.854937744140625,1728062928610.0
2.8759999999999764,0.2803802490234375,6.755444335937501,6.473419189453126,1728062928620.0
2.888999999999996,0.305950927734375,7.795169067382813,7.801300048828126,1728062928633.0
2.896000000000001,0.2717071533203125,7.403384399414063,6.57779541015625,1728062928640.0
2.9069999999999965,0.2528656005859375,7.395458984375001,5.271148681640625,1728062928651.0
2.916999999999973,0.1248626708984375,6.866699218750001,5.90428466796875,1728062928661.0
2.9269999999999925,-0.1006378173828125,6.9507385253906255,7.136013793945313,1728062928671.0
2.9369999999999976,-0.40135498046875,7.070816040039063,8.584121704101562,1728062928681.0
2.9469999999999743,0.207257080078125,6.908569335937501,6.0714660644531255,1728062928691.0
2.9569999999999936,0.55029296875,7.511199951171876,5.8337036132812505,1728062928701.0
2.9669999999999987,0.246435546875,7.335345458984375,6.114532470703125,1728062928711.0
2.976999999999975,-0.268267822265625,7.009805297851563,7.314859008789063,1728062928721.0
2.9879999999999995,-0.3231475830078125,7.302447509765625,6.985879516601563,1728062928732.0
2.997,0.56644287109375,7.311569213867188,5.450741577148438,1728062928741.0
3.0069999999999766,0.8517578125,7.423123168945313,5.8857421875,1728062928751.0
3.016999999999996,0.294586181640625,7.029693603515626,6.737649536132813,1728062928761.0
3.027000000000001,-0.2606414794921875,6.756491088867188,8.266506958007813,1728062928771.0
3.0369999999999777,-0.0850860595703125,7.002178955078126,7.104611206054688,1728062928781.0
3.046999999999997,0.270062255859375,7.37392578125,5.8042449951171875,1728062928791.0
3.057000000000002,0.0441131591796875,7.47142333984375,5.250811767578125,1728062928801.0
3.066999999999979,-0.21533203125,7.236651611328125,6.476409912109376,1728062928811.0
3.0779999999999745,-0.131591796875,7.320840454101563,7.487872314453125,1728062928822.0
3.088999999999998,0.4107757568359375,7.003973388671875,6.756640625,1728062928833.0
3.097999999999999,0.5311523437500001,6.924569702148438,6.3765197753906255,1728062928842.0
3.1079999999999757,0.298773193359375,6.986029052734375,6.3540893554687505,1728062928852.0
3.117999999999995,0.2074066162109375,7.1959777832031255,7.374673461914063,1728062928862.0
3.128,0.1709197998046875,7.425964355468751,6.712078857421876,1728062928872.0
3.137999999999977,0.093011474609375,7.233361816406251,5.800357055664063,1728062928882.0
3.147999999999996,-0.136376953125,7.115078735351563,5.761627197265625,1728062928892.0
3.1580000000000013,-0.1655364990234375,7.276278686523438,7.008908081054688,1728062928902.0
3.1729999999999734,-0.009271240234375,7.263867187500001,7.45048828125,1728062928917.0
3.1779999999999973,0.2531646728515625,6.986328125000001,6.3825012207031255,1728062928922.0
3.188999999999993,0.314324951171875,6.891671752929688,6.208740234375001,1728062928933.0
3.197999999999979,0.301165771484375,7.212277221679688,6.570767211914063,1728062928942.0
3.2079999999999984,0.2462860107421875,7.428805541992188,7.378561401367188,1728062928952.0
3.2179999999999893,0.1661346435546875,7.041506958007813,6.166571044921875,1728062928962.0
3.22799999999998,0.2139862060546875,6.878363037109375,5.730224609375,1728062928972.0
3.2379999999999995,0.2501739501953125,7.60301513671875,6.47252197265625,1728062928982.0
3.2489999999999952,0.3608306884765625,7.443460083007813,7.127490234375,1728062928993.0
3.2579999999999956,0.0992919921875,7.632772827148438,6.641796875000001,1728062929002.0
3.268999999999977,-0.1769012451171875,6.755892944335938,6.276779174804688,1728062929013.0
3.2789999999999964,-0.353204345703125,6.384594726562501,6.265414428710938,1728062929023.0
3.2890000000000015,-0.309539794921875,7.195379638671875,7.841674804687501,1728062929033.0
3.298999999999978,0.3348114013671875,7.4681335449218755,6.914700317382813,1728062929043.0
3.3089999999999975,0.750372314453125,7.499984741210938,5.579193115234375,1728062929053.0
3.3189999999999884,0.4864410400390625,7.174145507812501,5.87198486328125,1728062929063.0
3.3289999999999793,-0.1152923583984375,6.913653564453125,6.851895141601563,1728062929073.0
3.338999999999998,-0.190509033203125,7.234109497070313,7.85782470703125,1728062929083.0
3.3489999999999895,0.219219970703125,7.3224853515625,6.29068603515625,1728062929093.0
3.3589999999999947,0.39417724609375,7.115975952148438,5.519229125976563,1728062929103.0
3.369,-0.0634033203125,7.0419555664062505,6.466091918945313,1728062929113.0
3.3789999999999907,-0.3760833740234375,7.1286865234375005,7.757485961914063,1728062929123.0
3.388999999999996,-0.043365478515625,7.210632324218751,7.30753173828125,1728062929133.0
3.3989999999999725,0.41212158203125,7.247268676757813,5.514892578125,1728062929143.0
3.408999999999992,0.454888916015625,7.2148193359375,5.5424072265625,1728062929153.0
3.4200000000000017,0.20755615234375,7.247119140625,6.7593322753906255,1728062929164.0
3.4289999999999736,0.134881591796875,7.159341430664063,7.851394653320313,1728062929173.0
3.438999999999993,0.2452392578125,7.090554809570313,6.716415405273438,1728062929183.0
3.4499999999999886,0.195892333984375,6.949990844726563,5.725738525390625,1728062929194.0
3.4599999999999795,0.03409423828125,7.157546997070313,6.255545043945313,1728062929204.0
3.469999999999999,-0.1045257568359375,7.437329101562501,7.203604125976563,1728062929214.0
3.4799999999999898,0.0656463623046875,7.383197021484375,6.795819091796876,1728062929224.0
3.489999999999995,0.2462860107421875,7.062741088867188,5.713775634765625,1728062929234.0
3.5,0.3234466552734375,7.006216430664063,6.1063079833984375,1728062929244.0
3.509999999999991,0.173162841796875,7.1959777832031255,7.460357666015626,1728062929254.0
3.519999999999996,0.0524871826171875,7.0808349609375005,7.523013305664063,1728062929264.0
3.5299999999999727,0.1638916015625,7.048684692382813,6.2553955078125005,1728062929274.0
3.539999999999992,0.220416259765625,7.232763671875,5.619418334960938,1728062929284.0
3.549999999999997,0.178546142578125,7.4636474609375005,6.381304931640625,1728062929294.0
3.559999999999974,-0.1117034912109375,7.3096252441406255,7.168612670898438,1728062929304.0
3.569999999999993,-0.0820953369140625,6.891671752929688,6.717163085937501,1728062929314.0
3.580999999999989,0.109759521484375,6.9396728515625,6.242535400390626,1728062929325.0
3.589999999999975,0.52158203125,7.0030761718750005,6.278125,1728062929334.0
3.5999999999999943,0.5132080078125001,7.390972900390626,7.336392211914063,1728062929344.0
3.609999999999999,0.2286407470703125,7.438226318359376,6.710433959960938,1728062929354.0
3.620999999999995,0.1996307373046875,7.526303100585938,5.877218627929688,1728062929365.0
3.631,0.0949554443359375,7.379458618164063,5.8326568603515625,1728062929375.0
3.640999999999991,-0.1299468994140625,6.732864379882813,6.548336791992188,1728062929385.0
3.650999999999996,-0.6228179931640625,6.821987915039063,7.952780151367188,1728062929395.0
3.660999999999973,-0.2603424072265625,6.901541137695313,7.027151489257813,1728062929405.0
3.670999999999992,0.6628936767578125,7.330410766601563,6.397006225585938,1728062929415.0
3.6809999999999974,0.6591552734375,7.577593994140625,5.917294311523438,1728062929425.0
3.690999999999974,-0.0297576904296875,6.93907470703125,6.731369018554688,1728062929435.0
3.7009999999999934,-0.41630859375,7.081881713867188,6.9761596679687505,1728062929445.0
3.7109999999999985,0.3170166015625,7.51329345703125,6.420782470703125,1728062929455.0
3.720999999999975,0.870001220703125,7.703652954101563,5.433245849609375,1728062929465.0
3.7309999999999945,0.5160491943359375,6.999188232421876,5.818301391601563,1728062929475.0
3.741,-0.21234130859375,6.677236938476563,7.791580200195313,1728062929485.0
3.750999999999976,-0.235369873046875,6.9522338867187505,8.069418334960938,1728062929495.0
3.760999999999996,0.182135009765625,7.236801147460938,6.989318847656251,1728062929505.0
3.771000000000001,0.0817962646484375,7.319644165039063,4.787100219726563,1728062929515.0
3.7809999999999775,-0.2292388916015625,7.157846069335938,5.821890258789063,1728062929525.0
3.790999999999997,-0.2585479736328125,7.411010742187501,7.274932861328126,1728062929535.0
3.801999999999993,0.192901611328125,7.358822631835938,7.456918334960938,1728062929546.0
3.8119999999999976,0.51380615234375,6.889279174804688,6.153561401367188,1728062929556.0
3.8219999999999743,0.477618408203125,6.763070678710938,5.695980834960938,1728062929566.0
3.8319999999999936,0.410028076171875,7.318896484375,7.376766967773438,1728062929576.0
3.8419999999999983,0.3437835693359375,7.526751708984375,7.239791870117188,1728062929586.0
3.851999999999975,0.28292236328125,7.150817871093751,6.187655639648438,1728062929596.0
3.861999999999995,-0.050244140625,7.04434814453125,5.223147583007813,1728062929606.0
3.872,-0.1849761962890625,7.222146606445313,6.699069213867188,1728062929616.0
3.8819999999999766,-0.2775390625,7.355532836914063,7.805337524414063,1728062929626.0
3.891999999999996,-0.134283447265625,6.983337402343751,6.7697998046875005,1728062929636.0
3.902000000000001,0.1137969970703125,6.855184936523438,6.031390380859375,1728062929646.0
3.9119999999999777,0.2657257080078125,7.1077514648437505,6.2099365234375,1728062929656.0
3.921999999999997,0.3988128662109375,7.437329101562501,7.432843017578126,1728062929666.0
3.932000000000002,0.2459869384765625,7.314709472656251,6.691592407226563,1728062929676.0
3.941999999999979,0.4373931884765625,6.748565673828126,5.580389404296875,1728062929686.0
3.951999999999998,0.48748779296875,7.246072387695313,6.108700561523438,1728062929696.0
3.962999999999994,0.4287200927734375,7.566378784179688,7.057208251953125,1728062929707.0
3.97199999999998,0.164190673828125,7.533032226562501,7.012496948242188,1728062929716.0
3.982999999999976,-0.1679290771484375,7.358224487304688,6.194683837890626,1728062929727.0
3.992999999999995,-0.27694091796875,6.444708251953125,6.0834289550781255,1728062929737.0
4.003,-0.64420166015625,6.8894287109375005,7.163229370117188,1728062929747.0
4.012999999999977,-0.3552978515625,7.1215087890625,7.941116333007813,1728062929757.0
4.022999999999996,0.4427764892578125,7.438674926757813,6.117373657226563,1728062929767.0
4.033000000000001,0.97078857421875,7.515686035156251,5.499490356445313,1728062929777.0
4.042999999999978,0.5688354492187501,7.021469116210938,6.143841552734376,1728062929787.0
4.052999999999997,-0.112750244140625,6.983038330078125,7.583724975585938,1728062929797.0
4.062999999999988,0.0342437744140625,7.274932861328126,7.315158081054688,1728062929807.0
4.072999999999979,0.5151519775390625,7.389627075195313,5.639456176757813,1728062929817.0
4.082999999999998,0.319708251953125,7.125845336914063,5.6307830810546875,1728062929827.0
4.092999999999989,-0.5728729248046875,6.9327941894531255,7.1077514648437505,1728062929837.0
4.10299999999998,-0.7173248291015626,7.039114379882813,8.051025390625,1728062929847.0
4.1129999999999995,0.0016448974609375,7.252053833007813,6.857427978515625,1728062929857.0
4.1229999999999905,0.5722747802734376,7.437329101562501,5.0221710205078125,1728062929867.0
4.132999999999996,0.5034881591796876,7.096237182617188,5.661587524414063,1728062929877.0
4.142999999999972,0.1471435546875,7.18431396484375,7.354037475585938,1728062929887.0
4.153999999999996,0.4089813232421875,7.220501708984376,7.907620239257813,1728062929898.0
4.1640000000000015,0.5767608642578126,7.119863891601563,6.289041137695313,1728062929908.0
4.173999999999978,0.319110107421875,6.8341003417968755,5.3055419921875,1728062929918.0
4.1839999999999975,-0.2038177490234375,7.26566162109375,6.633422851562501,1728062929928.0
4.193999999999988,-0.316717529296875,7.47501220703125,7.553668212890625,1728062929938.0
4.203999999999979,-0.028411865234375,7.332952880859375,6.6606384277343755,1728062929948.0
4.213999999999999,0.0698333740234375,6.961056518554688,5.346963500976563,1728062929958.0
4.2239999999999895,0.12501220703125,6.937429809570313,6.35887451171875,1728062929968.0
4.233999999999995,0.074468994140625,7.201211547851563,7.939620971679688,1728062929978.0
4.244,0.3192596435546875,7.204052734375001,7.316354370117188,1728062929988.0
4.253999999999991,0.44920654296875,7.119564819335938,5.827273559570313,1728062929998.0
4.263999999999996,0.4684967041015625,7.144686889648438,5.25589599609375,1728062930008.0
4.2739999999999725,0.1598541259765625,7.479647827148438,7.050628662109376,1728062930018.0
4.283999999999992,-0.1543212890625,7.265960693359376,7.291830444335938,1728062930028.0
4.293999999999997,-0.12919921875,6.898251342773438,6.388931274414063,1728062930038.0
4.303999999999974,0.168975830078125,6.630133056640625,5.740542602539063,1728062930048.0
4.313999999999993,0.45279541015625,7.533181762695313,6.938476562500001,1728062930058.0
4.323999999999998,0.2011260986328125,7.62694091796875,7.658941650390625,1728062930068.0
4.333999999999975,0.0514404296875,7.438076782226563,5.8151611328125,1728062930078.0
4.344999999999999,0.115740966796875,6.891671752929688,5.9089202880859375,1728062930089.0
4.35499999999999,0.0910675048828125,6.828268432617188,5.8834991455078125,1728062930099.0
4.364999999999995,-0.292193603515625,7.116275024414063,8.582327270507813,1728062930109.0
4.375,-0.0671417236328125,7.067227172851563,6.851446533203125,1728062930119.0
4.384999999999991,0.6527252197265625,7.370486450195313,5.9969970703125,1728062930129.0
4.394999999999996,0.5468536376953126,7.404431152343751,5.770001220703126,1728062930139.0
4.404999999999973,-0.185723876953125,6.830212402343751,6.874176025390626,1728062930149.0
4.414999999999992,-0.6343322753906251,7.210931396484376,7.6849609375,1728062930159.0
4.424999999999997,0.2262481689453125,7.521218872070313,5.8950134277343755,1728062930169.0
4.434999999999974,1.09161376953125,7.512246704101563,5.319149780273438,1728062930179.0
4.444999999999993,0.4586273193359375,7.061993408203126,5.8319091796875,1728062930189.0
4.454999999999998,-0.3158203125,6.624151611328125,8.338583374023438,1728062930199.0
4.464999999999975,-0.2310333251953125,6.996646118164063,8.185906982421876,1728062930209.0
4.474999999999994,0.39776611328125,7.310671997070313,6.245376586914063,1728062930219.0
4.484999999999999,0.2693145751953125,7.375271606445313,4.619021606445313,1728062930229.0
4.498999999999995,-0.308941650390625,7.180874633789063,5.9234252929687505,1728062930243.0
4.506,-0.3828125,7.379608154296876,7.880853271484376,1728062930250.0
4.515999999999991,0.1801910400390625,7.2722412109375005,7.386935424804688,1728062930260.0
4.525999999999996,0.6021820068359376,6.856979370117188,5.791534423828125,1728062930270.0
4.535999999999973,0.3853546142578125,6.841427612304688,5.662484741210938,1728062930280.0
4.545999999999992,0.3174652099609375,7.300802612304688,7.509555053710938,1728062930290.0
4.555999999999997,0.325689697265625,7.571762084960938,7.544097900390626,1728062930300.0
4.565999999999974,0.3126800537109375,7.161135864257813,5.815460205078125,1728062930310.0
4.575999999999993,0.0097198486328125,6.9118591308593755,5.222250366210938,1728062930320.0
4.5859999999999985,-0.2845672607421875,7.187155151367188,6.869689941406251,1728062930330.0
4.5989999999999895,-0.250921630859375,7.467834472656251,8.020071411132813,1728062930343.0
4.6059999999999945,-0.03050537109375,7.075750732421875,6.614431762695313,1728062930350.0
4.616,0.252716064453125,6.818997192382813,5.452236938476563,1728062930360.0
4.625999999999976,0.241351318359375,7.09818115234375,6.49046630859375,1728062930370.0
4.635999999999996,0.28052978515625,7.472619628906251,7.599426269531251,1728062930380.0
4.646000000000001,0.306549072265625,7.198669433593751,6.923522949218751,1728062930390.0
4.6569999999999965,0.5438629150390626,6.803146362304688,5.139407348632813,1728062930401.0
4.665999999999997,0.487188720703125,7.498638916015626,6.0266052246093755,1728062930410.0
4.676000000000002,0.373541259765625,7.407720947265625,7.124798583984376,1728062930420.0
4.686999999999998,-0.0022430419921875,7.746719360351563,7.264465332031251,1728062930431.0
4.697999999999979,-0.316717529296875,6.857876586914063,6.3077331542968755,1728062930442.0
4.706999999999994,-0.378924560546875,6.247769165039063,5.6916442871093755,1728062930451.0
4.716999999999999,-0.606817626953125,7.144836425781251,7.912854003906251,1728062930461.0
4.726999999999975,-0.0067291259765625,7.431347656250001,7.285848999023438,1728062930471.0
4.736999999999995,0.645697021484375,7.603164672851563,6.169113159179688,1728062930481.0
4.747,0.7307830810546876,7.131826782226563,5.005572509765625,1728062930491.0
4.756999999999977,0.271856689453125,6.931597900390625,6.611889648437501,1728062930501.0
4.766999999999996,-0.0222808837890625,7.304241943359376,7.980743408203126,1728062930511.0
4.777000000000001,0.337652587890625,7.332653808593751,6.7817626953125005,1728062930521.0
4.786999999999978,0.46715087890625,7.10416259765625,5.4882751464843755,1728062930531.0
4.798999999999978,-0.006878662109375,6.930551147460938,5.819049072265625,1728062930543.0
4.807000000000002,-0.6232666015625,7.158444213867188,8.0881103515625,1728062930551.0
4.816999999999979,-0.4469635009765625,7.279718017578125,7.487423706054688,1728062930561.0
4.8279999999999745,0.143255615234375,7.158294677734376,5.949444580078126,1728062930572.0
4.836999999999989,0.3811676025390625,7.219006347656251,4.9189910888671875,1728062930581.0
4.84699999999998,0.3386993408203125,7.227230834960938,6.750958251953126,1728062930591.0
4.856999999999999,0.259295654296875,7.233062744140626,7.975958251953125,1728062930601.0
4.867999999999995,0.47073974609375,7.0497314453125,7.017730712890626,1728062930612.0
4.878,0.5238250732421875,7.029544067382813,5.6367645263671875,1728062930622.0
4.887999999999977,0.2902496337890625,7.1331726074218755,5.657849121093751,1728062930632.0
4.8989999999999725,-0.08912353515625,7.493704223632813,7.331756591796876,1728062930643.0
4.908000000000001,-0.198284912109375,7.382150268554688,6.963748168945313,1728062930652.0
4.917999999999978,-0.0441131591796875,7.017132568359376,6.098532104492188,1728062930662.0
4.927999999999997,0.02811279296875,6.9253173828125005,5.8438720703125,1728062930672.0
4.937999999999988,0.0333465576171875,7.15799560546875,7.294372558593751,1728062930682.0
4.947999999999979,-0.0043365478515625,7.189547729492188,7.70469970703125,1728062930692.0
4.957999999999998,0.27813720703125,7.010702514648438,6.316107177734375,1728062930702.0
4.967999999999989,0.43604736328125,7.179229736328126,5.775534057617188,1728062930712.0
4.97799999999998,0.3922332763671875,7.376318359375,6.041259765625,1728062930722.0
4.9879999999999995,0.1490875244140625,7.449441528320313,7.269848632812501,1728062930732.0
4.9979999999999905,0.0611602783203125,7.055114746093751,6.513494873046875,1728062930742.0
5.009,0.1945465087890625,6.9133544921875005,6.037222290039063,1728062930753.0
5.017999999999972,0.3437835693359375,6.969879150390626,6.371734619140626,1728062930762.0
5.027999999999992,0.231182861328125,7.572958374023438,7.512246704101563,1728062930772.0
5.037999999999997,0.00059814453125,7.20823974609375,6.9103637695312505,1728062930782.0
5.048999999999978,-0.06041259765625,7.540359497070313,5.6666717529296875,1728062930793.0
5.0589999999999975,-0.020635986328125,6.75364990234375,6.1142333984375,1728062930803.0
5.068999999999988,-0.174359130859375,6.952682495117188,6.660189819335938,1728062930813.0
5.078999999999979,-0.3309234619140625,7.13646240234375,8.267105102539062,1728062930823.0
5.088999999999999,0.3775787353515625,7.077545166015626,6.112139892578125,1728062930833.0
5.0989999999999895,0.7870086669921875,7.427310180664063,6.255096435546876,1728062930843.0
5.108999999999995,0.3578399658203125,7.235006713867188,5.970977783203125,1728062930853.0
5.119,-0.224603271484375,6.986029052734375,7.276428222656251,1728062930863.0
5.128999999999991,-0.189312744140625,7.313662719726563,6.889877319335938,1728062930873.0
5.138999999999996,0.4798614501953125,7.537667846679688,5.590707397460938,1728062930883.0
5.1489999999999725,0.6207244873046875,7.276428222656251,5.7723937988281255,1728062930893.0
5.158999999999992,-0.0100189208984375,6.947598266601563,6.687405395507813,1728062930903.0
5.168999999999997,-0.363372802734375,6.77518310546875,8.43204345703125,1728062930913.0
5.178999999999974,-0.0300567626953125,7.124798583984376,7.077395629882813,1728062930923.0
5.188999999999993,0.343634033203125,7.279119873046875,5.82054443359375,1728062930933.0
5.198999999999998,0.1212738037109375,7.318597412109376,5.203558349609375,1728062930943.0
5.2099999999999795,-0.1451995849609375,7.249661254882813,6.813015747070313,1728062930954.0
5.219999999999999,-0.012860107421875,7.317999267578125,7.57669677734375,1728062930964.0
5.228999999999999,0.3659149169921875,7.109097290039063,6.515737915039063,1728062930973.0
5.239999999999995,0.55029296875,6.883148193359376,5.9777069091796875,1728062930984.0
5.25,0.294586181640625,7.124798583984376,6.293975830078126,1728062930994.0
5.259999999999991,0.2296875,7.366748046875,7.549929809570313,1728062931004.0
5.269999999999996,0.2214630126953125,7.307232666015626,6.661386108398438,1728062931014.0
5.279999999999973,0.13577880859375,7.034329223632813,5.73680419921875,1728062931024.0
5.289999999999992,-0.0859832763671875,7.144088745117188,6.067279052734375,1728062931034.0
5.299999999999997,-0.2187713623046875,7.233959960937501,7.264913940429688,1728062931044.0
5.309999999999974,-0.104974365234375,7.226333618164063,7.38529052734375,1728062931054.0
5.319999999999993,0.0919647216796875,6.985281372070313,6.0950927734375,1728062931064.0
5.329999999999998,0.3052032470703125,7.08262939453125,5.975164794921875,1728062931074.0
5.339999999999975,0.3146240234375,7.232315063476563,6.820492553710938,1728062931084.0
5.349999999999994,0.283819580078125,7.327120971679688,7.258483886718751,1728062931094.0
5.359999999999999,0.2806793212890625,6.9761596679687505,6.270797729492188,1728062931104.0
5.369999999999976,0.4940673828125,7.014141845703126,5.612988281250001,1728062931114.0
5.3799999999999955,0.426177978515625,7.582379150390626,6.746920776367188,1728062931124.0
5.390999999999991,0.2477813720703125,7.369888305664063,6.792080688476563,1728062931135.0
5.400999999999996,-0.132489013671875,7.605706787109376,6.886288452148438,1728062931145.0
5.410999999999973,-0.3049041748046875,6.600674438476563,6.057708740234375,1728062931155.0
5.420999999999992,-0.4182525634765625,6.586019897460938,6.628488159179688,1728062931165.0
5.430999999999997,-0.457879638671875,7.252651977539063,7.796215820312501,1728062931175.0
5.440999999999974,0.2848663330078125,7.385739135742188,6.536672973632813,1728062931185.0
5.450999999999993,0.7689147949218751,7.549929809570313,6.01195068359375,1728062931195.0
5.4609999999999985,0.5908172607421875,7.061843872070313,5.5126495361328125,1728062931205.0
5.470999999999975,0.042169189453125,6.960009765625,7.325924682617188,1728062931215.0
5.4809999999999945,0.016748046875,7.255493164062501,7.356430053710938,1728062931225.0
5.491,0.4629638671875,7.399197387695313,6.393865966796875,1728062931235.0
5.500999999999976,0.3575408935546875,7.111489868164063,5.4434143066406255,1728062931245.0
5.510999999999996,-0.2968292236328125,6.953878784179688,6.578692626953125,1728062931255.0
5.521000000000001,-0.6682769775390626,7.099975585937501,8.036370849609376,1728062931265.0
5.5309999999999775,-0.1565643310546875,7.270596313476563,6.995300292968751,1728062931275.0
5.540999999999997,0.3578399658203125,7.3105224609375,5.616427612304688,1728062931285.0
5.551000000000002,0.3826629638671875,7.110891723632813,5.2460266113281255,1728062931295.0
5.561999999999998,0.2516693115234375,7.156051635742188,7.286895751953126,1728062931306.0
5.571999999999974,0.343634033203125,7.305438232421875,7.712326049804688,1728062931316.0
5.581999999999994,0.5953033447265625,7.173248291015626,6.62564697265625,1728062931326.0
5.591999999999999,0.4089813232421875,6.825875854492188,5.398403930664063,1728062931336.0
5.601999999999975,-0.0162994384765625,7.170108032226563,6.291882324218751,1728062931346.0
5.611999999999995,-0.23267822265625,7.502377319335938,7.698419189453125,1728062931356.0
5.622,-0.127105712890625,7.368991088867188,6.531887817382813,1728062931366.0
5.631999999999977,0.07177734375,6.987225341796876,5.717663574218751,1728062931376.0
5.641999999999996,0.0252716064453125,7.006216430664063,5.982342529296876,1728062931386.0
5.652000000000001,0.0538330078125,7.107003784179688,7.876217651367188,1728062931396.0
5.661999999999978,0.14833984375,7.209436035156251,7.529443359375,1728062931406.0
5.671999999999997,0.4439727783203125,7.0832275390625,5.9029388427734375,1728062931416.0
5.682000000000002,0.503936767578125,7.229324340820313,5.411563110351563,1728062931426.0
5.691999999999979,0.2836700439453125,7.350299072265625,6.525457763671875,1728062931436.0
5.7029999999999745,-0.0399261474609375,7.2961669921875005,7.616772460937501,1728062931447.0
5.711999999999989,-0.15611572265625,7.004122924804688,6.433493041992188,1728062931456.0
5.72199999999998,0.24942626953125,6.8206420898437505,5.770449829101563,1728062931466.0
5.731999999999999,0.377728271484375,7.260577392578125,6.47850341796875,1728062931476.0
5.74199999999999,0.17645263671875,7.455422973632813,7.4322448730468755,1728062931486.0
5.753,0.050543212890625,7.39964599609375,6.746621704101563,1728062931497.0
5.762999999999977,0.222210693359375,7.440020751953125,5.880807495117188,1728062931507.0
5.772999999999996,0.109759521484375,6.838885498046875,5.9697814941406255,1728062931517.0
5.783000000000001,-0.3988128662109375,6.75723876953125,7.076797485351563,1728062931527.0
5.792999999999978,-0.4029998779296875,7.012646484375001,7.905227661132813,1728062931537.0
5.802999999999997,0.37144775390625,7.36136474609375,6.357528686523438,1728062931547.0
5.812999999999988,0.8758331298828126,7.508209228515626,5.900247192382813,1728062931557.0
5.822999999999979,0.1798919677734375,7.055862426757813,6.079840087890625,1728062931567.0
5.832999999999998,-0.4607208251953125,6.845913696289063,7.390972900390626,1728062931577.0
5.842999999999989,-0.039776611328125,7.462451171875,7.074554443359376,1728062931587.0
5.85299999999998,0.7766906738281251,7.6954284667968755,5.486929321289063,1728062931597.0
5.8629999999999995,0.7678680419921876,7.182968139648438,5.3287200927734375,1728062931607.0
5.8729999999999905,-0.14056396484375,6.799856567382813,6.933242797851563,1728062931617.0
5.882999999999996,-0.38939208984375,6.808380126953126,8.623748779296875,1728062931627.0
5.892999999999972,0.02093505859375,7.254745483398438,7.390225219726563,1728062931637.0
5.902999999999992,0.3249420166015625,7.147229003906251,5.197427368164063,1728062931647.0
5.9140000000000015,-0.0494964599609375,7.23216552734375,5.0997802734375,1728062931658.0
5.923999999999978,-0.251220703125,7.4157958984375005,7.159790039062501,1728062931668.0
5.9339999999999975,0.090618896484375,7.415496826171876,7.794271850585938,1728062931678.0
5.943999999999988,0.400457763671875,6.980795288085938,6.3451171875000005,1728062931688.0
5.953999999999979,0.51978759765625,6.750808715820313,5.4633026123046875,1728062931698.0
5.963999999999999,0.3552978515625,7.210183715820313,6.789089965820313,1728062931708.0
5.9739999999999895,0.372344970703125,7.545294189453125,7.636062622070313,1728062931718.0
5.983999999999995,0.2693145751953125,7.306185913085938,6.54190673828125,1728062931728.0
5.994,-0.0131591796875,6.836492919921875,5.233166503906251,1728062931738.0
6.003999999999991,-0.245538330078125,7.066778564453125,6.459661865234375,1728062931748.0
6.013999999999996,-0.3141754150390625,7.388580322265626,7.813711547851563,1728062931758.0
6.0239999999999725,-0.120526123046875,7.290185546875,7.0778442382812505,1728062931768.0
6.033999999999992,0.13697509765625,6.916494750976563,5.561398315429688,1728062931778.0
6.043999999999997,0.41690673828125,6.977056884765625,5.825778198242188,1728062931788.0
6.053999999999974,0.363671875,7.447796630859376,7.477853393554688,1728062931798.0
6.063999999999993,0.4110748291015625,7.227828979492188,7.1212097167968755,1728062931808.0
6.073999999999998,0.5476013183593751,6.928158569335938,6.050381469726563,1728062931818.0
6.083999999999975,0.4749267578125,7.298858642578126,5.5286499023437505,1728062931828.0
6.094999999999999,0.34632568359375,7.339083862304688,6.878512573242188,1728062931839.0
6.10499999999999,-0.21951904296875,7.895208740234375,7.236502075195313,1728062931849.0
6.114999999999995,-0.435150146484375,6.7458740234375005,6.590206909179688,1728062931859.0
6.125,-0.49227294921875,6.384744262695313,5.8621154785156255,1728062931869.0
6.134999999999991,-0.4203460693359375,7.1062561035156255,7.288092041015625,1728062931879.0
6.144999999999996,0.2038177490234375,7.472171020507813,7.4935546875,1728062931889.0
6.154999999999973,0.687567138671875,7.636212158203126,6.341976928710938,1728062931899.0
6.164999999999992,0.6702209472656251,6.92471923828125,5.323934936523438,1728062931909.0
6.174999999999997,0.2583984375,6.963897705078126,6.237002563476563,1728062931919.0
6.184999999999974,0.155816650390625,7.335644531250001,7.886386108398438,1728062931929.0
6.194999999999993,0.27813720703125,7.5040222167968755,6.725686645507813,1728062931939.0
6.207999999999998,0.25421142578125,7.016384887695313,5.750561523437501,1728062931952.0
6.214999999999975,-0.2406036376953125,6.776379394531251,5.978005981445313,1728062931959.0
6.224999999999994,-0.6413604736328126,7.227081298828126,7.855581665039063,1728062931969.0
6.234999999999999,-0.3158203125,7.320242309570313,7.503573608398438,1728062931979.0
6.244999999999976,0.1742095947265625,7.188949584960938,5.7260375976562505,1728062931989.0
6.2549999999999955,0.4705902099609375,7.151416015625,5.1892028808593755,1728062931999.0
6.265000000000001,0.4361968994140625,7.272390747070313,6.6890502929687505,1728062932009.0
6.275999999999996,0.405242919921875,7.270446777343751,7.951135253906251,1728062932020.0
6.285999999999973,0.5052825927734376,7.06767578125,6.805538940429688,1728062932030.0
6.295999999999992,0.4529449462890625,6.950888061523438,5.668466186523438,1728062932040.0
6.307999999999993,0.150732421875,7.141845703125001,5.962603759765625,1728062932052.0
6.315999999999974,-0.2415008544921875,7.441815185546876,7.336691284179688,1728062932060.0
6.325999999999993,-0.2528656005859375,7.353738403320313,6.983935546875,1728062932070.0
6.3359999999999985,-0.09749755859375,7.06767578125,5.8621154785156255,1728062932080.0
6.345999999999975,0.1134979248046875,7.020123291015626,5.925668334960938,1728062932090.0
6.3559999999999945,0.093011474609375,7.104013061523438,7.4307495117187505,1728062932100.0
6.366,0.1206756591796875,7.136611938476563,7.631726074218751,1728062932110.0
6.375999999999976,0.355596923828125,7.0987792968750005,6.343472290039063,1728062932120.0
6.385999999999996,0.6148925781250001,7.234558105468751,5.421881103515625,1728062932130.0
6.396000000000001,0.4439727783203125,7.412655639648438,6.267956542968751,1728062932140.0
6.408000000000001,-0.040972900390625,7.309176635742188,7.220352172851563,1728062932152.0
6.415999999999997,-0.1873687744140625,7.015338134765625,6.865203857421876,1728062932160.0
6.426000000000002,0.049346923828125,6.850100708007813,5.98204345703125,1728062932170.0
6.436999999999998,0.3602325439453125,7.131527709960938,6.258834838867188,1728062932181.0
6.445999999999998,0.1763031005859375,7.5473876953125005,7.288391113281251,1728062932190.0
6.456999999999994,0.0514404296875,7.252352905273438,6.7961181640625,1728062932201.0
6.466999999999999,0.08134765625,7.5159851074218755,6.164627075195313,1728062932211.0
6.476999999999975,0.19080810546875,6.7937255859375005,5.848507690429688,1728062932221.0
6.486999999999995,-0.099591064453125,6.875671386718751,6.843222045898438,1728062932231.0
6.497,-0.32598876953125,7.093395996093751,7.892816162109376,1728062932241.0
6.507999999999996,0.3349609375,7.22618408203125,6.506915283203125,1728062932252.0
6.516999999999996,0.7349700927734375,7.536770629882813,6.0046234130859375,1728062932261.0
6.527000000000001,0.2715576171875,7.099826049804688,5.927313232421875,1728062932271.0
6.536999999999978,-0.451300048828125,6.9576171875,7.299456787109375,1728062932281.0
6.546999999999997,-0.2546600341796875,7.288241577148438,7.1077514648437505,1728062932291.0
6.557000000000002,0.5172454833984376,7.574005126953126,5.8561340332031255,1728062932301.0
6.566999999999979,0.7418487548828125,7.251754760742188,5.346963500976563,1728062932311.0
6.576999999999998,0.119927978515625,6.935934448242188,6.66392822265625,1728062932321.0
6.586999999999989,-0.2947357177734375,6.8595214843750005,8.33634033203125,1728062932331.0
6.59699999999998,0.0770111083984375,7.072012329101563,7.441366577148438,1728062932341.0
6.607999999999976,0.3040069580078125,7.3344482421875,5.6128387451171875,1728062932352.0
6.617999999999995,0.1081146240234375,7.246371459960938,5.017535400390625,1728062932362.0
6.628,-0.2069580078125,7.349700927734376,6.783706665039063,1728062932372.0
6.637999999999977,-0.081646728515625,7.305886840820313,7.721896362304688,1728062932382.0
6.647999999999996,0.268267822265625,7.0419555664062505,6.789089965820313,1728062932392.0
6.658000000000001,0.399261474609375,6.838287353515626,5.7773284912109375,1728062932402.0
6.667999999999978,0.3712982177734375,7.088162231445313,6.340332031250001,1728062932412.0
6.677999999999997,0.291595458984375,7.531536865234376,7.443759155273438,1728062932422.0
6.687999999999988,0.3273345947265625,7.33385009765625,6.677536010742188,1728062932432.0
6.697999999999979,0.110955810546875,6.9958984375,5.713775634765625,1728062932442.0
6.707999999999998,-0.0554779052734375,6.988720703125001,6.066232299804688,1728062932452.0
6.717999999999989,-0.183331298828125,7.325625610351563,7.542004394531251,1728062932462.0
6.72799999999998,-0.14415283203125,7.2985595703125,7.133621215820313,1728062932472.0
6.7379999999999995,0.1466949462890625,6.950289916992188,6.0509796142578125,1728062932482.0
6.7479999999999905,0.1830322265625,7.0473388671875,5.872732543945313,1728062932492.0
6.757999999999996,0.2824737548828125,7.251007080078126,6.995449829101563,1728062932502.0
6.767999999999972,0.20576171875,7.39725341796875,7.389477539062501,1728062932512.0
6.778999999999996,0.442926025390625,6.816006469726563,6.017184448242188,1728062932523.0
6.787999999999997,0.4559356689453125,7.2408386230468755,5.8416290283203125,1728062932532.0
6.797999999999973,0.426177978515625,7.42177734375,6.512896728515625,1728062932542.0
6.8089999999999975,0.234173583984375,7.521218872070313,7.117919921875001,1728062932553.0
6.818999999999988,-0.214434814453125,7.445553588867188,6.667367553710938,1728062932563.0
6.828999999999979,-0.2579498291015625,6.423175048828125,5.9667907714843755,1728062932573.0
6.838999999999999,-0.4978057861328125,6.788790893554688,7.013095092773438,1728062932583.0
6.8489999999999895,-0.267669677734375,7.293026733398438,7.589706420898438,1728062932593.0
6.858999999999995,0.317315673828125,7.455273437500001,6.716116333007813,1728062932603.0
6.869,0.599639892578125,7.371981811523438,5.4347412109375,1728062932613.0
6.878999999999991,0.4604217529296875,6.994403076171875,5.930004882812501,1728062932623.0
6.888999999999996,0.0886749267578125,7.22379150390625,7.314111328125,1728062932633.0
6.8989999999999725,0.259295654296875,7.257586669921875,7.283905029296876,1728062932643.0
6.908999999999992,0.4451690673828125,7.227230834960938,6.110943603515626,1728062932653.0
6.918999999999997,0.2480804443359375,6.991860961914063,5.7230468750000005,1728062932663.0
6.928999999999974,-0.36307373046875,7.035076904296876,7.158294677734376,1728062932673.0
6.938999999999993,-0.5613586425781251,7.238296508789063,7.649819946289063,1728062932683.0
6.948999999999998,-0.1030303955078125,7.188351440429688,6.6247497558593755,1728062932693.0
6.958999999999975,0.194097900390625,7.3105224609375,5.251708984375,1728062932703.0
6.969999999999999,0.3384002685546875,7.137509155273438,6.032736206054688,1728062932714.0
6.97999999999999,0.2429962158203125,7.275979614257813,7.380056762695313,1728062932724.0
6.988999999999976,0.4821044921875,7.054965209960938,7.427609252929688,1728062932733.0
7.0,0.602032470703125,7.072460937500001,6.310873413085938,1728062932744.0
7.009999999999991,0.41929931640625,6.983337402343751,5.739794921875,1728062932754.0
7.019999999999996,0.0647491455078125,7.319195556640626,6.710882568359375,1728062932764.0
7.029999999999973,-0.224005126953125,7.468283081054688,7.045993041992188,1728062932774.0
7.039999999999992,-0.1066192626953125,7.259530639648438,6.3705383300781255,1728062932784.0
7.049999999999997,-0.087628173828125,6.985879516601563,5.8595733642578125,1728062932794.0
7.061999999999998,-0.012261962890625,7.027600097656251,6.677685546875001,1728062932806.0
7.069999999999993,-0.0462066650390625,7.108349609375001,7.705596923828126,1728062932814.0
7.079999999999998,0.279632568359375,7.14603271484375,6.871633911132813,1728062932824.0
7.089999999999975,0.5274139404296876,7.1600891113281255,5.993109130859375,1728062932834.0
7.099999999999994,0.5067779541015626,7.295419311523438,5.654559326171875,1728062932844.0
7.109999999999999,0.2385101318359375,7.344766235351563,7.023562622070313,1728062932854.0
7.120999999999995,-0.024822998046875,7.122406005859376,6.972122192382813,1728062932865.0
7.1299999999999955,0.032000732421875,7.072610473632813,6.297564697265625,1728062932874.0
7.140999999999991,0.275146484375,6.902288818359375,5.924023437500001,1728062932885.0
7.149999999999977,0.3195587158203125,7.525106811523438,6.900494384765626,1728062932894.0
7.160999999999973,-0.0001495361328125,7.31590576171875,7.366448974609376,1728062932905.0
7.170999999999992,-0.0503936767578125,7.46903076171875,6.105410766601563,1728062932915.0
7.180999999999997,-0.025421142578125,6.868643188476563,6.348556518554688,1728062932925.0
7.190999999999974,-0.029608154296875,6.706546020507813,5.9518371582031255,1728062932935.0
7.200999999999993,-0.3013153076171875,7.1316772460937505,8.269796752929688,1728062932945.0
7.2109999999999985,0.2021728515625,7.2378479003906255,6.494952392578125,1728062932955.0
7.220999999999975,0.7750457763671875,7.436581420898438,6.289489746093751,1728062932965.0
7.230999999999995,0.48748779296875,7.331607055664063,5.758636474609375,1728062932975.0
7.241,-0.16807861328125,6.904232788085938,6.844717407226563,1728062932985.0
7.250999999999976,-0.3665130615234375,7.183865356445313,7.480694580078126,1728062932995.0
7.260999999999996,0.2830718994140625,7.490115356445313,5.927462768554688,1728062933005.0
7.271000000000001,0.7110443115234375,7.377066040039063,5.714822387695313,1728062933015.0
7.2809999999999775,0.222210693359375,6.980197143554688,6.058605957031251,1728062933025.0
7.290999999999997,-0.3294281005859375,6.800604248046875,8.306283569335939,1728062933035.0
7.301000000000002,-0.1772003173828125,7.0913024902343755,7.6215576171875,1728062933045.0
7.310999999999979,0.307745361328125,7.255194091796875,6.078494262695313,1728062933055.0
7.320999999999998,0.2643798828125,7.361663818359376,4.904336547851563,1728062933065.0
7.331999999999994,-0.0808990478515625,7.223641967773438,6.299359130859376,1728062933076.0
7.341999999999999,-0.1117034912109375,7.293325805664063,7.78245849609375,1728062933086.0
7.351999999999975,0.2068084716796875,7.154855346679688,7.076199340820313,1728062933096.0
7.361999999999995,0.51141357421875,6.881652832031251,5.971426391601563,1728062933106.0
7.372,0.365167236328125,7.021917724609375,5.832955932617188,1728062933116.0
7.381999999999977,0.249127197265625,7.444955444335938,7.299008178710938,1728062933126.0
7.391999999999996,0.226995849609375,7.437329101562501,6.999038696289063,1728062933136.0
7.402000000000001,0.2213134765625,7.0404602050781255,5.963052368164063,1728062933146.0
7.411999999999978,-0.0318511962890625,6.981094360351563,5.84207763671875,1728062933156.0
7.421999999999997,-0.2169769287109375,7.188800048828125,7.094891357421876,1728062933166.0
7.432000000000002,-0.155816650390625,7.276876831054688,7.699615478515626,1728062933176.0
7.441999999999979,0.0237762451171875,7.057656860351563,6.261975097656251,1728062933186.0
7.451999999999998,0.2301361083984375,7.076498413085938,5.770150756835938,1728062933196.0
7.461999999999989,0.283221435546875,7.194332885742188,6.491513061523438,1728062933206.0
7.47199999999998,0.288006591796875,7.396505737304688,7.411010742187501,1728062933216.0
7.481999999999999,0.23746337890625,7.135864257812501,6.683367919921875,1728062933226.0
7.49199999999999,0.4780670166015625,6.926663208007813,5.3689453125,1728062933236.0
7.503,0.6062194824218751,7.326373291015625,6.208590698242188,1728062933247.0
7.511999999999972,0.359185791015625,7.5234619140625005,7.149472045898438,1728062933256.0
7.522999999999996,0.06160888671875,7.150668334960938,7.177285766601563,1728062933267.0
7.533000000000001,-0.2476318359375,7.378112792968751,6.403137207031251,1728062933277.0
7.542999999999978,-0.4089813232421875,6.714321899414063,6.266012573242188,1728062933287.0
7.552999999999997,-0.5875274658203126,6.803295898437501,6.795370483398438,1728062933297.0
7.562999999999988,-0.4725341796875,7.268203735351563,7.406375122070313,1728062933307.0
7.572999999999979,0.40673828125,7.348056030273438,6.2718444824218755,1728062933317.0
7.582999999999998,1.0208831787109376,7.520770263671875,5.91983642578125,1728062933327.0
7.592999999999989,0.7098480224609376,7.068572998046876,6.299658203125,1728062933337.0
7.60299999999998,0.1218719482421875,6.974215698242188,7.166668701171876,1728062933347.0
7.613,0.189013671875,7.173995971679688,7.214669799804688,1728062933357.0
7.6229999999999905,0.420196533203125,7.421328735351563,5.856732177734376,1728062933367.0
7.632999999999996,0.104376220703125,7.161434936523438,5.933294677734375,1728062933377.0
7.642999999999972,-0.6308929443359376,6.9656921386718755,6.864755249023438,1728062933387.0
7.652999999999992,-0.7986724853515625,7.096835327148438,7.741485595703126,1728062933397.0
7.662999999999997,-0.1208251953125,7.225585937500001,6.8200439453125,1728062933407.0
7.673999999999978,0.3629241943359375,7.213623046875001,5.621511840820313,1728062933418.0
7.683999999999997,0.4038970947265625,7.161734008789063,5.931051635742188,1728062933428.0
7.692999999999998,0.38460693359375,7.1705566406250005,7.141098022460938,1728062933437.0
7.703999999999979,0.6814361572265626,7.238446044921876,7.437329101562501,1728062933448.0
7.713999999999999,0.708502197265625,7.288241577148438,6.22489013671875,1728062933458.0
7.723999999999989,0.388494873046875,6.948046875,5.555267333984375,1728062933468.0
7.733999999999995,-0.104974365234375,7.226034545898438,6.501232910156251,1728062933478.0
7.744,-0.2872589111328125,7.408020019531251,7.385888671875,1728062933488.0
7.753999999999991,-0.1655364990234375,7.255941772460938,6.689199829101563,1728062933498.0
7.763999999999996,-0.2053131103515625,6.885391235351563,5.8307128906250005,1728062933508.0
7.7739999999999725,-0.109161376953125,6.958364868164063,6.516635131835938,1728062933518.0
7.783999999999992,0.0270660400390625,7.177435302734375,7.719802856445313,1728062933528.0
7.793999999999997,0.303558349609375,7.230670166015625,7.05870361328125,1728062933538.0
7.803999999999974,0.5088714599609375,7.165771484375001,5.793478393554688,1728062933548.0
7.813999999999993,0.6525756835937501,7.256539916992188,5.495602416992188,1728062933558.0
7.823999999999998,0.42109375,7.436581420898438,6.930999755859376,1728062933568.0
7.833999999999975,0.077459716796875,7.199118041992188,7.123004150390625,1728062933578.0
7.843999999999994,-0.04007568359375,6.944906616210938,6.588562011718751,1728062933588.0
7.853999999999999,0.015252685546875,6.9941040039062505,5.809478759765625,1728062933598.0
7.864999999999995,0.1897613525390625,7.10655517578125,6.658544921875,1728062933609.0
7.875,-0.0665435791015625,7.412506103515626,7.403533935546876,1728062933619.0
7.884999999999991,-0.0635528564453125,7.137359619140626,6.703555297851563,1728062933629.0
7.894999999999996,0.24464111328125,7.467684936523438,5.966940307617188,1728062933639.0
7.904999999999973,0.3168670654296875,7.415945434570313,5.957968139648438,1728062933649.0
7.917999999999978,0.0399261474609375,6.755593872070313,6.82303466796875,1728062933662.0
7.924999999999997,-0.2941375732421875,6.7623229980468755,7.443609619140625,1728062933669.0
7.934999999999974,0.1200775146484375,7.124050903320313,6.911709594726563,1728062933679.0
7.944999999999993,0.7478302001953125,7.432693481445313,6.228927612304688,1728062933689.0
7.954999999999998,0.4089813232421875,7.462899780273438,6.227731323242188,1728062933699.0
7.964999999999975,-0.4095794677734375,6.941616821289063,6.595440673828126,1728062933709.0
7.974999999999994,-0.4649078369140625,7.051077270507813,6.917990112304688,1728062933719.0
7.984999999999999,0.2540618896484375,7.554116821289063,6.415249633789063,1728062933729.0
7.994999999999976,0.6838287353515625,7.454974365234375,5.756094360351563,1728062933739.0
8.004999999999995,0.3267364501953125,6.942962646484376,6.297564697265625,1728062933749.0
8.016999999999996,-0.0880767822265625,6.759033203125001,7.587014770507813,1728062933761.0
8.024999999999977,0.1284515380859375,7.099975585937501,7.729074096679688,1728062933769.0
8.034999999999997,0.3177642822265625,7.297811889648438,6.420632934570313,1728062933779.0
8.045999999999992,0.0826934814453125,7.2288757324218755,5.128939819335938,1728062933790.0
8.055999999999997,-0.215631103515625,7.264166259765625,6.116177368164063,1728062933800.0
8.065999999999974,-0.1033294677734375,7.405776977539063,7.343569946289063,1728062933810.0
8.075999999999993,0.1622467041015625,7.15799560546875,7.176089477539063,1728062933820.0
8.085999999999999,0.2507720947265625,6.904681396484375,6.094046020507813,1728062933830.0
8.095999999999975,0.3392974853515625,6.839633178710938,6.245974731445313,1728062933840.0
8.105999999999995,0.342138671875,7.439871215820313,7.159191894531251,1728062933850.0
8.117999999999995,0.4352996826171875,7.434039306640625,6.911410522460938,1728062933862.0
8.125999999999976,0.2392578125,7.111639404296875,5.893817138671875,1728062933870.0
8.135999999999996,0.00418701171875,6.979299926757813,5.764019775390626,1728062933880.0
8.146,-0.1407135009765625,7.307830810546876,7.171154785156251,1728062933890.0
8.155999999999977,-0.164788818359375,7.275830078125001,7.375570678710938,1728062933900.0
8.165999999999997,-0.040972900390625,6.950289916992188,6.4841857910156255,1728062933910.0
8.176000000000002,0.0118133544921875,6.983935546875,5.906378173828125,1728062933920.0
8.185999999999979,0.2296875,7.214669799804688,6.683966064453125,1728062933930.0
8.195999999999998,0.28651123046875,7.413403320312501,7.286746215820313,1728062933940.0
8.205999999999989,0.3614288330078125,7.144686889648438,6.223693847656251,1728062933950.0
8.21799999999999,0.5565734863281251,6.951785278320313,5.7623748779296875,1728062933962.0
8.226999999999975,0.560760498046875,7.496844482421875,6.1884033203125,1728062933971.0
8.236999999999995,0.4409820556640625,7.295269775390626,7.388729858398438,1728062933981.0
8.247,0.0174957275390625,7.401440429687501,6.671853637695313,1728062933991.0
8.256999999999977,-0.3641204833984375,7.063787841796875,6.594992065429688,1728062934001.0
8.266999999999996,-0.5414703369140625,6.460858154296876,6.148626708984375,1728062934011.0
8.277000000000001,-0.5754150390625,7.136761474609376,7.285250854492188,1728062934021.0
8.286999999999978,-0.1230682373046875,7.495947265625,7.127340698242188,1728062934031.0
8.296999999999997,0.613995361328125,7.354486083984376,5.827273559570313,1728062934041.0
8.307000000000002,0.7609893798828126,7.249212646484375,6.068624877929688,1728062934051.0
8.317999999999998,0.4198974609375,7.027600097656251,6.433044433593751,1728062934062.0
8.326999999999998,0.246136474609375,7.138555908203125,7.741485595703126,1728062934071.0
8.336999999999989,0.368157958984375,7.240240478515625,6.503775024414063,1728062934081.0
8.34699999999998,0.2770904541015625,7.233212280273438,5.860470581054688,1728062934091.0
8.357,-0.1918548583984375,7.113583374023438,6.205450439453125,1728062934101.0
8.36699999999999,-0.6162384033203125,7.117172241210938,7.289288330078126,1728062934111.0
8.376999999999995,-0.51978759765625,7.165771484375001,7.397402954101563,1728062934121.0
8.386999999999972,0.00059814453125,7.051974487304688,6.0448486328125,1728062934131.0
8.396999999999991,0.298773193359375,7.211978149414063,5.975015258789063,1728062934141.0
8.408000000000001,0.4557861328125,7.29556884765625,6.532485961914063,1728062934152.0
8.417999999999978,0.5247222900390626,7.233212280273438,7.3604675292968755,1728062934162.0
8.427999999999997,0.5025909423828125,6.980795288085938,6.607553100585938,1728062934172.0
8.437999999999988,0.43245849609375,7.083975219726563,6.155804443359376,1728062934182.0
8.447999999999979,0.241351318359375,7.276876831054688,6.32896728515625,1728062934192.0
8.457999999999998,0.0088226318359375,7.430899047851563,6.543701171875001,1728062934202.0
8.46799999999999,-0.114544677734375,7.344168090820313,6.570318603515625,1728062934212.0
8.47799999999998,-0.0794036865234375,6.9656921386718755,6.154907226562501,1728062934222.0
8.488,-0.078057861328125,7.032684326171876,6.824081420898438,1728062934232.0
8.49799999999999,-0.046356201171875,7.084573364257813,7.201809692382813,1728062934242.0
8.507999999999996,0.1256103515625,7.0718627929687505,7.093695068359375,1728062934252.0
8.517999999999972,0.2295379638671875,7.099078369140625,6.222048950195313,1728062934262.0
8.527999999999992,0.342437744140625,7.229623413085938,6.004772949218751,1728062934272.0
8.537999999999997,0.320306396484375,7.436431884765626,6.559552001953126,1728062934282.0
8.547999999999973,0.2510711669921875,7.303195190429688,6.651815795898438,1728062934292.0
8.557999999999993,0.17884521484375,7.163677978515626,6.579739379882813,1728062934302.0
8.568999999999988,0.1045257568359375,6.97496337890625,6.266461181640626,1728062934313.0
8.57899999999998,0.1670318603515625,6.9522338867187505,6.683816528320313,1728062934323.0
8.588999999999999,0.128302001953125,7.205548095703126,6.955523681640625,1728062934333.0
8.59899999999999,0.198883056640625,7.255493164062501,6.698770141601563,1728062934343.0
8.608999999999995,0.189312744140625,7.341027832031251,6.2598815917968755,1728062934353.0
8.619,0.1278533935546875,7.568322753906251,6.111990356445313,1728062934363.0
8.62899999999999,-0.0755157470703125,7.162182617187501,6.629385375976563,1728062934373.0
8.638999999999996,-0.226995849609375,6.601870727539063,6.638955688476563,1728062934383.0
8.648999999999972,-0.1933502197265625,6.910812377929688,7.493853759765625,1728062934393.0
8.658999999999992,0.243743896484375,7.1899963378906255,6.628338623046876,1728062934403.0
8.668999999999997,0.6735107421875001,7.494900512695313,6.457867431640626,1728062934413.0
8.678999999999974,0.26258544921875,7.317401123046875,6.194833374023438,1728062934423.0
8.688999999999993,-0.1040771484375,6.911709594726563,6.398651123046876,1728062934433.0
8.698999999999998,-0.1634429931640625,7.281213378906251,7.089657592773438,1728062934443.0
8.708999999999975,0.33555908203125,7.511648559570313,6.00596923828125,1728062934453.0
8.718999999999994,0.5827423095703126,7.313214111328126,6.1716552734375005,1728062934463.0
8.72999999999999,0.1724151611328125,6.942962646484376,6.205300903320313,1728062934474.0
8.738999999999976,-0.1155914306640625,6.830661010742188,7.819842529296875,1728062934483.0
8.75,-0.04725341796875,7.104013061523438,7.485928344726563,1728062934494.0
8.759999999999991,0.1435546875,7.255642700195313,6.203656005859376,1728062934504.0
8.769999999999996,0.060113525390625,7.291830444335938,5.361019897460938,1728062934514.0
8.779999999999973,-0.035589599609375,7.345214843750001,6.041409301757813,1728062934524.0
8.789999999999992,0.050244140625,7.314559936523438,7.486676025390626,1728062934534.0
8.799999999999997,0.1906585693359375,7.0883117675781255,6.840679931640626,1728062934544.0
8.809999999999974,0.3853546142578125,6.8224365234375,6.476260375976563,1728062934554.0
8.819999999999993,0.3482696533203125,7.039263916015625,6.174496459960938,1728062934564.0
8.829999999999998,0.3850555419921875,7.398898315429688,7.024310302734375,1728062934574.0
8.839999999999975,0.2606414794921875,7.420431518554688,6.747967529296876,1728062934584.0
8.849999999999994,0.0372344970703125,7.074105834960938,5.898153686523438,1728062934594.0
8.86,-0.086431884765625,6.994552612304688,6.317153930664063,1728062934604.0
8.869999999999976,-0.186322021484375,7.275082397460938,6.960757446289063,1728062934614.0
8.879999999999995,-0.06160888671875,7.255343627929688,7.2647644042968755,1728062934624.0
8.89,0.0575714111328125,7.025955200195313,6.2553955078125005,1728062934634.0
8.899999999999977,0.2241546630859375,7.001431274414063,6.141299438476563,1728062934644.0
8.910999999999973,0.2588470458984375,7.2531005859375,6.845614624023438,1728062934655.0
8.920000000000002,0.327783203125,7.301101684570313,6.866848754882813,1728062934664.0
8.930999999999997,0.4055419921875,6.9268127441406255,6.456671142578125,1728062934675.0
8.940999999999974,0.390289306640625,7.342523193359376,5.709439086914063,1728062934685.0
8.950999999999993,0.466552734375,7.346112060546876,6.701312255859375,1728062934695.0
8.960999999999999,0.2740997314453125,7.564285278320313,6.578543090820313,1728062934705.0
8.970999999999975,-0.143853759765625,7.393215942382813,7.033581542968751,1728062934715.0
8.980999999999995,-0.437542724609375,6.384594726562501,6.173599243164063,1728062934725.0
8.991,-0.542218017578125,6.691143798828126,7.057507324218751,1728062934735.0
9.000999999999976,-0.2404541015625,7.315158081054688,7.523013305664063,1728062934745.0
9.010999999999996,0.41451416015625,7.541705322265625,6.261825561523438,1728062934755.0
9.021,0.6371734619140625,7.462451171875,5.803048706054688,1728062934765.0
9.030999999999976,0.438140869140625,6.970776367187501,5.727682495117188,1728062934775.0
9.040999999999997,0.1607513427734375,7.174444580078125,7.544995117187501,1728062934785.0
9.051000000000002,0.26019287109375,7.2378479003906255,7.072012329101563,1728062934795.0
9.06099999999998,0.451300048828125,7.223492431640626,6.324630737304688,1728062934805.0
9.070999999999998,0.1481903076171875,6.999935913085938,5.7421875,1728062934815.0
9.080999999999989,-0.38939208984375,7.035525512695313,7.001281738281251,1728062934825.0
9.09099999999998,-0.551190185546875,7.232913208007813,7.733410644531251,1728062934835.0
9.101999999999975,-0.1580596923828125,7.181173706054688,6.4515869140625,1728062934846.0
9.111999999999997,0.2109954833984375,7.282260131835938,5.567230224609375,1728062934856.0
9.122,0.3816162109375,7.221249389648438,5.833554077148438,1728062934866.0
9.131999999999977,0.3695037841796875,7.270895385742188,7.469778442382813,1728062934876.0
9.141999999999996,0.41929931640625,6.969281005859376,7.3200927734375005,1728062934886.0
9.152,0.5239746093750001,7.014141845703126,6.47252197265625,1728062934896.0
9.161999999999978,0.3844573974609375,7.171304321289063,5.8994995117187505,1728062934906.0
9.171999999999995,0.133984375,7.338784790039063,6.296368408203126,1728062934916.0
9.182000000000002,-0.140863037109375,7.458712768554688,6.956420898437501,1728062934926.0
9.19199999999998,-0.2047149658203125,7.197622680664063,6.309527587890625,1728062934936.0
9.201999999999998,-0.072674560546875,6.9516357421875,6.366351318359375,1728062934946.0
9.211999999999987,-0.0309539794921875,7.055862426757813,6.702957153320313,1728062934956.0
9.22199999999998,0.095703125,7.114929199218751,7.35478515625,1728062934966.0
9.232,0.217724609375,7.157696533203126,6.818399047851563,1728062934976.0
9.242999999999997,0.4421783447265625,7.07425537109375,6.05740966796875,1728062934987.0
9.253,0.36905517578125,7.359271240234375,6.181973266601563,1728062934997.0
9.261999999999972,0.2392578125,7.330261230468751,6.560897827148438,1728062935006.0
9.272999999999996,0.1242645263671875,7.219604492187501,6.897653198242188,1728062935017.0
9.281999999999996,0.0157012939453125,7.036572265625001,6.168515014648438,1728062935026.0
9.292999999999978,0.217425537109375,6.911410522460938,6.208889770507813,1728062935037.0
9.302999999999995,0.2806793212890625,7.259530639648438,6.867596435546876,1728062935047.0
9.312999999999988,0.2417999267578125,7.388580322265626,7.2647644042968755,1728062935057.0
9.32299999999998,0.110955810546875,7.361215209960938,6.384893798828125,1728062935067.0
9.332999999999998,-0.0198883056640625,7.413104248046875,5.938977050781251,1728062935077.0
9.34299999999999,-0.0767120361328125,6.777725219726563,6.426464843750001,1728062935087.0
9.35299999999998,-0.3575408935546875,6.977505493164063,7.034329223632813,1728062935097.0
9.363,-0.199481201171875,6.971374511718751,7.4361328125,1728062935107.0
9.37299999999999,0.4592254638671875,7.243679809570313,6.181674194335938,1728062935117.0
9.384,0.7364654541015625,7.508358764648438,6.415548706054688,1728062935128.0
9.392999999999972,0.226397705078125,7.110592651367188,6.432595825195313,1728062935137.0
9.402999999999992,-0.2863616943359375,6.996347045898438,6.965243530273438,1728062935147.0
9.412999999999997,0.0668426513671875,7.314111328125,6.584524536132813,1728062935157.0
9.422999999999972,0.6033782958984375,7.7196533203125,5.5645385742187505,1728062935167.0
9.432999999999993,0.58558349609375,7.221697998046875,5.973818969726563,1728062935177.0
9.443999999999988,-0.1375732421875,6.801950073242188,7.001431274414063,1728062935188.0
9.452999999999976,-0.34871826171875,6.763369750976563,8.166018676757814,1728062935197.0
9.464,0.0213836669921875,7.149472045898438,7.145733642578126,1728062935208.0
9.47399999999999,0.189013671875,7.342373657226563,5.615979003906251,1728062935218.0
9.483999999999996,-0.0109161376953125,7.246520996093751,5.430105590820313,1728062935228.0
9.494,-0.1882659912109375,7.307083129882813,6.731817626953125,1728062935238.0
9.50399999999999,0.146844482421875,7.345214843750001,7.540060424804688,1728062935248.0
9.513999999999996,0.4409820556640625,7.093096923828125,6.504821777343751,1728062935258.0
9.523999999999972,0.5211334228515625,6.777725219726563,5.900546264648438,1728062935268.0
9.533999999999992,0.3973175048828125,7.218707275390625,6.561495971679688,1728062935278.0
9.543999999999995,0.365765380859375,7.483834838867188,7.261474609375001,1728062935288.0
9.553999999999974,0.2827728271484375,7.247866821289063,6.591253662109375,1728062935298.0
9.563999999999991,-0.117535400390625,6.958364868164063,5.710635375976563,1728062935308.0
9.573999999999998,-0.2932403564453125,7.0120483398437505,6.50841064453125,1728062935318.0
9.58499999999998,-0.3481201171875,7.359719848632813,7.399346923828125,1728062935329.0
9.593999999999994,-0.042767333984375,7.204052734375001,6.986477661132813,1728062935338.0
9.604,0.13338623046875,7.069619750976563,5.92581787109375,1728062935348.0
9.613999999999976,0.334063720703125,7.003674316406251,6.031988525390625,1728062935358.0
9.626999999999995,0.451300048828125,7.298110961914063,7.274185180664063,1728062935371.0
9.634999999999993,0.3928314208984375,7.360317993164063,6.947598266601563,1728062935379.0
9.644999999999996,0.5932098388671876,6.868344116210938,5.94615478515625,1728062935389.0
9.654999999999973,0.4915252685546875,7.313812255859376,5.6644287109375,1728062935399.0
9.664999999999992,0.41092529296875,7.426263427734376,6.902288818359375,1728062935409.0
9.674999999999995,-0.0204864501953125,7.525704956054688,7.117321777343751,1728062935419.0
9.684999999999974,-0.439935302734375,7.361962890625,6.7087890625,1728062935429.0
9.694999999999991,-0.5537322998046875,6.399847412109375,6.130233764648438,1728062935439.0
9.704999999999998,-0.6287994384765625,6.833203125000001,6.71776123046875,1728062935449.0
9.714999999999977,-0.245538330078125,7.273886108398438,7.780813598632813,1728062935459.0
9.726999999999975,0.5251708984375001,7.525405883789063,6.241787719726563,1728062935471.0
9.735,1.077557373046875,7.431646728515625,5.738598632812501,1728062935479.0
9.744999999999976,0.7224090576171875,6.972271728515626,5.962603759765625,1728062935489.0
9.754999999999995,0.1260589599609375,7.045394897460938,7.429702758789063,1728062935499.0
9.765,0.1006378173828125,7.294372558593751,7.36973876953125,1728062935509.0
9.774999999999975,0.340643310546875,7.367196655273438,5.767010498046876,1728062935519.0
9.784999999999997,0.06998291015625,7.074105834960938,5.711831665039063,1728062935529.0
9.795000000000002,-0.724652099609375,6.933392333984376,6.953280639648438,1728062935539.0
9.804999999999978,-0.80689697265625,7.105059814453125,8.099774169921876,1728062935549.0
9.815999999999974,-0.0901702880859375,7.234109497070313,6.800903320312501,1728062935560.0
9.826999999999998,0.5558258056640626,7.300204467773438,5.172305297851563,1728062935571.0
9.836,0.572723388671875,7.101022338867188,5.775982666015626,1728062935580.0
9.845999999999975,0.423486328125,7.1932861328125,7.358822631835938,1728062935590.0
9.855999999999996,0.567938232421875,7.26566162109375,7.760476684570313,1728062935600.0
9.866,0.6222198486328125,7.18790283203125,6.0674285888671875,1728062935610.0
9.875999999999976,0.3294281005859375,6.882550048828126,5.356234741210938,1728062935620.0
9.885999999999996,-0.22789306640625,7.323233032226563,6.599777221679688,1728062935630.0
9.896,-0.4350006103515625,7.45347900390625,7.597930908203126,1728062935640.0
9.905999999999976,-0.2295379638671875,7.180426025390625,6.632525634765625,1728062935650.0
9.915999999999997,-0.055926513671875,6.923522949218751,5.551828002929688,1728062935660.0
9.927999999999995,0.0865814208984375,7.026852416992188,6.49345703125,1728062935672.0
9.93599999999998,0.161798095703125,7.209884643554688,7.763317871093751,1728062935680.0
9.945999999999998,0.3736907958984375,7.135266113281251,7.224539184570313,1728062935690.0
9.955999999999989,0.4996002197265625,7.1316772460937505,5.712429809570313,1728062935700.0
9.96599999999998,0.586181640625,7.254595947265625,5.459115600585938,1728062935710.0
9.976,0.2887542724609375,7.44151611328125,6.9061767578125,1728062935720.0
9.986999999999997,-0.09630126953125,7.249362182617188,7.158294677734376,1728062935731.0
9.997,-0.133087158203125,6.859072875976563,6.399548339843751,1728062935741.0
10.006999999999977,0.1463958740234375,6.863708496093751,5.96649169921875,1728062935751.0
10.016999999999996,0.2899505615234375,7.524209594726563,6.935934448242188,1728062935761.0
10.027,0.1131988525390625,7.421478271484376,7.158892822265625,1728062935771.0
10.036999999999978,0.0500946044921875,7.461105346679688,6.295919799804688,1728062935781.0
10.046999999999995,0.06639404296875,6.850997924804688,6.027801513671875,1728062935791.0
10.057000000000002,0.023626708984375,6.810324096679688,6.290237426757813,1728062935801.0
10.06699999999998,-0.2127899169921875,7.090704345703125,7.9346862792968755,1728062935811.0
10.076999999999998,0.1081146240234375,7.190744018554688,6.706097412109376,1728062935821.0
10.086999999999987,0.5818450927734375,7.340878295898438,6.235357666015625,1728062935831.0
10.09699999999998,0.37264404296875,7.281213378906251,5.811422729492188,1728062935841.0
10.107,-0.2035186767578125,6.997244262695313,7.034927368164063,1728062935851.0
10.11699999999999,-0.3289794921875,7.201211547851563,7.140499877929688,1728062935861.0
10.128,0.3237457275390625,7.487274169921876,6.078195190429688,1728062935872.0
10.137999999999977,0.774298095703125,7.359719848632813,5.541510009765625,1728062935882.0
10.146999999999991,0.327484130859375,6.980197143554688,6.398202514648438,1728062935891.0
10.158,-0.26378173828125,6.821688842773438,8.119662475585939,1728062935902.0
10.167999999999978,-0.1024322509765625,7.044497680664063,7.395758056640625,1728062935912.0
10.177999999999995,0.27933349609375,7.2507080078125,6.2003662109375,1728062935922.0
10.187999999999988,0.1051239013671875,7.309176635742188,5.095892333984375,1728062935932.0
10.19799999999998,-0.2480804443359375,7.247268676757813,6.5051208496093755,1728062935942.0
10.207999999999998,-0.196490478515625,7.342373657226563,7.419235229492188,1728062935952.0
10.21799999999999,0.3074462890625,7.121807861328126,6.940121459960938,1728062935962.0
10.22799999999998,0.5603118896484376,6.997842407226563,5.985931396484375,1728062935972.0
10.238,0.441131591796875,6.989019775390625,6.10107421875,1728062935982.0
10.24799999999999,0.3527557373046875,7.340878295898438,7.29796142578125,1728062935992.0
10.257999999999996,0.35469970703125,7.41759033203125,6.895709228515625,1728062936002.0
10.267999999999972,0.251220703125,7.116424560546876,5.956622314453125,1728062936012.0
10.277999999999992,-0.1487884521484375,7.020721435546876,5.7877960205078125,1728062936022.0
10.287999999999997,-0.3431854248046875,7.125546264648438,7.227679443359375,1728062936032.0
10.297999999999972,-0.3349609375,7.345065307617188,7.6095947265625,1728062936042.0
10.307999999999993,-0.057720947265625,7.059600830078126,6.295022583007813,1728062936052.0
10.317999999999998,0.2415008544921875,6.986477661132813,5.747570800781251,1728062936062.0
10.327999999999976,0.34632568359375,7.22020263671875,6.489569091796875,1728062936072.0
10.337999999999994,0.4565338134765625,7.393515014648438,7.438973999023438,1728062936082.0
10.348,0.499151611328125,7.042852783203125,6.483438110351563,1728062936092.0
10.358999999999996,0.660650634765625,7.033581542968751,5.6261474609375,1728062936103.0
10.369,0.49107666015625,7.456918334960938,6.279919433593751,1728062936113.0
10.37899999999999,0.2935394287109375,7.430599975585938,6.885092163085938,1728062936123.0
10.388999999999996,-0.3050537109375,7.575500488281251,7.335195922851563,1728062936133.0
10.398999999999972,-0.62625732421875,6.540859985351563,6.139953613281251,1728062936143.0
10.408999999999992,-0.6661834716796875,6.519625854492188,6.578842163085938,1728062936153.0
10.418999999999995,-0.4825531005859375,7.32547607421875,7.366299438476563,1728062936163.0
10.428999999999974,0.386700439453125,7.512246704101563,6.847708129882813,1728062936173.0
10.438999999999991,0.8231964111328126,7.5384155273437505,5.854788208007813,1728062936183.0
10.448999999999998,0.8345611572265625,6.977355957031251,5.514443969726563,1728062936193.0
10.458999999999977,0.4233367919921875,7.012796020507813,7.255343627929688,1728062936203.0
10.468999999999994,0.2627349853515625,7.289138793945313,7.4307495117187505,1728062936213.0
10.479,0.3234466552734375,7.332354736328125,6.510653686523438,1728062936223.0
10.488999999999976,0.0629547119140625,7.102069091796875,5.387188720703126,1728062936233.0
10.5,-0.47911376953125,7.010702514648438,6.52396240234375,1728062936244.0
10.509,-0.8451782226562501,7.1944824218750005,7.822683715820313,1728062936253.0
10.519999999999996,-0.3600830078125,7.121807861328126,7.099826049804688,1728062936264.0
10.529999999999973,0.2189208984375,7.160986328125,5.8700408935546875,1728062936274.0
10.539999999999992,0.5561248779296876,7.207940673828125,5.503378295898438,1728062936284.0
10.549999999999995,0.5878265380859375,7.253549194335938,7.132424926757813,1728062936294.0
10.559999999999974,0.5025909423828125,7.238296508789063,7.373028564453126,1728062936304.0
10.569999999999991,0.6078643798828125,6.957318115234376,6.618170166015625,1728062936314.0
10.579999999999998,0.374139404296875,7.171603393554688,5.696279907226563,1728062936324.0
10.589999999999977,0.095404052734375,7.305737304687501,6.230572509765626,1728062936334.0
10.599999999999994,-0.2498748779296875,7.435385131835938,7.013394165039063,1728062936344.0
10.61,-0.28172607421875,7.197323608398438,6.590805053710938,1728062936354.0
10.619999999999976,-0.1697235107421875,6.978701782226563,6.320443725585938,1728062936364.0
10.629999999999995,-0.019439697265625,6.965393066406251,6.469680786132813,1728062936374.0
10.64,0.1278533935546875,7.1669677734375,7.547686767578125,1728062936384.0
10.649999999999975,0.178546142578125,7.165921020507813,6.970776367187501,1728062936394.0
10.659999999999997,0.460870361328125,7.081881713867188,6.046343994140625,1728062936404.0
10.670000000000002,0.438140869140625,7.240539550781251,5.924322509765625,1728062936414.0
10.679999999999978,0.3656158447265625,7.440469360351563,6.435287475585938,1728062936424.0
10.690999999999974,0.1502838134765625,7.402038574218751,7.0808349609375005,1728062936435.0
10.700999999999992,0.074169921875,6.9755615234375,6.190197753906251,1728062936445.0
10.711,0.0916656494140625,6.880307006835938,6.351696777343751,1728062936455.0
10.720999999999975,0.122021484375,7.045843505859375,6.6845642089843755,1728062936465.0
10.730999999999996,0.1568634033203125,7.455422973632813,7.422076416015625,1728062936475.0
10.741,0.13936767578125,7.298410034179688,6.433193969726563,1728062936485.0
10.750999999999976,0.171966552734375,7.518676757812501,5.7673095703125,1728062936495.0
10.760999999999996,-0.05562744140625,7.083377075195313,6.381903076171875,1728062936505.0
10.771,-0.1806396484375,6.707144165039063,6.7234436035156255,1728062936515.0
10.780999999999976,-0.272454833984375,7.049282836914063,7.932891845703126,1728062936525.0
10.790999999999997,0.3058013916015625,7.109396362304688,6.1970764160156255,1728062936535.0
10.801000000000002,0.7388580322265625,7.437030029296875,6.408819580078125,1728062936545.0
10.81099999999998,0.244940185546875,7.335943603515625,6.157000732421875,1728062936555.0
10.820999999999998,-0.217425537109375,6.965841674804688,6.898550415039063,1728062936565.0
10.830999999999989,-0.1852752685546875,7.244277954101563,6.839782714843751,1728062936575.0
10.84099999999998,0.425579833984375,7.529891967773438,5.74876708984375,1728062936585.0
10.851999999999975,0.611602783203125,7.372579956054688,6.052325439453125,1728062936596.0
10.86099999999999,0.164788818359375,6.952682495117188,6.4850830078125,1728062936605.0
10.870999999999997,-0.1854248046875,6.770098876953125,8.136859130859376,1728062936615.0
10.881999999999977,-0.0704315185546875,7.036422729492188,7.157546997070313,1728062936626.0
10.891999999999996,0.1885650634765625,7.22379150390625,6.2150207519531255,1728062936636.0
10.902,0.0168975830078125,7.438076782226563,5.30255126953125,1728062936646.0
10.911999999999978,-0.056524658203125,7.316354370117188,6.339285278320313,1728062936656.0
10.921999999999995,0.0174957275390625,7.305288696289063,7.270596313476563,1728062936666.0
10.932000000000002,0.257501220703125,7.057955932617188,6.747967529296876,1728062936676.0
10.94199999999998,0.4498046875,6.90677490234375,6.5155883789062505,1728062936686.0
10.951999999999998,0.3979156494140625,7.01683349609375,6.28111572265625,1728062936696.0
10.961999999999987,0.4035980224609375,7.437179565429688,7.07724609375,1728062936706.0
10.97199999999998,0.26497802734375,7.380654907226563,6.4970458984375,1728062936716.0
10.982,0.0895721435546875,7.048684692382813,5.975015258789063,1728062936726.0
10.99199999999999,-0.2193695068359375,7.086666870117188,6.411511230468751,1728062936736.0
11.001999999999995,-0.2423980712890625,7.190145874023438,7.067077636718751,1728062936746.0
11.011999999999972,-0.15611572265625,7.23814697265625,7.240390014648438,1728062936756.0
11.021999999999991,0.0958526611328125,7.0329833984375005,6.0165863037109375,1728062936766.0
11.033,0.290399169921875,7.098928833007813,6.277377319335938,1728062936777.0
11.042999999999978,0.349615478515625,7.242633056640625,6.6711059570312505,1728062936787.0
11.052999999999995,0.4263275146484375,7.278671264648438,7.105957031250001,1728062936797.0
11.062999999999988,0.4293182373046875,6.896307373046875,6.319396972656251,1728062936807.0
11.07299999999998,0.4629638671875,7.336242675781251,5.8815551757812505,1728062936817.0
11.082999999999998,0.381317138671875,7.4322448730468755,6.716116333007813,1728062936827.0
11.09299999999999,0.15491943359375,7.544396972656251,6.4064270019531255,1728062936837.0
11.10299999999998,-0.3653167724609375,7.336392211914063,7.1047607421875005,1728062936847.0
11.113,-0.5019927978515626,6.276031494140626,5.95213623046875,1728062936857.0
11.12299999999999,-0.5090209960937501,6.871633911132813,7.448693847656251,1728062936867.0
11.132999999999996,-0.0707305908203125,7.372879028320313,7.207791137695313,1728062936877.0
11.142999999999972,0.6646881103515625,7.488320922851563,6.267507934570313,1728062936887.0
11.152999999999992,0.637921142578125,7.406524658203126,5.79422607421875,1728062936897.0
11.162999999999997,0.415411376953125,6.884344482421875,5.892172241210938,1728062936907.0
11.172999999999972,0.1356292724609375,7.2273803710937505,7.746270751953125,1728062936917.0
11.182999999999993,0.273651123046875,7.327569580078125,6.724191284179688,1728062936927.0
11.192999999999998,0.3748870849609375,7.224240112304688,6.156402587890626,1728062936937.0
11.202999999999976,-0.0222808837890625,7.013992309570313,5.690447998046875,1728062936947.0
11.214,-0.434552001953125,7.036871337890625,7.375869750976563,1728062936958.0
11.22399999999999,-0.490179443359375,7.181622314453126,7.709933471679688,1728062936968.0
11.232999999999976,-0.0162994384765625,7.104461669921876,6.321490478515625,1728062936977.0
11.244,0.2394073486328125,7.2830078125,5.587567138671876,1728062936988.0
11.25399999999999,0.46116943359375,7.3006530761718755,5.942266845703125,1728062936998.0
11.263999999999996,0.3922332763671875,7.292428588867188,7.636810302734376,1728062937008.0
11.273999999999972,0.3345123291015625,7.059750366210938,6.888381958007813,1728062937018.0
11.283999999999992,0.4317108154296875,6.922476196289063,6.482241821289063,1728062937028.0
11.293999999999995,0.280230712890625,7.205398559570313,5.929257202148438,1728062937038.0
11.303999999999974,0.142059326171875,7.371832275390625,6.64598388671875,1728062937048.0
11.313999999999991,-0.1280029296875,7.477554321289063,6.799557495117188,1728062937058.0
11.323999999999998,-0.0945068359375,7.0299926757812505,6.121411132812501,1728062937068.0
11.336999999999987,-0.0091217041015625,7.0434509277343755,6.483438110351563,1728062937081.0
11.343999999999994,0.02392578125,7.120462036132813,6.8206420898437505,1728062937088.0
11.354,0.0849365234375,7.113134765625,7.476956176757813,1728062937098.0
11.363999999999976,0.136376953125,7.0299926757812505,6.442764282226563,1728062937108.0
11.373999999999995,0.3500640869140625,7.126144409179688,6.178982543945313,1728062937118.0
11.384999999999993,0.3063995361328125,7.398748779296875,6.250012207031251,1728062937129.0
11.394999999999996,0.2893524169921875,7.358523559570313,6.601123046875,1728062937139.0
11.404999999999973,0.1256103515625,7.2034545898437505,6.754547119140626,1728062937149.0
11.414999999999992,0.1428070068359375,6.985430908203125,5.963949584960938,1728062937159.0
11.424999999999995,0.300567626953125,6.903485107421876,6.690246582031251,1728062937169.0
11.436999999999998,0.2959320068359375,7.361514282226563,6.849951171875,1728062937181.0
11.444999999999991,0.238360595703125,7.325775146484376,7.218856811523438,1728062937189.0
11.454999999999998,0.0710296630859375,7.416543579101563,5.8565826416015625,1728062937199.0
11.464999999999977,-0.0955535888671875,7.299307250976563,6.31102294921875,1728062937209.0
11.474999999999994,-0.286212158203125,6.691143798828126,6.412557983398438,1728062937219.0
11.485,-0.447711181640625,6.959262084960938,7.470077514648438,1728062937229.0
11.494999999999976,-0.0370849609375,7.051974487304688,7.118368530273438,1728062937239.0
11.504999999999995,0.6928009033203125,7.426861572265626,5.9388275146484375,1728062937249.0
11.515,0.710296630859375,7.457217407226563,6.530990600585938,1728062937259.0
11.524999999999975,0.09630126953125,6.948046875,6.263021850585938,1728062937269.0
11.536999999999978,-0.217425537109375,6.981991577148438,7.4205810546875,1728062937281.0
11.545000000000002,0.196490478515625,7.514639282226563,6.074307250976563,1728062937289.0
11.554999999999978,0.725250244140625,7.6191650390625005,5.7768798828125005,1728062937299.0
11.564999999999998,0.3602325439453125,7.059451293945313,5.968585205078125,1728062937309.0
11.574999999999989,-0.40374755859375,6.733462524414063,7.4684326171875,1728062937319.0
11.586,-0.3814666748046875,6.918438720703126,8.130130004882814,1728062937330.0
11.595999999999975,0.12022705078125,7.2856994628906255,6.5927490234375,1728062937340.0
11.605999999999996,0.2723052978515625,7.30155029296875,5.38988037109375,1728062937350.0
11.616,-0.04127197265625,7.2273803710937505,5.557958984375,1728062937360.0
11.625999999999976,-0.1027313232421875,7.278820800781251,7.426712036132813,1728062937370.0
11.636999999999972,0.2812774658203125,7.263418579101563,7.2647644042968755,1728062937381.0
11.646,0.5743682861328125,7.055712890625,6.3496032714843755,1728062937390.0
11.655999999999976,0.46236572265625,6.900045776367188,5.7668609619140625,1728062937400.0
11.665999999999997,0.2165283203125,7.231567382812501,6.755145263671875,1728062937410.0
11.676000000000002,0.2564544677734375,7.477255249023438,7.448544311523438,1728062937420.0
11.68599999999998,0.150732421875,7.272540283203125,6.183169555664063,1728062937430.0
11.695999999999998,-0.0432159423828125,6.965542602539063,5.6692138671875005,1728062937440.0
11.705999999999989,-0.2361175537109375,7.070965576171876,6.606506347656251,1728062937450.0
11.71599999999998,-0.2184722900390625,7.278372192382813,7.74656982421875,1728062937460.0
11.726,-0.030804443359375,7.183117675781251,6.903335571289063,1728062937470.0
11.736999999999997,0.2432952880859375,6.925765991210938,5.673251342773438,1728062937481.0
11.747,0.41451416015625,7.170407104492188,6.171505737304688,1728062937491.0
11.756999999999977,0.359185791015625,7.4361328125,7.114779663085938,1728062937501.0
11.766999999999996,0.3569427490234375,7.169509887695313,6.964645385742188,1728062937511.0
11.777,0.440533447265625,6.878811645507813,5.787646484375,1728062937521.0
11.786999999999978,0.5121612548828125,7.4531799316406255,6.122158813476563,1728062937531.0
11.796999999999995,0.351708984375,7.377365112304688,6.930999755859376,1728062937541.0
11.807000000000002,-0.154620361328125,7.6804748535156255,6.798809814453126,1728062937551.0
11.81699999999998,-0.466552734375,6.718060302734376,6.689498901367188,1728062937561.0
11.826999999999998,-0.4394866943359375,6.519476318359375,5.966043090820313,1728062937571.0
11.836999999999987,-0.3985137939453125,7.121807861328126,7.864105224609376,1728062937581.0
11.84699999999998,0.09869384765625,7.392318725585938,6.778921508789063,1728062937591.0
11.857,0.5819946289062501,7.503424072265625,6.336444091796875,1728062937601.0
11.86699999999999,0.6790435791015625,7.197921752929688,5.370889282226563,1728062937611.0
11.876999999999995,0.364569091796875,7.0449462890625005,6.588711547851563,1728062937621.0
11.886999999999972,0.1185821533203125,7.208090209960938,7.5847717285156255,1728062937631.0
11.896999999999991,0.31103515625,7.345962524414063,6.493008422851563,1728062937641.0
11.906999999999996,0.413616943359375,7.139602661132813,6.0580078125000005,1728062937651.0
11.916999999999971,-0.0814971923828125,6.9597106933593755,6.002529907226563,1728062937661.0
11.927999999999995,-0.6470428466796876,7.0856201171875,7.8240295410156255,1728062937672.0
11.936999999999998,-0.47672119140625,7.187603759765626,7.106405639648438,1728062937681.0
11.94799999999998,0.0937591552734375,7.320391845703125,6.112139892578125,1728062937692.0
11.957999999999998,0.3766815185546875,7.224090576171876,5.3616180419921875,1728062937702.0
11.96799999999999,0.2944366455078125,7.1944824218750005,6.6262451171875005,1728062937712.0
11.97799999999998,0.272454833984375,7.111938476562501,7.734008789062501,1728062937722.0
11.988,0.5339935302734375,7.095339965820313,6.85294189453125,1728062937732.0
11.99799999999999,0.5927612304687501,7.085171508789063,6.132028198242188,1728062937742.0
12.007999999999996,0.2403045654296875,7.219903564453125,5.664129638671875,1728062937752.0
12.017999999999972,-0.085235595703125,7.34940185546875,6.9612060546875005,1728062937762.0
12.027999999999992,-0.1232177734375,7.423870849609376,6.808828735351563,1728062937772.0
12.037999999999997,-0.0154022216796875,7.158294677734376,6.270498657226563,1728062937782.0
12.047999999999972,-0.03409423828125,6.934738159179688,6.138607788085938,1728062937792.0
12.057999999999993,-0.1045257568359375,6.948046875,7.186856079101563,1728062937802.0
12.067999999999998,-0.0,7.143191528320313,7.668362426757813,1728062937812.0
12.077999999999976,0.2428466796875,7.17235107421875,6.418539428710938,1728062937822.0
12.087999999999994,0.471038818359375,7.234109497070313,5.691195678710938,1728062937832.0
12.098,0.3880462646484375,7.363159179687501,5.9986419677734375,1728062937842.0
12.107999999999976,0.2059112548828125,7.386486816406251,7.1062561035156255,1728062937852.0
12.119,0.085235595703125,7.097882080078126,6.92711181640625,1728062937863.0
12.12899999999999,0.15491943359375,6.938626098632813,6.0734100341796875,1728062937873.0
12.138999999999996,0.2851654052734375,7.084872436523438,6.160888671875001,1728062937883.0
12.148999999999972,0.2558563232421875,7.119863891601563,6.92711181640625,1728062937893.0
12.158999999999992,0.040374755859375,7.373477172851563,7.411758422851563,1728062937903.0
12.168999999999995,0.019140625,7.261325073242188,6.313565063476563,1728062937913.0
12.178999999999974,0.1287506103515625,7.554116821289063,5.789889526367188,1728062937923.0
12.188999999999991,-0.053533935546875,7.07664794921875,6.315808105468751,1728062937933.0
12.198999999999998,-0.2859130859375,6.731069946289063,6.929354858398438,1728062937943.0
12.208999999999977,-0.2624359130859375,6.950888061523438,7.615277099609376,1728062937953.0
12.218999999999994,0.452496337890625,7.139303588867188,6.435137939453125,1728062937963.0
12.229,0.81885986328125,7.450787353515626,6.4737182617187505,1728062937973.0
12.238999999999976,0.215631103515625,7.313961791992188,6.228778076171875,1728062937983.0
12.248999999999995,-0.268865966796875,6.952981567382813,6.804940795898438,1728062937993.0
12.259,-0.1543212890625,7.333251953125001,6.560748291015625,1728062938003.0
12.268999999999975,0.4843475341796875,7.584323120117188,5.854339599609375,1728062938013.0
12.278999999999996,0.5227783203125,7.302297973632813,6.03348388671875,1728062938023.0
12.289999999999992,0.032000732421875,6.836492919921875,6.7937255859375005,1728062938034.0
12.299999999999995,-0.206060791015625,6.716714477539063,8.130728149414063,1728062938044.0
12.309999999999974,0.051739501953125,7.1693603515625,7.102069091796875,1728062938054.0
12.319999999999991,0.2624359130859375,7.293475341796875,6.008212280273438,1728062938064.0
12.329999999999998,-0.0133087158203125,7.363607788085938,5.208193969726563,1728062938074.0
12.339999999999977,-0.113946533203125,7.210333251953125,6.6047119140625,1728062938084.0
12.349999999999994,0.0261688232421875,7.395907592773438,7.408767700195313,1728062938094.0
12.36,0.325689697265625,7.070965576171876,6.771893310546876,1728062938104.0
12.369999999999976,0.460272216796875,6.868942260742188,6.061746215820313,1728062938114.0
12.379999999999995,0.36666259765625,7.091003417968751,6.362014770507813,1728062938124.0
12.39,0.4077850341796875,7.441665649414063,7.283157348632813,1728062938134.0
12.399999999999975,0.2370147705078125,7.33145751953125,6.572561645507813,1728062938144.0
12.409999999999997,0.0808990478515625,6.991412353515625,5.849554443359375,1728062938154.0
12.420000000000002,-0.1676300048828125,7.12808837890625,6.221600341796876,1728062938164.0
12.429999999999978,-0.1855743408203125,7.264166259765625,7.207641601562501,1728062938174.0
12.439999999999998,-0.123516845703125,7.208987426757813,7.282260131835938,1728062938184.0
12.449999999999989,0.0019439697265625,6.9432617187500005,6.116925048828126,1728062938194.0
12.45999999999998,0.223406982421875,7.06229248046875,6.237750244140625,1728062938204.0
12.470999999999975,0.3357086181640625,7.301400756835938,6.7309204101562505,1728062938215.0
12.480999999999996,0.4541412353515625,7.347756958007813,6.943411254882813,1728062938225.0
12.491,0.453692626953125,6.875671386718751,6.125,1728062938235.0
12.500999999999976,0.5109649658203126,7.2387451171875,5.9298553466796875,1728062938245.0
12.510999999999996,0.4502532958984375,7.438824462890626,7.018777465820313,1728062938255.0
12.521,0.2029205322265625,7.579537963867188,6.572113037109376,1728062938265.0
12.530999999999976,-0.380718994140625,7.328765869140626,6.9552246093750005,1728062938275.0
12.540999999999997,-0.58917236328125,6.266311645507813,5.812020874023438,1728062938285.0
12.551000000000002,-0.6240142822265625,6.868792724609375,7.377066040039063,1728062938295.0
12.56099999999998,-0.15133056640625,7.3709350585937505,7.337887573242188,1728062938305.0
12.570999999999998,0.6790435791015625,7.498489379882813,6.244778442382813,1728062938315.0
12.580999999999989,0.8134765625000001,7.404879760742188,5.795721435546875,1728062938325.0
12.59099999999998,0.5227783203125,6.933392333984376,5.9826416015625,1728062938335.0
12.601,0.11065673828125,7.0883117675781255,7.772738647460938,1728062938345.0
12.61099999999999,0.1625457763671875,7.317849731445313,6.728677368164063,1728062938355.0
12.620999999999997,0.4059906005859375,7.323233032226563,6.002828979492188,1728062938365.0
12.631999999999977,0.0919647216796875,7.151266479492188,5.605960083007813,1728062938376.0
12.640999999999991,-0.500946044921875,6.972720336914063,7.3589721679687505,1728062938385.0
12.652,-0.6709686279296876,7.044647216796876,7.844964599609376,1728062938396.0
12.661999999999978,-0.09031982421875,7.097882080078126,6.626394653320313,1728062938406.0
12.671999999999995,0.38580322265625,7.351644897460938,5.447451782226563,1728062938416.0
12.682000000000002,0.5079742431640626,7.289886474609376,5.784207153320313,1728062938426.0
12.69199999999998,0.3602325439453125,7.253250122070313,7.418038940429688,1728062938436.0
12.701999999999998,0.33197021484375,7.120312500000001,7.176986694335938,1728062938446.0
12.711999999999987,0.5359375000000001,6.9701782226562505,6.508560180664063,1728062938456.0
12.72199999999998,0.3276336669921875,7.145883178710938,5.82652587890625,1728062938466.0
12.732,0.05263671875,7.331756591796876,6.5425048828125005,1728062938476.0
12.74199999999999,-0.21234130859375,7.386486816406251,6.980795288085938,1728062938486.0
12.751999999999995,-0.118731689453125,7.1095458984375,6.356332397460938,1728062938496.0
12.761999999999972,-0.008673095703125,7.075900268554688,6.284405517578126,1728062938506.0
12.771999999999991,0.0275146484375,7.029544067382813,6.600225830078125,1728062938516.0
12.781999999999996,0.0710296630859375,7.185061645507813,7.516583251953126,1728062938526.0
12.791999999999971,0.16090087890625,7.059600830078126,6.791033935546875,1728062938536.0
12.802999999999995,0.37503662109375,7.101171875,6.060250854492188,1728062938547.0
12.812999999999988,0.318212890625,7.3006530761718755,6.05142822265625,1728062938557.0
12.82299999999998,0.31761474609375,7.381851196289063,6.586468505859376,1728062938567.0
12.832999999999998,0.1251617431640625,7.334298706054688,6.935485839843751,1728062938577.0
12.84299999999999,0.1383209228515625,6.97257080078125,5.914602661132813,1728062938587.0
12.85299999999998,0.2773895263671875,6.747219848632813,6.5233642578125,1728062938597.0
12.863,0.2519683837890625,7.45347900390625,7.022216796875001,1728062938607.0
12.87299999999999,0.1565643310546875,7.328616333007813,7.428506469726563,1728062938617.0
12.882999999999996,-0.0249725341796875,7.474264526367188,5.7574401855468755,1728062938627.0
12.892999999999972,-0.1466949462890625,7.046292114257813,6.154010009765625,1728062938637.0
12.902999999999992,-0.2600433349609375,6.756939697265626,6.263320922851563,1728062938647.0
12.912999999999997,-0.343035888671875,7.115826416015626,7.9110595703125,1728062938657.0
12.922999999999972,0.176153564453125,7.117770385742188,6.91275634765625,1728062938667.0
12.932999999999993,0.8021118164062501,7.317401123046875,5.8531433105468755,1728062938677.0
12.942999999999998,0.6301452636718751,7.395758056640625,6.339733886718751,1728062938687.0
12.952999999999976,0.0258697509765625,6.960308837890626,6.6501708984375005,1728062938697.0
12.962999999999994,-0.231781005859375,7.155154418945313,7.431796264648438,1728062938707.0
12.97399999999999,0.179144287109375,7.490115356445313,5.803497314453125,1728062938718.0
12.982999999999976,0.61429443359375,7.483535766601563,5.547341918945313,1728062938727.0
12.994,0.2014251708984375,7.032235717773438,6.33853759765625,1728062938738.0
13.00399999999999,-0.413916015625,6.7892395019531255,7.901638793945313,1728062938748.0
13.013999999999996,-0.2854644775390625,6.868643188476563,7.893862915039063,1728062938758.0
13.023999999999972,0.2154815673828125,7.232913208007813,6.228179931640626,1728062938768.0
13.033999999999992,0.3375030517578125,7.341177368164063,5.346963500976563,1728062938778.0
13.045999999999992,0.03768310546875,7.369290161132813,5.9428649902343755,1728062938790.0
13.053999999999974,0.0019439697265625,7.296466064453125,7.334298706054688,1728062938798.0
13.063999999999991,0.2857635498046875,7.165771484375001,6.977804565429688,1728062938808.0
13.073999999999998,0.51978759765625,7.026852416992188,6.208142089843751,1728062938818.0
13.083999999999977,0.376531982421875,6.959860229492188,6.150570678710938,1728062938828.0
13.093999999999994,0.1419097900390625,7.256988525390626,6.932943725585938,1728062938838.0
13.104,0.1867706298828125,7.362411499023438,7.200164794921876,1728062938848.0
13.113999999999976,0.0610107421875,7.229922485351563,6.075054931640626,1728062938858.0
13.123999999999995,-0.08553466796875,6.956869506835938,5.84805908203125,1728062938868.0
13.134,-0.2253509521484375,7.174743652343751,6.8819519042968755,1728062938878.0
13.146999999999991,-0.1191802978515625,7.268502807617188,7.443161010742188,1728062938891.0
13.153999999999996,0.1099090576171875,7.168164062500001,6.564038085937501,1728062938898.0
13.164,0.3381011962890625,6.978253173828126,5.725289916992188,1728062938908.0
13.174999999999995,0.430364990234375,7.16636962890625,6.490316772460938,1728062938919.0
13.184999999999974,0.284417724609375,7.396954345703126,7.13048095703125,1728062938929.0
13.194999999999991,0.42528076171875,6.937429809570313,6.730172729492188,1728062938939.0
13.204999999999998,0.3672607421875,7.299008178710938,5.948397827148438,1728062938949.0
13.214999999999977,0.427374267578125,7.322933959960938,6.14114990234375,1728062938959.0
13.224999999999994,0.1244140625,7.539163208007813,6.734509277343751,1728062938969.0
13.235,-0.3600830078125,7.384243774414063,7.102069091796875,1728062938979.0
13.247,-0.44801025390625,6.398501586914063,6.41270751953125,1728062938991.0
13.254999999999995,-0.4625152587890625,6.785949707031251,6.744827270507813,1728062938999.0
13.265,-0.00179443359375,7.258782958984376,7.166220092773438,1728062939009.0
13.274999999999975,0.478216552734375,7.590753173828125,6.745126342773438,1728062939019.0
13.284999999999997,0.6253601074218751,7.415496826171876,5.95811767578125,1728062939029.0
13.295000000000002,0.4418792724609375,6.975860595703126,5.712130737304688,1728062939039.0
13.304999999999978,0.2118927001953125,7.114181518554688,7.071414184570313,1728062939049.0
13.314999999999998,0.2459869384765625,7.347906494140625,7.14244384765625,1728062939059.0
13.324999999999989,0.28531494140625,7.291381835937501,6.433193969726563,1728062939069.0
13.33499999999998,0.0847869873046875,6.944607543945313,5.9129577636718755,1728062939079.0
13.34699999999998,-0.4079345703125,7.0045715332031255,6.888381958007813,1728062939091.0
13.355999999999996,-0.4988525390625,7.206295776367188,7.566528320312501,1728062939100.0
13.366,-0.17406005859375,7.266857910156251,6.680227661132813,1728062939110.0
13.375999999999976,0.2471832275390625,7.223193359375,5.572164916992188,1728062939120.0
13.385999999999996,0.4451690673828125,7.210183715820313,5.9642486572265625,1728062939130.0
13.396,0.3524566650390625,7.2770263671875,7.235006713867188,1728062939140.0
13.405999999999976,0.4523468017578125,7.071414184570313,7.285400390625001,1728062939150.0
13.415999999999997,0.4975067138671875,7.060348510742188,6.442465209960938,1728062939160.0
13.426000000000002,0.41092529296875,7.079190063476563,5.908770751953125,1728062939170.0
13.43599999999998,0.0417205810546875,7.352990722656251,6.466390991210938,1728062939180.0
13.445999999999998,-0.1471435546875,7.379757690429688,6.837539672851563,1728062939190.0
13.455999999999989,-0.112152099609375,7.255493164062501,6.4372314453125,1728062939200.0
13.46599999999998,-0.0399261474609375,7.0613952636718755,6.084625244140625,1728062939210.0
13.476,0.02811279296875,7.025357055664063,6.812417602539063,1728062939220.0
13.48599999999999,-0.05323486328125,6.9955993652343755,7.503872680664063,1728062939230.0
13.495999999999997,0.1435546875,7.044647216796876,6.9567199707031255,1728062939240.0
13.506,0.356195068359375,7.2617736816406255,6.052624511718751,1728062939250.0
13.515999999999991,0.5716766357421875,7.352243041992188,5.682821655273438,1728062939260.0
13.527,0.32120361328125,7.437478637695313,6.680526733398438,1728062939271.0
13.536999999999978,0.073272705078125,7.141696166992188,6.815707397460938,1728062939281.0
13.546999999999995,0.07177734375,7.02640380859375,6.6636291503906255,1728062939291.0
13.557000000000002,0.262884521484375,6.972122192382813,6.0016326904296875,1728062939301.0
13.56699999999998,0.385504150390625,7.120761108398438,6.648226928710938,1728062939311.0
13.576999999999998,0.0497955322265625,7.408020019531251,7.238296508789063,1728062939321.0
13.586999999999987,0.057421875,7.203753662109375,6.767407226562501,1728062939331.0
13.59699999999998,-0.04964599609375,7.6101928710937505,6.140850830078126,1728062939341.0
13.607,-0.08553466796875,6.996197509765626,5.920733642578125,1728062939351.0
13.61699999999999,-0.318212890625,6.782958984375001,6.754995727539063,1728062939361.0
13.626999999999995,-0.2633331298828125,6.9582153320312505,7.390075683593751,1728062939371.0
13.636999999999972,0.4251312255859375,7.188351440429688,7.000384521484375,1728062939381.0
13.646999999999991,0.82484130859375,7.353738403320313,6.232516479492188,1728062939391.0
13.656999999999996,0.4532440185546875,7.193734741210938,6.31700439453125,1728062939401.0
13.666999999999971,-0.2160797119140625,7.044198608398438,6.796417236328126,1728062939411.0
13.676999999999992,-0.119927978515625,7.333700561523438,6.627590942382813,1728062939421.0
13.686999999999998,0.363671875,7.626193237304688,5.9156494140625,1728062939431.0
13.69799999999998,0.5175445556640625,7.27762451171875,5.612689208984375,1728062939442.0
13.707999999999998,-0.0354400634765625,6.839035034179688,7.091751098632813,1728062939452.0
13.71799999999999,-0.3871490478515625,6.7626220703125,7.999136352539063,1728062939462.0
13.72799999999998,-0.0085235595703125,7.0419555664062505,7.495947265625,1728062939472.0
13.738,0.2582489013671875,7.326373291015625,5.7833099365234375,1728062939482.0
13.74799999999999,0.1311431884765625,7.320989990234375,5.253054809570313,1728062939492.0
13.757999999999996,-0.11783447265625,7.303494262695313,6.566131591796876,1728062939502.0
13.767999999999972,0.068487548828125,7.325924682617188,7.35179443359375,1728062939512.0
13.777999999999992,0.3754852294921875,7.100125122070313,6.848156738281251,1728062939522.0
13.787999999999997,0.4472625732421875,6.87088623046875,5.812319946289063,1728062939532.0
