time,ax,ay,az,timestamp
0.0,0.081048583984375,5.850302124023438,9.45068359375,1728074103246.0
0.0089999999999861,-0.7663726806640626,7.39725341796875,10.077239990234377,1728074103255.0
0.018999999999977,-1.236065673828125,6.437680053710938,5.5380706787109375,1728074103265.0
0.0289999999999963,-0.34871826171875,6.663330078125001,3.284112548828125,1728074103275.0
0.0389999999999872,1.0639495849609375,9.557901000976564,5.3821044921875005,1728074103285.0
0.0489999999999781,2.237060546875,8.592196655273439,6.0016326904296875,1728074103295.0
0.0589999999999975,0.8737396240234375,6.892120361328126,6.55985107421875,1728074103305.0
0.0689999999999884,0.40135498046875,5.11114501953125,6.993206787109376,1728074103315.0
0.0789999999999793,0.4613189697265625,6.581533813476563,9.407916259765626,1728074103325.0
0.0889999999999986,-0.042767333984375,7.262371826171876,8.720498657226564,1728074103335.0
0.0989999999999895,-0.9700408935546876,7.768701171875,4.980450439453126,1728074103345.0
0.1089999999999804,-1.8636688232421876,7.482788085937501,4.0901123046875005,1728074103355.0
0.1189999999999997,-1.3103851318359376,7.194183349609376,5.312869262695313,1728074103365.0
0.1289999999999906,-1.116436767578125,7.247866821289063,8.734704589843751,1728074103375.0
0.1389999999999815,-0.2588470458984375,6.906475830078126,8.214318847656251,1728074103385.0
0.1490000000000009,0.7973266601562501,6.5831787109375,5.8501525878906255,1728074103395.0
0.1589999999999918,2.538076782226563,7.310971069335938,5.44969482421875,1728074103405.0
0.1689999999999827,1.7320770263671876,7.721447753906251,5.108004760742188,1728074103415.0
0.179000000000002,1.3210021972656252,8.238095092773438,6.90916748046875,1728074103425.0
0.1889999999999929,1.4180511474609376,7.404281616210938,6.055914306640625,1728074103435.0
0.1999999999999886,0.7837188720703125,6.6755920410156255,6.721051025390626,1728074103446.0
0.2099999999999795,-1.1883636474609376,7.396804809570313,4.642050170898438,1728074103456.0
0.2199999999999988,-1.6145416259765626,6.8161560058593755,8.140597534179689,1728074103466.0
0.2299999999999897,-1.7841156005859375,5.855685424804688,9.1312744140625,1728074103476.0
0.2399999999999806,-2.1999755859375,6.935186767578125,7.389627075195313,1728074103486.0
0.25,-1.5888214111328127,6.257040405273438,6.924270629882813,1728074103496.0
0.2599999999999909,0.452496337890625,7.299905395507813,4.6019744873046875,1728074103506.0
0.2699999999999818,2.422784423828125,7.037170410156251,6.614581298828125,1728074103516.0
0.2800000000000011,2.0437103271484376,9.196023559570314,6.332257080078126,1728074103526.0
0.289999999999992,1.9740264892578123,9.701156616210938,5.775234985351563,1728074103536.0
0.2999999999999829,1.1530731201171875,8.514736938476563,0.9440216064453124,1728074103546.0
0.3100000000000023,1.774844360351563,5.1278930664062505,4.681378173828126,1728074103556.0
0.3199999999999932,1.4584259033203126,6.465344238281251,11.819036865234375,1728074103566.0
0.3299999999999841,-2.4983001708984376,5.305242919921875,12.222784423828124,1728074103576.0
0.3400000000000034,-2.412017822265625,5.715719604492188,9.013589477539064,1728074103586.0
0.3509999999999991,-2.115936279296875,6.001931762695313,4.2246948242187505,1728074103597.0
0.3599999999999852,-1.3903869628906251,8.785247802734375,5.4004974365234375,1728074103606.0
0.3709999999999809,-1.208251953125,10.0093505859375,4.80369873046875,1728074103617.0
0.3799999999999954,-2.303305053710938,6.525756835937501,4.66373291015625,1728074103626.0
0.3909999999999911,2.002886962890625,7.946200561523438,5.3646087646484375,1728074103637.0
0.400999999999982,3.0439575195312503,6.210385131835938,7.503872680664063,1728074103647.0
0.4110000000000013,1.1692230224609377,7.124948120117188,9.523059082031253,1728074103657.0
0.4209999999999922,2.843280029296875,6.347659301757813,8.0641845703125,1728074103667.0
0.4309999999999832,1.7350677490234376,7.007711791992188,5.0997802734375,1728074103677.0
0.4410000000000025,0.3982147216796875,8.158840942382813,4.659396362304688,1728074103687.0
0.4509999999999934,-2.0287567138671876,7.788290405273438,5.508761596679688,1728074103697.0
0.4609999999999843,-2.468841552734375,6.545794677734375,7.944406127929688,1728074103707.0
0.4709999999999752,-2.3635681152343753,6.145486450195313,9.2736328125,1728074103717.0
0.4809999999999945,-2.3124267578125,6.198721313476563,8.558251953125001,1728074103727.0
0.4909999999999854,-1.0787536621093752,5.907723999023438,6.680526733398438,1728074103737.0
0.5009999999999764,1.526763916015625,5.755197143554688,7.461853027343751,1728074103747.0
0.5109999999999957,2.14793701171875,8.947793579101564,7.429403686523438,1728074103757.0
0.5209999999999866,1.8488647460937504,9.71087646484375,3.7439361572265626,1728074103767.0
0.5309999999999775,1.5677368164062502,10.24322509765625,-0.5227783203125,1728074103777.0
0.5420000000000016,1.2137847900390626,8.320489501953126,-0.6972869873046875,1728074103788.0
0.5519999999999925,2.2648742675781253,8.473016357421876,6.485382080078126,1728074103798.0
0.5619999999999834,2.187713623046875,6.243582153320313,11.9784423828125,1728074103808.0
0.5720000000000027,0.0776092529296875,3.2075500488281254,11.274127197265626,1728074103818.0
0.5819999999999936,-2.2648742675781253,4.423876953125,12.533819580078124,1728074103828.0
0.5919999999999845,-2.3143707275390626,5.699420166015625,9.246417236328126,1728074103838.0
0.6019999999999754,-2.465850830078125,7.067227172851563,5.139556884765625,1728074103848.0
0.6119999999999948,-2.6595001220703125,8.464492797851562,3.16478271484375,1728074103858.0
0.6219999999999857,1.099090576171875,11.131320190429689,1.6914031982421875,1728074103868.0
0.6319999999999766,-0.45997314453125,7.311270141601563,4.9040374755859375,1728074103878.0
0.6419999999999959,2.3954193115234377,6.8595214843750005,7.934237670898438,1728074103888.0
0.6519999999999868,1.8213500976562504,5.685812377929688,9.429449462890624,1728074103898.0
0.6619999999999777,2.60252685546875,6.174346923828126,8.882595825195313,1728074103908.0
0.671999999999997,1.5961486816406252,6.123504638671875,6.501980590820313,1728074103918.0
0.681999999999988,1.00069580078125,7.095339965820313,7.032684326171876,1728074103928.0
0.6919999999999789,-2.4968048095703126,8.02530517578125,5.907574462890626,1728074103938.0
0.7019999999999982,-1.9088287353515627,9.035720825195312,5.412161254882813,1728074103948.0
0.7129999999999939,-1.437042236328125,8.1598876953125,3.0067230224609376,1728074103959.0
0.7229999999999848,-1.9702880859375,6.241339111328125,4.942617797851563,1728074103969.0
0.7329999999999757,-1.8481170654296877,6.710134887695313,9.81360778808594,1728074103979.0
0.742999999999995,1.2528137207031251,5.9866790771484375,10.908660888671877,1728074103989.0
0.7529999999999859,2.5981903076171875,6.3137145996093755,8.090652465820312,1728074103999.0
0.7629999999999768,1.7147308349609376,7.101919555664063,4.2172180175781255,1728074104009.0
0.7729999999999961,1.9574279785156252,8.508905029296876,4.437933349609375,1728074104019.0
0.782999999999987,2.07257080078125,8.861810302734376,5.358477783203125,1728074104029.0
0.792999999999978,-0.0755157470703125,8.211776733398438,4.96759033203125,1728074104039.0
0.8029999999999973,-2.3000152587890628,6.4611572265625,5.8510498046875,1728074104049.0
0.8129999999999882,-2.0164947509765625,6.129037475585938,7.7178588867187505,1728074104059.0
0.8229999999999791,-2.128497314453125,6.291583251953125,10.3490966796875,1728074104069.0
0.8329999999999984,-2.129693603515625,6.397305297851563,8.834146118164064,1728074104079.0
0.8529999999999802,2.01873779296875,7.932742309570313,4.780670166015625,1728074104099.0
0.8629999999999995,2.0564208984375,7.635015869140625,5.714224243164063,1728074104109.0
0.8729999999999905,2.0378784179687504,7.254446411132813,7.318148803710938,1728074104119.0
0.8829999999999814,1.251318359375,7.574902343750001,6.821987915039063,1728074104129.0
0.8930000000000007,0.5600128173828125,7.873526000976563,4.8243347167968755,1728074104139.0
0.9029999999999916,0.5181427001953125,7.594342041015626,3.54281005859375,1728074104149.0
0.9129999999999824,-0.1317413330078125,8.225234985351562,5.4323486328125,1728074104159.0
0.9239999999999782,-1.1445495605468752,7.676437377929688,7.3365417480468755,1728074104170.0
0.9339999999999976,-0.7059600830078125,6.211581420898438,7.860516357421876,1728074104180.0
0.9439999999999884,-0.4296173095703125,5.617025756835938,8.65335693359375,1728074104190.0
0.9569999999999936,-0.8744873046875,5.603118896484375,9.00506591796875,1728074104203.0
0.9639999999999986,-1.1267547607421875,6.5350280761718755,8.855380249023439,1728074104210.0
0.9739999999999897,-0.4964599609375,7.589108276367188,6.055615234375001,1728074104220.0
0.9839999999999804,0.468646240234375,8.150466918945312,3.5854278564453126,1728074104230.0
0.9939999999999998,1.3912841796875002,8.594589233398438,3.5876708984375,1728074104240.0
1.003999999999991,1.2098968505859375,7.781561279296875,5.826376342773438,1728074104250.0
1.0139999999999816,1.0367340087890626,7.207342529296875,7.395907592773438,1728074104260.0
1.024000000000001,1.495660400390625,6.5963378906250005,7.248016357421876,1728074104270.0
1.0339999999999918,1.2119903564453125,6.735855102539063,6.004025268554688,1728074104280.0
1.0439999999999827,0.7704101562500001,6.6995178222656255,6.8849426269531255,1728074104290.0
1.056999999999988,-0.7795318603515625,7.951882934570313,7.785598754882813,1728074104303.0
1.0649999999999975,-1.7246002197265626,7.435983276367188,6.701461791992188,1728074104311.0
1.0749999999999886,-1.7136840820312502,7.22080078125,7.110592651367188,1728074104321.0
1.0849999999999795,-1.5877746582031251,5.905331420898438,5.356832885742188,1728074104331.0
1.0949999999999989,-1.9907745361328129,6.7339111328125005,7.109097290039063,1728074104341.0
1.1049999999999898,-1.0156494140625,7.264166259765625,8.831304931640625,1728074104351.0
1.114999999999981,1.3498626708984376,8.483334350585938,5.888284301757813,1728074104361.0
1.125,2.9699371337890628,6.726284790039063,3.8695465087890626,1728074104371.0
1.134999999999991,0.935797119140625,7.30155029296875,6.886288452148438,1728074104381.0
1.1449999999999818,1.45289306640625,6.465792846679688,8.148822021484376,1728074104391.0
1.1569999999999825,3.121267700195313,8.92252197265625,7.011300659179688,1728074104403.0
1.164999999999992,-0.8531036376953126,8.012295532226563,3.565689086914063,1728074104411.0
1.174999999999983,-0.9643585205078126,5.408572387695313,3.9084259033203126,1728074104421.0
1.1850000000000025,-1.7305816650390626,7.777374267578126,9.4399169921875,1728074104431.0
1.1949999999999932,-2.110552978515625,6.630432128906251,10.585513305664064,1728074104441.0
1.204999999999984,-1.111053466796875,6.1417480468750005,7.041806030273438,1728074104451.0
1.2150000000000034,0.288006591796875,6.322238159179688,5.165127563476563,1728074104461.0
1.2249999999999943,1.4167053222656252,7.789337158203126,5.726934814453125,1728074104471.0
1.2349999999999852,0.822149658203125,6.845016479492188,8.350396728515626,1728074104481.0
1.244999999999976,0.79971923828125,6.6411987304687505,8.812612915039063,1728074104491.0
1.2569999999999766,0.2426971435546875,6.872082519531251,6.305490112304688,1728074104503.0
1.2659999999999911,0.215032958984375,7.827767944335938,3.375778198242188,1728074104512.0
1.275999999999982,1.021630859375,9.649417114257814,3.42318115234375,1728074104522.0
1.2860000000000014,0.5834899902343751,9.655697631835938,3.3943206787109377,1728074104532.0
1.2959999999999925,0.6945953369140625,7.166519165039063,5.385693359375001,1728074104542.0
1.3059999999999832,0.1987335205078125,5.8396850585937505,8.102017211914063,1728074104552.0
1.3160000000000025,-0.113946533203125,5.017535400390625,10.525250244140626,1728074104562.0
1.3259999999999934,-0.234173583984375,5.241839599609375,11.228518676757814,1728074104572.0
1.3359999999999843,-0.9873870849609376,9.74078369140625,6.600674438476563,1728074104582.0
1.3459999999999752,0.0450103759765625,2.87109375,4.980001831054688,1728074104592.0
1.3579999999999757,-0.95523681640625,9.94534912109375,3.4762664794921876,1728074104604.0
1.3659999999999854,-1.6495330810546875,7.047189331054688,7.383645629882813,1728074104612.0
1.3759999999999764,0.2093505859375,10.7486572265625,5.012152099609375,1728074104622.0
1.3859999999999957,0.0961517333984375,6.865203857421876,5.941519165039063,1728074104632.0
1.3959999999999866,1.0832397460937502,5.763272094726563,5.3122711181640625,1728074104642.0
1.4059999999999775,2.9205902099609378,6.5574584960937505,5.80020751953125,1728074104652.0
1.4159999999999968,0.51380615234375,9.265856933593753,11.060290527343753,1728074104662.0
1.4269999999999925,0.984844970703125,3.2712524414062503,9.307577514648438,1728074104673.0
1.4369999999999834,-0.2089019775390625,6.63162841796875,7.461703491210938,1728074104683.0
1.4470000000000027,-2.101580810546875,6.842623901367188,5.908621215820313,1728074104693.0
1.4579999999999984,-1.2293365478515623,9.6432861328125,5.7444305419921875,1728074104704.0
1.4669999999999843,-1.10537109375,8.557803344726564,2.4564300537109376,1728074104713.0
1.4769999999999754,-0.105572509765625,7.522265625,4.271798706054688,1728074104723.0
1.4869999999999948,0.6960906982421875,6.459362792968751,6.930999755859376,1728074104733.0
1.4969999999999857,1.332217407226563,6.826025390625,11.068963623046876,1728074104743.0
1.5069999999999766,0.9302642822265624,6.550131225585938,8.424566650390625,1728074104753.0
1.516999999999996,0.7681671142578126,6.448446655273438,4.89581298828125,1728074104763.0
1.5269999999999868,0.39058837890625,7.670156860351563,4.76422119140625,1728074104773.0
1.5369999999999775,-0.04127197265625,7.883544921875001,6.371734619140626,1728074104783.0
1.546999999999997,-0.5597137451171875,7.616473388671875,7.68675537109375,1728074104793.0
1.556999999999988,-0.7512695312500001,6.900942993164063,6.1866088867187505,1728074104803.0
1.5679999999999836,-0.1064697265625,6.414651489257813,5.644091796875,1728074104814.0
1.5769999999999982,0.09390869140625,7.008160400390626,7.9720703125,1728074104823.0
1.586999999999989,-0.231182861328125,7.466488647460938,7.54678955078125,1728074104833.0
1.59699999999998,-0.0686370849609375,7.097433471679688,6.45816650390625,1728074104843.0
1.606999999999999,0.4098785400390625,7.180575561523438,4.783062744140626,1728074104853.0
1.617999999999995,0.4547393798828125,7.402487182617188,5.917144775390625,1728074104864.0
1.627999999999986,0.0635528564453125,7.454824829101563,7.971920776367188,1728074104874.0
1.6379999999999768,-0.29847412109375,6.9716735839843755,7.42955322265625,1728074104884.0
1.647999999999996,-0.1855743408203125,6.485382080078126,6.551626586914063,1728074104894.0
1.657999999999987,0.0883758544921875,6.6406005859375,6.605609130859375,1728074104904.0
1.667999999999978,-0.2483795166015625,7.377813720703125,7.3126159667968755,1728074104914.0
1.6779999999999973,-0.1972381591796875,7.365701293945313,7.114929199218751,1728074104924.0
1.6879999999999882,0.1435546875,7.387832641601563,5.527752685546876,1728074104934.0
1.697999999999979,0.4134674072265625,7.14842529296875,5.286102294921875,1728074104944.0
1.7079999999999984,0.6219207763671876,7.309774780273438,5.972921752929688,1728074104954.0
1.717999999999989,0.4933197021484375,7.537518310546876,7.301849365234376,1728074104964.0
1.7279999999999802,0.7734008789062501,6.716864013671875,7.155902099609375,1728074104974.0
1.7379999999999995,0.3692047119140625,7.188949584960938,6.853390502929688,1728074104984.0
1.7479999999999905,-0.1353302001953125,7.156799316406251,6.279919433593751,1728074104994.0
1.7579999999999814,-0.401953125,7.197174072265626,5.701962280273438,1728074105004.0
1.768000000000001,-0.167779541015625,7.4995361328125005,6.981243896484376,1728074105014.0
1.7789999999999964,-0.1902099609375,7.466339111328126,6.758584594726563,1728074105025.0
1.7889999999999873,-0.337054443359375,6.970028686523438,6.423623657226563,1728074105035.0
1.7989999999999782,-0.019140625,6.886737060546875,6.606057739257813,1728074105045.0
1.8089999999999975,0.2833709716796875,7.189547729492188,6.841726684570313,1728074105055.0
1.8189999999999884,0.4885345458984375,7.441964721679688,7.212725830078125,1728074105065.0
1.8289999999999793,0.3584381103515625,7.106854248046876,6.001782226562501,1728074105075.0
1.8389999999999984,0.23985595703125,7.0060668945312505,6.031390380859375,1728074105085.0
1.8489999999999895,0.151629638671875,7.579388427734376,6.780865478515626,1728074105095.0
1.8589999999999804,0.1275543212890625,7.259530639648438,6.812268066406251,1728074105105.0
1.869,-0.0701324462890625,7.335494995117188,5.983837890625001,1728074105115.0
1.878999999999991,0.06639404296875,6.95462646484375,6.070120239257813,1728074105125.0
1.8889999999999816,0.109161376953125,7.162780761718751,7.003973388671875,1728074105135.0
1.899000000000001,-0.030206298828125,6.798959350585938,7.604360961914063,1728074105145.0
1.908999999999992,-0.0991424560546875,6.806137084960938,7.210333251953125,1728074105155.0
1.9189999999999827,-0.2213134765625,6.825875854492188,6.833651733398438,1728074105165.0
1.929000000000002,-0.246734619140625,7.154705810546876,6.3654541015625,1728074105175.0
1.938999999999993,-0.2340240478515625,7.232913208007813,6.438278198242188,1728074105185.0
1.9499999999999889,-0.058319091796875,7.785598754882813,5.8247314453125005,1728074105196.0
1.9599999999999795,0.40614013671875,7.615127563476563,5.839385986328125,1728074105206.0
1.9699999999999989,1.023126220703125,7.354486083984376,5.7433837890625,1728074105216.0
1.9799999999999895,0.814373779296875,7.3607666015625,6.845315551757813,1728074105226.0
1.989999999999981,0.6527252197265625,6.6097961425781255,7.0975830078125,1728074105236.0
2.0,0.3159698486328125,7.0045715332031255,7.164724731445313,1728074105246.0
2.009999999999991,0.0456085205078125,6.996945190429688,6.844717407226563,1728074105256.0
2.019999999999982,-0.3638214111328125,7.267456054687501,6.249713134765625,1728074105266.0
2.030000000000001,-0.8807678222656251,7.296466064453125,6.619216918945313,1728074105276.0
2.039999999999992,-1.03299560546875,7.245324707031251,6.338238525390626,1728074105286.0
2.049999999999983,-0.570928955078125,7.052273559570313,6.846212768554688,1728074105296.0
2.0600000000000023,0.1365264892578125,7.031637573242188,6.506765747070313,1728074105306.0
2.070999999999998,0.4735809326171875,6.8012023925781255,7.07724609375,1728074105317.0
2.079999999999984,0.9063385009765624,7.158294677734376,6.481643676757813,1728074105326.0
2.0900000000000034,1.4318084716796875,7.19388427734375,6.094793701171875,1728074105336.0
2.0999999999999943,1.3539001464843752,7.828665161132813,4.909719848632813,1728074105346.0
2.109999999999985,1.6260559082031252,7.560098266601563,6.285751342773438,1728074105356.0
2.120999999999981,0.369952392578125,8.219253540039062,6.86490478515625,1728074105367.0
2.1299999999999955,-0.9787139892578126,6.570617675781251,7.341625976562501,1728074105376.0
2.140999999999991,-2.2023681640625004,5.968435668945313,7.713522338867188,1728074105387.0
2.150999999999982,-2.2369110107421877,6.646133422851563,8.138653564453126,1728074105397.0
2.161000000000002,-1.8798187255859375,6.474765014648438,6.414950561523438,1728074105407.0
2.1709999999999923,-0.8193084716796876,8.142242431640625,5.509957885742188,1728074105417.0
2.180999999999983,1.690057373046875,8.167813110351563,5.658895874023438,1728074105427.0
2.1910000000000025,2.385250854492188,7.835693359375001,5.653811645507813,1728074105437.0
2.2009999999999934,1.9198944091796877,6.362014770507813,6.92113037109375,1728074105447.0
2.2109999999999843,1.6115509033203126,6.653610229492188,6.612637329101563,1728074105457.0
2.220999999999975,1.4113220214843751,7.347607421875001,8.068820190429689,1728074105467.0
2.2309999999999945,0.23387451171875,7.090255737304688,6.964346313476563,1728074105477.0
2.2409999999999854,-1.7791809082031251,7.0554138183593755,6.287994384765626,1728074105487.0
2.2509999999999764,-2.404541015625,6.860418701171875,6.2404418945312505,1728074105497.0
2.2609999999999957,-2.0689819335937503,7.304989624023438,6.439923095703126,1728074105507.0
2.2709999999999866,-1.6893096923828126,7.994650268554688,6.9576171875,1728074105517.0
2.2809999999999775,-0.24583740234375,6.573309326171875,6.120065307617188,1728074105527.0
2.290999999999997,2.0912628173828125,6.387585449218751,6.905130004882813,1728074105537.0
2.3019999999999925,1.94755859375,6.611141967773438,8.10186767578125,1728074105548.0
2.3119999999999834,2.4631591796875,8.001678466796875,7.547985839843751,1728074105558.0
2.3220000000000027,1.902398681640625,6.859671020507813,5.711831665039063,1728074105568.0
2.3319999999999936,0.6524261474609375,7.293176269531251,4.2845092773437505,1728074105578.0
2.3419999999999845,-2.3445770263671877,8.258731079101564,5.7649169921875005,1728074105588.0
2.351999999999975,-2.0398223876953128,8.576046752929688,5.405880737304688,1728074105598.0
2.3619999999999948,-1.0202850341796876,7.929751586914063,4.971627807617188,1728074105608.0
2.3719999999999857,-0.3324188232421875,5.878713989257813,6.771743774414063,1728074105618.0
2.3819999999999766,-0.2417999267578125,5.129986572265626,10.352236938476564,1728074105628.0
2.391999999999996,0.486590576171875,5.740243530273438,11.731109619140623,1728074105638.0
2.401999999999987,1.012359619140625,6.9037841796875,7.615277099609376,1728074105648.0
2.4119999999999777,1.5683349609375,7.987023925781251,2.803802490234375,1728074105658.0
2.421999999999997,1.4871368408203125,8.671600341796875,2.3993072509765625,1728074105668.0
2.431999999999988,-0.215631103515625,8.621057128906251,5.677886962890625,1728074105678.0
2.441999999999979,-0.98992919921875,7.736849975585938,7.147976684570313,1728074105688.0
2.451999999999998,-0.268865966796875,6.9821411132812505,6.201113891601563,1728074105698.0
2.461999999999989,0.3698028564453125,6.526504516601563,5.728131103515626,1728074105708.0
2.4729999999999848,0.3692047119140625,5.719757080078125,8.541354370117189,1728074105719.0
2.4819999999999993,-0.4969085693359375,6.183767700195313,10.349395751953123,1728074105728.0
2.492999999999995,-0.6464447021484375,6.362313842773438,8.929849243164064,1728074105739.0
2.502999999999986,-0.1401153564453125,7.219155883789063,4.496102905273438,1728074105749.0
2.512999999999977,0.307745361328125,9.442459106445312,3.302206420898438,1728074105759.0
2.522999999999996,0.3026611328125,8.937176513671876,3.63671875,1728074105769.0
2.532999999999987,0.295184326171875,7.095040893554688,5.6596435546875,1728074105779.0
2.542999999999978,0.7615875244140625,6.701760864257813,8.869137573242188,1728074105789.0
2.5529999999999973,0.9721343994140624,5.418142700195313,8.987271118164063,1728074105799.0
2.562999999999988,0.4903289794921875,6.2045532226562505,8.673693847656251,1728074105809.0
2.572999999999979,-0.1897613525390625,7.219604492187501,7.278970336914063,1728074105819.0
2.5829999999999984,-0.6868194580078125,7.909713745117188,5.172903442382813,1728074105829.0
2.5929999999999893,-1.50732421875,8.37821044921875,4.154263305664063,1728074105839.0
2.60299999999998,-0.9663024902343752,7.691690063476563,4.166973876953126,1728074105849.0
2.6129999999999995,-0.185723876953125,7.700662231445313,6.563739013671875,1728074105859.0
2.6229999999999905,0.9742279052734376,6.38040771484375,8.637655639648438,1728074105869.0
2.632999999999982,1.3066467285156251,5.8292175292968755,8.685656738281251,1728074105879.0
2.6430000000000007,0.8157196044921876,6.236105346679688,8.202505493164063,1728074105889.0
2.6539999999999964,0.8385986328125,7.399047851562501,6.39775390625,1728074105900.0
2.6670000000000016,0.3901397705078125,8.174990844726564,4.91973876953125,1728074105913.0
2.673999999999978,-0.246435546875,8.103213500976564,4.077252197265626,1728074105920.0
2.6839999999999975,-0.8904876708984376,7.622753906250001,5.4917144775390625,1728074105930.0
2.6939999999999884,-0.9927703857421876,6.696377563476563,7.499685668945313,1728074105940.0
2.7039999999999793,-0.3156707763671875,6.506317138671876,8.707937622070313,1728074105950.0
2.713999999999998,-0.120526123046875,6.292031860351563,8.20474853515625,1728074105960.0
2.7239999999999895,0.11783447265625,6.324780273437501,6.671853637695313,1728074105970.0
2.7339999999999804,0.2050140380859375,7.524060058593751,6.453829956054688,1728074105980.0
2.744,0.6316406250000001,8.086764526367189,5.705401611328125,1728074105990.0
2.7539999999999907,0.9820037841796876,7.925564575195313,5.243185424804688,1728074106000.0
2.766999999999996,0.342437744140625,7.440020751953125,5.220455932617188,1728074106013.0
2.774000000000001,0.2500244140625,7.041506958007813,6.283508300781251,1728074106020.0
2.783999999999992,0.5175445556640625,7.464245605468751,7.493704223632813,1728074106030.0
2.7939999999999827,0.5848358154296875,6.930999755859376,6.996945190429688,1728074106040.0
2.804000000000002,-0.0145050048828125,6.54429931640625,6.6441894531250005,1728074106050.0
2.813999999999993,-0.7360168457031251,6.570617675781251,7.442263793945313,1728074106060.0
2.823999999999984,-1.0673889160156251,7.180725097656251,7.826272583007813,1728074106070.0
2.8349999999999795,-0.5731719970703125,7.332653808593751,6.618020629882813,1728074106081.0
2.844999999999999,-0.1435546875,7.363458251953125,4.460812377929688,1728074106091.0
2.8549999999999898,0.3241943359375,7.640997314453125,4.652667236328125,1728074106101.0
2.8669999999999902,1.0579681396484375,7.98582763671875,6.454876708984376,1728074106113.0
2.875,2.2591918945312504,6.910662841796875,7.706494140625001,1728074106121.0
2.884999999999991,1.4060882568359376,6.789987182617188,7.593594360351563,1728074106131.0
2.894999999999982,0.2178741455078125,6.82542724609375,7.266708374023438,1728074106141.0
2.905000000000001,-1.1746063232421875,6.431399536132813,7.020870971679688,1728074106151.0
2.914999999999992,-1.7766387939453123,7.377365112304688,6.66392822265625,1728074106161.0
2.924999999999983,-1.5394744873046875,7.735205078125,5.993408203125,1728074106171.0
2.9350000000000023,-1.206607055664063,7.31949462890625,5.07525634765625,1728074106181.0
2.944999999999993,-0.28890380859375,7.428506469726563,6.728079223632813,1728074106191.0
2.954999999999984,0.8137756347656251,7.11552734375,7.555313110351563,1728074106201.0
2.96599999999998,1.7880035400390626,6.615328979492188,7.43912353515625,1728074106212.0
2.9749999999999943,1.4247802734375,6.851446533203125,6.482241821289063,1728074106221.0
2.984999999999985,1.350311279296875,7.2617736816406255,6.342575073242188,1728074106231.0
2.995999999999981,0.71478271484375,7.598828125000001,6.405978393554688,1728074106242.0
3.0049999999999955,-0.36307373046875,7.465890502929688,6.1716552734375005,1728074106251.0
3.0149999999999864,-1.780825805664063,7.192089843750001,6.206198120117188,1728074106261.0
3.025999999999982,-1.7591430664062502,6.886138916015626,6.519476318359375,1728074106272.0
3.036000000000002,-0.8493652343750001,7.331607055664063,7.380056762695313,1728074106282.0
3.0459999999999923,-0.378924560546875,6.839782714843751,6.944607543945313,1728074106292.0
3.055999999999983,0.29847412109375,6.581533813476563,6.730322265625,1728074106302.0
3.066999999999979,1.3875457763671877,6.984832763671876,7.012347412109375,1728074106313.0
3.0759999999999934,1.6939453125,7.221099853515626,7.120013427734375,1728074106322.0
3.0859999999999843,1.1197265625,7.228277587890625,6.704602050781251,1728074106332.0
3.095999999999975,0.19140625,7.035675048828126,5.888433837890625,1728074106342.0
3.1059999999999945,-0.3766815185546875,7.554116821289063,5.7362060546875,1728074106352.0
3.1159999999999854,-0.69324951171875,8.069418334960938,5.7803192138671875,1728074106362.0
3.1259999999999764,-0.3294281005859375,8.075549316406251,4.993908691406251,1728074106372.0
3.1370000000000005,-0.0115142822265625,7.152911376953125,5.63511962890625,1728074106383.0
3.1459999999999866,0.1128997802734375,6.434091186523438,7.698120117187501,1728074106392.0
3.1559999999999775,0.1425079345703125,6.0011840820312505,9.54339599609375,1728074106402.0
3.1670000000000016,0.419598388671875,6.6845642089843755,8.638702392578125,1728074106413.0
3.1769999999999925,0.464459228515625,7.134967041015625,5.861965942382813,1728074106423.0
3.185999999999978,0.350811767578125,7.558602905273438,4.188357543945313,1728074106432.0
3.1970000000000027,-0.165985107421875,8.043399047851564,5.63511962890625,1728074106443.0
3.2069999999999936,-0.6431549072265625,7.6658203125,6.681124877929688,1728074106453.0
3.2169999999999845,-0.4221405029296875,7.19986572265625,6.673348999023438,1728074106463.0
3.226999999999975,0.2295379638671875,6.807034301757813,6.154608154296875,1728074106473.0
3.2369999999999948,0.6939971923828125,6.35289306640625,6.68546142578125,1728074106483.0
3.2469999999999857,0.6032287597656251,7.048834228515625,8.04205322265625,1728074106493.0
3.2569999999999766,0.5254699707031251,6.999337768554688,7.333102416992188,1728074106503.0
3.2680000000000007,0.5680877685546876,7.4531799316406255,5.820843505859376,1728074106514.0
3.276999999999987,0.625958251953125,8.853585815429689,5.16019287109375,1728074106523.0
3.2869999999999777,-0.1045257568359375,7.242483520507813,4.9055328369140625,1728074106533.0
3.296999999999997,-0.8695526123046876,6.547140502929688,6.7443786621093755,1728074106543.0
3.306999999999988,-1.0941558837890626,6.583627319335938,9.160134887695314,1728074106553.0
3.316999999999979,-0.4936187744140625,6.375473022460938,7.942761230468751,1728074106563.0
3.326999999999998,0.0716278076171875,7.255941772460938,6.96300048828125,1728074106573.0
3.336999999999989,0.0800018310546875,7.194781494140625,5.883648681640626,1728074106583.0
3.34699999999998,-0.2400054931640625,7.621856689453126,5.631979370117188,1728074106593.0
3.3579999999999757,0.108563232421875,7.749411010742188,6.07535400390625,1728074106604.0
3.367999999999995,1.04854736328125,7.550677490234375,5.225241088867188,1728074106614.0
3.377999999999986,1.5453063964843752,7.319046020507813,6.685610961914063,1728074106624.0
3.3870000000000005,0.8052520751953126,6.555813598632813,7.3727294921875,1728074106633.0
3.397999999999996,-0.2367156982421875,6.444708251953125,8.196075439453125,1728074106644.0
3.407999999999987,-0.3025115966796875,7.2288757324218755,7.353738403320313,1728074106654.0
3.417999999999978,-0.2859130859375,7.266409301757813,5.5799407958984375,1728074106664.0
3.4279999999999973,-0.6637908935546876,7.546041870117188,5.0905090332031255,1728074106674.0
3.437999999999988,-1.212139892578125,7.466189575195313,6.494952392578125,1728074106684.0
3.447999999999979,-0.7434936523437501,6.934887695312501,7.2865966796875,1728074106694.0
3.4579999999999984,0.19320068359375,6.330761718750001,7.876068115234376,1728074106704.0
3.4679999999999893,0.62625732421875,6.767108154296875,7.613632202148438,1728074106714.0
3.47799999999998,0.57362060546875,6.669161987304688,7.001281738281251,1728074106724.0
3.4879999999999995,0.6302947998046875,7.159341430664063,6.254946899414063,1728074106734.0
3.4979999999999905,0.6009857177734376,8.316003417968751,5.4184417724609375,1728074106744.0
3.507999999999982,1.02462158203125,8.522811889648438,4.1473846435546875,1728074106754.0
3.5180000000000007,0.868505859375,7.916741943359376,4.40653076171875,1728074106764.0
3.5289999999999964,0.0967498779296875,6.91514892578125,6.576599121093751,1728074106775.0
3.5389999999999873,-0.3019134521484375,6.62564697265625,8.275927734375001,1728074106785.0
3.548999999999978,-0.13817138671875,6.4901672363281255,9.0248046875,1728074106795.0
3.5589999999999975,-0.09390869140625,6.308929443359376,6.961953735351563,1728074106805.0
3.5689999999999884,-0.7565032958984376,6.659890747070313,7.096984863281251,1728074106815.0
3.5789999999999793,-1.2771881103515623,7.273587036132813,6.704602050781251,1728074106825.0
3.588999999999998,-0.97916259765625,7.722943115234376,6.498242187500001,1728074106835.0
3.5989999999999895,0.1519287109375,7.601519775390625,5.02860107421875,1728074106845.0
3.608999999999981,0.9565826416015626,7.659689331054688,4.441073608398438,1728074106855.0
3.619,1.6982818603515626,7.573257446289063,5.634371948242188,1728074106865.0
3.6289999999999902,2.0510375976562503,7.441665649414063,7.1182189941406255,1728074106875.0
3.6389999999999816,2.2200134277343753,6.360220336914063,8.333648681640625,1728074106885.0
3.649000000000001,0.6899597167968751,6.85294189453125,7.808178710937501,1728074106895.0
3.658999999999992,-1.063201904296875,7.1436401367187505,7.366149902343751,1728074106905.0
3.6689999999999823,-2.2093963623046875,6.3421264648437505,5.986828613281251,1728074106915.0
3.679000000000002,-2.27294921875,7.772290039062501,5.996099853515625,1728074106925.0
3.688999999999993,-1.5692321777343752,7.991210937500001,5.5720153808593755,1728074106935.0
3.698999999999984,-1.6830291748046875,7.148873901367188,6.0494842529296875,1728074106945.0
3.709000000000003,0.7104461669921875,6.947149658203125,7.448693847656251,1728074106955.0
3.719999999999999,2.6295928955078125,6.933990478515626,7.66282958984375,1728074106966.0
3.7299999999999898,1.9444183349609376,6.420782470703125,7.326223754882813,1728074106976.0
3.7399999999999807,2.0499908447265627,7.358822631835938,6.002529907226563,1728074106986.0
3.75,1.4222381591796875,7.768402099609376,6.0595031738281255,1728074106996.0
3.759999999999991,-0.3279327392578125,7.722195434570313,5.393768310546875,1728074107006.0
3.769999999999982,-2.141357421875,7.114031982421875,6.322088623046875,1728074107016.0
3.780000000000001,-2.3563903808593754,6.952981567382813,7.203604125976563,1728074107026.0
3.789999999999992,-2.0375793457031253,6.714321899414063,7.655203247070313,1728074107036.0
3.799999999999983,-0.7648773193359375,7.073507690429688,7.257885742187501,1728074107046.0
3.8100000000000023,0.37144775390625,6.6310302734375,6.2867980957031255,1728074107056.0
3.819999999999993,2.01455078125,6.991561889648438,6.644787597656251,1728074107066.0
3.829999999999984,2.153619384765625,7.716213989257813,6.690695190429688,1728074107076.0
3.8400000000000034,2.1302917480468753,7.438226318359376,6.407025146484376,1728074107086.0
3.8499999999999943,0.81885986328125,7.012646484375001,5.551828002929688,1728074107096.0
3.859999999999985,-0.165386962890625,7.336691284179688,6.486727905273438,1728074107106.0
3.869999999999976,-1.4297149658203123,7.524060058593751,6.867446899414063,1728074107116.0
3.879999999999995,-1.487286376953125,7.1215087890625,6.3678466796875,1728074107126.0
3.890999999999991,-1.2595428466796876,7.308728027343751,5.829067993164063,1728074107137.0
3.900999999999982,-0.5531341552734376,6.831707763671876,6.5440002441406255,1728074107147.0
3.911000000000002,0.245538330078125,7.068124389648438,7.719503784179688,1728074107157.0
3.920999999999992,0.7897003173828125,6.695181274414063,8.00257568359375,1728074107167.0
3.930999999999983,1.439883422851563,6.7087890625,6.634768676757813,1728074107177.0
3.9410000000000025,1.0742675781250002,7.359121704101563,5.9593139648437505,1728074107187.0
3.9509999999999934,0.9174041748046876,7.880255126953125,5.509957885742188,1728074107197.0
3.960999999999984,0.318511962890625,7.8987976074218755,5.845816040039063,1728074107207.0
3.970999999999975,-0.477020263671875,7.257138061523438,5.9234252929687505,1728074107217.0
3.9809999999999945,-0.9582275390625,6.921728515625,6.484933471679688,1728074107227.0
3.9909999999999854,-0.7624847412109376,6.96898193359375,7.517929077148438,1728074107237.0
4.000999999999976,-0.08134765625,6.868643188476563,7.277175903320313,1728074107247.0
4.010999999999996,0.0805999755859375,6.502279663085938,6.9875244140625,1728074107257.0
4.020999999999987,0.2839691162109375,6.740939331054688,6.722695922851563,1728074107267.0
4.0309999999999775,0.43604736328125,7.421627807617188,7.151266479492188,1728074107277.0
4.040999999999997,0.835308837890625,8.450585937500001,6.091055297851563,1728074107287.0
4.050999999999988,0.841290283203125,7.624099731445313,4.218264770507813,1728074107297.0
4.060999999999979,0.3001190185546875,7.018927001953125,4.901644897460938,1728074107307.0
4.072000000000003,-0.1758544921875,6.920233154296875,8.25858154296875,1728074107318.0
4.081999999999994,-0.3781768798828125,6.832754516601563,9.110040283203126,1728074107328.0
4.0919999999999845,-0.44442138671875,6.63701171875,7.463497924804688,1728074107338.0
4.101999999999975,-0.5372833251953125,6.602020263671876,5.5036773681640625,1728074107348.0
4.111999999999995,-0.7364654541015625,7.663726806640626,6.032437133789063,1728074107358.0
4.121999999999986,-0.382513427734375,8.008856201171875,6.7264343261718755,1728074107368.0
4.131999999999977,0.2809783935546875,7.5638366699218755,5.58487548828125,1728074107378.0
4.141999999999996,0.8448791503906251,6.844866943359375,5.651419067382813,1728074107388.0
4.151999999999987,0.9658538818359376,6.791632080078125,6.966738891601563,1728074107398.0
4.161999999999978,0.8499633789062501,6.867745971679688,8.865399169921876,1728074107408.0
4.171999999999997,0.460870361328125,7.155154418945313,7.450039672851563,1728074107418.0
4.181999999999988,0.08792724609375,7.195080566406251,5.073162841796876,1728074107428.0
4.191999999999979,-0.2232574462890625,7.504769897460938,4.866055297851563,1728074107438.0
4.201999999999998,-0.6883148193359375,7.711129760742188,6.303845214843751,1728074107448.0
4.211999999999989,-0.8332153320312501,7.350299072265625,7.491012573242188,1728074107458.0
4.22199999999998,-0.4879364013671875,6.625347900390626,6.868792724609375,1728074107468.0
4.231999999999999,0.1447509765625,6.583627319335938,6.686657714843751,1728074107478.0
4.24199999999999,0.48509521484375,6.871334838867188,7.2889892578125,1728074107488.0
4.252999999999986,0.5196380615234375,7.126742553710938,7.607650756835938,1728074107499.0
4.262999999999977,0.4065887451171875,7.221099853515626,6.6696105957031255,1728074107509.0
4.272999999999996,0.42886962890625,7.283157348632813,5.268008422851563,1728074107519.0
4.282999999999987,0.4152618408203125,7.7507568359375005,5.476611328125,1728074107529.0
4.292999999999978,0.248529052734375,7.701409912109376,6.154907226562501,1728074107539.0
4.302999999999997,0.0610107421875,7.495648193359376,6.404632568359376,1728074107549.0
4.312999999999988,0.1245635986328125,6.839483642578125,6.433044433593751,1728074107559.0
4.322999999999979,0.0961517333984375,6.683367919921875,7.127041625976563,1728074107569.0
4.332999999999998,-0.2403045654296875,6.584225463867188,8.176336669921875,1728074107579.0
4.342999999999989,-0.5899200439453125,6.902139282226563,7.652960205078125,1728074107589.0
4.35299999999998,-0.5595642089843751,7.075302124023438,6.4037353515625,1728074107599.0
4.3629999999999995,-0.0227294921875,7.524209594726563,5.093051147460938,1728074107609.0
4.376999999999981,0.3629241943359375,7.756588745117188,5.5122009277343755,1728074107623.0
4.382999999999981,0.603826904296875,7.811618041992188,5.446255493164063,1728074107629.0
4.393000000000001,1.098492431640625,7.310821533203126,6.2419372558593755,1728074107639.0
4.402999999999992,1.6985809326171877,6.246273803710938,7.407870483398438,1728074107649.0
4.4129999999999825,1.0325469970703125,7.198669433593751,8.596832275390625,1728074107659.0
4.423000000000002,-0.4394866943359375,7.083526611328126,7.633370971679688,1728074107669.0
4.4339999999999975,-1.5780548095703126,6.3735290527343755,5.220455932617188,1728074107680.0
4.443999999999988,-1.4259765625,7.546041870117188,6.0823822021484375,1728074107690.0
4.453999999999979,-1.0887725830078123,8.031884765625001,6.618170166015625,1728074107700.0
4.463999999999999,-1.0817443847656252,7.239941406250001,6.421231079101563,1728074107710.0
4.475999999999999,-0.292193603515625,6.640451049804688,6.323284912109376,1728074107722.0
4.4839999999999804,1.5248199462890626,6.980496215820313,7.038067626953126,1728074107730.0
4.494,2.0767578125000004,7.139602661132813,7.892965698242188,1728074107740.0
4.503999999999991,1.1384185791015626,7.1630798339843755,6.429455566406251,1728074107750.0
4.513999999999982,0.7840179443359375,7.202706909179688,5.871835327148438,1728074107760.0
4.524000000000001,0.392083740234375,7.484732055664063,5.4164978027343755,1728074107770.0
4.533999999999992,-0.3943267822265625,7.481591796875,6.802548217773438,1728074107780.0
4.543999999999983,-1.8463226318359376,7.230670166015625,7.1092468261718755,1728074107790.0
4.554000000000002,-1.8259857177734375,6.534130859375001,6.909466552734376,1728074107800.0
4.563999999999993,-0.7245025634765625,7.021618652343751,6.883596801757813,1728074107810.0
4.576999999999998,0.018841552734375,7.168911743164063,6.833352661132813,1728074107823.0
4.584000000000003,0.5932098388671876,7.02640380859375,6.794024658203125,1728074107830.0
4.594999999999999,1.0968475341796875,6.946401977539063,6.391174316406251,1728074107841.0
4.60499999999999,1.6529724121093752,7.472470092773438,6.456820678710938,1728074107851.0
4.614999999999981,1.6425048828125002,7.387832641601563,6.183468627929688,1728074107861.0
4.625,0.588873291015625,7.210632324218751,6.180477905273438,1728074107871.0
4.634999999999991,-0.2349212646484375,7.424468994140626,6.535177612304688,1728074107881.0
4.644999999999982,-0.9902282714843752,7.288092041015625,6.124551391601563,1728074107891.0
4.655000000000001,-0.890936279296875,7.473965454101563,6.073709106445313,1728074107901.0
4.664999999999992,-0.6406127929687501,7.062741088867188,6.453979492187501,1728074107911.0
4.6769999999999925,-0.629248046875,6.694284057617188,7.536471557617188,1728074107923.0
4.685000000000002,-0.2322296142578125,6.390277099609375,8.209832763671876,1728074107931.0
4.694999999999993,0.4732818603515625,7.125994873046875,7.269998168945313,1728074107941.0
4.704999999999984,0.935797119140625,7.311270141601563,5.861965942382813,1728074107951.0
4.715000000000003,1.1731109619140625,7.628137207031251,4.9369354248046875,1728074107961.0
4.724999999999994,0.6625946044921875,7.508209228515626,6.216366577148438,1728074107971.0
4.734999999999985,0.106768798828125,7.470675659179688,6.539364624023438,1728074107981.0
4.744999999999976,0.0046356201171875,7.263867187500001,6.771444702148438,1728074107991.0
4.7549999999999955,-0.02811279296875,6.831558227539063,5.8082824707031255,1728074108001.0
4.765999999999991,-0.2423980712890625,6.783856201171876,6.624450683593751,1728074108012.0
4.776999999999987,-0.3455780029296875,6.770697021484375,7.799206542968751,1728074108023.0
4.786000000000001,-0.2268463134765625,7.02042236328125,7.7675048828125,1728074108032.0
4.795999999999992,-0.0055328369140625,8.093194580078126,6.939971923828126,1728074108042.0
4.805999999999983,0.376531982421875,7.223641967773438,4.159945678710938,1728074108052.0
4.8160000000000025,0.261688232421875,7.13646240234375,5.0819854736328125,1728074108062.0
4.825999999999993,0.1703216552734375,7.441964721679688,8.05042724609375,1728074108072.0
4.835999999999984,0.3246429443359375,6.978701782226563,7.735354614257813,1728074108082.0
4.845999999999975,0.3721954345703125,7.021618652343751,7.0643859863281255,1728074108092.0
4.8559999999999945,0.17166748046875,6.364706420898438,5.748318481445313,1728074108102.0
4.8659999999999854,-0.677099609375,7.491162109375001,7.002029418945313,1728074108112.0
4.876999999999981,-0.7783355712890626,7.64189453125,7.256689453125,1728074108123.0
4.885999999999996,-0.1685272216796875,7.486825561523438,5.262026977539063,1728074108132.0
4.895999999999987,0.291595458984375,7.072311401367188,5.686709594726563,1728074108142.0
4.9059999999999775,0.3066986083984375,6.928607177734375,6.319546508789063,1728074108152.0
4.915999999999997,0.4388885498046875,7.157546997070313,8.570663452148438,1728074108162.0
4.925999999999988,0.9023010253906252,7.165771484375001,7.322933959960938,1728074108172.0
4.936999999999983,0.8377014160156251,7.013095092773438,5.34501953125,1728074108183.0
4.945999999999998,0.3404937744140625,7.005169677734376,5.774935913085938,1728074108192.0
4.956999999999994,-0.5565734863281251,7.525106811523438,7.021917724609375,1728074108203.0
4.9669999999999845,-0.8638702392578126,7.17833251953125,7.655651855468751,1728074108213.0
4.976999999999975,-0.6524261474609375,6.801351928710938,6.257040405273438,1728074108223.0
4.986999999999995,-0.55926513671875,6.893466186523438,6.342276000976563,1728074108233.0
4.996999999999986,-0.2836700439453125,6.968383789062501,6.850250244140626,1728074108243.0
5.006999999999977,0.1511810302734375,7.384991455078126,7.3335510253906255,1728074108253.0
5.016999999999996,0.9344512939453126,7.748065185546875,6.110943603515626,1728074108263.0
5.026999999999987,1.448406982421875,7.228576660156251,4.921084594726563,1728074108273.0
5.036999999999978,1.275543212890625,7.369888305664063,6.0266052246093755,1728074108283.0
5.046999999999997,0.38221435546875,7.0165344238281255,7.264614868164063,1728074108293.0
5.056999999999988,-0.0548797607421875,7.524658203125001,7.262820434570313,1728074108303.0
5.066999999999979,-0.007177734375,7.067825317382813,6.142495727539063,1728074108313.0
5.078000000000003,-0.354400634765625,6.901541137695313,5.782711791992188,1728074108324.0
5.087999999999994,-1.392031860351563,6.849502563476563,7.515835571289063,1728074108334.0
5.097999999999985,-1.4395843505859376,6.942214965820313,7.945751953125001,1728074108344.0
5.107999999999976,-0.2241546630859375,7.168313598632813,6.807632446289063,1728074108354.0
5.117999999999995,0.4930206298828125,7.074404907226563,4.786502075195313,1728074108364.0
5.127999999999986,1.4838470458984376,7.510302734375,5.382254028320313,1728074108374.0
5.137999999999977,1.4419769287109376,7.443310546875001,7.379608154296876,1728074108384.0
5.147999999999996,1.3453765869140626,7.634866333007813,7.467086791992188,1728074108394.0
5.157999999999987,0.499749755859375,7.347906494140625,6.596936035156251,1728074108404.0
5.167999999999978,-0.2050140380859375,6.1261962890625,5.020974731445313,1728074108414.0
5.177999999999997,-1.6386169433593751,6.861465454101563,7.69871826171875,1728074108424.0
5.187999999999988,-1.7691619873046875,7.668362426757813,8.562289428710939,1728074108434.0
5.197999999999979,-0.8508605957031251,7.272390747070313,6.07774658203125,1728074108444.0
5.207999999999998,-0.332867431640625,7.153659057617188,4.87906494140625,1728074108454.0
5.217999999999989,0.7699615478515626,7.149472045898438,5.668017578125,1728074108464.0
5.22799999999998,1.1301940917968751,7.646380615234375,8.049978637695313,1728074108474.0
5.2379999999999995,1.374237060546875,7.201510620117188,7.288092041015625,1728074108484.0
5.2479999999999905,1.7151794433593752,6.872232055664063,5.549285888671875,1728074108494.0
5.257999999999981,0.8571411132812501,6.710134887695313,5.962603759765625,1728074108504.0
5.268000000000001,-0.389990234375,7.249212646484375,7.6460815429687505,1728074108514.0
5.277999999999992,-1.6659820556640623,7.688400268554688,7.891619873046875,1728074108524.0
5.2879999999999825,-1.529156494140625,7.029244995117188,5.680279541015626,1728074108534.0
5.298999999999978,-0.99591064453125,7.151416015625,4.6318817138671875,1728074108545.0
5.3089999999999975,-0.518890380859375,7.207342529296875,6.965093994140625,1728074108555.0
5.318999999999988,0.154022216796875,7.031936645507813,8.120559692382812,1728074108565.0
5.328999999999979,1.1461944580078125,6.7294250488281255,7.645333862304688,1728074108575.0
5.338999999999999,2.1663299560546876,6.9163452148437505,5.948696899414063,1728074108585.0
5.3489999999999895,1.6852722167968752,6.969580078125,6.018829345703125,1728074108595.0
5.3589999999999804,0.4828521728515625,7.536770629882813,7.0120483398437505,1728074108605.0
5.369,-0.488983154296875,7.452581787109375,6.7712951660156255,1728074108615.0
5.378999999999991,-1.3483673095703126,7.833001708984376,5.144940185546876,1728074108625.0
5.388999999999982,-0.8112335205078126,7.562640380859375,4.469036865234376,1728074108635.0
5.399000000000001,-0.51380615234375,7.233212280273438,6.4602600097656255,1728074108645.0
5.408999999999992,-0.4774688720703125,6.5948425292968755,8.711376953125,1728074108655.0
5.418999999999983,0.010467529296875,6.148626708984375,8.860763549804688,1728074108665.0
5.429000000000002,0.8448791503906251,6.654806518554688,7.144238281250001,1728074108675.0
5.438999999999993,1.2272430419921876,7.329513549804688,5.656802368164063,1728074108685.0
5.448999999999984,1.116885375976563,7.745523071289063,5.36595458984375,1728074108695.0
5.459000000000003,0.0521881103515625,7.678231811523438,6.082980346679688,1728074108705.0
5.469999999999999,-0.4086822509765625,7.677932739257813,6.100625610351563,1728074108716.0
5.47999999999999,-0.201275634765625,7.496844482421875,5.652166748046875,1728074108726.0
5.489999999999981,-0.0617584228515625,6.868194580078126,6.231021118164063,1728074108736.0
5.5,-0.3593353271484375,6.005221557617188,7.695278930664063,1728074108746.0
5.509999999999991,-0.4653564453125,6.603665161132813,8.73829345703125,1728074108756.0
5.519999999999982,0.32718505859375,6.84097900390625,7.875021362304688,1728074108766.0
5.530000000000001,0.6160888671875,8.458361816406251,5.477957153320313,1728074108776.0
5.539999999999992,0.3934295654296875,7.9828369140625,4.201068115234375,1728074108786.0
5.549999999999983,0.231182861328125,7.074404907226563,4.2984161376953125,1728074108796.0
5.560000000000002,0.0082244873046875,7.647277832031251,8.057156372070313,1728074108806.0
5.569999999999993,0.258697509765625,6.372781372070313,8.316900634765625,1728074108816.0
5.579999999999984,0.233575439453125,6.700714111328126,6.8939147949218755,1728074108826.0
5.590000000000003,0.115740966796875,6.729275512695313,7.262820434570313,1728074108836.0
5.599999999999994,-0.3904388427734375,6.993356323242188,6.753051757812501,1728074108846.0
5.609999999999985,-1.184326171875,7.843917846679688,7.158892822265625,1728074108856.0
5.619999999999976,-0.7150817871093751,7.476657104492188,4.493411254882813,1728074108866.0
5.6299999999999955,0.4864410400390625,7.9197326660156255,4.6990234375,1728074108876.0
5.639999999999986,1.3169647216796876,7.363458251953125,6.50601806640625,1728074108886.0
5.649999999999977,0.7599426269531251,6.428707885742188,7.939770507812501,1728074108896.0
5.661000000000001,0.3796722412109375,6.519326782226563,8.83399658203125,1728074108907.0
5.670999999999992,0.84158935546875,6.870736694335938,6.886587524414063,1728074108917.0
5.680999999999983,0.474627685546875,7.654156494140626,5.3342529296875005,1728074108927.0
5.6910000000000025,-0.337353515625,7.338635253906251,5.437582397460938,1728074108937.0
5.700999999999993,-1.5508392333984375,7.539312744140625,6.4049316406250005,1728074108947.0
5.710999999999984,-1.2744964599609376,7.323831176757813,7.247418212890626,1728074108957.0
5.720999999999975,-0.1108062744140625,6.63162841796875,6.664376831054688,1728074108967.0
5.7309999999999945,0.3210540771484375,6.782360839843751,6.9298034667968755,1728074108977.0
5.7409999999999854,0.342138671875,6.820193481445313,7.718157958984375,1728074108987.0
5.750999999999976,0.5347412109375,6.8445678710937505,7.028048706054688,1728074108997.0
5.760999999999996,0.922039794921875,7.534677124023438,6.199917602539063,1728074109007.0
5.770999999999987,1.2765899658203126,8.126092529296876,4.765267944335938,1728074109017.0
5.7809999999999775,0.41810302734375,7.562191772460938,5.001834106445313,1728074109027.0
5.790999999999997,-0.1831817626953125,7.2513061523437505,6.648825073242188,1728074109037.0
5.800999999999988,-0.492572021484375,7.1032653808593755,7.694830322265625,1728074109047.0
5.810999999999979,-0.347821044921875,6.744079589843751,7.260577392578125,1728074109057.0
5.820999999999998,-0.2118927001953125,6.820193481445313,6.539065551757813,1728074109067.0
5.831999999999994,-0.2956329345703125,6.855783081054688,6.88284912109375,1728074109078.0
5.8419999999999845,-0.3192596435546875,7.058105468750001,7.500134277343751,1728074109088.0
5.851999999999975,-0.1341339111328125,7.1361633300781255,6.9118591308593755,1728074109098.0
5.861999999999995,0.396868896484375,7.326821899414063,5.179632568359375,1728074109108.0
5.871999999999986,0.9670501708984376,7.8973022460937505,4.779324340820313,1728074109118.0
5.881999999999977,1.30335693359375,7.935433959960938,5.669512939453125,1728074109128.0
5.891999999999996,1.2598419189453125,6.6071044921875,7.341027832031251,1728074109138.0
5.901999999999987,0.189013671875,7.034927368164063,8.215963745117188,1728074109148.0
5.911999999999978,-0.7077545166015625,6.666171264648438,7.9529296875,1728074109158.0
5.921999999999997,-1.1541198730468751,6.343173217773438,6.203656005859376,1728074109168.0
5.931999999999988,-1.30814208984375,7.593295288085938,6.442465209960938,1728074109178.0
5.941999999999979,-1.0322479248046876,7.846759033203125,6.125,1728074109188.0
5.951999999999998,-0.3650177001953125,7.525106811523438,5.535678100585938,1728074109198.0
5.961999999999989,0.59635009765625,7.257586669921875,6.127841186523438,1728074109208.0
5.97199999999998,1.5641479492187502,6.917092895507813,6.972869873046876,1728074109218.0
5.981999999999999,1.56654052734375,6.800006103515625,8.161532592773439,1728074109228.0
5.99199999999999,0.8058502197265626,7.0075622558593755,6.929504394531251,1728074109238.0
6.001999999999981,0.5393768310546876,7.1092468261718755,5.989520263671875,1728074109248.0
6.012999999999977,0.0127105712890625,7.5162841796875,5.6606903076171875,1728074109259.0
6.022999999999996,-1.211541748046875,7.457666015625,6.454428100585938,1728074109269.0
6.032999999999987,-2.0468505859375004,7.235455322265626,6.849801635742188,1728074109279.0
6.042999999999978,-1.05213623046875,6.957318115234376,6.758734130859375,1728074109289.0
6.052999999999997,-0.0805999755859375,7.087564086914063,6.750958251953126,1728074109299.0
6.062999999999988,0.5782562255859376,6.957318115234376,6.66153564453125,1728074109309.0
6.072999999999979,1.1461944580078125,6.773687744140625,7.25369873046875,1728074109319.0
6.0849999999999795,1.2825714111328126,7.092498779296876,6.796417236328126,1728074109331.0
6.092999999999989,1.4521453857421875,7.526602172851563,6.515887451171875,1728074109339.0
6.10299999999998,0.7334747314453125,7.198818969726563,5.6046142578125,1728074109349.0
6.1129999999999995,-0.3120819091796875,7.286148071289063,6.174197387695313,1728074109359.0
6.1229999999999905,-0.99351806640625,7.438973999023438,6.878512573242188,1728074109369.0
6.132999999999981,-1.149334716796875,7.235455322265626,6.309378051757813,1728074109379.0
6.143000000000001,-0.566143798828125,7.396057128906251,6.086569213867188,1728074109389.0
6.152999999999992,-0.043365478515625,6.9791503906250005,6.192889404296875,1728074109399.0
6.1629999999999825,0.260491943359375,6.826324462890626,7.71666259765625,1728074109409.0
6.173000000000002,0.524273681640625,6.581683349609375,8.130279541015625,1728074109419.0
6.185999999999979,0.7360168457031251,7.074105834960938,6.922177124023438,1728074109432.0
6.193999999999988,0.8312713623046876,7.5040222167968755,5.410665893554688,1728074109440.0
6.203999999999979,0.77698974609375,7.801898193359375,5.123556518554688,1728074109450.0
6.213999999999999,-0.06998291015625,7.464993286132813,6.249713134765625,1728074109460.0
6.2239999999999895,-0.6642395019531251,7.117620849609375,6.833950805664063,1728074109470.0
6.2339999999999804,-0.5374328613281251,7.045993041992188,6.978851318359376,1728074109480.0
6.244,0.0058319091796875,6.8101745605468755,6.432595825195313,1728074109490.0
6.253999999999991,0.2444915771484375,6.893765258789063,6.630282592773438,1728074109500.0
6.263999999999982,0.1471435546875,6.837240600585938,7.382449340820313,1728074109510.0
6.274000000000001,0.2947357177734375,7.008160400390626,7.312316894531251,1728074109520.0
6.286000000000001,0.4945159912109375,8.311965942382812,6.718209838867188,1728074109532.0
6.293999999999983,0.6600524902343751,7.721148681640625,4.27493896484375,1728074109540.0
6.304000000000002,0.189013671875,6.8702880859375,4.5734130859375,1728074109550.0
6.313999999999993,-0.35948486328125,7.065582275390626,8.102316284179688,1728074109560.0
6.323999999999984,-0.4759735107421875,6.7219482421875005,9.092694091796876,1728074109570.0
6.334000000000003,-0.3949249267578125,6.816754150390626,7.63052978515625,1728074109580.0
6.343999999999994,-0.17884521484375,6.5469909667968755,5.6165771484375,1728074109590.0
6.35499999999999,-0.5241241455078125,7.592996215820313,5.828021240234375,1728074109601.0
6.364999999999981,-0.36307373046875,8.008856201171875,6.907821655273438,1728074109611.0
6.375,0.367559814453125,7.5521728515625,5.55975341796875,1728074109621.0
6.3870000000000005,1.0036865234375,7.0853210449218755,5.549435424804688,1728074109633.0
6.394999999999982,1.142755126953125,6.787893676757813,6.673648071289063,1728074109641.0
6.405000000000001,0.7011749267578126,6.882998657226563,8.396603393554688,1728074109651.0
6.414999999999992,0.3506622314453125,7.189547729492188,7.872479248046876,1728074109661.0
6.424999999999983,0.0219818115234375,7.060647583007813,5.4857330322265625,1728074109671.0
6.435000000000002,-0.4741790771484375,7.254147338867188,5.21402587890625,1728074109681.0
6.444999999999993,-1.0283599853515626,7.4561706542968755,6.5712158203125,1728074109691.0
6.454999999999984,-1.2381591796875,7.4427124023437505,7.523312377929688,1728074109701.0
6.465000000000003,-0.493768310546875,6.778622436523438,6.767407226562501,1728074109711.0
6.474999999999994,0.3696533203125,6.551626586914063,6.103616333007813,1728074109721.0
6.486999999999995,0.8022613525390626,7.138854980468751,7.36734619140625,1728074109733.0
6.494999999999976,0.878973388671875,7.027749633789063,7.693484497070313,1728074109741.0
6.5049999999999955,0.8321685791015626,7.223492431640626,6.433792114257813,1728074109751.0
6.514999999999986,0.8104858398437501,7.55277099609375,5.335897827148438,1728074109761.0
6.524999999999977,0.5142547607421876,7.950088500976563,4.655657958984375,1728074109771.0
6.534999999999997,0.067291259765625,7.626492309570313,6.1501220703125,1728074109781.0
6.545999999999992,-0.454888916015625,7.291531372070313,6.7123779296875,1728074109792.0
6.555999999999983,-0.5673400878906251,6.4850830078125,7.504620361328126,1728074109802.0
6.5660000000000025,-0.441729736328125,6.54429931640625,7.625894165039063,1728074109812.0
6.575999999999993,-0.451300048828125,6.56583251953125,7.847207641601563,1728074109822.0
6.585999999999984,-0.3509613037109375,7.131378173828126,6.997842407226563,1728074109832.0
6.595999999999975,-0.0255706787109375,7.349252319335938,5.806338500976563,1728074109842.0
6.6059999999999945,0.77100830078125,7.537368774414063,4.7963714599609375,1728074109852.0
6.6159999999999854,0.9380401611328124,8.428903198242189,4.912710571289063,1728074109862.0
6.625999999999976,1.5968963623046877,7.329812622070313,6.037820434570313,1728074109872.0
6.635999999999996,1.487286376953125,6.511849975585938,7.522265625,1728074109882.0
6.645999999999987,0.2086029052734375,7.422225952148438,8.8585205078125,1728074109892.0
6.6559999999999775,-0.6196777343750001,6.314462280273438,7.1600891113281255,1728074109902.0
6.665999999999997,-1.9904754638671875,6.226086425781251,6.127542114257813,1728074109912.0
6.675999999999988,-1.7027679443359376,7.832852172851563,6.872680664062501,1728074109922.0
6.686999999999983,-1.1584564208984376,7.852142333984376,6.0106048583984375,1728074109933.0
6.697000000000003,-0.5779571533203125,7.567724609375,5.5750061035156255,1728074109943.0
6.705999999999989,0.6159393310546876,6.846212768554688,5.6692138671875005,1728074109952.0
6.7169999999999845,2.2162750244140628,7.17235107421875,7.587313842773438,1728074109963.0
6.726999999999975,1.6091583251953123,6.730621337890626,8.24183349609375,1728074109973.0
6.736999999999995,1.2392059326171876,6.965093994140625,6.7219482421875005,1728074109983.0
6.746999999999986,0.7135864257812501,7.162033081054688,5.9836883544921875,1728074109993.0
6.756999999999977,-0.067291259765625,7.408020019531251,5.64708251953125,1728074110003.0
6.766999999999996,-1.8858001708984375,7.770196533203125,6.6083007812500005,1728074110013.0
6.776999999999987,-2.036383056640626,7.124798583984376,6.514541625976563,1728074110023.0
6.786999999999978,-1.0792022705078126,7.039862060546875,6.422726440429688,1728074110033.0
6.796999999999997,-0.2537628173828125,6.869689941406251,6.995748901367188,1728074110043.0
6.806999999999988,0.4068878173828125,6.801800537109376,7.355532836914063,1728074110053.0
6.816999999999979,1.411920166015625,6.642843627929688,7.648623657226563,1728074110063.0
6.826999999999998,1.56893310546875,7.2746337890625,6.483139038085938,1728074110073.0
6.836999999999989,1.5284088134765623,7.158892822265625,6.262274169921875,1728074110083.0
6.84699999999998,0.5636016845703126,7.401889038085938,5.8341522216796875,1728074110093.0
6.856999999999999,-0.5157501220703126,7.530340576171875,6.3989501953125005,1728074110103.0
6.86699999999999,-1.12989501953125,7.745822143554688,5.707943725585938,1728074110113.0
6.876999999999981,-0.6951934814453126,7.763018798828125,5.326177978515625,1728074110123.0
6.8870000000000005,-0.096600341796875,7.554565429687501,5.575604248046876,1728074110133.0
6.897999999999996,0.1517791748046875,6.366201782226563,7.46544189453125,1728074110144.0
6.907999999999987,0.0683380126953125,6.114083862304688,9.250604248046876,1728074110154.0
6.917999999999978,0.346624755859375,6.529495239257813,8.693731689453125,1728074110164.0
6.927999999999997,0.7720550537109375,7.1789306640625,6.275283813476563,1728074110174.0
6.937999999999988,0.6510803222656251,7.772140502929688,4.351950073242188,1728074110184.0
6.947999999999979,0.006280517578125,7.854983520507813,5.00946044921875,1728074110194.0
6.957999999999998,-0.6111541748046876,7.604061889648438,6.448895263671876,1728074110204.0
6.967999999999989,-0.38580322265625,7.406524658203126,6.989767456054688,1728074110214.0
6.97999999999999,0.3315216064453125,6.742733764648438,6.074606323242188,1728074110226.0
6.9879999999999995,0.710296630859375,6.845016479492188,6.1003265380859375,1728074110234.0
6.9979999999999905,0.6718658447265625,6.438876342773438,8.041903686523439,1728074110244.0
7.007999999999981,0.427374267578125,7.165621948242188,8.556008911132814,1728074110254.0
7.018000000000001,0.12979736328125,8.327816772460938,7.082778930664063,1728074110264.0
7.027999999999992,-0.048748779296875,7.0180297851562505,3.178839111328126,1728074110274.0
7.0379999999999825,-0.5199371337890626,6.949691772460938,4.597637939453126,1728074110284.0
7.048000000000002,-0.9685455322265626,7.535574340820313,8.629580688476564,1728074110294.0
7.0589999999999975,-0.5707794189453126,7.0344787597656255,8.774929809570313,1728074110305.0
7.068999999999988,0.078656005859375,6.472970581054688,7.196426391601563,1728074110315.0
7.078999999999979,0.349615478515625,6.323284912109376,5.301654052734375,1728074110325.0
7.088999999999999,-0.01854248046875,7.714718627929688,7.1032653808593755,1728074110335.0
7.0989999999999895,0.2259490966796875,7.925115966796875,7.079638671875,1728074110345.0
7.1089999999999804,0.742596435546875,7.675839233398438,4.879364013671875,1728074110355.0
7.119,1.007275390625,7.267007446289063,4.601226806640625,1728074110365.0
7.128999999999991,0.6017333984375001,6.68785400390625,6.6696105957031255,1728074110375.0
7.138999999999982,-0.1155914306640625,7.117770385742188,9.383242797851564,1728074110385.0
7.149000000000001,-0.2301361083984375,6.787594604492188,8.236749267578126,1728074110395.0
7.158999999999992,-0.365167236328125,6.78355712890625,5.239147949218751,1728074110405.0
7.168999999999983,-0.6398651123046876,7.1316772460937505,5.283111572265625,1728074110415.0
7.179000000000002,-0.8333648681640625,7.757635498046875,6.843521118164063,1728074110425.0
7.188999999999993,-0.5748168945312501,7.553070068359376,7.496395874023438,1728074110435.0
7.198999999999984,0.2391082763671875,6.800454711914063,5.9608093261718755,1728074110445.0
7.209000000000003,0.8806182861328126,6.6471801757812505,5.7783752441406255,1728074110455.0
7.218999999999994,1.2218597412109375,7.145285034179688,7.728924560546876,1728074110465.0
7.228999999999985,0.8194580078125001,7.386935424804688,7.872628784179688,1728074110475.0
7.239999999999981,0.527264404296875,7.031338500976563,5.992062377929688,1728074110486.0
7.25,0.246734619140625,7.542303466796875,4.5959930419921875,1728074110496.0
7.259999999999991,-0.0662445068359375,7.724588012695313,5.6378112792968755,1728074110506.0
7.269999999999982,-0.524273681640625,7.526004028320313,6.904681396484375,1728074110516.0
7.280000000000001,-0.9263763427734376,6.827221679687501,7.599127197265625,1728074110526.0
7.289999999999992,-0.49945068359375,6.482989501953125,6.8669982910156255,1728074110536.0
7.299999999999983,0.026617431640625,6.778323364257813,7.304092407226563,1728074110546.0
7.310000000000002,0.34871826171875,7.1481262207031255,7.153958129882813,1728074110556.0
7.319999999999993,0.2310333251953125,7.199566650390626,6.7997070312500005,1728074110566.0
7.329999999999984,0.3075958251953125,7.288540649414063,5.657101440429688,1728074110576.0
7.340000000000003,0.7876068115234376,7.559051513671876,5.444461059570313,1728074110586.0
7.349999999999994,1.00906982421875,7.854684448242188,5.5107055664062505,1728074110596.0
7.359999999999985,0.6914550781250001,7.7746826171875005,5.4921630859375,1728074110606.0
7.369999999999976,0.6548187255859376,6.516336059570313,6.9028869628906255,1728074110616.0
7.3799999999999955,0.3727935791015625,6.2165161132812505,8.41888427734375,1728074110626.0
7.389999999999986,-0.7585968017578125,7.652062988281251,9.3801025390625,1728074110636.0
7.399999999999977,-1.4153594970703125,6.8430725097656255,6.168515014648438,1728074110646.0
7.409999999999997,-1.800714111328125,6.375921630859375,4.0935516357421875,1728074110656.0
7.4199999999999875,-0.7883544921875001,8.148971557617188,6.207394409179688,1728074110666.0
7.430999999999983,0.1936492919921875,7.995098876953126,7.203753662109375,1728074110677.0
7.441000000000003,0.8504119873046876,6.976907348632813,6.831558227539063,1728074110687.0
7.450999999999993,1.2356170654296876,6.337042236328125,6.103018188476563,1728074110697.0
7.460999999999984,1.8697998046875,6.883895874023438,7.394412231445313,1728074110707.0
7.470999999999975,0.9595733642578126,7.398150634765625,7.869189453125,1728074110717.0
7.480999999999995,0.08553466796875,7.584472656250001,6.061297607421875,1728074110727.0
7.4909999999999854,-0.4179534912109375,7.243081665039063,4.888485717773438,1728074110737.0
7.500999999999976,-1.3479187011718752,7.1182189941406255,5.57769775390625,1728074110747.0
7.510999999999996,-1.5308013916015626,7.388729858398438,7.997042846679688,1728074110757.0
7.520999999999987,-1.1623443603515626,6.893765258789063,7.948593139648438,1728074110767.0
7.5309999999999775,-0.1902099609375,6.6696105957031255,6.534878540039063,1728074110777.0
7.540999999999997,0.6663330078125,6.880157470703126,6.048287963867188,1728074110787.0
7.551999999999992,1.373040771484375,7.423272705078125,6.794622802734375,1728074110798.0
7.560999999999979,1.3166656494140625,7.279269409179688,7.114480590820313,1728074110807.0
7.570999999999998,1.088623046875,7.342224121093751,5.882153320312501,1728074110817.0
7.580999999999989,0.7868591308593751,7.117620849609375,5.794973754882813,1728074110827.0
7.59099999999998,0.0964508056640625,7.36375732421875,6.1178222656250005,1728074110837.0
7.601999999999975,-0.719268798828125,7.341925048828125,7.430450439453126,1728074110848.0
7.611999999999995,-1.2979736328125,7.090704345703125,6.387435913085938,1728074110858.0
7.621999999999986,-0.908880615234375,7.069769287109375,6.161785888671876,1728074110868.0
7.631999999999977,-0.09749755859375,7.372280883789063,6.23087158203125,1728074110878.0
7.641999999999996,0.2217620849609375,6.884344482421875,7.345962524414063,1728074110888.0
7.651999999999987,0.1963409423828125,6.756640625,7.644137573242188,1728074110898.0
7.661999999999978,0.7188201904296876,6.776828002929688,6.987823486328126,1728074110908.0
7.671999999999997,0.964208984375,7.720849609375,6.115728759765625,1728074110918.0
7.681999999999988,1.1043243408203125,7.530340576171875,5.3032989501953125,1728074110928.0
7.691999999999979,0.2456878662109375,7.542303466796875,5.777777099609375,1728074110938.0
7.701999999999998,-0.4725341796875,7.238894653320313,6.5484863281250005,1728074110948.0
7.711999999999989,-0.3363067626953125,7.1873046875,6.933242797851563,1728074110958.0
7.72199999999998,-0.2555572509765625,6.901840209960938,6.923223876953125,1728074110968.0
7.731999999999999,-0.2193695068359375,6.386538696289063,6.453231811523438,1728074110978.0
7.74199999999999,-0.3294281005859375,7.068722534179688,7.287792968750001,1728074110988.0
7.751999999999981,0.399261474609375,6.935635375976563,7.407720947265625,1728074110998.0
7.762,0.539825439453125,8.286395263671876,6.647927856445313,1728074111008.0
7.771999999999991,0.5311523437500001,7.914797973632813,4.8606719970703125,1728074111018.0
7.782999999999987,0.316119384765625,6.56224365234375,4.114935302734375,1728074111029.0
7.7949999999999875,-0.00897216796875,7.1690612792968755,7.98582763671875,1728074111041.0
7.802999999999997,0.00657958984375,6.952682495117188,9.197219848632812,1728074111049.0
7.812999999999988,-0.2355194091796875,6.753201293945313,7.422076416015625,1728074111059.0
7.822999999999979,-0.3707000732421875,6.561795043945313,5.8337036132812505,1728074111069.0
7.832999999999998,-0.5827423095703126,7.342971801757813,5.656802368164063,1728074111079.0
7.842999999999989,-0.6255096435546875,8.178131103515625,7.238296508789063,1728074111089.0
7.85299999999998,0.07955322265625,7.627987670898438,5.422628784179688,1728074111099.0
7.863999999999976,0.7568023681640625,7.041058349609376,5.2714477539062505,1728074111110.0
7.8729999999999905,1.0795013427734377,6.851596069335938,6.592599487304688,1728074111119.0
7.882999999999981,0.8626739501953126,6.7204528808593755,8.4350341796875,1728074111129.0
7.895999999999987,0.515301513671875,7.200762939453125,8.504269409179688,1728074111142.0
7.902999999999992,0.1957427978515625,6.875073242187501,5.589361572265625,1728074111149.0
7.9129999999999825,-0.365765380859375,7.438076782226563,4.894915771484375,1728074111159.0
7.923000000000002,-0.8710479736328126,7.489218139648438,6.189300537109376,1728074111169.0
7.932999999999993,-1.1759521484375002,7.584024047851563,7.162631225585938,1728074111179.0
7.943999999999988,-0.6041259765625,6.990365600585938,7.151565551757813,1728074111190.0
7.953999999999979,0.2009765625,6.408969116210938,5.966043090820313,1728074111200.0
7.963999999999999,0.6939971923828125,6.787594604492188,7.472918701171875,1728074111210.0
7.973999999999989,0.7947845458984376,7.204501342773438,8.06597900390625,1728074111220.0
7.9839999999999804,0.7274932861328125,7.124948120117188,6.588113403320313,1728074111230.0
7.995999999999981,0.748577880859375,7.544396972656251,4.9937591552734375,1728074111242.0
8.00399999999999,0.5372833251953125,7.911358642578126,4.5701232910156255,1728074111250.0
8.013999999999982,0.1697235107421875,7.694381713867188,6.309378051757813,1728074111260.0
8.024000000000001,-0.466253662109375,7.251904296875001,7.029843139648438,1728074111270.0
8.033999999999992,-0.5734710693359375,6.468484497070313,7.247268676757813,1728074111280.0
8.043999999999983,-0.2157806396484375,6.752005004882813,7.236053466796876,1728074111290.0
8.054000000000002,-0.126806640625,6.697723388671876,7.5760986328125,1728074111300.0
8.063999999999993,-0.303558349609375,7.084274291992188,7.176388549804688,1728074111310.0
8.073999999999984,-0.32479248046875,7.153060913085938,6.34990234375,1728074111320.0
8.084000000000003,0.3084930419921875,7.542153930664063,5.364459228515625,1728074111330.0
8.095999999999975,0.881964111328125,7.833749389648438,5.3990020751953125,1728074111342.0
8.10499999999999,1.088922119140625,7.398001098632813,5.4703308105468755,1728074111351.0
8.113999999999976,0.8360565185546875,7.4516845703125005,6.414053344726563,1728074111360.0
8.125,1.016845703125,6.415100097656251,7.614230346679688,1728074111371.0
8.134999999999991,0.575115966796875,6.9612060546875005,8.018426513671876,1728074111381.0
8.144999999999982,-0.7672698974609375,7.713073730468751,7.899246215820313,1728074111391.0
8.155000000000001,-1.5690826416015626,6.394015502929688,5.117276000976563,1728074111401.0
8.164999999999992,-1.8858001708984375,6.934738159179688,5.544500732421875,1728074111411.0
8.174999999999983,-0.7280914306640626,7.955322265625001,7.28599853515625,1728074111421.0
8.185000000000002,-0.1454986572265625,7.425814819335938,6.862811279296875,1728074111431.0
8.195999999999998,0.8408416748046875,6.86131591796875,6.628936767578126,1728074111442.0
8.204999999999984,1.4452667236328125,6.7383972167968755,6.098681640625,1728074111451.0
8.215000000000003,1.5319976806640627,7.310671997070313,7.644137573242188,1728074111461.0
8.224999999999994,0.9404327392578126,7.3607666015625,6.694882202148438,1728074111471.0
8.234999999999985,0.1900604248046875,7.328466796875,5.856732177734376,1728074111481.0
8.244999999999976,-0.31761474609375,7.17593994140625,5.400796508789063,1728074111491.0
8.254999999999995,-0.9796112060546877,7.132873535156251,6.866250610351563,1728074111501.0
8.264999999999986,-1.5230255126953125,7.390374755859376,7.950537109375,1728074111511.0
8.274999999999977,-1.0193878173828126,6.706695556640626,6.826473999023438,1728074111521.0
8.284999999999997,-0.2420989990234375,6.986328125000001,6.189450073242188,1728074111531.0
8.295999999999992,0.587078857421875,7.019375610351563,6.265414428710938,1728074111542.0
8.305999999999983,1.0890716552734376,7.349102783203126,7.339682006835938,1728074111552.0
8.316000000000003,1.19808349609375,7.152313232421876,6.967037963867188,1728074111562.0
8.325999999999993,0.9802093505859376,6.889129638671876,6.171804809570313,1728074111572.0
8.335999999999984,0.5710784912109376,6.999337768554688,6.37083740234375,1728074111582.0
8.345999999999975,-0.267669677734375,7.471572875976563,6.909317016601563,1728074111592.0
8.355999999999995,-0.8578887939453126,7.269699096679688,6.488372802734376,1728074111602.0
8.365999999999985,-0.9002075195312501,7.709933471679688,5.313616943359375,1728074111612.0
8.375999999999976,-0.218023681640625,7.814309692382813,5.137612915039063,1728074111622.0
8.385999999999996,0.5310028076171875,7.228576660156251,6.222946166992188,1728074111632.0
8.395999999999987,0.447711181640625,6.66392822265625,8.134017944335938,1728074111642.0
8.405999999999977,0.27095947265625,6.060549926757813,8.339181518554689,1728074111652.0
8.415999999999997,0.633734130859375,6.940570068359375,7.562939453125001,1728074111662.0
8.425999999999988,0.7753448486328126,7.484133911132813,5.996847534179688,1728074111672.0
8.435999999999979,0.18004150390625,7.6454833984375,4.902392578125,1728074111682.0
8.445999999999998,-0.8061492919921875,7.421478271484376,5.869143676757813,1728074111692.0
8.455999999999989,-0.9346008300781252,7.443310546875001,6.54130859375,1728074111702.0
8.46599999999998,-0.1721160888671875,7.362860107421875,6.868045043945313,1728074111712.0
8.475999999999999,0.56644287109375,6.924270629882813,5.921780395507813,1728074111722.0
8.486999999999995,0.6377716064453125,6.4707275390625005,6.525906372070313,1728074111733.0
8.496999999999986,0.6462951660156251,6.592898559570313,8.361761474609375,1728074111743.0
8.506999999999977,0.7310821533203126,7.69931640625,8.33634033203125,1728074111753.0
8.516999999999996,0.329876708984375,7.846310424804688,5.541210937500001,1728074111763.0
8.526999999999987,0.0874786376953125,6.947897338867188,3.1220153808593754,1728074111773.0
8.536999999999978,-0.407635498046875,7.746719360351563,6.0304931640625,1728074111783.0
8.546999999999997,-0.758148193359375,7.3918701171875005,8.7867431640625,1728074111793.0
8.556999999999988,-0.5815460205078126,6.537869262695313,7.921826171875001,1728074111803.0
8.566999999999979,-0.3781768798828125,6.335098266601563,6.634768676757813,1728074111813.0
8.576999999999998,0.1128997802734375,6.6232543945312505,6.267657470703125,1728074111823.0
8.586999999999989,-0.0237762451171875,8.172000122070314,7.6478759765625,1728074111833.0
8.59699999999998,0.2663238525390625,7.537518310546876,6.021371459960938,1728074111843.0
8.607,0.6431549072265625,7.3607666015625,4.321295166015625,1728074111853.0
8.61699999999999,0.9365447998046876,7.184164428710938,5.888882446289063,1728074111863.0
8.626999999999981,0.7101470947265626,7.099676513671875,7.630978393554688,1728074111873.0
8.637,0.132489013671875,7.231118774414063,8.477801513671876,1728074111883.0
8.649999999999977,0.093609619140625,6.608898925781251,6.506317138671876,1728074111896.0
8.657999999999987,-0.2456878662109375,7.009506225585938,5.338888549804688,1728074111904.0
8.667999999999978,-0.6715667724609375,7.419982910156251,6.795370483398438,1728074111914.0
8.677999999999997,-0.9840972900390624,7.343869018554688,7.122854614257813,1728074111924.0
8.687999999999988,-0.7107452392578125,7.21182861328125,6.581683349609375,1728074111934.0
8.697999999999979,0.0560760498046875,6.865353393554688,5.725289916992188,1728074111944.0
8.707999999999998,0.613995361328125,6.7841552734375,6.726882934570313,1728074111954.0
8.71799999999999,0.7093994140625001,7.3096252441406255,8.230767822265626,1728074111964.0
8.72799999999998,0.6341827392578125,6.887335205078125,7.115377807617188,1728074111974.0
8.738,0.7826721191406251,7.180126953125001,5.487527465820313,1728074111984.0
8.74799999999999,0.7600921630859375,7.827468872070313,5.211334228515625,1728074111994.0
8.757999999999981,0.302362060546875,7.96549072265625,5.5286499023437505,1728074112004.0
8.768,-0.1457977294921875,7.362710571289063,6.387884521484375,1728074112014.0
8.777999999999992,-0.4550384521484375,7.026553344726563,6.747070312500001,1728074112024.0
8.787999999999982,-0.280828857421875,6.529644775390626,7.255044555664063,1728074112034.0
8.798000000000002,-0.293389892578125,6.751406860351563,7.992257690429688,1728074112044.0
8.808999999999997,-0.6002380371093751,6.608001708984376,7.670605468750001,1728074112055.0
8.817999999999984,-0.4846466064453125,6.989468383789063,6.572860717773438,1728074112064.0
8.82899999999998,0.0776092529296875,7.487124633789063,5.949444580078126,1728074112075.0
8.838999999999999,0.691754150390625,7.728924560546876,5.1458374023437505,1728074112085.0
8.84899999999999,0.7965789794921876,7.962350463867188,5.426516723632813,1728074112095.0
8.85899999999998,1.09281005859375,7.47740478515625,5.4573211669921875,1728074112105.0
8.869,1.4243316650390625,6.8012023925781255,6.86131591796875,1728074112115.0
8.87899999999999,1.073968505859375,6.504522705078125,8.290582275390626,1728074112125.0
8.888999999999982,-0.406439208984375,6.946551513671875,8.710330200195314,1728074112135.0
8.899000000000001,-1.362124633789063,6.766659545898438,6.646282958984376,1728074112145.0
8.908999999999992,-1.6472900390625,7.4205810546875,5.2887939453125,1728074112155.0
8.918999999999983,-1.2433929443359375,7.711877441406251,5.8446197509765625,1728074112165.0
8.929000000000002,-0.99710693359375,7.374972534179688,5.985333251953126,1728074112175.0
8.938999999999993,-0.295184326171875,7.195080566406251,7.0539184570312505,1728074112185.0
8.948999999999984,1.137969970703125,6.746621704101563,6.926513671875001,1728074112195.0
8.959000000000003,2.6693695068359378,7.092498779296876,7.641146850585938,1728074112205.0
8.968999999999994,1.3881439208984376,6.850399780273438,7.00845947265625,1728074112215.0
8.978999999999985,0.542816162109375,7.188052368164063,5.943014526367188,1728074112225.0
8.988999999999976,0.049346923828125,7.8033935546875,5.843722534179688,1728074112235.0
8.998999999999995,-0.115740966796875,7.718008422851563,5.566632080078126,1728074112245.0
9.008999999999986,-1.2206634521484376,7.30992431640625,6.4752136230468755,1728074112255.0
9.019999999999982,-2.2399017333984377,6.556411743164063,7.205697631835938,1728074112266.0
9.03,-0.8843566894531251,6.809426879882813,7.802944946289063,1728074112276.0
9.039999999999992,0.12620849609375,7.111788940429688,7.180426025390625,1728074112286.0
9.049999999999985,0.9538909912109376,6.817800903320313,6.272891235351563,1728074112296.0
9.060000000000002,0.9295166015625,6.766360473632813,6.376669311523438,1728074112306.0
9.069999999999991,0.9989013671875,7.544247436523438,7.069470214843751,1728074112316.0
9.079999999999984,1.3250396728515623,7.4068237304687505,6.765463256835938,1728074112326.0
9.090000000000003,0.6401641845703125,7.607052612304688,5.1308837890625005,1728074112336.0
9.099999999999994,-0.304754638671875,7.100872802734376,5.596090698242188,1728074112346.0
9.109999999999983,-0.6643890380859375,7.582080078125,6.258685302734375,1728074112356.0
9.119999999999976,-0.509619140625,7.599426269531251,7.280166625976563,1728074112366.0
9.129999999999995,-0.088226318359375,7.118817138671876,6.109896850585938,1728074112376.0
9.139999999999986,-0.1897613525390625,6.217413330078125,6.868045043945313,1728074112386.0
9.149999999999975,-0.3850555419921875,6.555364990234375,8.1551025390625,1728074112396.0
9.159999999999997,0.0363372802734375,7.109994506835938,8.275479125976563,1728074112406.0
9.169999999999987,0.5659942626953125,7.525405883789063,6.218310546875,1728074112416.0
9.180999999999983,0.5807983398437501,7.352990722656251,4.2027130126953125,1728074112427.0
9.191000000000004,0.2068084716796875,7.408917236328126,5.460910034179688,1728074112437.0
9.200999999999992,0.0490478515625,7.760177612304688,7.314859008789063,1728074112447.0
9.210999999999984,0.3170166015625,7.281811523437501,7.170855712890625,1728074112457.0
9.220999999999975,0.4852447509765625,6.5813842773437505,5.558706665039063,1728074112467.0
9.230999999999996,0.392083740234375,6.540560913085938,6.2269836425781255,1728074112477.0
9.240999999999984,0.0370849609375,7.195379638671875,8.155551147460939,1728074112487.0
9.250999999999976,-0.135479736328125,7.672250366210938,8.20594482421875,1728074112497.0
9.260999999999996,-0.4197479248046875,7.813861083984375,5.487677001953125,1728074112507.0
9.270999999999988,-0.2397064208984375,6.52635498046875,3.5345855712890626,1728074112517.0
9.280999999999976,-0.0575714111328125,7.443460083007813,6.681124877929688,1728074112527.0
9.290999999999997,-0.2570526123046875,7.364804077148438,9.358270263671876,1728074112537.0
9.300999999999988,0.1888641357421875,6.575253295898438,7.386785888671875,1728074112547.0
9.31099999999998,0.4634124755859375,6.758883666992188,5.952435302734376,1728074112557.0
9.320999999999998,0.62147216796875,6.972271728515626,5.809927368164063,1728074112567.0
9.330999999999989,-0.195892333984375,8.088409423828125,7.398599243164063,1728074112577.0
9.34099999999998,-0.4487579345703125,7.537966918945313,6.557308959960938,1728074112587.0
9.351,0.0886749267578125,7.148574829101563,4.37303466796875,1728074112597.0
9.361999999999997,0.5837890625000001,7.168313598632813,5.998342895507813,1728074112608.0
9.371999999999986,0.3898406982421875,7.002178955078126,7.985379028320313,1728074112618.0
9.381999999999977,-0.2630340576171875,6.9387756347656255,8.546588134765626,1728074112628.0
9.391999999999996,0.1176849365234375,6.821090698242188,6.657498168945313,1728074112638.0
9.401999999999989,0.4110748291015625,7.176089477539063,4.9349914550781255,1728074112648.0
9.411999999999978,0.0303558349609375,7.517630004882813,6.144589233398438,1728074112658.0
9.421999999999995,-0.5760131835937501,7.392169189453125,7.072760009765625,1728074112668.0
9.431999999999988,-0.59635009765625,7.153359985351563,7.069918823242188,1728074112678.0
9.44199999999998,0.069683837890625,6.755145263671875,6.1238037109375005,1728074112688.0
9.451999999999998,0.451300048828125,6.730770874023438,6.663031005859375,1728074112698.0
9.461999999999987,0.1774993896484375,7.3828979492187505,7.778271484375001,1728074112708.0
9.47199999999998,0.1392181396484375,6.79013671875,7.081283569335938,1728074112718.0
9.482,0.4027008056640625,7.579388427734376,5.583529663085938,1728074112728.0
9.49199999999999,0.8545989990234376,7.7052978515625,5.162884521484376,1728074112738.0
9.504999999999995,0.6226684570312501,7.766607666015625,5.266213989257813,1728074112751.0
9.512999999999977,-0.014056396484375,7.067227172851563,7.199716186523438,1728074112759.0
9.521999999999991,-0.269464111328125,6.795071411132813,7.271942138671876,1728074112768.0
9.532999999999989,-0.176153564453125,6.732116699218751,7.707092285156251,1728074112779.0
9.542999999999978,-0.1084136962890625,6.901840209960938,6.785351562500001,1728074112789.0
9.552999999999995,-0.5459564208984375,7.083377075195313,6.6669189453125,1728074112799.0
9.562999999999988,-0.5914154052734375,7.168313598632813,6.516336059570313,1728074112809.0
9.57299999999998,-0.0853851318359375,7.39366455078125,6.339285278320313,1728074112819.0
9.582999999999998,0.5794525146484375,7.458712768554688,5.908023071289063,1728074112829.0
9.59299999999999,0.9274230957031252,7.504769897460938,5.262326049804688,1728074112839.0
9.60499999999999,1.197634887695313,7.5378173828125,5.742337036132813,1728074112851.0
9.613,1.3984619140625,7.114929199218751,6.969131469726563,1728074112859.0
9.62299999999999,1.00009765625,6.6337219238281255,7.965191650390626,1728074112869.0
9.63299999999998,-0.4619171142578125,6.917541503906251,8.038763427734375,1728074112879.0
9.643,-1.4706878662109375,6.925915527343751,6.8326049804687505,1728074112889.0
9.652999999999992,-2.1011322021484378,6.887484741210938,6.0061187744140625,1728074112899.0
9.662999999999982,-1.3672088623046876,7.837188720703126,5.898153686523438,1728074112909.0
9.673000000000002,-0.6996795654296876,7.380953979492188,5.852395629882813,1728074112919.0
9.682999999999993,0.042767333984375,7.3942626953125,6.450540161132813,1728074112929.0
9.692999999999984,1.918399047851563,6.955075073242188,7.212277221679688,1728074112939.0
9.704999999999984,2.3010620117187504,6.992160034179688,7.2052490234375,1728074112951.0
9.712999999999994,1.3612274169921876,6.656002807617188,7.236950683593751,1728074112959.0
9.72399999999999,0.6824829101562501,7.3485046386718755,5.954678344726563,1728074112970.0
9.73399999999998,-0.117535400390625,7.641445922851563,6.151916503906251,1728074112980.0
9.744,-0.8058502197265626,7.451983642578125,5.73740234375,1728074112990.0
9.75399999999999,-1.9221374511718752,7.307083129882813,6.724789428710938,1728074113000.0
9.763999999999982,-2.0809448242187503,6.67349853515625,7.1122375488281255,1728074113010.0
9.774,-0.7639801025390626,6.9298034667968755,7.357028198242188,1728074113020.0
9.783999999999992,0.1927520751953125,7.117321777343751,7.110293579101563,1728074113030.0
9.793999999999984,1.39786376953125,6.890475463867188,6.0445495605468755,1728074113040.0
9.804999999999978,1.7305816650390626,7.0658813476562505,6.569720458984375,1728074113051.0
9.813999999999991,1.6573089599609376,7.56114501953125,6.7662109375,1728074113060.0
9.823999999999984,1.1759521484375002,7.4265625,6.338088989257813,1728074113070.0
9.834000000000003,0.2947357177734375,6.979748535156251,5.820843505859376,1728074113080.0
9.843999999999994,-0.6715667724609375,7.288092041015625,6.462503051757813,1728074113090.0
9.853999999999983,-1.7054595947265627,7.398599243164063,6.928607177734375,1728074113100.0
9.863999999999976,-1.2072052001953126,7.0951904296875,6.471026611328125,1728074113110.0
9.873999999999995,-0.6700714111328125,7.195529174804688,6.092999267578126,1728074113120.0
9.883999999999986,-0.027215576171875,6.997244262695313,6.766061401367188,1728074113130.0
9.894999999999982,0.5374328613281251,6.736602783203126,7.482189941406251,1728074113141.0
9.905,1.00189208984375,6.949392700195313,7.706344604492188,1728074113151.0
9.914999999999992,1.284814453125,7.18790283203125,6.232217407226563,1728074113161.0
9.924999999999985,1.19329833984375,7.672100830078126,5.348757934570313,1728074113171.0
9.935000000000002,0.5854339599609375,7.667913818359375,5.492611694335938,1728074113181.0
9.944999999999991,-0.2842681884765625,7.443161010742188,6.270797729492188,1728074113191.0
9.954999999999984,-0.7657745361328125,7.066629028320313,6.9701782226562505,1728074113201.0
9.965000000000003,-0.838299560546875,6.872381591796875,6.757537841796876,1728074113211.0
9.974999999999994,-0.4472625732421875,6.616226196289063,6.850250244140626,1728074113221.0
9.984999999999983,-0.0201873779296875,6.981393432617188,7.036273193359375,1728074113231.0
9.994999999999976,0.23387451171875,6.810922241210938,7.484432983398438,1728074113241.0
10.006,0.493170166015625,7.568621826171875,6.887036132812501,1728074113252.0
10.014999999999986,0.5580688476562501,8.1192138671875,5.902340698242188,1728074113261.0
10.024999999999975,0.8321685791015626,7.112835693359376,4.067532348632813,1728074113271.0
10.034999999999997,0.500946044921875,7.393515014648438,6.1282897949218755,1728074113281.0
10.044999999999987,-0.0849365234375,6.876718139648438,8.331704711914064,1728074113291.0
10.055999999999983,-0.3910369873046875,6.610842895507813,8.045193481445313,1728074113302.0
10.066000000000004,-0.5088714599609375,6.822286987304688,7.470675659179688,1728074113312.0
10.075999999999992,-0.4586273193359375,6.811520385742188,5.5963897705078125,1728074113322.0
10.085999999999984,-0.82364501953125,7.933340454101563,6.489569091796875,1728074113332.0
10.095999999999975,-0.4197479248046875,7.675390625,5.894564819335938,1728074113342.0
10.105999999999996,0.5084228515625,7.387982177734376,5.5125,1728074113352.0
10.115999999999984,1.0872772216796875,7.144387817382813,6.3854919433593755,1728074113362.0
10.125999999999976,1.1775970458984375,6.4961486816406255,7.435684204101563,1728074113372.0
10.135999999999996,0.6570617675781251,7.053768920898438,8.3082275390625,1728074113382.0
10.145999999999988,0.520086669921875,7.050628662109376,6.882400512695313,1728074113392.0
10.155999999999976,0.0849365234375,7.443161010742188,5.132977294921876,1728074113402.0
10.165999999999997,-0.5927612304687501,7.386935424804688,5.593099975585938,1728074113412.0
10.175999999999988,-1.3603302001953126,7.366748046875,6.584524536132813,1728074113422.0
10.18599999999998,-1.1345306396484376,7.188800048828125,7.48338623046875,1728074113432.0
10.195999999999998,-0.088226318359375,6.906027221679688,6.704153442382813,1728074113442.0
10.205999999999989,0.421990966796875,6.618917846679688,6.3391357421875005,1728074113452.0
10.216999999999985,0.7888031005859376,6.918887329101563,7.359869384765625,1728074113463.0
10.226,0.849066162109375,7.2258850097656255,7.522714233398438,1728074113472.0
10.23599999999999,0.8581878662109376,7.284353637695313,6.292330932617188,1728074113482.0
10.246999999999986,0.73870849609375,7.42177734375,5.138211059570313,1728074113493.0
10.256999999999977,0.0136077880859375,7.761074829101563,5.533734130859376,1728074113503.0
10.266999999999996,-0.329876708984375,7.271194458007813,6.38638916015625,1728074113513.0
10.276999999999989,-0.53175048828125,7.3350463867187505,7.153060913085938,1728074113523.0
10.286999999999978,-0.3551483154296875,6.695330810546875,6.862213134765626,1728074113533.0
10.296999999999995,-0.1939483642578125,6.690246582031251,6.925167846679688,1728074113543.0
10.306999999999988,-0.11783447265625,7.037319946289063,7.573855590820313,1728074113553.0
10.31699999999998,0.0705810546875,7.011599731445313,7.04375,1728074113563.0
10.326999999999998,0.292791748046875,7.2483154296875005,6.183169555664063,1728074113573.0
10.336999999999987,0.6521270751953125,7.374822998046875,5.0007873535156255,1728074113583.0
10.34699999999998,0.7370635986328126,8.043847656250001,5.1622863769531255,1728074113593.0
10.357,1.1599517822265626,7.606903076171876,6.323135375976563,1728074113603.0
10.36699999999999,1.012359619140625,6.615328979492188,7.459161376953125,1728074113613.0
10.37699999999998,-0.3372039794921875,6.919186401367188,8.169757080078126,1728074113623.0
10.387,-1.080548095703125,6.587066650390626,7.454525756835938,1728074113633.0
10.396999999999991,-1.2984222412109376,6.618917846679688,6.291732788085938,1728074113643.0
10.406999999999982,-0.8665618896484376,7.764813232421876,6.401641845703126,1728074113653.0
10.417999999999978,-0.6302947998046875,7.793524169921875,5.8055908203125,1728074113664.0
10.427999999999995,-0.1170867919921875,7.237399291992188,5.786001586914063,1728074113674.0
10.437999999999988,0.76083984375,7.129733276367188,6.444558715820313,1728074113684.0
10.44799999999998,1.7875549316406252,7.1630798339843755,7.532733154296875,1728074113694.0
10.457999999999998,1.402947998046875,6.725537109375001,7.508956909179688,1728074113704.0
10.46799999999999,0.4927215576171875,7.02281494140625,6.350201416015626,1728074113714.0
10.47799999999998,0.2400054931640625,7.265213012695313,6.280218505859375,1728074113724.0
10.488,-0.3768310546875,7.524807739257813,6.054718017578125,1728074113734.0
10.49799999999999,-1.2293365478515623,7.446151733398438,6.5066162109375005,1728074113744.0
10.50799999999998,-1.8878936767578127,6.902737426757813,6.630133056640625,1728074113754.0
10.518,-0.7920928955078126,7.005020141601563,6.880157470703126,1728074113764.0
10.527999999999992,0.1463958740234375,7.192239379882813,7.145883178710938,1728074113774.0
10.537999999999982,0.814373779296875,7.006964111328125,6.428109741210938,1728074113784.0
10.548000000000002,1.26328125,6.779220581054688,6.7443786621093755,1728074113794.0
10.557999999999993,1.27584228515625,7.281961059570313,6.660189819335938,1728074113804.0
10.567999999999984,1.307244873046875,7.656698608398438,6.618618774414063,1728074113814.0
10.578000000000005,0.5909667968750001,7.338934326171875,5.372833251953125,1728074113824.0
10.589,-0.310137939453125,7.206744384765625,5.740093994140626,1728074113835.0
10.59899999999999,-0.8184112548828125,7.293774414062501,7.044497680664063,1728074113845.0
10.60899999999998,-1.0654449462890625,7.113134765625,7.371832275390625,1728074113855.0
10.619,-0.9262268066406252,6.724490356445313,6.7862487792968755,1728074113865.0
10.62899999999999,-0.458477783203125,6.906924438476563,6.4602600097656255,1728074113875.0
10.638999999999982,0.143255615234375,7.030740356445313,7.289886474609376,1728074113885.0
10.649999999999975,0.6615478515625001,7.279568481445313,6.917242431640625,1728074113896.0
10.658999999999992,0.8752349853515625,7.192388916015625,6.334201049804688,1728074113905.0
10.668999999999984,1.0337432861328126,7.451983642578125,5.344271850585938,1728074113915.0
10.679000000000002,0.948956298828125,7.610342407226563,6.2075439453125005,1728074113925.0
10.688999999999991,0.4403839111328125,7.256838989257813,6.516186523437501,1728074113935.0
10.698999999999984,-0.3443817138671875,7.123452758789063,6.743780517578125,1728074113945.0
10.709000000000003,-0.6032287597656251,6.866101074218751,6.5712158203125,1728074113955.0
10.718999999999994,-0.45997314453125,6.890026855468751,6.582131958007813,1728074113965.0
10.728999999999983,-0.3222503662109375,7.2019592285156255,6.997543334960938,1728074113975.0
10.738999999999976,-0.160003662109375,6.666320800781251,7.187454223632813,1728074113985.0
10.748999999999995,-0.0665435791015625,7.46005859375,7.084274291992188,1728074113995.0
10.758999999999986,0.33974609375,7.966537475585938,6.280218505859375,1728074114005.0
10.768999999999975,0.8121307373046875,7.04674072265625,4.3757263183593755,1728074114015.0
10.78,0.735418701171875,7.2291748046875,6.126046752929688,1728074114026.0
10.789999999999992,0.25361328125,7.063638305664063,8.229421997070313,1728074114036.0
10.799999999999985,-0.1112548828125,6.816455078125,7.920779418945313,1728074114046.0
10.810000000000002,-0.21114501953125,6.804641723632813,6.8041931152343755,1728074114056.0
10.819999999999991,-0.415411376953125,6.945953369140626,5.375375366210938,1728074114066.0
10.829999999999984,-0.7449890136718751,7.869338989257813,6.82841796875,1728074114076.0
10.840000000000003,-0.5701812744140625,7.587911987304688,6.461007690429688,1728074114086.0
10.849999999999994,0.0614593505859375,7.137359619140626,5.7380004882812505,1728074114096.0
10.859999999999983,0.7077545166015625,7.0497314453125,6.10765380859375,1728074114106.0
10.869999999999976,1.01505126953125,6.7593322753906255,7.3105224609375,1728074114116.0
10.879999999999995,0.7734008789062501,7.311868286132813,8.087960815429689,1728074114126.0
10.889999999999986,0.5941070556640625,6.921279907226563,6.7267333984375,1728074114136.0
10.899999999999975,0.1505828857421875,7.276876831054688,5.335299682617188,1728074114146.0
10.909999999999997,-0.4828521728515625,7.382598876953126,5.965444946289063,1728074114156.0
10.919999999999987,-0.9200958251953124,7.450338745117188,6.6965270996093755,1728074114166.0
10.929999999999978,-0.9287689208984377,7.101919555664063,7.110443115234376,1728074114176.0
10.939999999999998,-0.312530517578125,6.963449096679688,6.39237060546875,1728074114186.0
10.950999999999992,0.266473388671875,6.775033569335938,6.608749389648438,1728074114197.0
10.960999999999984,0.696539306640625,7.0353759765625,7.19388427734375,1728074114207.0
10.970999999999975,0.742596435546875,7.114331054687501,7.443609619140625,1728074114217.0
10.980999999999996,0.8175140380859376,7.2617736816406255,6.226385498046875,1728074114227.0
10.990999999999984,0.647491455078125,7.416394042968751,5.45926513671875,1728074114237.0
11.000999999999976,0.2800811767578125,7.534228515625,5.605810546875,1728074114247.0
11.010999999999996,-0.174658203125,7.527798461914063,6.630282592773438,1728074114257.0
11.020999999999988,-0.587078857421875,7.15799560546875,6.836193847656251,1728074114267.0
11.030999999999976,-0.407037353515625,6.791183471679688,6.722097778320313,1728074114277.0
11.040999999999997,-0.3010162353515625,6.8343994140625,7.210183715820313,1728074114287.0
11.050999999999988,-0.2415008544921875,6.807333374023438,7.335494995117188,1728074114297.0
11.06099999999998,-0.1595550537109375,7.031936645507813,7.22977294921875,1728074114307.0
11.070999999999998,0.2558563232421875,7.41519775390625,6.034680175781251,1728074114317.0
11.080999999999989,0.7280914306640626,7.4531799316406255,5.58367919921875,1728074114327.0
11.09099999999998,0.868206787109375,7.538565063476563,5.623007202148438,1728074114337.0
11.101,0.6358276367187501,7.408468627929688,5.933743286132813,1728074114347.0
11.11099999999999,0.6482391357421875,7.592098999023438,6.09808349609375,1728074114357.0
11.121999999999986,1.065594482421875,6.29666748046875,7.286895751953126,1728074114368.0
11.131999999999977,0.2277435302734375,6.955822753906251,8.265161132812501,1728074114378.0
11.141999999999996,-1.1943450927734376,7.546340942382813,8.084222412109376,1728074114388.0
11.151999999999989,-1.8322662353515624,6.542953491210938,5.384646606445313,1728074114398.0
11.161999999999978,-1.1783447265625,7.043899536132813,5.246923828125,1728074114408.0
11.171999999999995,-0.3524566650390625,8.03128662109375,6.72135009765625,1728074114418.0
11.181999999999988,0.06639404296875,7.366448974609376,6.87327880859375,1728074114428.0
11.19199999999998,0.6358276367187501,6.831558227539063,6.839932250976563,1728074114438.0
11.201999999999998,1.85006103515625,6.7817626953125005,6.533084106445313,1728074114448.0
11.215000000000003,1.7426940917968752,7.146331787109376,7.293774414062501,1728074114461.0
11.22199999999998,0.5878265380859375,7.31351318359375,6.719854736328125,1728074114468.0
11.232,-0.3656158447265625,7.419982910156251,5.948248291015625,1728074114478.0
11.24199999999999,-0.5641998291015625,7.2961669921875005,5.490966796875,1728074114488.0
11.25199999999998,-0.8934783935546876,7.254446411132813,6.702957153320313,1728074114498.0
11.262,-1.741497802734375,7.11612548828125,7.526901245117188,1728074114508.0
11.271999999999991,-1.1388671875,6.550131225585938,7.314260864257813,1728074114518.0
11.281999999999982,0.106768798828125,7.118667602539063,6.6711059570312505,1728074114528.0
11.292000000000002,0.9667510986328126,7.2770263671875,6.190795898437501,1728074114538.0
11.302999999999995,1.5213806152343752,7.139453125,6.402987670898438,1728074114549.0
11.314999999999998,1.19329833984375,7.174145507812501,6.694284057617188,1728074114561.0
11.32299999999998,1.107464599609375,7.471572875976563,6.619515991210938,1728074114569.0
11.332999999999998,0.729437255859375,7.038067626953126,6.123654174804688,1728074114579.0
11.34299999999999,-0.1927520751953125,7.249063110351563,6.2099365234375,1728074114589.0
11.35299999999998,-1.1967376708984376,7.2124267578125005,6.909466552734376,1728074114599.0
11.363,-1.3498626708984376,7.312167358398438,6.485382080078126,1728074114609.0
11.37299999999999,-0.653173828125,7.192538452148438,6.177188110351563,1728074114619.0
11.38299999999998,0.0043365478515625,7.303045654296875,6.158795166015626,1728074114629.0
11.393,0.329876708984375,6.688302612304688,7.366598510742188,1728074114639.0
11.402999999999992,0.5323486328125,6.72135009765625,7.754046630859375,1728074114649.0
11.415999999999997,0.9015533447265626,7.109097290039063,7.274185180664063,1728074114662.0
11.423000000000002,1.14783935546875,7.547238159179688,5.548388671875,1728074114669.0
11.432999999999993,0.8626739501953126,7.572061157226563,5.0356292724609375,1728074114679.0
11.442999999999984,-0.084637451171875,7.533630371093751,6.002230834960938,1728074114689.0
11.453000000000005,-0.63941650390625,7.293325805664063,6.914999389648438,1728074114699.0
11.462999999999994,-0.549993896484375,7.049282836914063,7.139602661132813,1728074114709.0
11.47399999999999,-0.387896728515625,6.8475585937500005,6.587216186523438,1728074114720.0
11.482999999999976,-0.3318206787109375,6.29666748046875,6.876419067382813,1728074114729.0
11.494,-0.146844482421875,7.111489868164063,7.199267578125,1728074114740.0
11.50399999999999,0.5263671875,7.169509887695313,7.182070922851563,1728074114750.0
11.514999999999986,1.0552764892578126,7.591949462890626,5.8082824707031255,1728074114761.0
11.524,0.8583374023437501,8.5654296875,5.755197143554688,1728074114770.0
11.533999999999992,0.4344024658203125,7.222445678710938,4.577001953125,1728074114780.0
11.543999999999984,0.1184326171875,6.634918212890626,6.360968017578125,1728074114790.0
11.554000000000002,-0.28172607421875,6.856381225585938,9.302493286132814,1728074114800.0
11.563999999999991,-0.6359771728515625,6.405529785156251,7.877114868164063,1728074114810.0
11.573999999999984,-0.8378509521484375,7.099526977539063,7.245025634765626,1728074114820.0
11.584000000000003,-0.5658447265625001,7.004122924804688,5.394815063476563,1728074114830.0
11.593999999999994,-0.6373229980468751,8.103512573242188,5.815460205078125,1728074114840.0
11.603999999999983,-0.132489013671875,7.6359130859375,6.124551391601563,1728074114850.0
11.61499999999998,0.7529144287109375,7.260577392578125,5.175296020507813,1728074114861.0
11.623999999999995,1.379022216796875,7.031188964843751,7.428207397460938,1728074114870.0
11.633999999999986,1.4823516845703126,6.491363525390626,7.554714965820313,1728074114880.0
11.643999999999975,0.441131591796875,6.830212402343751,8.166018676757814,1728074114890.0
11.655,0.0973480224609375,7.245922851562501,6.476409912109376,1728074114901.0
11.664999999999992,-0.1786956787109375,7.648623657226563,4.966543579101563,1728074114911.0
11.674999999999985,-0.6959411621093751,7.533929443359376,5.390927124023438,1728074114921.0
11.685000000000002,-1.227542114257813,7.549481201171876,6.46055908203125,1728074114931.0
11.694999999999991,-1.039276123046875,6.865353393554688,7.689147949218751,1728074114941.0
11.704999999999984,-0.117535400390625,6.407174682617188,7.157846069335938,1728074114951.0
11.71599999999998,0.5875274658203126,6.441717529296875,7.630230712890626,1728074114962.0
11.724999999999994,0.761138916015625,7.207791137695313,7.427609252929688,1728074114971.0
11.734999999999983,0.5314514160156251,6.893017578125001,6.693984985351563,1728074114981.0
11.744999999999976,0.567938232421875,7.631576538085938,5.3750762939453125,1728074114991.0
11.754999999999995,0.6314910888671875,7.943359375000001,5.377020263671875,1728074115001.0
11.764999999999986,0.459674072265625,8.375817871093751,4.57939453125,1728074115011.0
11.774999999999975,0.3566436767578125,7.073806762695313,6.226385498046875,1728074115021.0
11.784999999999997,-0.076263427734375,7.132723999023438,6.796267700195313,1728074115031.0
11.794999999999987,-0.065496826171875,6.3720336914062505,8.221047973632814,1728074115041.0
11.804999999999978,-0.0151031494140625,6.5768981933593755,7.988967895507813,1728074115051.0
11.816000000000004,-0.5321990966796876,6.593496704101563,7.48697509765625,1728074115062.0
11.825999999999992,-0.8632720947265625,6.947149658203125,6.602917480468751,1728074115072.0
11.83499999999998,-0.7544097900390625,7.549032592773438,5.923724365234375,1728074115081.0
11.845999999999975,0.018243408203125,8.01334228515625,5.401693725585938,1728074115092.0
11.855999999999996,0.7077545166015625,7.556359863281251,5.2552978515625,1728074115102.0
11.865999999999984,1.012060546875,7.249362182617188,5.649325561523438,1728074115112.0
11.875999999999976,1.2378601074218751,7.270147705078125,6.750210571289063,1728074115122.0
11.885999999999996,1.7571990966796875,6.3989501953125005,7.9705749511718755,1728074115132.0
11.895999999999988,1.35479736328125,6.794622802734375,8.152859497070313,1728074115142.0
11.905999999999976,-0.6485382080078126,7.63890380859375,7.591650390625,1728074115152.0
11.915999999999997,-1.873388671875,6.9043823242187505,4.862316894531251,1728074115162.0
11.925999999999988,-2.0990386962890626,7.097134399414063,5.3246826171875,1728074115172.0
11.93599999999998,-1.46844482421875,8.177233886718751,6.846212768554688,1728074115182.0
11.945999999999998,-0.6365753173828126,7.023712158203126,6.750808715820313,1728074115192.0
11.955999999999989,-0.0444122314453125,6.591552734375001,7.144537353515625,1728074115202.0
11.96599999999998,2.11204833984375,6.689199829101563,6.995001220703125,1728074115212.0
11.976,2.4417755126953127,7.373776245117188,7.722195434570313,1728074115222.0
11.98599999999999,1.2827209472656251,7.250857543945313,6.1596923828125005,1728074115232.0
11.99599999999998,0.4969085693359375,7.551724243164063,5.0680786132812505,1728074115242.0
12.006,0.133087158203125,7.616622924804688,5.535229492187501,1728074115252.0
12.016999999999996,-0.7789337158203126,7.3335510253906255,6.768753051757813,1728074115263.0
12.026999999999989,-2.1450958251953125,6.986477661132813,7.7232421875,1728074115273.0
12.036999999999978,-2.0480468750000003,6.260629272460938,7.511648559570313,1728074115283.0
12.046999999999995,-0.68009033203125,6.993954467773438,7.021768188476563,1728074115293.0
12.056999999999988,0.10228271484375,7.277923583984376,6.423175048828125,1728074115303.0
12.06699999999998,1.3882934570312502,7.199566650390626,6.178234863281251,1728074115313.0
12.076999999999998,1.5191375732421877,7.115078735351563,6.2284790039062505,1728074115323.0
12.086999999999987,1.6890106201171875,7.621856689453126,6.696228027343751,1728074115333.0
12.09699999999998,1.601382446289063,7.113134765625,6.423773193359375,1728074115343.0
12.107,0.3620269775390625,7.330410766601563,6.090008544921876,1728074115353.0
12.11699999999999,-0.6886138916015625,6.948495483398438,6.611889648437501,1728074115363.0
12.12699999999998,-1.508819580078125,7.59703369140625,6.279919433593751,1728074115373.0
12.137,-1.1387176513671875,7.414599609375,6.428408813476563,1728074115383.0
12.146999999999991,-0.5821441650390625,7.285250854492188,5.776580810546875,1728074115393.0
12.156999999999982,-0.388494873046875,6.439175415039063,7.667315673828125,1728074115403.0
12.167000000000002,-0.0503936767578125,6.392071533203126,8.177981567382814,1728074115413.0
12.177999999999995,0.6264068603515626,6.997991943359375,7.917340087890626,1728074115424.0
12.187999999999988,1.2679168701171877,7.649670410156251,5.624203491210938,1728074115434.0
12.19799999999998,1.7914428710937502,7.573257446289063,4.345370483398438,1728074115444.0
12.207999999999998,0.5695831298828126,7.558901977539063,5.753552246093751,1728074115454.0
12.21799999999999,-0.287408447265625,7.433889770507813,7.263717651367188,1728074115464.0
12.22799999999998,-0.6747070312500001,7.272091674804688,6.985430908203125,1728074115474.0
12.238,-0.1963409423828125,6.799407958984376,5.6596435546875,1728074115484.0
12.24799999999999,-0.1434051513671875,6.647479248046875,5.9228271484375,1728074115494.0
12.25799999999998,-0.2438934326171875,6.872082519531251,8.151962280273438,1728074115504.0
12.268,0.00897216796875,7.196725463867188,8.542102050781251,1728074115514.0
12.277999999999992,0.1437042236328125,8.142242431640625,6.730172729492188,1728074115524.0
12.287999999999982,0.45279541015625,7.045993041992188,3.574362182617188,1728074115534.0
12.298000000000002,0.3569427490234375,6.987075805664063,4.8277740478515625,1728074115544.0
12.307999999999993,-0.2361175537109375,7.499386596679688,8.595037841796875,1728074115554.0
12.317999999999984,0.104376220703125,6.866400146484375,8.252899169921875,1728074115564.0
12.328000000000005,0.34393310546875,6.935037231445313,6.990664672851563,1728074115574.0
12.337999999999994,0.1888641357421875,6.5090087890625,5.619418334960938,1728074115584.0
12.347999999999985,-0.72315673828125,7.504620361328126,6.861166381835938,1728074115594.0
12.357999999999976,-1.0388275146484376,7.758383178710938,7.206594848632813,1728074115604.0
12.369,0.07716064453125,7.590005493164063,4.7829132080078125,1728074115615.0
12.37899999999999,0.8903381347656251,7.212277221679688,5.286102294921875,1728074115625.0
12.388999999999982,0.8059997558593751,6.746322631835938,6.993356323242188,1728074115635.0
12.399,0.0853851318359375,6.853689575195313,8.962298583984376,1728074115645.0
12.408999999999992,0.439337158203125,6.998291015625001,8.022015380859376,1728074115655.0
12.418999999999984,0.6775482177734375,7.073806762695313,4.825381469726563,1728074115665.0
12.429000000000002,0.1425079345703125,7.305139160156251,5.1208648681640625,1728074115675.0
12.438999999999991,-0.7152313232421875,7.694232177734375,6.771893310546876,1728074115685.0
12.448999999999984,-1.0587158203125,7.342074584960938,7.549032592773438,1728074115695.0
12.459000000000003,-0.4074859619140625,6.780865478515626,6.52396240234375,1728074115705.0
12.468999999999994,0.2284912109375,6.512747192382813,6.164627075195313,1728074115715.0
12.478999999999983,0.1481903076171875,7.309326171875001,7.462152099609376,1728074115725.0
12.488999999999976,0.198883056640625,6.925466918945313,7.470825195312501,1728074115735.0
12.498999999999995,0.6736602783203125,7.317251586914063,6.269003295898438,1728074115745.0
12.508999999999986,0.9619659423828124,7.686904907226563,5.402740478515625,1728074115755.0
12.519999999999982,0.6628936767578125,7.485031127929688,5.041311645507813,1728074115766.0
12.53,0.1215728759765625,7.277175903320313,6.652713012695313,1728074115776.0
12.539999999999992,-0.181536865234375,7.33385009765625,7.437628173828125,1728074115786.0
12.549999999999985,0.0133087158203125,6.93369140625,6.772341918945313,1728074115796.0
12.560000000000002,-0.117535400390625,6.8116699218750005,6.5619445800781255,1728074115806.0
12.569999999999991,-0.5467041015625,6.7877441406250005,6.815258789062501,1728074115816.0
12.579999999999984,-0.5737701416015626,7.16636962890625,7.612136840820313,1728074115826.0
12.590000000000003,-0.16090087890625,7.274932861328126,6.775631713867188,1728074115836.0
12.599999999999994,0.38460693359375,7.283755493164063,5.155108642578125,1728074115846.0
12.609999999999983,0.8499633789062501,7.218109130859376,5.359524536132813,1728074115856.0
12.619999999999976,0.82364501953125,7.994949340820313,5.907574462890626,1728074115866.0
12.629999999999995,1.241448974609375,7.054217529296875,7.437628173828125,1728074115876.0
12.639999999999986,1.305300903320313,6.777725219726563,7.1167236328125005,1728074115886.0
12.649999999999975,-0.1544708251953125,7.564285278320313,7.493704223632813,1728074115896.0
12.659999999999997,-1.0877258300781252,6.5709167480468755,6.4632507324218755,1728074115906.0
12.669999999999987,-1.9644561767578128,6.62803955078125,6.248516845703126,1728074115916.0
12.679999999999978,-1.0969970703125,7.612435913085938,7.233212280273438,1728074115926.0
12.689999999999998,-0.588873291015625,7.499835205078125,6.137411499023438,1728074115936.0
12.699999999999989,-0.1628448486328125,7.153808593750001,6.375323486328125,1728074115946.0
12.70999999999998,0.93011474609375,6.962402343750001,6.247171020507813,1728074115956.0
12.720999999999975,1.7314788818359377,7.361663818359376,7.338485717773438,1728074115967.0
12.730999999999996,1.30096435546875,6.922027587890626,6.960906982421876,1728074115977.0
12.740999999999984,0.6802398681640626,7.233810424804688,6.0460449218750005,1728074115987.0
12.750999999999976,0.2812774658203125,7.208538818359376,6.397155761718751,1728074115997.0
12.760999999999996,-0.3736907958984375,7.255642700195313,6.488970947265625,1728074116007.0
12.770999999999988,-1.3498626708984376,7.404281616210938,7.052124023437501,1728074116017.0
12.780999999999976,-1.7313293457031251,6.753201293945313,6.464596557617188,1728074116027.0
12.790999999999997,-0.72794189453125,7.221847534179688,6.623403930664063,1728074116037.0
12.800999999999988,-0.023028564453125,7.20823974609375,6.72733154296875,1728074116047.0
12.81099999999998,0.6522766113281251,6.993804931640626,6.69144287109375,1728074116057.0
12.820999999999998,1.3127777099609377,6.854287719726563,6.886737060546875,1728074116067.0
12.830999999999989,1.355096435546875,7.188201904296876,6.642544555664063,1728074116077.0
12.84099999999998,1.1548675537109376,7.011898803710938,7.075003051757813,1728074116087.0
12.851,0.2954833984375,7.328616333007813,6.223544311523438,1728074116097.0
12.86099999999999,-0.5924621582031251,7.2028564453125,6.373229980468751,1728074116107.0
12.871999999999986,-0.9574798583984376,7.586715698242188,5.6173248291015625,1728074116118.0
12.881,-0.7731018066406251,7.723391723632813,6.02032470703125,1728074116127.0
12.891999999999996,-0.2642303466796875,7.628286743164063,5.654409790039063,1728074116138.0
12.901999999999989,0.308941650390625,6.665573120117188,6.670657348632813,1728074116148.0
12.911999999999978,0.43963623046875,6.56583251953125,8.259030151367188,1728074116158.0
12.924999999999985,0.7310821533203126,6.415548706054688,8.279067993164062,1728074116171.0
12.931999999999988,0.7259979248046875,7.250408935546876,7.0688720703125005,1728074116178.0
12.94199999999998,0.5586669921875,7.459310913085938,4.9967498779296875,1728074116188.0
12.951999999999998,0.13577880859375,7.664324951171875,4.983889770507813,1728074116198.0
12.961999999999987,-0.6039764404296876,7.679577636718751,6.37442626953125,1728074116208.0
12.97199999999998,-0.7346710205078125,7.228427124023438,6.850250244140626,1728074116218.0
12.982,-0.27933349609375,7.144686889648438,6.740789794921875,1728074116228.0
12.99199999999999,0.309539794921875,6.501831054687501,6.407174682617188,1728074116238.0
13.00199999999998,0.4445709228515625,6.603515625000001,7.053619384765626,1728074116248.0
13.012,0.4852447509765625,7.195828247070313,7.855581665039063,1728074116258.0
13.024999999999975,0.7535125732421876,7.124050903320313,6.749911499023438,1728074116271.0
13.031999999999982,0.6569122314453125,8.166018676757814,5.7098876953125,1728074116278.0
13.042000000000002,0.3452789306640625,8.133868408203126,4.723696899414063,1728074116288.0
13.051999999999992,-0.3928314208984375,6.583926391601563,4.9145050048828125,1728074116298.0
13.062999999999988,-0.6554168701171875,6.984832763671876,8.459408569335938,1728074116309.0
13.07299999999998,-0.608612060546875,6.561196899414063,9.104058837890626,1728074116319.0
13.082999999999998,-0.4912261962890625,6.611740112304688,7.532733154296875,1728074116329.0
13.09299999999999,-0.4031494140625,6.818847656250001,6.181524658203125,1728074116339.0
13.10299999999998,-0.2944366455078125,7.581481933593751,5.287149047851563,1728074116349.0
13.113,0.1033294677734375,8.215814208984376,6.431100463867188,1728074116359.0
13.123999999999995,0.82484130859375,7.610043334960938,5.1896514892578125,1728074116370.0
13.13299999999998,1.1429046630859376,7.065731811523438,5.903088378906251,1728074116379.0
13.143,1.071875,6.7147705078125,7.312017822265625,1728074116389.0
13.152999999999992,0.60352783203125,6.606207275390625,8.345910644531251,1728074116399.0
13.162999999999982,0.0785064697265625,7.150518798828125,7.843917846679688,1728074116409.0
13.173000000000002,-0.3385498046875,7.1908935546875,5.407376098632813,1728074116419.0
13.182999999999993,-0.8231964111328126,7.412356567382813,5.229129028320313,1728074116429.0
13.192999999999984,-1.2857116699218751,7.585369873046876,6.124700927734375,1728074116439.0
13.203000000000005,-1.0283599853515626,7.335644531250001,7.352542114257813,1728074116449.0
13.212999999999994,-0.1040771484375,6.769351196289063,6.9357849121093755,1728074116459.0
13.224999999999994,0.6125,6.64000244140625,6.552075195312501,1728074116471.0
13.23399999999998,1.164288330078125,6.833352661132813,7.237548828125001,1728074116480.0
13.244,1.30574951171875,7.235903930664063,7.351046752929688,1728074116490.0
13.25399999999999,0.8049530029296875,7.424618530273438,6.454727172851563,1728074116500.0
13.263999999999982,0.524871826171875,7.331158447265626,5.073162841796876,1728074116510.0
13.274,-0.0491973876953125,7.75255126953125,5.509808349609376,1728074116520.0
13.283999999999992,-0.6213226318359375,7.638455200195313,6.313116455078125,1728074116530.0
13.293999999999984,-0.7283905029296875,6.965393066406251,6.741088867187501,1728074116540.0
13.304000000000002,-0.602630615234375,6.7697998046875005,7.210632324218751,1728074116550.0
13.313999999999991,-0.184527587890625,6.51798095703125,7.506414794921875,1728074116560.0
13.324999999999989,-0.00657958984375,6.948196411132813,7.663128662109376,1728074116571.0
13.334000000000003,0.206060791015625,7.077096557617188,6.968383789062501,1728074116580.0
13.343999999999994,0.44442138671875,7.2626708984375,5.672503662109375,1728074116590.0
13.353999999999983,0.6347808837890625,7.689447021484376,5.380758666992188,1728074116600.0
13.363999999999976,0.7699615478515626,7.7746826171875005,5.4825927734375,1728074116610.0
13.373999999999995,0.91815185546875,7.175790405273438,6.009857177734375,1728074116620.0
13.383999999999986,0.5991912841796876,7.605557250976563,6.4602600097656255,1728074116630.0
13.393999999999975,0.3168670654296875,6.177188110351563,7.7029052734375005,1728074116640.0
13.405,-0.0968994140625,6.901989746093751,7.772140502929688,1728074116651.0
13.415999999999997,-0.8857025146484375,8.107400512695314,8.178430175781251,1728074116662.0
13.424999999999985,-1.4156585693359376,6.348257446289063,4.720706176757813,1728074116671.0
13.435000000000002,-1.2649261474609377,6.794024658203125,5.0381713867187505,1728074116681.0
13.444999999999991,-0.2954833984375,7.862310791015625,7.844964599609376,1728074116691.0
13.454999999999984,0.555975341796875,7.593893432617188,7.173995971679688,1728074116701.0
13.465000000000003,1.320404052734375,6.9238220214843755,6.960159301757813,1728074116711.0
13.474999999999994,1.20107421875,6.39835205078125,5.179333496093751,1728074116721.0
13.484999999999983,0.850262451171875,7.457965087890625,7.5354248046875005,1728074116731.0
13.494999999999976,0.4514495849609375,7.580285644531251,7.203305053710938,1728074116741.0
13.504999999999995,-0.127703857421875,7.401290893554688,5.672952270507813,1728074116751.0
13.514999999999986,-0.5570220947265625,7.0539184570312505,5.51788330078125,1728074116761.0
13.525999999999982,-1.0998382568359375,6.857278442382813,6.6621337890625005,1728074116772.0
13.534999999999997,-1.3869476318359375,7.308877563476563,8.435183715820314,1728074116781.0
13.544999999999987,-0.4056915283203125,6.892718505859375,7.130331420898438,1728074116791.0
13.554999999999978,0.3210540771484375,7.03238525390625,5.7369537353515625,1728074116801.0
13.564999999999998,0.8220001220703126,7.056759643554688,5.707943725585938,1728074116811.0
13.575999999999992,1.092510986328125,7.472470092773438,7.265213012695313,1728074116822.0
13.58499999999998,1.0238739013671876,7.352243041992188,7.260128784179688,1728074116831.0
13.595999999999975,0.8297760009765626,7.122256469726563,5.783010864257813,1728074116842.0
13.605999999999996,0.3321197509765625,6.955822753906251,5.763272094726563,1728074116852.0
13.615999999999984,-0.281427001953125,7.282110595703125,6.8909240722656255,1728074116862.0
13.625999999999976,-0.8997589111328126,7.35478515625,7.503424072265625,1728074116872.0
13.635999999999996,-0.9363952636718752,7.098330688476563,6.37681884765625,1728074116882.0
13.645999999999988,-0.5135070800781251,6.9103637695312505,5.71527099609375,1728074116892.0
13.655999999999976,-0.0862823486328125,7.3230834960937505,6.697125244140626,1728074116902.0
13.665999999999997,0.3521575927734375,7.184164428710938,7.229025268554688,1728074116912.0
