time,ax,ay,az,timestamp
0.0,-0.6410614013671876,7.10416259765625,6.770697021484375,1729396355233.0
0.0099999999999909,-0.3261383056640625,7.555462646484376,8.812762451171876,1729396355243.0
0.019999999999996,-0.009271240234375,7.769299316406251,6.426165771484375,1729396355253.0
0.0300000000000011,0.23746337890625,7.520620727539063,4.817007446289063,1729396355263.0
0.039999999999992,0.3979156494140625,7.1095458984375,4.9738708496093755,1729396355273.0
0.0510000000000019,0.139068603515625,7.402188110351563,7.558303833007813,1729396355284.0
0.0600000000000022,0.2859130859375,7.061544799804688,8.62344970703125,1729396355293.0
0.0699999999999931,0.70880126953125,7.66103515625,5.893667602539063,1729396355303.0
0.0799999999999983,0.850262451171875,7.141546630859375,5.458218383789063,1729396355313.0
0.0899999999999892,-0.076861572265625,7.011898803710938,5.685214233398438,1729396355323.0
0.0999999999999943,-1.1769989013671875,7.203305053710938,8.6611328125,1729396355333.0
0.1099999999999994,-1.0460052490234375,6.854287719726563,8.416641235351562,1729396355343.0
0.1209999999999951,-0.3844573974609375,7.63890380859375,5.605661010742188,1729396355354.0
0.1310000000000002,0.28890380859375,7.892367553710938,4.055868530273438,1729396355364.0
0.1409999999999911,0.709698486328125,7.627987670898438,4.828073120117188,1729396355374.0
0.1499999999999914,0.6282012939453125,7.629483032226563,7.3320556640625005,1729396355383.0
0.1610000000000013,0.960919189453125,7.288241577148438,8.106802368164063,1729396355394.0
0.1709999999999922,1.0682861328125002,6.59573974609375,6.6525634765625,1729396355404.0
0.1809999999999973,0.290399169921875,6.990066528320313,6.19737548828125,1729396355414.0
0.1910000000000025,-0.295184326171875,6.976608276367188,7.374523925781251,1729396355424.0
0.2009999999999934,-0.95762939453125,7.540658569335938,7.216763305664063,1729396355434.0
0.2109999999999985,-1.0223785400390626,7.19627685546875,6.6905456542968755,1729396355444.0
0.2209999999999894,-0.9063385009765624,7.3679443359375005,5.55137939453125,1729396355454.0
0.2309999999999945,-0.8284301757812501,7.240240478515625,6.357229614257813,1729396355464.0
0.2409999999999996,-0.4224395751953125,7.020571899414063,7.425366210937501,1729396355474.0
0.2509999999999905,0.208453369140625,7.35538330078125,6.709835815429688,1729396355484.0
0.2609999999999957,1.2445892333984376,7.218109130859376,6.116177368164063,1729396355494.0
0.2710000000000008,1.8430328369140627,7.615127563476563,5.5585571289062505,1729396355504.0
0.2809999999999917,1.1898590087890626,8.347406005859376,6.856680297851563,1729396355514.0
0.2909999999999968,0.6258087158203125,7.446899414062501,6.819296264648438,1729396355524.0
0.3010000000000019,-0.4553375244140625,6.05322265625,5.53702392578125,1729396355534.0
0.3109999999999928,-1.2269439697265625,6.876419067382813,7.498040771484376,1729396355544.0
0.3209999999999979,-1.6294952392578126,6.912307739257813,8.798406982421875,1729396355554.0
0.331000000000003,-0.693548583984375,7.739691162109375,6.936981201171876,1729396355564.0
0.340999999999994,-0.9467132568359377,7.408917236328126,6.416595458984376,1729396355574.0
0.3509999999999991,-0.7285400390625001,6.8789611816406255,4.517337036132813,1729396355584.0
0.36099999999999,-0.0174957275390625,7.507611083984376,6.399996948242188,1729396355594.0
0.3709999999999951,1.514202880859375,7.773934936523438,8.293423461914063,1729396355604.0
0.3810000000000002,2.1684234619140628,7.729672241210938,5.49515380859375,1729396355614.0
0.3909999999999911,1.7889007568359376,6.852194213867188,5.203408813476563,1729396355624.0
0.4009999999999962,0.681585693359375,7.216464233398438,6.7847534179687505,1729396355634.0
0.4110000000000013,-0.3395965576171875,7.389926147460938,8.281759643554688,1729396355644.0
0.4209999999999922,-0.7654754638671876,7.2871948242187505,7.293026733398438,1729396355654.0
0.4309999999999974,-1.5529327392578127,6.702359008789063,5.673251342773438,1729396355664.0
0.4410000000000025,-2.2288360595703125,6.9597106933593755,5.681924438476563,1729396355674.0
0.4509999999999934,-1.282421875,7.509704589843751,8.471969604492188,1729396355684.0
0.4609999999999985,-0.346923828125,7.426263427734376,7.38170166015625,1729396355694.0
0.4709999999999894,0.6002380371093751,7.014739990234376,5.448049926757813,1729396355704.0
0.4809999999999945,1.4558837890625,7.155303955078126,5.6796813964843755,1729396355714.0
0.4909999999999996,1.6384674072265626,7.2830078125,7.350149536132813,1729396355724.0
0.5009999999999906,1.4087799072265623,7.772738647460938,7.542602539062501,1729396355734.0
0.5109999999999957,1.109857177734375,7.358224487304688,5.8117218017578125,1729396355744.0
0.5210000000000008,-0.0058319091796875,7.329962158203125,4.626199340820313,1729396355754.0
0.5309999999999917,-0.71717529296875,7.2856994628906255,6.639254760742188,1729396355764.0
0.5409999999999968,-1.5791015625000002,7.240240478515625,8.468679809570313,1729396355774.0
0.5510000000000019,-1.9729797363281252,6.839035034179688,7.455722045898438,1729396355784.0
0.5609999999999928,-0.9052917480468752,6.702059936523438,6.112588500976563,1729396355794.0
0.570999999999998,-0.0895721435546875,7.031338500976563,5.82891845703125,1729396355804.0
0.5810000000000031,0.6280517578125,7.717410278320313,7.11253662109375,1729396355814.0
0.590999999999994,1.30814208984375,7.652062988281251,7.523760986328125,1729396355824.0
0.6009999999999991,1.93619384765625,8.832650756835939,5.2050537109375,1729396355834.0
0.61099999999999,1.3160675048828123,7.193435668945313,4.54111328125,1729396355844.0
0.6209999999999951,-0.2214630126953125,5.580389404296875,5.55496826171875,1729396355854.0
0.6310000000000002,-0.9942657470703126,7.181472778320313,9.430496215820312,1729396355864.0
0.6409999999999911,-1.1056701660156252,7.402038574218751,10.358816528320313,1729396355874.0
0.6509999999999962,-0.2619873046875,7.3248779296875,5.675344848632813,1729396355884.0
0.6610000000000014,-1.1668304443359376,7.199716186523438,3.4946594238281254,1729396355894.0
0.6709999999999923,-1.7322265625000002,7.401739501953125,6.036175537109376,1729396355904.0
0.6809999999999974,-0.482403564453125,7.584622192382813,8.190542602539063,1729396355914.0
0.6910000000000025,1.233673095703125,7.904928588867188,6.984085083007813,1729396355924.0
0.7009999999999934,2.2467803955078125,6.7985107421875,4.6259002685546875,1729396355934.0
0.7109999999999985,1.8001159667968751,6.537420654296875,6.4396240234375,1729396355944.0
0.7209999999999894,-0.0586181640625,6.993655395507813,9.679324340820314,1729396355954.0
0.7309999999999945,-0.169873046875,7.62095947265625,8.32437744140625,1729396355964.0
0.7409999999999997,-0.1626953125,7.343869018554688,5.237203979492188,1729396355974.0
0.7509999999999906,-1.0594635009765625,7.980892944335938,2.635275268554688,1729396355984.0
0.7609999999999957,-1.6978332519531252,7.542453002929688,4.903887939453125,1729396355994.0
0.7710000000000008,-0.8574401855468751,7.1870056152343755,9.8490478515625,1729396356004.0
0.7809999999999917,0.210546875,6.943112182617188,8.603860473632814,1729396356014.0
0.7909999999999968,0.8545989990234376,6.417343139648438,5.294476318359376,1729396356024.0
0.8010000000000019,1.2380096435546877,6.641049194335938,7.270596313476563,1729396356034.0
0.8109999999999928,0.295184326171875,7.434039306640625,7.870684814453125,1729396356044.0
0.820999999999998,0.422589111328125,7.913003540039063,6.678134155273438,1729396356054.0
0.8310000000000031,0.2740997314453125,8.060745239257812,4.889532470703125,1729396356064.0
0.840999999999994,-0.1030303955078125,7.693035888671876,3.05233154296875,1729396356074.0
0.8509999999999991,-0.2373138427734375,7.434786987304688,5.824282836914063,1729396356084.0
0.86099999999999,-0.9523956298828126,6.796267700195313,10.525100708007812,1729396356094.0
0.8709999999999951,-0.265576171875,6.58916015625,8.05521240234375,1729396356104.0
0.8810000000000002,0.2035186767578125,6.7482666015625,6.007464599609375,1729396356114.0
0.8919999999999959,0.38699951171875,6.787594604492188,6.447998046875001,1729396356125.0
0.9009999999999962,-0.23028564453125,7.497741699218751,6.542803955078125,1729396356134.0
0.9110000000000014,-0.1595550537109375,7.88115234375,7.18431396484375,1729396356144.0
0.9209999999999924,0.5088714599609375,8.117868041992189,5.341879272460938,1729396356154.0
0.9320000000000022,0.98035888671875,8.4589599609375,4.078897094726563,1729396356165.0
0.9419999999999932,0.166583251953125,6.374575805664063,6.536672973632813,1729396356175.0
0.9519999999999982,-0.9966583251953126,6.137411499023438,8.193682861328126,1729396356185.0
0.9619999999999892,-0.7804290771484376,6.7363037109375,9.89031982421875,1729396356195.0
0.9719999999999942,0.48509521484375,7.112686157226563,7.594192504882813,1729396356205.0
0.9819999999999992,0.401055908203125,8.122802734375,4.468289184570313,1729396356215.0
0.9919999999999902,-0.826336669921875,7.156051635742188,5.0730133056640625,1729396356225.0
1.0009999999999906,-1.1985321044921875,7.820291137695313,5.796917724609376,1729396356234.0
1.0120000000000005,0.23267822265625,7.681820678710938,7.4920593261718755,1729396356245.0
1.0219999999999914,1.3755828857421877,7.205996704101563,5.985333251953126,1729396356255.0
1.0319999999999965,0.8925811767578126,6.557608032226563,6.790884399414063,1729396356265.0
1.0420000000000016,-0.0363372802734375,6.571514892578126,8.403033447265626,1729396356275.0
1.0519999999999925,-0.1626953125,7.272540283203125,7.945452880859375,1729396356285.0
1.0619999999999976,0.173162841796875,7.803692626953126,6.4468017578125005,1729396356295.0
1.0720000000000027,-0.1466949462890625,7.45108642578125,4.014596557617188,1729396356305.0
1.0819999999999936,-1.060061645507813,7.488470458984375,4.382754516601563,1729396356315.0
1.0919999999999987,-0.8616271972656251,7.491461181640625,8.778219604492188,1729396356325.0
1.1019999999999897,-0.007476806640625,7.175192260742188,8.161083984375,1729396356335.0
1.1119999999999948,0.5348907470703126,6.8071838378906255,5.599081420898438,1729396356345.0
1.122,0.7988220214843751,6.835446166992188,6.413754272460938,1729396356355.0
1.1319999999999908,0.27215576171875,7.168463134765625,7.704251098632813,1729396356365.0
1.141999999999996,0.1819854736328125,7.577294921875,7.733560180664063,1729396356375.0
1.152000000000001,0.241650390625,7.624847412109376,5.542855834960938,1729396356385.0
1.161999999999992,0.110357666015625,7.578341674804688,3.9633056640625,1729396356395.0
1.171999999999997,-0.1030303955078125,7.613034057617188,5.526705932617188,1729396356405.0
1.1820000000000022,-0.40733642578125,7.208987426757813,8.591748046875,1729396356415.0
1.191999999999993,-0.4940673828125,6.799557495117188,8.168560791015626,1729396356425.0
1.2019999999999982,-0.0737213134765625,6.653012084960938,6.408819580078125,1729396356435.0
1.211999999999989,0.0946563720703125,7.004721069335938,6.577944946289063,1729396356445.0
1.2219999999999942,-0.169873046875,7.509555053710938,7.093545532226563,1729396356455.0
1.231999999999999,-0.2824737548828125,7.488320922851563,6.8744750976562505,1729396356465.0
1.2419999999999902,0.2334259033203125,7.145883178710938,5.602072143554688,1729396356475.0
1.2519999999999951,0.6314910888671875,7.965789794921876,4.270751953125,1729396356485.0
1.2620000000000005,0.8925811767578126,7.338635253906251,5.890377807617188,1729396356495.0
1.2719999999999914,1.398162841796875,7.432992553710938,8.543597412109376,1729396356505.0
1.2819999999999965,0.2851654052734375,8.651861572265625,8.413650512695312,1729396356515.0
1.2920000000000016,-1.16937255859375,5.47601318359375,5.63870849609375,1729396356525.0
1.3019999999999925,-1.7332733154296875,5.2457275390625,5.072714233398438,1729396356535.0
1.3119999999999976,-1.5741668701171876,8.338583374023438,9.29800720214844,1729396356545.0
1.3220000000000027,-0.299072265625,8.066278076171876,9.104656982421876,1729396356555.0
1.3319999999999936,0.3201568603515625,7.755093383789063,4.092803955078125,1729396356565.0
1.3419999999999987,0.7418487548828125,6.933392333984376,2.3755310058593753,1729396356575.0
1.3519999999999897,0.3102874755859375,7.166668701171876,6.596636962890625,1729396356585.0
1.3619999999999948,0.7256988525390625,7.171752929687501,11.867037963867189,1729396356595.0
1.372,1.3468719482421876,7.665371704101563,7.330560302734376,1729396356605.0
1.3819999999999908,0.9826019287109377,6.6053100585937505,3.112594604492188,1729396356615.0
1.391999999999996,0.11783447265625,7.069320678710938,5.05133056640625,1729396356625.0
1.402000000000001,-2.0942535400390625,7.774533081054688,9.492254638671875,1729396356635.0
1.411999999999992,-1.3003662109375,7.675689697265626,8.420678710937501,1729396356645.0
1.421999999999997,-0.7361663818359375,6.629684448242188,4.959515380859376,1729396356655.0
1.4320000000000022,-0.3237457275390625,7.474862670898438,3.278131103515625,1729396356665.0
1.441999999999993,0.149835205078125,7.199417114257813,8.159738159179689,1729396356675.0
1.4519999999999982,0.9227874755859377,7.19627685546875,9.79700927734375,1729396356685.0
1.461999999999989,1.0050323486328123,7.307382202148438,6.383697509765626,1729396356695.0
1.4719999999999942,1.61439208984375,7.031637573242188,3.990371704101563,1729396356705.0
1.481999999999999,0.8927307128906251,7.33743896484375,6.198422241210938,1729396356715.0
1.4919999999999902,-0.7325775146484376,7.831207275390626,7.841674804687501,1729396356725.0
1.5019999999999951,-0.7853637695312501,7.584622192382813,7.3607666015625,1729396356735.0
1.5120000000000005,-0.8104858398437501,7.173397827148438,4.699771118164063,1729396356745.0
1.5219999999999914,-0.5553771972656251,7.0329833984375005,5.09439697265625,1729396356755.0
1.5319999999999965,-0.5763122558593751,7.039114379882813,8.847006225585938,1729396356765.0
1.5420000000000016,-0.8010650634765626,6.849502563476563,9.162527465820313,1729396356775.0
1.5519999999999925,0.3342132568359375,6.938177490234375,6.693685913085938,1729396356785.0
1.5619999999999976,0.963909912109375,7.284353637695313,4.761080932617188,1729396356795.0
1.5720000000000027,1.4461639404296875,7.584024047851563,4.898953247070313,1729396356805.0
1.5819999999999936,0.378326416015625,7.740887451171876,6.970626831054688,1729396356815.0
1.5919999999999987,0.3539520263671875,7.886386108398438,7.269848632812501,1729396356825.0
1.6019999999999897,0.70401611328125,8.023660278320314,5.835797119140626,1729396356835.0
1.6119999999999948,-0.0623565673828125,6.870437622070313,5.77867431640625,1729396356845.0
1.622,-1.429864501953125,5.91864013671875,6.961355590820313,1729396356855.0
1.6319999999999908,-2.4357940673828127,6.803594970703125,9.329559326171877,1729396356865.0
1.641999999999996,-0.7212127685546875,7.236950683593751,8.328713989257814,1729396356875.0
1.652000000000001,1.04495849609375,7.935882568359376,4.902392578125,1729396356885.0
1.661999999999992,0.5881256103515625,7.544247436523438,4.4684387207031255,1729396356895.0
1.671999999999997,-0.4538421630859375,6.947149658203125,6.443212890625,1729396356905.0
1.6820000000000022,0.3159698486328125,7.639352416992188,8.219403076171876,1729396356915.0
1.6929999999999978,1.5553253173828123,7.549481201171876,6.788043212890625,1729396356926.0
1.7019999999999982,1.7012725830078126,7.175640869140626,4.409820556640625,1729396356935.0
1.712999999999994,0.195294189453125,6.9357849121093755,6.4124084472656255,1729396356946.0
1.722999999999999,-1.155615234375,6.9477478027343755,8.8537353515625,1729396356956.0
1.73299999999999,-1.0204345703125002,7.653109741210938,8.211029052734375,1729396356966.0
1.742999999999995,-0.5612091064453125,7.069171142578125,5.734262084960938,1729396356976.0
1.753,-0.9664520263671876,7.118966674804688,3.449948120117188,1729396356986.0
1.762999999999991,-1.0623046875000002,7.340280151367188,7.239044189453126,1729396356996.0
1.772999999999996,-0.0773101806640625,7.456320190429688,9.640444946289064,1729396357006.0
1.7830000000000013,0.8399444580078126,7.118368530273438,6.417791748046875,1729396357016.0
1.7929999999999922,1.6170837402343752,7.054367065429688,4.541860961914063,1729396357026.0
1.8029999999999973,1.0697814941406252,7.070068359375001,6.502877807617188,1729396357036.0
1.8130000000000024,0.3342132568359375,7.52286376953125,8.061642456054688,1729396357046.0
1.8229999999999933,0.1619476318359375,7.780514526367188,7.310971069335938,1729396357056.0
1.8329999999999984,0.0587677001953125,7.697970581054688,4.410717773437501,1729396357066.0
1.842999999999989,-0.321502685546875,7.298110961914063,3.599484252929688,1729396357076.0
1.8529999999999944,-0.6966888427734376,7.14244384765625,7.767803955078126,1729396357086.0
1.8629999999999995,-1.6181304931640623,6.702359008789063,10.421023559570314,1729396357096.0
1.8729999999999905,-0.6572113037109375,6.712228393554688,7.602865600585938,1729396357106.0
1.8829999999999956,0.2298370361328125,6.864157104492188,5.351449584960938,1729396357116.0
1.893000000000001,0.6978851318359376,7.493106079101563,5.52984619140625,1729396357126.0
1.9029999999999916,0.33017578125,7.598080444335938,6.59215087890625,1729396357136.0
1.9129999999999967,0.46595458984375,8.0294921875,6.338986206054688,1729396357146.0
1.9230000000000016,1.62635498046875,7.2528015136718755,5.6138854980468755,1729396357156.0
1.9329999999999927,1.7446380615234376,8.495147705078125,5.801403808593751,1729396357166.0
1.9429999999999976,-0.7017730712890625,6.757089233398438,7.837338256835938,1729396357176.0
1.953000000000003,-2.010214233398438,5.187857055664063,7.327719116210938,1729396357186.0
1.962999999999994,-1.6348785400390626,7.393066406250001,8.099176025390626,1729396357196.0
1.972999999999999,-0.4311126708984375,7.521069335937501,7.797711181640626,1729396357206.0
1.98299999999999,0.0094207763671875,8.193832397460938,4.5167388916015625,1729396357216.0
1.992999999999995,-0.7248016357421876,7.181622314453126,5.538220214843751,1729396357226.0
2.003,-0.0477020263671875,7.027151489257813,5.7514587402343755,1729396357236.0
2.012999999999991,1.0742675781250002,7.427011108398438,8.155252075195314,1729396357246.0
2.022999999999996,2.2742950439453127,7.705148315429688,7.246969604492188,1729396357256.0
2.0330000000000013,1.3465728759765625,6.598880004882813,5.592202758789063,1729396357266.0
2.042999999999992,0.0417205810546875,6.941168212890625,6.571066284179688,1729396357276.0
2.0529999999999973,-0.9377410888671877,7.307681274414063,8.0952880859375,1729396357286.0
2.0630000000000024,-1.0892211914062502,7.898049926757813,6.789987182617188,1729396357296.0
2.0729999999999933,-0.989630126953125,7.113583374023438,5.510406494140625,1729396357306.0
2.0829999999999984,-1.6318878173828126,7.415496826171876,4.539767456054688,1729396357316.0
2.0929999999999893,-0.5199371337890626,7.245175170898438,7.748214721679688,1729396357326.0
2.1029999999999944,0.7406524658203125,7.096835327148438,8.45477294921875,1729396357336.0
2.1129999999999995,1.1680267333984375,6.9635986328125,6.46414794921875,1729396357346.0
2.1229999999999905,1.5493438720703123,6.983786010742188,5.9368835449218755,1729396357356.0
2.1329999999999956,1.0035369873046875,7.224838256835938,6.751705932617188,1729396357366.0
2.1430000000000007,0.2370147705078125,7.738644409179688,7.276428222656251,1729396357376.0
2.1529999999999916,-0.3775787353515625,7.715316772460938,6.026007080078125,1729396357386.0
2.1629999999999967,-0.8197570800781251,7.6101928710937505,4.4908691406250005,1729396357396.0
2.173000000000002,-0.7253997802734375,7.391571044921876,5.54539794921875,1729396357406.0
2.1829999999999927,-0.633734130859375,7.099676513671875,8.278768920898438,1729396357416.0
2.192999999999998,-0.9368438720703126,6.369491577148438,9.035870361328126,1729396357426.0
2.203000000000003,-0.0753662109375,6.603366088867188,7.068722534179688,1729396357436.0
2.212999999999994,0.6461456298828125,7.424768066406251,6.356332397460938,1729396357446.0
2.222999999999999,1.218569946289063,7.572360229492188,5.4084228515625,1729396357456.0
2.23299999999999,0.5450592041015625,7.410711669921875,5.8390869140625,1729396357466.0
2.242999999999995,0.060711669921875,7.718457031250001,6.286349487304688,1729396357476.0
2.253,0.719268798828125,7.965640258789063,5.818301391601563,1729396357486.0
2.262999999999991,1.0050323486328123,8.134466552734375,6.574505615234376,1729396357496.0
2.272999999999996,-0.3016143798828125,6.703555297851563,6.826174926757813,1729396357506.0
2.2830000000000013,-1.997802734375,5.420236206054688,7.0975830078125,1729396357516.0
2.292999999999992,-1.7770874023437502,6.981991577148438,9.223538208007811,1729396357526.0
2.3029999999999973,-0.115740966796875,7.416543579101563,7.79801025390625,1729396357536.0
2.3130000000000024,0.7539611816406251,8.363854980468751,4.686611938476563,1729396357546.0
2.3229999999999933,-0.09091796875,7.273138427734375,4.807586669921875,1729396357556.0
2.3329999999999984,-0.4607208251953125,7.008908081054688,5.5754547119140625,1729396357566.0
2.3429999999999893,0.7403533935546875,7.867843627929688,8.400042724609376,1729396357576.0
2.3529999999999944,1.9055389404296876,7.242184448242188,7.299008178710938,1729396357586.0
2.3629999999999995,1.170718383789063,6.821389770507813,5.04833984375,1729396357596.0
2.3739999999999952,-0.3084930419921875,6.769351196289063,7.168612670898438,1729396357607.0
2.3829999999999956,-0.756353759765625,7.338336181640625,8.334097290039063,1729396357616.0
2.3930000000000007,-0.7696624755859376,7.956369018554688,6.899746704101563,1729396357626.0
2.4029999999999916,-0.6220703125,7.1959777832031255,4.924075317382813,1729396357636.0
2.4129999999999967,-1.2116912841796876,7.045693969726563,4.117776489257813,1729396357646.0
2.4239999999999924,-0.7986724853515625,7.339083862304688,8.177682495117189,1729396357657.0
2.4329999999999927,0.3768310546875,7.250259399414063,9.68216552734375,1729396357666.0
2.442999999999998,0.8157196044921876,6.77159423828125,6.310424804687501,1729396357676.0
2.453000000000003,1.1473907470703126,6.983337402343751,4.615283203125,1729396357686.0
2.462999999999994,0.7983734130859376,7.362561035156251,6.880905151367188,1729396357696.0
2.4739999999999895,0.44801025390625,7.879956054687501,7.7914306640625,1729396357707.0
2.4839999999999947,0.0610107421875,7.85184326171875,5.9652954101562505,1729396357717.0
2.494,-0.0442626953125,7.467385864257813,4.0138488769531255,1729396357727.0
2.5039999999999907,-0.1864715576171875,7.252502441406251,5.10635986328125,1729396357737.0
2.513999999999996,-0.533544921875,7.096685791015625,8.907418823242189,1729396357747.0
2.524000000000001,-1.0235748291015625,6.528448486328125,9.493002319335938,1729396357757.0
2.533999999999992,-0.6069671630859376,6.525457763671875,6.945205688476563,1729396357767.0
2.543999999999997,-0.097198486328125,7.133770751953126,5.6931396484375005,1729396357777.0
2.554000000000002,0.402252197265625,7.757037353515625,6.05023193359375,1729396357787.0
2.563999999999993,-0.004486083984375,7.530789184570313,6.271694946289063,1729396357797.0
2.573999999999998,0.3593353271484375,7.724737548828125,5.343075561523438,1729396357807.0
2.584000000000003,1.4965576171875,7.479647827148438,5.986380004882813,1729396357817.0
2.593999999999994,1.741946411132813,8.148074340820314,6.810922241210938,1729396357827.0
2.603999999999999,-0.1215728759765625,7.282110595703125,7.889974975585938,1729396357837.0
2.61399999999999,-1.2402526855468752,5.078695678710938,6.90677490234375,1729396357847.0
2.6239999999999952,-1.861575317382813,7.041207885742188,6.7922302246093755,1729396357857.0
2.6340000000000003,-0.6625946044921875,7.600323486328126,8.607150268554689,1729396357867.0
2.6439999999999912,0.1963409423828125,8.611187744140626,5.28759765625,1729396357877.0
2.6539999999999964,-0.5639007568359375,7.169210815429688,5.0670318603515625,1729396357887.0
2.6640000000000015,-0.3455780029296875,6.535626220703126,5.23436279296875,1729396357897.0
2.6739999999999924,0.415411376953125,7.496694946289063,8.323928833007812,1729396357907.0
2.6839999999999975,1.8890899658203129,7.710531616210938,8.446548461914062,1729396357917.0
2.6940000000000026,1.7147308349609376,6.884643554687501,5.157949829101563,1729396357927.0
2.7039999999999935,0.2715576171875,6.844866943359375,5.358926391601563,1729396357937.0
2.713999999999998,-0.8267852783203126,7.103713989257813,8.025604248046875,1729396357947.0
2.7239999999999895,-0.9633117675781252,8.119512939453125,8.026202392578126,1729396357957.0
2.7339999999999947,-0.742596435546875,7.153808593750001,6.127542114257813,1729396357967.0
2.744,-1.137820434570313,7.340280151367188,3.3509552001953127,1729396357977.0
2.7539999999999907,-0.6637908935546876,7.064086914062501,6.173599243164063,1729396357987.0
2.763999999999996,0.5429656982421875,7.439422607421876,9.90931091308594,1729396357997.0
2.774000000000001,0.8387481689453126,7.098330688476563,7.662380981445313,1729396358007.0
2.783999999999992,1.310833740234375,6.689648437500001,4.910617065429688,1729396358017.0
2.793999999999997,0.8375518798828125,6.962103271484375,6.215618896484376,1729396358027.0
2.804000000000002,0.0880767822265625,7.931246948242188,7.472021484375,1729396358037.0
2.813999999999993,-0.301165771484375,7.730270385742188,7.261474609375001,1729396358047.0
2.823999999999998,-0.6126495361328126,7.593444824218751,4.566534423828125,1729396358057.0
2.834000000000003,-0.686370849609375,7.156201171875001,4.3772216796875005,1729396358067.0
2.843999999999994,-0.3258392333984375,7.14603271484375,8.067324829101564,1729396358077.0
2.853999999999999,-0.728240966796875,6.899298095703125,9.5069091796875,1729396358087.0
2.86399999999999,0.0234771728515625,6.682620239257813,6.982589721679688,1729396358097.0
2.8739999999999952,0.8064483642578125,7.175640869140626,5.511752319335938,1729396358107.0
2.8840000000000003,0.9060394287109376,7.15440673828125,5.837442016601563,1729396358117.0
2.8939999999999912,0.2588470458984375,7.676736450195313,6.772341918945313,1729396358127.0
2.9039999999999964,-0.07237548828125,7.628436279296875,7.003823852539063,1729396358137.0
2.9140000000000015,0.5115631103515625,8.094241333007814,4.84317626953125,1729396358147.0
2.9239999999999924,0.8045043945312501,8.017828369140625,5.726336669921875,1729396358157.0
2.9339999999999975,-0.36785888671875,6.5335327148437505,7.099975585937501,1729396358167.0
2.9440000000000026,-2.0001953125000003,5.899649047851563,8.074053955078126,1729396358177.0
2.9539999999999935,-1.3008148193359377,6.793875122070313,9.008654785156253,1729396358187.0
2.963999999999998,0.4816558837890625,7.489816284179688,6.811221313476563,1729396358197.0
2.9739999999999895,1.1182312011718751,8.335293579101563,4.600778198242188,1729396358207.0
2.9839999999999947,-0.3505126953125,7.0808349609375005,5.504275512695313,1729396358217.0
2.994,-0.639715576171875,7.170706176757813,6.369342041015625,1729396358227.0
3.0039999999999907,0.5627044677734375,7.781860351562501,7.794271850585938,1729396358237.0
3.013999999999996,1.7097961425781252,7.325924682617188,6.135467529296876,1729396358247.0
3.024000000000001,0.8077941894531251,6.809576416015625,5.770150756835938,1729396358257.0
3.033999999999992,-0.5878265380859375,6.915298461914063,7.478302001953126,1729396358267.0
3.043999999999997,-0.8074951171875001,7.130331420898438,8.413949584960939,1729396358277.0
3.054000000000002,-0.335858154296875,7.708438110351563,6.932495117187501,1729396358287.0
3.063999999999993,-0.5360870361328125,7.220950317382813,4.714874267578125,1729396358297.0
3.073999999999998,-1.0104156494140626,7.155453491210938,4.690948486328125,1729396358307.0
3.084000000000003,-0.5191894531250001,7.464096069335938,8.41708984375,1729396358317.0
3.093999999999994,0.6225189208984375,7.484432983398438,8.044595336914064,1729396358327.0
3.103999999999999,1.070977783203125,6.9327941894531255,5.665924072265625,1729396358337.0
3.11399999999999,1.099090576171875,6.912457275390626,5.603567504882813,1729396358347.0
3.1239999999999952,0.21832275390625,7.150817871093751,7.608398437500001,1729396358357.0
3.1340000000000003,0.112750244140625,7.639501953125,8.099923706054689,1729396358367.0
3.1439999999999912,-0.0560760498046875,7.786196899414063,5.6452880859375005,1729396358377.0
3.1539999999999964,-0.186920166015625,7.390075683593751,3.845321655273438,1729396358387.0
3.1640000000000015,-0.4323089599609375,7.339083862304688,5.470480346679688,1729396358397.0
3.1739999999999924,-0.8336639404296876,7.0090576171875005,9.58048095703125,1729396358407.0
3.1839999999999975,-0.69205322265625,6.801800537109376,8.679226684570313,1729396358417.0
3.1940000000000026,-0.028411865234375,6.720602416992188,6.109747314453125,1729396358427.0
3.2039999999999935,0.662445068359375,7.295269775390626,5.277130126953125,1729396358437.0
3.213999999999998,0.5404235839843751,7.411758422851563,6.381753540039063,1729396358447.0
3.2239999999999895,0.1015350341796875,7.897451782226563,6.630581665039063,1729396358457.0
3.234999999999999,0.6183319091796875,7.146481323242188,6.306536865234375,1729396358468.0
3.244,1.3217498779296877,7.983285522460938,5.4793029785156255,1729396358477.0
3.2539999999999907,0.1574615478515625,8.305984497070312,7.240240478515625,1729396358487.0
3.265000000000001,-1.2469818115234377,5.30853271484375,6.782061767578125,1729396358498.0
3.2749999999999915,-1.5930084228515626,6.528448486328125,6.876419067382813,1729396358508.0
3.2849999999999966,-0.9292175292968752,7.415496826171876,9.238491821289063,1729396358518.0
3.2950000000000017,0.560162353515625,7.911807250976563,6.336444091796875,1729396358528.0
3.3049999999999926,0.0539825439453125,7.802795410156251,5.090359497070313,1729396358538.0
3.3149999999999977,-0.4741790771484375,6.519625854492188,4.996151733398438,1729396358548.0
3.325000000000003,0.119329833984375,7.652810668945313,6.612338256835938,1729396358558.0
3.3349999999999937,1.508221435546875,7.622006225585938,9.019271850585938,1729396358568.0
3.344999999999999,1.4225372314453126,7.4265625,5.474069213867188,1729396358578.0
3.3549999999999898,0.3787750244140625,6.487625122070313,5.3970581054687505,1729396358588.0
3.364999999999995,-0.5438629150390626,6.945504760742188,7.889227294921875,1729396358598.0
3.375,-0.9438720703125,7.868142700195313,8.119064331054688,1729396358608.0
3.384999999999991,-0.5987426757812501,7.248464965820313,6.695480346679688,1729396358618.0
3.394999999999996,-0.9221893310546876,7.0000854492187505,4.2700042724609375,1729396358628.0
3.405000000000001,-0.9467132568359377,7.462600708007813,5.3641601562500005,1729396358638.0
3.414999999999992,0.3656158447265625,7.565631103515625,9.031683349609375,1729396358648.0
3.424999999999997,0.8266357421875,7.098480224609376,7.311419677734375,1729396358658.0
3.4350000000000023,1.1011840820312502,7.12210693359375,5.15301513671875,1729396358668.0
3.444999999999993,1.0349395751953123,6.696377563476563,6.468484497070313,1729396358678.0
3.4549999999999983,0.386700439453125,7.635314941406251,7.51748046875,1729396358688.0
3.464999999999989,-0.217425537109375,7.620361328125001,7.58267822265625,1729396358698.0
3.4749999999999943,-0.44322509765625,7.442413330078126,5.010955810546875,1729396358708.0
3.484999999999999,-0.7550079345703126,7.280914306640626,4.52855224609375,1729396358718.0
3.4949999999999903,-0.5665924072265626,7.371533203125001,7.276577758789063,1729396358728.0
3.5049999999999955,-0.8151214599609375,7.016983032226563,8.851342773437501,1729396358738.0
3.515000000000001,-0.1876678466796875,6.770547485351563,7.153509521484375,1729396358748.0
3.5249999999999915,0.608612060546875,6.958813476562501,5.9537811279296875,1729396358758.0
3.5349999999999966,0.8993103027343751,7.226333618164063,6.148626708984375,1729396358768.0
3.5450000000000017,0.5945556640625,7.447198486328125,6.703704833984376,1729396358778.0
3.5549999999999926,0.1610504150390625,7.705746459960938,6.52396240234375,1729396358788.0
3.5649999999999977,0.761138916015625,7.718905639648438,5.451040649414063,1729396358798.0
3.575000000000003,0.8175140380859376,8.472418212890625,5.94854736328125,1729396358808.0
3.5849999999999937,-0.6252105712890625,6.763967895507813,6.939971923828126,1729396358818.0
3.594999999999999,-1.7731994628906251,5.689700317382813,6.964495849609375,1729396358828.0
3.6049999999999898,-1.5699798583984377,6.947000122070313,8.934634399414064,1729396358838.0
3.614999999999995,0.0931610107421875,7.221697998046875,7.617520141601563,1729396358848.0
3.625,0.7777374267578125,8.180075073242188,5.3795623779296875,1729396358858.0
3.634999999999991,-0.256304931640625,7.1675659179687505,5.525210571289063,1729396358868.0
3.644999999999996,-0.306549072265625,7.075302124023438,5.399301147460938,1729396358878.0
3.655000000000001,0.6389678955078125,7.853936767578125,7.755392456054688,1729396358888.0
3.664999999999992,1.7491241455078126,7.572509765625001,6.650619506835938,1729396358898.0
3.674999999999997,0.9218902587890626,6.947000122070313,5.337841796875001,1729396358908.0
3.6850000000000023,-0.101983642578125,6.652413940429688,7.18790283203125,1729396358918.0
3.694999999999993,-0.698333740234375,7.151565551757813,8.3740234375,1729396358928.0
3.7049999999999983,-0.6839782714843751,7.707241821289063,7.448544311523438,1729396358938.0
3.714999999999989,-0.651678466796875,7.151715087890626,5.385693359375001,1729396358948.0
3.7249999999999943,-1.3405914306640625,7.1675659179687505,4.074560546875,1729396358958.0
3.734999999999999,-0.6869689941406251,7.4681335449218755,7.570266723632813,1729396358968.0
3.7449999999999903,0.3638214111328125,7.422674560546875,8.834295654296875,1729396358978.0
3.754999999999995,0.8963195800781251,6.959411621093751,6.1297851562500005,1729396358988.0
3.765000000000001,1.122866821289063,6.829315185546876,5.533734130859376,1729396358998.0
3.774999999999991,0.7843170166015626,7.093695068359375,7.0913024902343755,1729396359008.0
3.7849999999999966,0.4744781494140625,7.768701171875,7.787393188476563,1729396359018.0
3.7950000000000017,0.1763031005859375,7.89072265625,5.998342895507813,1729396359028.0
3.8049999999999926,-0.0551788330078125,7.484133911132813,4.0916076660156255,1729396359038.0
3.8149999999999977,-0.4918243408203125,7.342672729492188,4.864859008789063,1729396359048.0
3.825000000000003,-0.7787841796875,7.059750366210938,9.039309692382814,1729396359058.0
3.8349999999999937,-1.1195770263671876,6.640151977539063,9.302941894531251,1729396359068.0
3.844999999999999,-0.4403839111328125,6.64598388671875,6.580337524414063,1729396359078.0
3.8549999999999898,0.34273681640625,6.999188232421876,5.7279815673828125,1729396359088.0
3.864999999999995,0.7369140625,7.656100463867188,5.6636810302734375,1729396359098.0
3.875,0.226397705078125,8.042202758789063,6.42227783203125,1729396359108.0
3.884999999999991,1.027163696289063,7.253997802734376,6.4611572265625,1729396359118.0
3.894999999999996,1.6209716796875002,8.496194458007814,5.600128173828125,1729396359128.0
3.905000000000001,0.2588470458984375,7.542153930664063,6.745425415039063,1729396359138.0
3.9170000000000016,-1.32608642578125,4.961309814453125,6.676040649414063,1729396359150.0
3.924999999999997,-1.6055694580078126,6.879559326171876,8.455670166015626,1729396359158.0
3.9350000000000023,-0.8948242187500001,7.6804748535156255,9.315054321289065,1729396359168.0
3.944999999999993,0.0145050048828125,7.739242553710938,5.439974975585938,1729396359178.0
3.9549999999999983,-0.5351898193359376,7.538565063476563,3.9193420410156254,1729396359188.0
3.965999999999994,-0.6754547119140626,7.171603393554688,5.359375,1729396359199.0
3.9749999999999943,0.408831787109375,7.374224853515625,7.859320068359375,1729396359208.0
3.984999999999999,1.9484558105468752,7.662380981445313,8.402285766601564,1729396359218.0
3.9949999999999903,1.6335327148437502,6.939523315429688,5.421881103515625,1729396359228.0
4.0049999999999955,0.7086517333984376,6.38638916015625,5.771197509765625,1729396359238.0
4.016999999999996,-0.403448486328125,7.387982177734376,8.40333251953125,1729396359250.0
4.025999999999996,-0.829327392578125,8.154354858398438,7.491012573242188,1729396359259.0
4.036000000000001,-0.7367645263671876,6.9612060546875005,5.622259521484375,1729396359269.0
4.045999999999992,-1.4319580078125,7.359121704101563,3.929061889648438,1729396359279.0
4.055999999999997,-1.3123291015625,7.388580322265626,6.633123779296875,1729396359289.0
4.0660000000000025,0.263482666015625,7.179080200195313,9.5547607421875,1729396359299.0
4.075999999999993,0.6356781005859375,6.9447570800781255,7.030590820312501,1729396359309.0
4.0859999999999985,1.260589599609375,6.880755615234375,5.177389526367188,1729396359319.0
4.095999999999989,1.2895996093750002,7.037918090820313,6.734808349609375,1729396359329.0
4.1059999999999945,0.515301513671875,7.6445861816406255,7.558303833007813,1729396359339.0
4.11699999999999,0.0148040771484375,7.889974975585938,6.4901672363281255,1729396359350.0
4.125999999999991,-0.149835205078125,7.530340576171875,4.773342895507813,1729396359359.0
4.135999999999996,-0.566143798828125,7.48099365234375,4.351202392578125,1729396359369.0
4.146000000000001,-0.594854736328125,7.234857177734376,7.588809204101563,1729396359379.0
4.155999999999992,-0.9799102783203124,6.668862915039063,9.555657958984376,1729396359389.0
4.165999999999997,-0.5055816650390625,6.560150146484376,7.4157958984375005,1729396359399.0
4.176000000000002,0.1305450439453125,6.9013916015625005,6.146981811523438,1729396359409.0
4.185999999999993,0.7891021728515626,7.307681274414063,5.998941040039063,1729396359419.0
4.195999999999998,0.311334228515625,7.797711181640626,6.105560302734375,1729396359429.0
4.206000000000003,0.5668914794921875,7.67838134765625,6.272293090820313,1729396359439.0
4.216999999999999,0.910076904296875,8.257684326171876,5.525958251953125,1729396359450.0
4.225999999999999,1.035986328125,8.129531860351562,6.005072021484375,1729396359459.0
4.23599999999999,-0.3689056396484375,5.905181884765625,6.785501098632813,1729396359469.0
4.245999999999995,-1.627850341796875,6.10107421875,7.634268188476563,1729396359479.0
4.256,-1.4599212646484376,6.8116699218750005,9.748410034179688,1729396359489.0
4.265999999999991,0.1757049560546875,7.770645141601563,6.868792724609375,1729396359499.0
4.275999999999996,0.3043060302734375,8.087063598632813,4.7145751953125,1729396359509.0
4.286000000000001,-0.853253173828125,6.9612060546875005,4.7564453125,1729396359519.0
4.295999999999992,-0.6596038818359375,7.416543579101563,6.137710571289063,1729396359529.0
4.305999999999997,1.1043243408203125,7.8488525390625,8.43623046875,1729396359539.0
4.316999999999993,2.0547760009765628,7.313214111328126,6.004025268554688,1729396359550.0
4.325999999999993,1.34163818359375,6.5155883789062505,5.897555541992188,1729396359559.0
4.3359999999999985,-0.3177642822265625,6.699966430664063,7.709783935546875,1729396359569.0
4.345999999999989,-0.662445068359375,7.486227416992188,8.400640869140625,1729396359579.0
4.3559999999999945,-0.3629241943359375,7.906872558593751,6.758584594726563,1729396359589.0
4.366,-0.8231964111328126,7.210632324218751,3.8548919677734377,1729396359599.0
4.375999999999991,-1.6179809570312502,7.194033813476563,4.025961303710938,1729396359609.0
4.385999999999996,-0.92293701171875,7.429852294921876,9.548779296875,1729396359619.0
4.396000000000001,0.3814666748046875,7.114630126953125,9.214715576171876,1729396359629.0
4.405999999999992,0.8321685791015626,6.721200561523438,5.426815795898438,1729396359639.0
4.417000000000002,1.35479736328125,6.783706665039063,5.428012084960938,1729396359650.0
4.426000000000002,0.6850250244140625,7.4421142578125,7.500732421875001,1729396359659.0
4.435999999999993,0.54849853515625,7.996743774414063,7.594940185546876,1729396359669.0
4.445999999999998,0.3787750244140625,7.758682250976563,5.289541625976563,1729396359679.0
4.456000000000003,-0.08134765625,7.652960205078125,3.5389221191406253,1729396359689.0
4.465999999999994,-0.4634124755859375,7.221249389648438,5.425320434570313,1729396359699.0
4.475999999999999,-0.8076446533203125,6.977804565429688,10.021014404296876,1729396359709.0
4.48599999999999,-1.1243621826171877,6.555514526367188,9.034225463867188,1729396359719.0
4.495999999999995,-0.369354248046875,6.498989868164063,6.17943115234375,1729396359729.0
4.506,0.2023223876953125,7.167715454101563,5.893667602539063,1729396359739.0
4.516999999999996,0.2093505859375,7.5369201660156255,6.215170288085938,1729396359750.0
4.525999999999996,0.1757049560546875,8.014688110351564,6.484634399414063,1729396359759.0
4.536000000000001,0.9625640869140626,7.678530883789063,5.95811767578125,1729396359769.0
4.545999999999992,1.612298583984375,8.516830444335938,4.975665283203125,1729396359779.0
4.555999999999997,0.3312225341796875,6.657498168945313,6.836044311523438,1729396359789.0
4.5660000000000025,-0.8333648681640625,5.7051025390625005,7.313812255859376,1729396359799.0
4.575999999999993,-1.4546875,7.155453491210938,9.28006286621094,1729396359809.0
4.5859999999999985,-0.4266265869140625,7.093246459960938,8.004818725585938,1729396359819.0
4.595999999999989,0.289801025390625,8.332751464843751,4.447055053710938,1729396359829.0
4.6059999999999945,-0.887945556640625,7.1813232421875,5.019927978515625,1729396359839.0
4.61699999999999,-0.9999481201171876,7.1334716796875,5.897705078125,1729396359850.0
4.625999999999991,0.0898712158203125,7.595388793945313,8.261273193359376,1729396359859.0
4.635999999999996,1.8505096435546875,7.618118286132813,6.894064331054688,1729396359869.0
4.646000000000001,1.6858703613281252,6.630581665039063,5.519976806640625,1729396359879.0
4.655999999999992,0.1658355712890625,6.749014282226563,6.9387756347656255,1729396359889.0
4.665999999999997,-0.5160491943359375,7.195529174804688,8.586962890625001,1729396359899.0
4.6769999999999925,-0.3321197509765625,7.969827270507813,7.05870361328125,1729396359910.0
4.685999999999993,-0.295184326171875,7.287942504882813,5.03338623046875,1729396359919.0
4.695999999999998,-1.24713134765625,7.54678955078125,3.3883392333984377,1729396359929.0
4.706000000000003,-0.9740783691406252,7.331158447265626,7.287045288085938,1729396359939.0
4.716999999999999,0.3488677978515625,7.288839721679688,9.6361083984375,1729396359950.0
4.725999999999999,0.6682769775390626,6.895559692382813,6.504522705078125,1729396359959.0
4.73599999999999,1.0618560791015623,6.490615844726563,5.53582763671875,1729396359969.0
4.745999999999995,0.3828125,7.066928100585938,7.488021850585938,1729396359979.0
4.756,0.0788055419921875,7.749560546875,7.866348266601563,1729396359989.0
4.766999999999996,0.006280517578125,7.787542724609375,6.1238037109375005,1729396360000.0
4.775999999999996,-0.3289794921875,7.647128295898438,3.9716796875,1729396360009.0
4.786000000000001,-0.352008056640625,7.414599609375,4.486981201171876,1729396360019.0
4.796999999999997,-0.27694091796875,7.32607421875,8.666067504882813,1729396360030.0
4.807000000000002,-0.4783660888671875,6.648077392578125,9.301596069335938,1729396360040.0
4.816999999999993,0.140863037109375,6.678732299804688,6.358724975585938,1729396360050.0
4.826999999999998,0.600537109375,6.9253173828125005,5.8506011962890625,1729396360060.0
4.836999999999989,0.5256195068359375,7.135864257812501,6.547589111328126,1729396360070.0
4.846999999999994,-0.0922637939453125,7.688400268554688,7.23575439453125,1729396360080.0
4.856999999999999,-0.11304931640625,8.141195678710938,6.200216674804688,1729396360090.0
4.86699999999999,0.2866607666015625,8.285797119140625,4.849456787109375,1729396360100.0
4.876999999999995,0.5525360107421875,7.1107421875000005,5.153463745117188,1729396360110.0
4.8870000000000005,-0.721661376953125,6.338687133789063,7.072012329101563,1729396360120.0
4.896999999999991,-1.4497528076171875,6.269601440429688,9.835589599609376,1729396360130.0
4.9069999999999965,0.04844970703125,6.964346313476563,8.512194824218751,1729396360140.0
4.917000000000002,1.3983123779296875,8.15869140625,5.59683837890625,1729396360150.0
4.9269999999999925,0.549993896484375,7.449591064453125,4.7111358642578125,1729396360160.0
4.936999999999998,-1.35419921875,6.896157836914063,5.559454345703125,1729396360170.0
4.947000000000003,-0.9541900634765624,8.030538940429688,7.3948608398437505,1729396360180.0
4.956999999999994,1.1849243164062502,7.844366455078125,6.830661010742188,1729396360190.0
4.966999999999999,1.6215698242187502,7.017282104492188,4.7002197265625005,1729396360200.0
4.97699999999999,-0.1045257568359375,6.413455200195313,7.093994140625001,1729396360210.0
4.986999999999995,-1.289300537109375,6.582580566406251,9.547433471679687,1729396360220.0
4.997,0.004486083984375,7.52286376953125,8.726629638671875,1729396360230.0
5.006999999999991,0.1676300048828125,7.755841064453126,5.402590942382813,1729396360240.0
5.016999999999996,-0.1416107177734375,7.246820068359376,2.3369506835937504,1729396360250.0
5.027000000000001,-0.9980041503906252,7.439871215820313,5.0740600585937505,1729396360260.0
5.036999999999992,-0.3707000732421875,7.795169067382813,10.878604125976564,1729396360270.0
5.046999999999997,0.8723937988281251,7.197323608398438,7.712924194335938,1729396360280.0
5.057000000000002,1.0672393798828126,6.559402465820313,3.4927154541015626,1729396360290.0
5.066999999999993,0.548797607421875,6.8343994140625,6.295321655273438,1729396360300.0
5.076999999999998,-0.413916015625,7.358523559570313,9.779962158203126,1729396360310.0
5.086999999999989,-0.0118133544921875,7.822833251953125,7.726382446289063,1729396360320.0
5.096999999999994,-0.03050537109375,7.438226318359376,4.4539337158203125,1729396360330.0
5.106999999999999,-0.26737060546875,7.33983154296875,2.64439697265625,1729396360340.0
5.11699999999999,-0.5453582763671876,7.432992553710938,7.092648315429688,1729396360350.0
5.126999999999995,-0.6868194580078125,7.130780029296876,11.190835571289064,1729396360360.0
5.1370000000000005,0.009271240234375,6.969879150390626,6.849652099609376,1729396360370.0
5.146999999999991,0.8122802734375001,6.614431762695313,4.2360595703125,1729396360380.0
5.1569999999999965,0.5662933349609376,7.221398925781251,6.586618041992188,1729396360390.0
5.167000000000002,-0.0820953369140625,7.34342041015625,7.753298950195313,1729396360400.0
5.1769999999999925,0.041571044921875,7.805786132812501,6.765463256835938,1729396360410.0
5.186999999999998,0.8517578125,7.4786010742187505,5.376272583007813,1729396360420.0
5.197000000000003,0.5606109619140626,8.626739501953125,4.911663818359376,1729396360430.0
5.206999999999994,-0.8864501953125,6.689947509765625,7.28360595703125,1729396360440.0
5.217999999999989,-1.4439208984375,5.964996337890625,7.365551757812501,1729396360451.0
5.22699999999999,-0.957928466796875,7.0628906250000005,8.447595214843751,1729396360460.0
5.236999999999995,0.4484588623046875,7.088012695312501,7.361514282226563,1729396360470.0
5.247,0.9543395996093752,8.202056884765625,5.3118225097656255,1729396360480.0
5.256999999999991,-0.2746978759765625,7.009954833984375,6.199917602539063,1729396360490.0
5.266999999999996,-0.3330169677734375,7.076049804687501,5.565286254882813,1729396360500.0
5.277000000000001,0.3473724365234375,7.880404663085938,7.453030395507813,1729396360510.0
5.286999999999992,1.304254150390625,7.728475952148438,6.016735839843751,1729396360520.0
5.296999999999997,0.7958312988281251,6.8176513671875005,5.8636108398437505,1729396360530.0
5.307000000000002,-0.6452484130859375,6.736004638671876,7.516433715820313,1729396360540.0
5.316999999999993,-0.9652557373046876,6.924270629882813,8.273236083984376,1729396360550.0
5.326999999999998,-0.3751861572265625,7.573257446289063,7.559799194335938,1729396360560.0
5.336999999999989,-0.2483795166015625,7.220651245117188,5.224642944335938,1729396360570.0
5.346999999999994,-0.7838684082031251,7.443161010742188,4.407278442382813,1729396360580.0
5.356999999999999,-0.2310333251953125,7.491610717773438,7.354486083984376,1729396360590.0
5.36699999999999,0.7687652587890625,7.624996948242188,7.6658203125,1729396360600.0
5.376999999999995,1.20765380859375,7.284951782226563,5.8531433105468755,1729396360610.0
5.387999999999991,0.98514404296875,6.601422119140626,6.082232666015625,1729396360621.0
5.396999999999991,0.061309814453125,6.875820922851563,7.609893798828126,1729396360630.0
5.4069999999999965,-0.3533538818359375,7.418637084960938,8.344415283203126,1729396360640.0
5.417999999999992,-0.3413909912109375,7.7627197265625005,6.06817626953125,1729396360651.0
5.4269999999999925,-0.473431396484375,7.545742797851563,4.182525634765625,1729396360660.0
5.436999999999998,-0.7107452392578125,7.308728027343751,5.125051879882813,1729396360670.0
5.447000000000003,-0.6747070312500001,7.212576293945313,8.6575439453125,1729396360680.0
5.456999999999994,-0.32120361328125,6.827371215820313,8.769546508789062,1729396360690.0
5.466999999999999,0.5999389648437501,7.001730346679688,5.882302856445313,1729396360700.0
5.47699999999999,1.2797302246093751,7.152761840820313,5.530743408203126,1729396360710.0
5.486999999999995,0.6996795654296876,7.053170776367188,6.614880371093751,1729396360720.0
5.497,0.015850830078125,7.503274536132813,7.54918212890625,1729396360730.0
5.506999999999991,0.017047119140625,7.896255493164063,6.398651123046876,1729396360740.0
5.518000000000001,0.4246826171875,8.166018676757814,4.709341430664063,1729396360751.0
5.527000000000001,0.12022705078125,7.694232177734375,5.6408020019531255,1729396360760.0
5.536999999999992,-1.17176513671875,6.052774047851563,6.931149291992188,1729396360770.0
5.546999999999997,-1.7706573486328123,6.451885986328126,8.951531982421876,1729396360780.0
5.557999999999993,-0.3928314208984375,6.789688110351563,9.036917114257813,1729396360791.0
5.566999999999993,1.1850738525390625,7.881451416015626,5.713177490234376,1729396360800.0
5.576999999999998,0.8344116210937501,7.808627319335938,5.0351806640625005,1729396360810.0
5.586999999999989,-0.73392333984375,6.797613525390625,5.64349365234375,1729396360820.0
5.597999999999999,-0.313427734375,7.853787231445313,6.801800537109376,1729396360831.0
5.606999999999999,1.071875,7.873825073242188,7.036572265625001,1729396360840.0
5.617999999999995,1.4721832275390625,7.186856079101563,5.035778808593751,1729396360851.0
5.628,0.031402587890625,6.567327880859375,6.842773437500001,1729396360861.0
5.637999999999991,-1.0467529296875,6.676339721679688,8.68505859375,1729396360871.0
5.647999999999996,-0.494964599609375,7.4062255859375,8.391818237304689,1729396360881.0
5.658000000000001,-0.178546142578125,7.557257080078125,6.137411499023438,1729396360891.0
5.667999999999992,-0.3925323486328125,7.1765380859375005,3.2449340820312504,1729396360901.0
5.677999999999997,-0.8964691162109376,7.410412597656251,5.669812011718751,1729396360911.0
5.688000000000002,-0.34154052734375,7.597930908203126,9.798355102539062,1729396360921.0
5.697999999999993,0.7391571044921875,7.130331420898438,7.207192993164063,1729396360931.0
5.707999999999998,1.07606201171875,6.897653198242188,4.520626831054688,1729396360941.0
5.717999999999989,0.819158935546875,6.9896179199218755,6.396707153320313,1729396360951.0
5.727999999999994,0.16927490234375,7.462600708007813,8.196524047851563,1729396360961.0
5.7379999999999995,0.173760986328125,7.634417724609375,7.667913818359375,1729396360971.0
5.7479999999999905,-0.15491943359375,7.473666381835938,4.66612548828125,1729396360981.0
5.757999999999996,-0.243145751953125,7.378112792968751,3.9232299804687503,1729396360991.0
5.768000000000001,-0.425579833984375,7.375122070312501,7.308728027343751,1729396361001.0
5.777999999999992,-1.032098388671875,6.993206787109376,9.559396362304687,1729396361011.0
5.787999999999997,-0.438739013671875,6.668563842773438,7.303643798828125,1729396361021.0
5.798000000000002,0.0219818115234375,6.862362670898438,5.62255859375,1729396361031.0
5.807999999999993,0.73212890625,7.47740478515625,6.014044189453125,1729396361041.0
5.817999999999998,0.4053924560546875,7.462600708007813,6.805239868164063,1729396361051.0
5.828000000000003,0.146844482421875,7.741934204101563,6.097485351562501,1729396361061.0
5.837999999999994,1.106866455078125,7.191940307617188,6.06817626953125,1729396361071.0
5.847999999999999,1.1360260009765626,8.31959228515625,6.115728759765625,1729396361081.0
5.85799999999999,-0.4562347412109375,7.331607055664063,7.383944702148438,1729396361091.0
5.867999999999995,-1.34462890625,5.4229278564453125,6.632077026367188,1729396361101.0
5.878,-1.54859619140625,7.1932861328125,7.3105224609375,1729396361111.0
5.887999999999991,-0.261090087890625,7.366448974609376,8.416491699218751,1729396361121.0
5.897999999999996,0.3665130615234375,8.29327392578125,5.596240234375,1729396361131.0
5.908000000000001,-0.371746826171875,7.111639404296875,6.045147705078126,1729396361141.0
5.917999999999992,-0.3485687255859375,6.753799438476563,4.6887054443359375,1729396361151.0
5.927999999999997,0.542218017578125,7.6072021484375005,7.572210693359375,1729396361161.0
5.938000000000002,1.8458740234375,7.903881835937501,7.984780883789063,1729396361171.0
5.947999999999993,1.254608154296875,6.872381591796875,5.303598022460938,1729396361181.0
5.957999999999998,0.1027313232421875,6.696078491210938,6.002081298828125,1729396361191.0
5.967999999999989,-0.9338531494140626,6.985430908203125,8.443707275390626,1729396361201.0
5.977999999999994,-0.8166168212890625,7.9795471191406255,7.596884155273438,1729396361211.0
5.9879999999999995,-0.6371734619140625,7.083975219726563,6.048587036132813,1729396361221.0
5.9979999999999905,-1.1699707031250002,7.390823364257813,3.6921966552734378,1729396361231.0
6.007999999999996,-0.5993408203125,7.178781127929688,6.600674438476563,1729396361241.0
6.018000000000001,0.528759765625,7.468731689453126,9.346456909179688,1729396361251.0
6.027999999999992,0.930712890625,6.9597106933593755,7.066030883789063,1729396361261.0
6.037999999999997,1.134979248046875,6.845913696289063,5.243185424804688,1729396361271.0
6.048000000000002,0.82783203125,7.058853149414063,6.527850341796875,1729396361281.0
6.057999999999993,0.344830322265625,7.93797607421875,7.33385009765625,1729396361291.0
6.067999999999998,-0.219818115234375,7.748962402343751,6.515438842773438,1729396361301.0
6.078000000000003,-0.4867401123046875,7.299307250976563,4.805044555664063,1729396361311.0
6.087999999999994,-0.7813262939453126,7.226632690429688,5.3312622070312505,1729396361321.0
6.097999999999999,-0.6718658447265625,7.063488769531251,8.505316162109375,1729396361331.0
6.10799999999999,-0.6781463623046875,6.962850952148438,8.661581420898438,1729396361341.0
6.117999999999995,-0.03349609375,6.743930053710938,6.454428100585938,1729396361351.0
6.128,0.70880126953125,7.256539916992188,5.6049133300781255,1729396361361.0
6.137999999999991,0.7023712158203126,7.19388427734375,6.357379150390625,1729396361371.0
6.147999999999996,0.372943115234375,7.538116455078126,6.850399780273438,1729396361381.0
6.158000000000001,0.29967041015625,7.688848876953125,6.430801391601563,1729396361391.0
6.167999999999992,0.8765808105468751,8.009304809570313,5.31810302734375,1729396361401.0
6.177999999999997,0.58558349609375,8.039511108398438,5.999838256835938,1729396361411.0
6.188000000000002,-0.7086517333984376,6.159991455078125,6.81107177734375,1729396361421.0
6.197999999999993,-1.6616455078125,6.308181762695313,7.989566040039063,1729396361431.0
6.207999999999998,-1.23397216796875,6.910214233398438,8.970971679687501,1729396361441.0
6.217999999999989,0.470440673828125,7.628137207031251,6.426016235351563,1729396361451.0
6.227999999999994,0.3877471923828125,8.120559692382812,5.1806793212890625,1729396361461.0
6.2379999999999995,-0.6602020263671875,6.71776123046875,5.408721923828125,1729396361471.0
6.2479999999999905,-0.36845703125,7.619314575195313,6.322537231445313,1729396361481.0
6.257999999999996,1.0434631347656251,7.6119873046875,8.040408325195314,1729396361491.0
6.268000000000001,1.7622833251953127,7.359121704101563,5.606259155273438,1729396361501.0
6.277999999999992,0.5941070556640625,6.6606384277343755,6.275881958007813,1729396361511.0
6.287999999999997,-0.2785858154296875,6.913952636718751,7.651614379882813,1729396361521.0
6.298000000000002,-0.4891326904296875,7.496694946289063,7.876217651367188,1729396361531.0
6.307999999999993,-0.2636322021484375,7.721597290039063,6.607553100585938,1729396361541.0
6.317999999999998,-0.6717163085937501,7.054666137695313,4.174450683593751,1729396361551.0
6.3289999999999935,-1.392031860351563,7.07664794921875,5.492013549804688,1729396361562.0
6.338999999999999,-0.5932098388671876,7.519723510742188,9.381149291992188,1729396361572.0
6.3489999999999895,0.285614013671875,7.140350341796876,7.628585815429688,1729396361582.0
6.358999999999995,0.78775634765625,6.969729614257813,5.220755004882813,1729396361592.0
6.369,0.8865997314453126,6.937728881835938,6.118420410156251,1729396361602.0
6.378999999999991,0.56644287109375,7.416094970703125,7.435086059570313,1729396361612.0
6.388999999999996,0.4110748291015625,7.720401000976563,7.743728637695313,1729396361622.0
6.399000000000001,0.3312225341796875,7.760327148437501,5.058956909179688,1729396361632.0
6.408999999999992,0.267669677734375,7.4083190917968755,3.732272338867188,1729396361642.0
6.418999999999997,-0.195892333984375,7.397103881835938,6.339285278320313,1729396361652.0
6.429000000000002,-0.975872802734375,6.896307373046875,9.772784423828126,1729396361662.0
6.438999999999993,-0.9286193847656252,6.674694824218751,8.137905883789063,1729396361672.0
6.448999999999998,-0.477020263671875,6.704302978515625,6.099578857421875,1729396361682.0
6.459000000000003,0.1816864013671875,7.293475341796875,5.812020874023438,1729396361692.0
6.468999999999994,0.03289794921875,7.552920532226563,6.453231811523438,1729396361702.0
6.478999999999999,0.0246734619140625,7.724139404296875,6.305340576171876,1729396361712.0
6.48899999999999,1.047052001953125,7.317102050781251,6.065036010742188,1729396361722.0
6.498999999999995,1.8053497314453129,8.008706665039064,5.8745269775390625,1729396361732.0
6.509,0.302362060546875,7.696774291992188,7.175640869140626,1729396361742.0
6.518999999999991,-0.689361572265625,5.6198669433593755,7.268353271484376,1729396361752.0
6.528999999999996,-1.3163665771484376,7.251007080078126,7.073208618164063,1729396361762.0
6.5390000000000015,-0.9006561279296875,7.179678344726563,7.832403564453125,1729396361772.0
6.548999999999992,0.0913665771484375,8.090951538085939,5.306439208984376,1729396361782.0
6.5589999999999975,-0.74708251953125,7.469927978515625,6.244628906250001,1729396361792.0
6.569000000000003,-0.4607208251953125,6.5927490234375,5.749066162109376,1729396361802.0
6.5789999999999935,0.0895721435546875,7.578790283203125,7.323831176757813,1729396361812.0
6.588999999999999,1.645196533203125,7.347906494140625,7.841973876953125,1729396361822.0
6.5989999999999895,1.5648956298828127,7.227978515625001,5.2838592529296875,1729396361832.0
6.608999999999995,0.45518798828125,6.9223266601562505,6.616973876953126,1729396361842.0
6.619,-0.468048095703125,7.054516601562501,7.464993286132813,1729396361852.0
6.628999999999991,-0.6987823486328125,7.889376831054688,6.979598999023438,1729396361862.0
6.638999999999996,-0.4610198974609375,7.161135864257813,6.32896728515625,1729396361872.0
6.649000000000001,-1.106866455078125,7.483087158203125,4.408175659179688,1729396361882.0
6.658999999999992,-0.8791229248046876,6.995150756835938,7.1600891113281255,1729396361892.0
6.668999999999997,0.2409027099609375,7.456320190429688,8.144036865234376,1729396361902.0
6.679000000000002,0.7748962402343751,6.973019409179688,6.983187866210938,1729396361912.0
6.688999999999993,1.2203643798828123,7.22618408203125,5.467938232421876,1729396361922.0
6.698999999999998,0.7834197998046876,6.845465087890625,6.738845825195313,1729396361932.0
6.709000000000003,0.2050140380859375,7.702606201171876,7.415496826171876,1729396361942.0
6.718999999999994,-0.2806793212890625,7.407720947265625,7.030889892578125,1729396361952.0
6.728999999999999,-0.5193389892578125,7.462451171875,4.984487915039063,1729396361962.0
6.73899999999999,-0.6886138916015625,7.400244140625,5.1775390625,1729396361972.0
6.748999999999995,-0.4613189697265625,7.286746215820313,7.602566528320313,1729396361982.0
6.759,-0.5746673583984375,6.986328125000001,8.154504394531251,1729396361992.0
6.783999999999992,-0.025421142578125,6.780416870117188,7.053469848632813,1729396362017.0
6.783999999999992,0.7677185058593751,7.114181518554688,5.9328460693359375,1729396362017.0
6.7890000000000015,0.8732910156250001,7.2139221191406255,6.0509796142578125,1729396362022.0
6.798999999999992,0.6012847900390625,7.577593994140625,6.579440307617188,1729396362032.0
6.8089999999999975,0.3165679931640625,7.638006591796875,6.847708129882813,1729396362042.0
6.819000000000003,0.2619873046875,8.121307373046875,5.980099487304688,1729396362052.0
6.8289999999999935,-0.061309814453125,7.341177368164063,5.9762115478515625,1729396362062.0
6.838999999999999,-0.9509002685546876,6.253451538085938,6.112139892578125,1729396362072.0
6.8489999999999895,-1.5040344238281251,6.781015014648438,8.3943603515625,1729396362082.0
6.858999999999995,-0.7629333496093751,7.087115478515625,8.458062744140626,1729396362092.0
6.869,0.954937744140625,7.777822875976563,5.99400634765625,1729396362102.0
6.878999999999991,0.459375,7.419833374023438,5.740692138671875,1729396362112.0
6.888999999999996,-0.3973175048828125,6.912008666992188,5.289541625976563,1729396362122.0
6.899000000000001,-0.0897216796875,7.734158325195313,7.342373657226563,1729396362132.0
6.908999999999992,1.092510986328125,7.6700073242187505,6.963449096679688,1729396362142.0
6.918999999999997,1.3410400390625,7.177883911132813,5.382702636718751,1729396362152.0
6.929000000000002,-0.1801910400390625,6.805838012695313,6.740042114257813,1729396362162.0
6.938999999999993,-0.8507110595703126,6.740490722656251,8.045642089843751,1729396362172.0
6.948999999999998,-0.581396484375,7.677035522460938,7.96549072265625,1729396362182.0
6.959000000000003,-0.127105712890625,7.456320190429688,6.105560302734375,1729396362192.0
6.968999999999994,-0.48868408203125,7.1735473632812505,3.5869232177734376,1729396362202.0
6.978999999999999,-0.6557159423828125,7.165921020507813,6.354837036132813,1729396362212.0
6.98899999999999,0.0261688232421875,7.596884155273438,9.4494873046875,1729396362222.0
6.998999999999995,0.696539306640625,7.09459228515625,7.168612670898438,1729396362232.0
7.009,0.8646179199218751,6.915298461914063,5.041012573242188,1729396362242.0
7.018999999999991,0.3614288330078125,6.8969055175781255,6.216665649414063,1729396362252.0
7.030000000000001,0.1208251953125,7.857077026367188,7.626043701171875,1729396362263.0
7.0390000000000015,0.1123016357421875,7.744476318359376,7.398898315429688,1729396362272.0
7.048999999999992,0.0943572998046875,7.432992553710938,4.590310668945313,1729396362282.0
7.0589999999999975,-0.370849609375,7.114331054687501,4.41729736328125,1729396362292.0
7.069000000000003,-0.2699127197265625,7.160238647460938,8.177084350585938,1729396362302.0
7.079999999999998,-0.63223876953125,7.151565551757813,9.405972290039063,1729396362313.0
7.088999999999999,-0.22908935546875,6.887335205078125,6.652114868164063,1729396362322.0
7.099999999999994,0.23507080078125,6.850698852539063,5.1356689453125,1729396362333.0
7.108999999999995,0.1036285400390625,7.455871582031251,6.320892333984376,1729396362342.0
7.119,0.1036285400390625,7.440618896484375,7.458413696289063,1729396362352.0
7.1299999999999955,0.063702392578125,7.869338989257813,5.84447021484375,1729396362363.0
7.140000000000001,1.0442108154296876,7.023263549804688,5.234661865234376,1729396362373.0
7.1499999999999915,1.523773193359375,7.6565490722656255,6.379061889648438,1729396362383.0
7.159999999999997,-0.3016143798828125,8.351144409179689,8.387930297851563,1729396362393.0
7.170000000000002,-1.28780517578125,5.500836181640626,7.6454833984375,1729396362403.0
7.179999999999993,-1.3027587890625,6.560748291015625,5.1178741455078125,1729396362413.0
7.189999999999998,-0.6476409912109375,7.668212890625001,7.572958374023438,1729396362423.0
7.200000000000003,0.10706787109375,8.055960083007813,6.834848022460938,1729396362433.0
7.209999999999994,-0.128302001953125,7.679727172851563,6.541159057617188,1729396362443.0
7.219999999999999,-0.0861328125,6.452334594726563,5.221652221679688,1729396362453.0
7.22999999999999,0.4098785400390625,7.175640869140626,5.950939941406251,1729396362463.0
7.239999999999995,1.308740234375,7.552920532226563,9.071310424804688,1729396362473.0
7.25,1.0806976318359376,7.633370971679688,6.435885620117188,1729396362483.0
7.259999999999991,0.36905517578125,6.773687744140625,5.46763916015625,1729396362493.0
7.269999999999996,-0.5902191162109376,6.959860229492188,6.0544189453125,1729396362503.0
7.280000000000001,-0.8351593017578126,7.841525268554688,7.700811767578125,1729396362513.0
7.289999999999992,-0.8018127441406251,7.297811889648438,7.706045532226563,1729396362523.0
7.299999999999997,-0.8593841552734376,6.950140380859375,5.185464477539063,1729396362533.0
7.310000000000002,-0.6195281982421875,7.173995971679688,5.8082824707031255,1729396362543.0
7.319999999999993,0.469244384765625,7.4397216796875005,7.335943603515625,1729396362553.0
7.329999999999998,0.9105255126953126,7.301849365234376,7.598828125000001,1729396362563.0
7.339999999999989,1.0223785400390626,7.450338745117188,6.0484375,1729396362573.0
7.349999999999994,0.91695556640625,6.787594604492188,5.76611328125,1729396362583.0
7.359999999999999,0.3264373779296875,7.412057495117188,7.001730346679688,1729396362593.0
7.36999999999999,-0.291595458984375,7.614529418945313,7.481143188476563,1729396362603.0
7.3799999999999955,-0.6193786621093751,7.592547607421875,5.815310668945313,1729396362613.0
7.390000000000001,-0.653173828125,7.0329833984375005,5.283709716796875,1729396362623.0
7.399999999999992,-0.6107055664062501,7.279269409179688,6.659442138671875,1729396362633.0
7.409999999999997,-0.7736999511718751,6.898251342773438,8.677880859375001,1729396362643.0
7.420000000000002,-0.2169769287109375,7.023114013671876,7.509854125976563,1729396362653.0
7.429999999999993,0.495263671875,7.153359985351563,5.915798950195313,1729396362663.0
7.439999999999998,1.215728759765625,7.276278686523438,5.065386962890625,1729396362673.0
7.450000000000003,0.8913848876953125,7.567425537109376,6.310574340820313,1729396362683.0
7.459999999999994,0.3970184326171875,7.504470825195313,7.392617797851563,1729396362693.0
7.469999999999999,0.509918212890625,8.090054321289063,6.649722290039063,1729396362703.0
7.47999999999999,0.3002685546875,7.684063720703126,5.993856811523438,1729396362713.0
7.489999999999995,-0.8378509521484375,6.187506103515625,5.250811767578125,1729396362723.0
7.5,-1.7690124511718752,6.671704101562501,7.751654052734375,1729396362733.0
7.509999999999991,-1.3984619140625,7.121658325195313,9.565228271484376,1729396362743.0
7.519999999999996,0.4236358642578125,7.625894165039063,6.539065551757813,1729396362753.0
7.530000000000001,0.6608001708984376,7.624996948242188,5.068228149414063,1729396362763.0
7.539999999999992,-0.1661346435546875,6.811968994140625,5.347412109375,1729396362773.0
7.549999999999997,-0.197686767578125,7.650567626953125,7.006964111328125,1729396362783.0
7.560000000000002,1.0585662841796877,7.591650390625,7.830908203125,1729396362793.0
7.569999999999993,1.640261840820313,7.3703369140625,5.292083740234375,1729396362803.0
7.579999999999998,0.530853271484375,6.887036132812501,5.991763305664063,1729396362813.0
7.589999999999989,-0.7520172119140626,6.786099243164063,7.810720825195313,1729396362823.0
7.599999999999994,-0.8900390625000001,7.499685668945313,8.105157470703126,1729396362833.0
7.609999999999999,-0.3473724365234375,7.63292236328125,6.691293334960938,1729396362843.0
7.61999999999999,-0.5821441650390625,6.9327941894531255,3.9891754150390626,1729396362853.0
7.6299999999999955,-0.8623748779296876,7.206295776367188,5.67998046875,1729396362863.0
7.640000000000001,-0.452496337890625,7.531536865234376,9.439318847656253,1729396362873.0
7.649999999999992,0.5313018798828125,7.071115112304688,7.502377319335938,1729396362883.0
7.659999999999997,1.011761474609375,7.07425537109375,5.20086669921875,1729396362893.0
7.670000000000002,0.8662628173828125,7.063488769531251,5.675942993164063,1729396362903.0
7.679999999999993,0.485394287109375,7.479946899414063,7.38170166015625,1729396362913.0
7.689999999999998,0.1440032958984375,7.813412475585938,7.823132324218751,1729396362923.0
7.700000000000003,0.13817138671875,7.452133178710938,5.185614013671875,1729396362933.0
7.709999999999994,-0.10946044921875,7.282708740234376,4.08831787109375,1729396362943.0
7.719999999999999,-0.3715972900390625,7.1870056152343755,7.18790283203125,1729396362953.0
7.72999999999999,-0.9734802246093752,7.113583374023438,9.209182739257812,1729396362963.0
7.739999999999995,-0.6844268798828126,6.794024658203125,7.625445556640625,1729396362973.0
7.75,-0.085833740234375,6.821240234375001,5.790936279296876,1729396362983.0
7.759999999999991,0.1649383544921875,7.394113159179688,5.802450561523438,1729396362993.0
7.771000000000001,0.2546600341796875,7.434188842773438,7.124349975585938,1729396363004.0
7.780000000000001,0.2077056884765625,7.72025146484375,6.287844848632813,1729396363013.0
7.789999999999992,0.6720153808593751,7.463497924804688,4.940673828125,1729396363023.0
7.799999999999997,2.167974853515626,7.214071655273438,6.087765502929688,1729396363033.0
7.810000000000002,0.5357879638671875,8.200711059570313,8.18201904296875,1729396363043.0
7.819999999999993,-1.409527587890625,6.685012817382813,8.11502685546875,1729396363053.0
7.829999999999998,-1.3026092529296875,5.630633544921875,5.73321533203125,1729396363063.0
7.839999999999989,-1.33565673828125,7.790084838867188,6.213674926757813,1729396363073.0
7.849999999999994,-0.3530548095703125,7.640698242187501,7.722195434570313,1729396363083.0
7.86099999999999,-0.2262481689453125,8.314956665039062,6.214123535156251,1729396363094.0
7.86999999999999,-0.1469940185546875,6.557907104492188,6.356930541992188,1729396363103.0
7.8799999999999955,0.6181823730468751,6.962551879882813,4.466793823242188,1729396363113.0
7.890000000000001,1.170867919921875,7.158892822265625,8.751751708984376,1729396363123.0
7.899999999999992,1.47442626953125,7.890573120117188,7.624847412109376,1729396363133.0
7.909999999999997,0.8993103027343751,6.925616455078125,5.850900268554688,1729396363143.0
7.920999999999992,0.1529754638671875,7.20823974609375,5.1141357421875,1729396363154.0
7.930999999999997,-1.24593505859375,7.141696166992188,7.022964477539063,1729396363164.0
7.941000000000003,-1.293338012695313,7.980892944335938,7.901339721679688,1729396363174.0
7.950999999999993,-1.0404724121093751,6.551776123046875,6.9896179199218755,1729396363184.0
7.9609999999999985,-1.0249206542968752,7.440319824218751,4.48428955078125,1729396363194.0
7.970999999999989,0.113348388671875,6.926663208007813,7.435385131835938,1729396363204.0
7.980999999999995,0.752166748046875,7.4445068359375,7.627239990234376,1729396363214.0
7.991,1.1595031738281252,7.403683471679688,6.941616821289063,1729396363224.0
8.00099999999999,1.3763305664062502,7.061245727539063,5.756692504882813,1729396363234.0
8.010999999999996,0.8451782226562501,7.134368896484376,5.761776733398438,1729396363244.0
8.021,0.0011962890625,7.777972412109375,7.29796142578125,1729396363254.0
8.030999999999992,-0.491375732421875,7.612884521484376,6.5440002441406255,1729396363264.0
8.040999999999997,-0.7243530273437501,7.194631958007813,5.71885986328125,1729396363274.0
8.051000000000002,-0.9610687255859376,7.100872802734376,5.923126220703125,1729396363284.0
8.060999999999993,-0.8773284912109376,6.8385864257812505,8.065380859375,1729396363294.0
8.070999999999998,-0.7047637939453125,7.057955932617188,8.391220092773438,1729396363304.0
8.081000000000003,0.157012939453125,7.086666870117188,6.362313842773438,1729396363314.0
8.090999999999994,1.1267547607421875,7.157696533203126,5.320196533203125,1729396363324.0
8.100999999999999,1.0851837158203126,7.310671997070313,5.7529541015625005,1729396363334.0
8.11099999999999,0.7777374267578125,7.885040283203126,6.936532592773438,1729396363344.0
8.120999999999995,0.8092895507812501,8.064782714843751,7.22618408203125,1729396363354.0
8.131,0.480010986328125,7.865899658203125,5.478555297851563,1729396363364.0
8.140999999999991,-0.5461059570312501,6.013296508789063,5.254400634765625,1729396363374.0
8.150999999999996,-1.64908447265625,6.715518188476563,7.738943481445313,1729396363384.0
8.161000000000001,-1.8576873779296876,6.977206420898438,10.04568786621094,1729396363394.0
8.170999999999992,-0.0859832763671875,7.652362060546875,6.887634277343751,1729396363404.0
8.180999999999997,0.5431152343750001,7.626791381835938,4.5222717285156255,1729396363414.0
8.191000000000003,-0.2029205322265625,6.842773437500001,4.947552490234376,1729396363424.0
8.200999999999993,-0.272454833984375,7.677035522460938,7.164276123046876,1729396363434.0
8.210999999999999,1.1082122802734375,7.568023681640626,8.398098754882813,1729396363444.0
8.22099999999999,1.8890899658203129,7.426412963867188,5.2375030517578125,1729396363454.0
8.230999999999995,1.179840087890625,6.777426147460938,5.4568725585937505,1729396363464.0
8.241,-0.6431549072265625,6.82841796875,7.757934570312501,1729396363474.0
8.25099999999999,-1.0727722167968752,7.5025268554687505,8.45716552734375,1729396363484.0
8.260999999999996,-0.48509521484375,7.695278930664063,6.8954101562500005,1729396363494.0
8.271,-0.5833404541015625,7.1286865234375005,3.909323120117188,1729396363504.0
8.280999999999992,-1.1484375,7.1095458984375,4.589114379882813,1729396363514.0
8.290999999999997,-0.6376220703125001,7.365402221679688,9.714166259765626,1729396363524.0
8.301000000000002,0.3925323486328125,7.1989685058593755,8.745471191406251,1729396363534.0
8.310999999999993,0.9603210449218752,6.849502563476563,5.2337646484375,1729396363544.0
8.320999999999998,1.3032073974609375,6.991711425781251,5.032788085937501,1729396363554.0
8.331000000000003,0.4510009765625,7.483834838867188,7.334896850585938,1729396363564.0
8.340999999999994,0.2089019775390625,7.924966430664063,8.110540771484375,1729396363574.0
8.350999999999999,0.0704315185546875,7.595388793945313,5.4079742431640625,1729396363584.0
8.36099999999999,-0.0035888671875,7.431497192382813,3.5510345458984376,1729396363594.0
8.370999999999995,-0.3219512939453125,7.19627685546875,5.880657958984376,1729396363604.0
8.381,-0.7364654541015625,6.984683227539063,9.98662109375,1729396363614.0
8.390999999999991,-0.9882843017578126,6.697723388671876,8.831155395507814,1729396363624.0
8.400999999999996,-0.189910888671875,6.653311157226563,5.8326568603515625,1729396363634.0
8.411000000000001,0.4131683349609375,7.346261596679688,5.436834716796875,1729396363644.0
8.420999999999992,0.1751068115234375,7.648324584960938,6.300405883789063,1729396363654.0
8.430999999999997,0.0922637939453125,7.7537475585937505,6.5111022949218755,1729396363664.0
8.441000000000003,0.6730621337890625,7.443011474609375,5.803945922851563,1729396363674.0
8.450999999999993,1.7999664306640626,7.438076782226563,5.9398742675781255,1729396363684.0
8.460999999999999,0.4942169189453125,8.121606445312501,7.551275634765625,1729396363694.0
8.47099999999999,-1.2116912841796876,5.8414794921875,7.75853271484375,1729396363704.0
8.480999999999995,-1.3002166748046875,6.41868896484375,6.471923828125001,1729396363714.0
8.491,-1.0503417968750002,7.770346069335938,7.402337646484376,1729396363724.0
8.50099999999999,0.131591796875,7.750906372070313,6.141598510742188,1729396363734.0
8.510999999999996,-0.256903076171875,8.118316650390625,5.794375610351563,1729396363744.0
8.521,-0.4894317626953125,6.303695678710938,6.208889770507813,1729396363754.0
8.530999999999992,0.2615386962890625,7.322784423828126,6.0689239501953125,1729396363764.0
8.540999999999997,1.314422607421875,7.232464599609376,8.721395874023438,1729396363774.0
8.551000000000002,1.7452362060546875,7.680624389648438,6.016287231445313,1729396363784.0
8.560999999999993,0.5004974365234376,6.80748291015625,6.160888671875001,1729396363794.0
8.570999999999998,-0.539825439453125,7.054516601562501,6.512747192382813,1729396363804.0
8.581000000000003,-0.9890319824218752,7.653259277343751,7.151565551757813,1729396363814.0
8.590999999999994,-0.6936981201171876,7.601968383789063,6.917691040039063,1729396363824.0
8.600999999999999,-0.8351593017578126,6.912307739257813,5.294924926757813,1729396363834.0
8.61099999999999,-0.9634613037109376,7.271792602539063,6.018679809570313,1729396363844.0
8.620999999999995,0.3087921142578125,7.236950683593751,8.123251342773438,1729396363854.0
8.631,0.8843566894531251,7.23037109375,7.212875366210938,1729396363864.0
8.640999999999991,1.199578857421875,7.273886108398438,5.8920227050781255,1729396363874.0
8.650999999999996,0.893927001953125,6.884643554687501,6.045596313476563,1729396363884.0
8.661000000000001,0.2435943603515625,7.497143554687501,7.081881713867188,1729396363894.0
8.671999999999997,-0.12022705078125,7.606454467773438,7.242034912109376,1729396363905.0
8.680999999999997,-0.4738800048828125,7.607949829101563,5.399301147460938,1729396363914.0
8.691999999999993,-0.6939971923828125,7.051824951171875,5.4682373046875,1729396363925.0
8.701999999999998,-0.72196044921875,7.1989685058593755,7.131527709960938,1729396363935.0
8.711999999999989,-0.79493408203125,6.9755615234375,8.397201538085938,1729396363945.0
8.721999999999994,-0.070880126953125,7.013244628906251,7.247268676757813,1729396363955.0
8.732,0.63642578125,7.114031982421875,5.5914550781250005,1729396363965.0
8.74199999999999,1.0624542236328125,7.16038818359375,5.76312255859375,1729396363975.0
8.751999999999995,0.6658843994140625,7.623352050781251,6.535476684570313,1729396363985.0
8.762,0.6029296875000001,7.6574462890625,7.251455688476563,1729396363995.0
8.771999999999991,0.624462890625,8.117868041992189,6.087167358398438,1729396364005.0
8.781999999999996,0.040972900390625,7.491461181640625,5.550930786132813,1729396364015.0
8.792000000000002,-1.1571105957031251,5.953930664062501,6.0687744140625,1729396364025.0
8.801999999999992,-1.6351776123046875,6.968383789062501,8.440417480468751,1729396364035.0
8.811999999999998,-1.0229766845703123,7.104611206054688,9.12529296875,1729396364045.0
8.822000000000003,0.5052825927734376,7.6460815429687505,5.8917236328125,1729396364055.0
8.831999999999994,0.225799560546875,7.428207397460938,5.01663818359375,1729396364065.0
8.841999999999999,-0.2642303466796875,7.035076904296876,5.5545196533203125,1729396364075.0
8.85199999999999,0.0753662109375,7.706643676757813,7.434188842773438,1729396364085.0
8.861999999999995,1.3479187011718752,7.541107177734376,7.222894287109376,1729396364095.0
8.872,1.4472106933593751,7.179977416992188,5.38629150390625,1729396364105.0
8.88199999999999,0.2332763671875,6.788192749023438,6.405679321289063,1729396364115.0
8.903999999999996,-0.5867797851562501,6.951486206054688,8.076895141601563,1729396364137.0
8.903999999999996,-0.6718658447265625,7.754046630859375,7.7073913574218755,1729396364137.0
8.911999999999992,-0.2851654052734375,7.155303955078126,6.048886108398438,1729396364145.0
8.921999999999997,-0.8888427734375001,7.144686889648438,4.179385375976563,1729396364155.0
8.932000000000002,-1.00069580078125,7.275381469726563,6.943411254882813,1729396364165.0
8.941999999999993,-0.154620361328125,7.507611083984376,8.89381103515625,1729396364175.0
8.951999999999998,0.47552490234375,7.073956298828126,6.562094116210938,1729396364185.0
8.961999999999989,1.0827911376953123,7.125247192382813,5.159445190429688,1729396364195.0
8.971999999999994,0.7576995849609376,6.897503662109376,6.74527587890625,1729396364205.0
8.982,0.3935791015625,7.513442993164063,7.741036987304688,1729396364215.0
8.99199999999999,0.1810882568359375,7.65086669921875,7.317251586914063,1729396364225.0
9.001999999999995,0.234771728515625,7.718905639648438,4.502383422851563,1729396364235.0
9.012,0.055926513671875,7.332205200195313,4.050335693359376,1729396364245.0
9.021999999999991,-0.451898193359375,7.386187744140625,7.464993286132813,1729396364255.0
9.031999999999996,-1.0913146972656251,6.752902221679688,9.635211181640626,1729396364265.0
9.042000000000002,-0.6365753173828126,6.791781616210938,7.357925415039063,1729396364275.0
9.051999999999992,-0.1018341064453125,6.808529663085938,6.085073852539063,1729396364285.0
9.061999999999998,0.3297271728515625,7.414599609375,5.755645751953125,1729396364295.0
9.072000000000005,0.0040374755859375,7.4205810546875,6.673648071289063,1729396364305.0
9.081999999999994,0.2165283203125,7.973117065429688,6.159991455078125,1729396364315.0
9.092,1.2568511962890625,7.0509277343750005,5.694485473632813,1729396364325.0
9.10199999999999,1.9037445068359375,8.1060546875,6.139355468750001,1729396364335.0
9.111999999999997,-0.384307861328125,7.821188354492188,7.8129638671875,1729396364345.0
9.122,-1.1864196777343752,5.34501953125,6.995001220703125,1729396364355.0
9.13199999999999,-1.230532836914063,7.11552734375,6.656451416015625,1729396364365.0
9.141999999999996,-0.7986724853515625,7.42117919921875,8.034576416015625,1729396364375.0
9.152,-0.2193695068359375,7.943060302734375,5.748318481445313,1729396364385.0
9.161999999999992,-0.5659942626953125,7.394412231445313,6.260928344726563,1729396364395.0
9.171999999999995,-0.03768310546875,6.983187866210938,5.1966796875000005,1729396364405.0
9.182000000000002,0.4798614501953125,7.224838256835938,7.147528076171875,1729396364415.0
9.191999999999991,1.57431640625,7.53721923828125,7.7552429199218755,1729396364425.0
9.201999999999998,1.163690185546875,7.0718627929687505,6.620114135742188,1729396364435.0
9.211999999999987,0.43126220703125,7.041058349609376,5.80260009765625,1729396364445.0
9.221999999999994,-0.426776123046875,6.987973022460938,7.115826416015626,1729396364455.0
9.232,-0.849066162109375,7.985977172851563,7.097134399414063,1729396364465.0
9.24199999999999,-0.8698516845703126,6.928457641601563,6.4252685546875,1729396364475.0
9.251999999999995,-1.0675384521484377,7.40562744140625,5.321990966796875,1729396364485.0
9.262,-0.5250213623046875,7.275830078125001,7.021768188476563,1729396364495.0
9.271999999999991,0.294287109375,7.234109497070313,6.908270263671875,1729396364505.0
9.281999999999996,1.0219299316406252,7.107003784179688,7.126293945312501,1729396364515.0
9.292000000000002,1.0328460693359376,7.407272338867188,6.318051147460938,1729396364525.0
9.301999999999992,1.03359375,6.7267333984375,6.564038085937501,1729396364535.0
9.311999999999998,0.04007568359375,7.562939453125001,7.1989685058593755,1729396364545.0
9.322000000000005,-0.2636322021484375,7.415646362304688,6.54130859375,1729396364555.0
9.331999999999994,-0.5973968505859375,7.732363891601563,5.56334228515625,1729396364565.0
9.342,-0.5618072509765626,7.356430053710938,5.457470703125001,1729396364575.0
9.35199999999999,-0.5782562255859376,7.1870056152343755,6.910961914062501,1729396364585.0
9.361999999999997,-0.6126495361328126,6.892568969726563,8.161532592773439,1729396364595.0
9.372,0.15133056640625,6.781613159179688,7.507760620117188,1729396364605.0
9.38199999999999,0.4529449462890625,7.275381469726563,6.492260742187501,1729396364615.0
9.393,0.9742279052734376,6.922775268554688,5.727682495117188,1729396364626.0
9.402999999999992,0.427972412109375,7.699465942382813,5.9208831787109375,1729396364636.0
9.411999999999992,0.292791748046875,7.615277099609376,6.692190551757813,1729396364645.0
9.423000000000002,0.7775878906250001,8.048782348632812,6.397604370117188,1729396364656.0
9.432000000000002,0.0396270751953125,8.029940795898439,6.400296020507813,1729396364665.0
9.442999999999998,-0.9079833984375,5.894564819335938,5.7798706054687505,1729396364676.0
9.451999999999998,-1.483697509765625,6.56583251953125,7.4445068359375,1729396364685.0
9.462999999999994,-0.8882446289062501,7.221847534179688,9.393560791015624,1729396364696.0
9.473,0.489581298828125,7.644137573242188,6.753201293945313,1729396364706.0
9.48299999999999,0.189312744140625,7.611239624023438,5.1492767333984375,1729396364716.0
9.492999999999997,-0.219818115234375,6.696676635742188,5.14105224609375,1729396364726.0
9.503,-0.3069976806640625,7.915097045898438,6.688302612304688,1729396364736.0
9.512999999999993,1.0812957763671875,7.3814025878906255,8.326919555664062,1729396364746.0
9.522999999999996,1.2109436035156251,7.577743530273438,5.225241088867188,1729396364756.0
9.533,0.4272247314453125,6.607852172851563,5.9388275146484375,1729396364766.0
9.542999999999992,-0.1256103515625,6.8789611816406255,7.584921264648438,1729396364776.0
9.552999999999995,-0.55328369140625,7.819393920898438,8.132373046875001,1729396364786.0
9.563000000000002,-0.1447509765625,7.341027832031251,6.8224365234375,1729396364796.0
9.572999999999992,-0.6413604736328126,6.884643554687501,3.9670440673828127,1729396364806.0
9.582999999999998,-0.9236846923828126,7.369589233398438,5.717214965820313,1729396364816.0
9.59299999999999,-0.4281219482421875,7.558004760742188,9.458010864257814,1729396364826.0
9.602999999999994,0.13697509765625,7.0473388671875,7.033731079101563,1729396364836.0
9.613,0.5807983398437501,7.059152221679688,5.26187744140625,1729396364846.0
9.62299999999999,0.5849853515625001,6.866400146484375,6.375772094726563,1729396364856.0
9.632999999999996,0.5700317382812501,7.475161743164063,7.454226684570313,1729396364866.0
9.643,0.31103515625,7.699166870117188,7.741336059570313,1729396364876.0
9.652999999999992,0.401654052734375,7.653259277343751,4.836895751953126,1729396364886.0
9.662999999999997,0.4101776123046875,7.344766235351563,4.040316772460938,1729396364896.0
9.673000000000002,-0.0873291015625,7.532882690429688,6.864157104492188,1729396364906.0
9.682999999999993,-0.8560943603515626,6.885989379882813,9.185406494140626,1729396364916.0
9.692999999999998,-0.8055511474609376,6.840380859375,7.547088623046876,1729396364926.0
9.703000000000005,-0.3736907958984375,6.640750122070313,6.335546875,1729396364936.0
9.712999999999994,-0.0025421142578125,7.2626708984375,5.825927734375,1729396364946.0
9.723,-0.189013671875,7.662231445312501,6.603067016601563,1729396364956.0
9.73299999999999,0.122021484375,7.45048828125,6.7697998046875005,1729396364966.0
9.742999999999997,1.2774871826171876,7.638604736328125,5.931201171875,1729396364976.0
9.753,1.15621337890625,8.529391479492189,5.909518432617188,1729396364986.0
9.762999999999993,-0.1305450439453125,5.839236450195313,6.61368408203125,1729396364996.0
9.772999999999996,-0.535040283203125,6.6800781250000005,6.899746704101563,1729396365006.0
9.783,-0.9975555419921877,7.441665649414063,8.992355346679688,1729396365016.0
9.792999999999992,0.281427001953125,7.469329833984376,6.6441894531250005,1729396365026.0
9.802999999999995,-0.346026611328125,7.676437377929688,5.209689331054688,1729396365036.0
9.813000000000002,-1.1506805419921875,6.779669189453125,5.700018310546875,1729396365046.0
9.822999999999992,-0.8480194091796875,7.452432250976563,6.700265502929688,1729396365056.0
9.832999999999998,0.7064086914062501,7.384542846679688,8.115625000000001,1729396365066.0
9.84299999999999,1.5342407226562502,7.808776855468751,5.761029052734376,1729396365076.0
9.852999999999994,0.8510101318359375,6.45517578125,5.698373413085938,1729396365086.0
9.863,0.2237060546875,6.849502563476563,7.411309814453125,1729396365096.0
9.87299999999999,-0.2534637451171875,7.692886352539063,8.288189697265626,1729396365106.0
9.882999999999996,0.0303558349609375,7.50133056640625,6.716714477539063,1729396365116.0
9.893,-0.3548492431640625,7.303793334960938,4.37841796875,1729396365126.0
9.902999999999992,-1.2768890380859377,7.448992919921875,4.505075073242188,1729396365136.0
9.912999999999997,-0.2812774658203125,7.399795532226563,8.481689453125,1729396365146.0
9.923000000000002,0.1897613525390625,7.242633056640625,8.420529174804688,1729396365156.0
9.932999999999993,0.4828521728515625,6.794921875000001,5.708392333984375,1729396365166.0
9.942999999999998,0.572125244140625,6.583926391601563,6.2494140625000005,1729396365176.0
9.953000000000005,0.3016143798828125,7.431796264648438,7.707989501953126,1729396365186.0
9.962999999999994,0.1111053466796875,7.76810302734375,7.517181396484376,1729396365196.0
9.973,-0.0753662109375,7.530041503906251,5.280120849609375,1729396365206.0
9.98299999999999,-0.2184722900390625,7.341625976562501,4.218862915039063,1729396365216.0
9.992999999999997,-0.233575439453125,7.522265625,6.45457763671875,1729396365226.0
10.003,-0.26258544921875,7.199267578125,8.841323852539062,1729396365236.0
10.012999999999993,-0.1969390869140625,6.877017211914063,7.505517578125,1729396365246.0
10.022999999999996,0.23865966796875,6.569570922851563,5.580538940429688,1729396365256.0
10.033,0.6587066650390625,7.1645751953125005,6.233413696289063,1729396365266.0
10.042999999999992,0.35111083984375,7.575350952148438,7.3320556640625005,1729396365276.0
10.052999999999995,-0.0148040771484375,7.898049926757813,7.073507690429688,1729396365286.0
10.063000000000002,0.014056396484375,8.220599365234376,5.726785278320313,1729396365296.0
10.072999999999992,0.1419097900390625,6.941616821289063,4.644741821289063,1729396365306.0
10.082999999999998,-0.5917144775390626,6.549234008789063,6.038717651367188,1729396365316.0
10.09299999999999,-1.226495361328125,6.945654296875,9.52649841308594,1729396365326.0
10.102999999999994,0.0076263427734375,6.971224975585938,8.624795532226564,1729396365336.0
10.113,0.9601715087890624,7.763467407226563,5.7275329589843755,1729396365346.0
10.12299999999999,0.3707000732421875,6.9118591308593755,5.519976806640625,1729396365356.0
10.132999999999996,-0.98275146484375,7.455123901367188,5.357431030273438,1729396365366.0
10.143,-0.4161590576171875,7.762869262695313,7.74716796875,1729396365376.0
10.152999999999992,1.0045837402343751,7.88414306640625,6.125747680664063,1729396365386.0
10.162999999999997,1.1994293212890623,6.950140380859375,5.109649658203125,1729396365396.0
10.173000000000002,-0.1879669189453125,6.650619506835938,7.152911376953125,1729396365406.0
10.183999999999996,-0.8541503906250001,6.721499633789063,9.032730102539062,1729396365417.0
10.192999999999998,-0.0811981201171875,7.6454833984375,8.324227905273439,1729396365426.0
10.203999999999994,0.0973480224609375,7.332653808593751,5.27384033203125,1729396365437.0
10.214,-0.38460693359375,7.281213378906251,3.0064239501953125,1729396365447.0
10.22399999999999,-0.8450286865234375,7.404431152343751,6.7662109375,1729396365457.0
10.233999999999996,-0.1149932861328125,7.734906005859376,9.648818969726562,1729396365467.0
10.244,0.67889404296875,7.067077636718751,6.5903564453125005,1729396365477.0
10.25399999999999,0.9329559326171876,6.889129638671876,4.3881378173828125,1729396365487.0
10.263999999999996,0.31282958984375,6.824679565429688,6.993206787109376,1729396365497.0
10.274,0.16688232421875,7.7387939453125005,8.366397094726564,1729396365507.0
10.283999999999992,-0.009271240234375,7.619613647460938,7.30753173828125,1729396365517.0
10.293999999999995,0.10467529296875,7.19986572265625,4.3233886718750005,1729396365527.0
10.304000000000002,-0.42886962890625,7.307830810546876,4.438232421875,1729396365537.0
10.313999999999991,-0.6283508300781251,7.255941772460938,8.420379638671875,1729396365547.0
10.323999999999998,-0.6705200195312501,7.358673095703126,8.98831787109375,1729396365557.0
10.334000000000003,-0.040374755859375,6.744677734375,6.173599243164063,1729396365567.0
10.343999999999994,0.5489471435546875,7.023712158203126,4.911813354492188,1729396365577.0
10.354,0.41630859375,7.1346679687500005,6.819744873046876,1729396365587.0
10.36399999999999,0.2023223876953125,7.91763916015625,7.433441162109376,1729396365597.0
10.373999999999995,0.4562347412109375,7.219903564453125,6.663330078125001,1729396365607.0
10.384,1.2679168701171877,7.543948364257813,4.988674926757813,1729396365617.0
10.393999999999991,0.0659454345703125,8.234506225585939,6.570617675781251,1729396365627.0
10.403999999999996,-1.3769287109375,5.947052001953125,7.483834838867188,1729396365637.0
10.414,-1.23157958984375,6.781463623046876,7.232763671875,1729396365647.0
10.423999999999992,-0.8448791503906251,7.478451538085938,7.5877624511718755,1729396365657.0
10.433999999999996,0.48270263671875,7.37332763671875,5.9104156494140625,1729396365667.0
10.444000000000004,0.0459075927734375,7.914947509765626,6.315060424804688,1729396365677.0
10.453999999999994,-0.1745086669921875,6.764715576171875,6.225189208984376,1729396365687.0
10.464,0.2356689453125,7.335195922851563,6.4976440429687505,1729396365697.0
10.47399999999999,1.1695220947265623,7.376019287109376,7.1550048828125,1729396365707.0
10.483999999999996,1.2472808837890623,7.704101562500001,5.9014434814453125,1729396365717.0
10.494,0.1042266845703125,6.852194213867188,6.595590209960938,1729396365727.0
10.50399999999999,-0.480609130859375,6.852493286132813,7.171752929687501,1729396365737.0
10.513999999999996,-1.0848846435546875,7.590603637695313,7.365850830078125,1729396365747.0
10.524,-0.465655517578125,7.212127685546876,6.629833984375001,1729396365757.0
10.533999999999992,-0.75784912109375,7.306036376953125,5.4000488281250005,1729396365767.0
10.543999999999995,-0.7029693603515625,7.306335449218751,6.287994384765626,1729396365777.0
10.554000000000002,0.3696533203125,7.23515625,7.279269409179688,1729396365787.0
10.563999999999991,0.9724334716796876,7.369888305664063,7.186407470703125,1729396365797.0
10.573999999999998,1.1880645751953125,7.283456420898438,6.0988311767578125,1729396365807.0
10.584000000000003,0.7765411376953125,6.827819824218751,6.0714660644531255,1729396365817.0
10.593999999999994,0.2429962158203125,7.484432983398438,7.371234130859375,1729396365827.0
10.604,-0.2284912109375,7.498040771484376,7.057058715820313,1729396365837.0
10.61399999999999,-0.6012847900390625,7.648324584960938,5.442666625976563,1729396365847.0
10.623999999999995,-0.709698486328125,7.037619018554688,5.590557861328126,1729396365857.0
10.634,-0.7805786132812501,7.333700561523438,6.861764526367188,1729396365867.0
10.643999999999991,-0.713287353515625,6.859820556640625,8.710031127929689,1729396365877.0
10.653999999999996,-0.106768798828125,6.963299560546876,7.140350341796876,1729396365887.0
10.664,0.5553771972656251,7.234558105468751,5.782113647460938,1729396365897.0
10.673999999999992,1.3070953369140623,7.259829711914063,5.547640991210938,1729396365907.0
10.683999999999996,0.8130279541015626,7.612435913085938,6.258834838867188,1729396365917.0
10.694000000000004,0.4797119140625,7.562042236328126,7.2746337890625,1729396365927.0
10.703999999999994,0.6543701171875,7.89371337890625,6.365603637695313,1729396365937.0
10.714,0.006878662109375,7.697372436523438,6.0161376953125005,1729396365947.0
10.72399999999999,-0.9773681640625,6.0091094970703125,5.972174072265625,1729396365957.0
10.733999999999996,-1.8454254150390623,6.907522583007813,7.699914550781251,1729396365967.0
10.744,-1.2596923828125002,7.116574096679688,9.152059936523438,1729396365977.0
10.75399999999999,0.5295074462890625,7.772290039062501,6.189151000976563,1729396365987.0
10.763999999999996,0.345428466796875,7.535125732421876,5.388385009765625,1729396365997.0
10.774,-0.167779541015625,6.721499633789063,5.318402099609376,1729396366007.0
10.783999999999992,0.030206298828125,7.779766845703126,7.099975585937501,1729396366017.0
10.793999999999995,1.4999969482421875,7.522116088867188,7.959808349609376,1729396366027.0
10.804000000000002,1.5004455566406252,7.416992187500001,5.103518676757813,1729396366037.0
10.813999999999991,0.2056121826171875,6.723892211914063,6.095989990234376,1729396366047.0
10.823999999999998,-0.6276031494140626,6.9043823242187505,7.787393188476563,1729396366057.0
10.834000000000003,-0.863720703125,7.829711914062501,7.9780517578125005,1729396366067.0
10.843999999999994,-0.37802734375,7.2737365722656255,6.459811401367188,1729396366077.0
10.854,-0.74468994140625,6.996197509765626,3.848013305664063,1729396366087.0
10.86399999999999,-0.9574798583984376,7.209585571289063,6.37442626953125,1729396366097.0
10.873999999999995,-0.097796630859375,7.457516479492188,9.493151855468753,1729396366107.0
10.884,0.494366455078125,7.112088012695313,7.123153686523438,1729396366117.0
10.893999999999991,0.9957611083984376,7.008160400390626,5.01663818359375,1729396366127.0
10.903999999999996,0.7080535888671875,6.985580444335938,6.1022705078125,1729396366137.0
10.914999999999992,0.5655456542968751,7.753448486328126,7.384243774414063,1729396366148.0
10.923999999999992,0.2193695068359375,7.799206542968751,7.394561767578126,1729396366157.0
10.933999999999996,0.1870697021484375,7.435235595703125,4.694387817382813,1729396366167.0
10.944000000000004,-0.12860107421875,7.130780029296876,4.614535522460938,1729396366177.0
10.953999999999994,-0.55447998046875,7.278521728515625,7.806085205078125,1729396366187.0
10.96499999999999,-0.86671142578125,7.0593017578125,9.160134887695314,1729396366198.0
10.974999999999994,-0.5310028076171875,6.737051391601563,7.149920654296875,1729396366208.0
10.985,-0.2573516845703125,6.843820190429688,5.5047241210937505,1729396366218.0
10.99499999999999,0.17047119140625,7.316204833984376,6.247021484375001,1729396366228.0
11.004999999999995,0.155816650390625,7.636660766601563,6.791183471679688,1729396366238.0
11.015,0.453094482421875,7.775280761718751,6.1881042480468755,1729396366248.0
11.024999999999991,1.4377899169921875,7.179229736328126,5.907723999023438,1729396366258.0
11.034999999999997,1.2290374755859377,8.52296142578125,6.144290161132813,1729396366268.0
11.045000000000002,-0.6373229980468751,6.445455932617188,7.709335327148438,1729396366278.0
11.054999999999993,-0.8874969482421876,5.978604125976563,6.568524169921876,1729396366288.0
11.064999999999998,-1.380068969726563,7.6311279296875005,7.77109375,1729396366298.0
11.075000000000005,-0.1263580322265625,7.253250122070313,6.9994873046875,1729396366308.0
11.084999999999994,0.0880767822265625,8.262918090820314,5.3406829833984375,1729396366318.0
11.095,-0.7841674804687501,6.680227661132813,6.675741577148438,1729396366328.0
11.10499999999999,-0.38221435546875,7.070068359375001,5.5687255859375,1729396366338.0
11.114999999999997,0.6018829345703125,7.281512451171875,8.278469848632813,1729396366348.0
11.125,1.80460205078125,7.935882568359376,6.397604370117188,1729396366358.0
11.134999999999993,0.9832000732421876,6.8071838378906255,5.738748168945313,1729396366368.0
11.144999999999996,0.073272705078125,6.947000122070313,6.396408081054688,1729396366378.0
11.155,-0.72196044921875,7.258184814453125,7.925863647460938,1729396366388.0
11.164999999999992,-0.457281494140625,7.88175048828125,7.290634155273438,1729396366398.0
11.174999999999995,-0.366064453125,6.93309326171875,5.614633178710938,1729396366408.0
11.185000000000002,-1.3005157470703126,7.456768798828126,4.379464721679688,1729396366418.0
11.194999999999991,-0.2977264404296875,7.111190795898438,7.839730834960938,1729396366428.0
11.204999999999998,0.4510009765625,7.448693847656251,8.072857666015626,1729396366438.0
11.21499999999999,0.9236846923828126,7.16636962890625,6.363809204101563,1729396366448.0
11.224999999999994,0.82364501953125,6.720303344726563,5.784506225585938,1729396366458.0
11.235,0.4457672119140625,7.077993774414063,7.066778564453125,1729396366468.0
11.24499999999999,-0.0683380126953125,7.747766113281251,7.76212158203125,1729396366478.0
11.254999999999995,-0.1323394775390625,7.760925292968751,5.898751831054688,1729396366488.0
11.265,-0.275445556640625,7.260427856445313,4.62186279296875,1729396366498.0
11.274999999999991,-0.6210235595703125,7.289886474609376,5.709140014648438,1729396366508.0
11.284999999999997,-0.5650970458984376,7.075601196289063,8.806631469726563,1729396366518.0
11.295000000000002,-0.358587646484375,7.033282470703125,8.161532592773439,1729396366528.0
11.304999999999993,0.319110107421875,6.970626831054688,5.987576293945313,1729396366538.0
11.314999999999998,0.9637603759765626,7.086367797851563,5.372683715820313,1729396366548.0
11.325000000000005,0.4780670166015625,7.3009521484375,6.381604003906251,1729396366558.0
11.334999999999994,0.1248626708984375,7.63052978515625,7.524807739257813,1729396366568.0
11.345,0.497357177734375,7.793075561523438,6.617721557617188,1729396366578.0
11.35499999999999,0.6113037109375,8.4039306640625,5.490817260742188,1729396366588.0
11.364999999999997,-0.4918243408203125,6.573458862304688,5.308383178710938,1729396366598.0
11.375,-1.292889404296875,6.22130126953125,6.819894409179688,1729396366608.0
11.384999999999993,-1.4509490966796876,7.013244628906251,9.858468627929687,1729396366618.0
11.394999999999996,0.139666748046875,7.234857177734376,7.946200561523438,1729396366628.0
11.405,0.8964691162109376,7.805487060546875,5.186361694335938,1729396366638.0
11.414999999999992,-0.2304351806640625,6.994552612304688,5.1074066162109375,1729396366648.0
11.426999999999992,-0.6675292968750001,7.522714233398438,5.871237182617188,1729396366660.0
11.435000000000002,0.53773193359375,7.718606567382813,8.050726318359375,1729396366668.0
11.444999999999991,1.412518310546875,7.609893798828126,5.916098022460938,1729396366678.0
11.454999999999998,0.8197570800781251,6.696377563476563,5.5525756835937505,1729396366688.0
11.46499999999999,-0.1878173828125,6.834848022460938,7.488470458984375,1729396366698.0
11.474999999999994,-0.6177337646484375,7.199118041992188,8.485128784179688,1729396366708.0
11.485,-0.1969390869140625,7.733709716796875,7.260876464843751,1729396366718.0
11.49499999999999,-0.412420654296875,6.815557861328125,4.8666534423828125,1729396366728.0
11.504999999999995,-1.0972961425781251,7.307083129882813,4.3727355957031255,1729396366738.0
11.515,-0.7479797363281251,7.671652221679688,8.770593261718751,1729396366748.0
11.527,0.1882659912109375,7.318896484375,7.807580566406251,1729396366760.0
11.534999999999997,0.7731018066406251,7.2985595703125,5.134173583984375,1729396366768.0
11.545000000000002,1.0854827880859377,6.834698486328126,5.82413330078125,1729396366778.0
11.554999999999993,0.65137939453125,7.070816040039063,7.431646728515625,1729396366788.0
11.564999999999998,0.108563232421875,7.635314941406251,8.396902465820313,1729396366798.0
11.575000000000005,0.3530548095703125,7.509555053710938,6.114981079101563,1729396366808.0
11.584999999999994,0.136376953125,7.4744140625,3.777581787109375,1729396366818.0
11.595,-0.482403564453125,7.413253784179688,5.335000610351563,1729396366828.0
11.60499999999999,-0.8910858154296876,7.185360717773438,9.063833618164065,1729396366838.0
11.614999999999997,-1.0343414306640626,6.952084350585938,8.395855712890626,1729396366848.0
11.626999999999995,-0.226397705078125,6.626095581054688,6.339434814453125,1729396366860.0
11.634999999999993,0.2714080810546875,7.084274291992188,5.73680419921875,1729396366868.0
11.644999999999996,0.3889434814453125,7.303045654296875,6.589010620117188,1729396366878.0
11.655,0.2428466796875,8.065829467773439,6.4991394042968755,1729396366888.0
11.664999999999992,1.0956512451171876,7.121060180664063,6.24283447265625,1729396366898.0
11.674999999999995,1.7785827636718752,7.924368286132813,5.494854736328126,1729396366908.0
11.685000000000002,-0.1502838134765625,8.033529663085938,7.0856201171875,1729396366918.0
11.694999999999991,-1.1484375,5.527902221679688,7.413702392578125,1729396366928.0
11.704999999999998,-1.40982666015625,7.0554138183593755,6.665872192382813,1729396366938.0
11.71499999999999,-0.8391967773437501,7.330560302734376,8.097381591796875,1729396366948.0
11.72699999999999,0.067291259765625,7.825076293945313,5.92821044921875,1729396366960.0
11.73599999999999,-0.5501434326171876,7.454974365234375,6.3780151367187505,1729396366969.0
11.745999999999997,-0.2008270263671875,6.8056884765625005,5.571118164062501,1729396366979.0
11.754999999999995,0.28651123046875,7.411459350585938,6.843820190429688,1729396366988.0
11.765,1.7196655273437502,7.470526123046875,7.545294189453125,1729396366998.0
11.775999999999996,1.3577880859375,7.589855957031251,5.846264648437501,1729396367009.0
11.786,0.6144439697265626,6.766510009765626,6.144439697265626,1729396367019.0
11.795999999999992,-0.48330078125,6.8655029296875005,7.35179443359375,1729396367029.0
11.805999999999996,-1.0313507080078126,7.933639526367188,7.387384033203125,1729396367039.0
11.816000000000004,-0.6301452636718751,6.900045776367188,6.876568603515626,1729396367049.0
11.826999999999998,-1.2572998046875,7.415646362304688,4.7021636962890625,1729396367060.0
11.836,-0.9127685546875,7.087265014648438,6.681423950195313,1729396367069.0
11.84599999999999,0.29488525390625,7.638156127929688,7.469479370117188,1729396367079.0
11.855999999999996,0.907086181640625,7.1077514648437505,7.096087646484375,1729396367089.0
11.866,1.335208129882813,7.313961791992188,5.7095886230468755,1729396367099.0
11.87599999999999,1.0489959716796875,6.618618774414063,6.682470703125,1729396367109.0
11.885999999999996,0.256005859375,7.617221069335938,7.5040222167968755,1729396367119.0
11.896,-0.0901702880859375,7.528396606445313,6.82303466796875,1729396367129.0
11.905999999999992,-0.3090911865234375,7.649819946289063,5.035330200195313,1729396367139.0
11.915999999999997,-0.826336669921875,7.173995971679688,5.359375,1729396367149.0
11.926999999999992,-0.971685791015625,7.243978881835938,7.414599609375,1729396367160.0
11.935999999999993,-0.878973388671875,6.946701049804688,8.483035278320314,1729396367169.0
11.945999999999998,-0.049346923828125,7.076049804687501,6.887036132812501,1729396367179.0
11.956000000000005,0.8767303466796875,6.962252807617188,5.68297119140625,1729396367189.0
11.965999999999994,0.9082824707031252,6.990814208984376,6.133523559570313,1729396367199.0
11.976,0.5084228515625,7.628286743164063,6.972421264648438,1729396367209.0
11.98599999999999,0.775494384765625,7.747766113281251,7.084872436523438,1729396367219.0
11.995999999999997,0.8170654296875001,8.452978515625,5.6796813964843755,1729396367229.0
12.006,-0.05323486328125,7.186108398437501,4.9817962646484375,1729396367239.0
12.015999999999991,-1.3838073730468752,6.006417846679688,6.154159545898438,1729396367249.0
12.027,-1.7078521728515623,6.9851318359375005,9.161181640625,1729396367260.0
12.036,-0.6572113037109375,7.025656127929688,9.214117431640624,1729396367269.0
12.045999999999992,0.6044250488281251,7.7172607421875,5.694186401367188,1729396367279.0
12.055999999999996,-0.083740234375,7.069021606445313,5.116229248046875,1729396367289.0
12.066000000000004,-0.5441619873046876,7.252951049804688,5.424273681640625,1729396367299.0
12.075999999999992,0.280230712890625,7.917041015625,7.651165771484376,1729396367309.0
12.086,1.576409912109375,7.601818847656251,6.677835083007813,1729396367319.0
12.09599999999999,1.3492645263671876,7.0377685546875,5.035928344726563,1729396367329.0
12.105999999999996,0.191107177734375,6.744677734375,7.016085815429688,1729396367339.0
12.116,-0.5767608642578126,6.902587890625001,8.437725830078126,1729396367349.0
12.126999999999995,-0.542816162109375,7.831655883789063,7.847805786132813,1729396367360.0
12.135999999999996,-0.288006591796875,6.965393066406251,5.598782348632813,1729396367369.0
12.146,-1.095950317382813,7.338784790039063,3.6395599365234377,1729396367379.0
12.155999999999992,-1.0352386474609376,7.394412231445313,7.567276000976563,1729396367389.0
12.165999999999997,-0.1305450439453125,7.43912353515625,8.856277465820312,1729396367399.0
12.176000000000002,0.4792633056640625,6.984982299804688,6.244329833984375,1729396367409.0
12.185999999999993,1.1720642089843751,7.053469848632813,5.179333496093751,1729396367419.0
12.195999999999998,0.8961700439453125,7.021469116210938,6.993804931640626,1729396367429.0
12.206000000000005,0.5250213623046875,7.532583618164063,7.960705566406251,1729396367439.0
12.215999999999994,0.1434051513671875,7.577743530273438,6.839633178710938,1729396367449.0
12.22699999999999,0.1368255615234375,7.512545776367188,4.617376708984375,1729396367460.0
12.23599999999999,-0.26856689453125,7.60899658203125,4.2281341552734375,1729396367469.0
12.245999999999997,-0.399859619140625,7.337738037109376,7.773336791992188,1729396367479.0
12.256,-1.0826416015625,6.796865844726563,9.133218383789064,1729396367489.0
12.265999999999991,-0.7095489501953125,6.665872192382813,6.969281005859376,1729396367499.0
12.275999999999996,0.086431884765625,6.770996093750001,6.498989868164063,1729396367509.0
12.286,0.30924072265625,7.4157958984375005,6.0479888916015625,1729396367519.0
12.295999999999992,0.241949462890625,7.639950561523438,6.14354248046875,1729396367529.0
12.305999999999996,0.569134521484375,7.618865966796876,6.318948364257813,1729396367539.0
12.316000000000004,1.4143127441406251,7.57908935546875,6.0479888916015625,1729396367549.0
12.326999999999998,0.8650665283203126,8.615524291992188,6.626095581054688,1729396367560.0
12.336,-0.7197174072265625,6.0310913085937505,6.734658813476563,1729396367569.0
12.34599999999999,-1.2128875732421875,5.974417114257813,6.2060485839843755,1729396367579.0
12.355999999999996,-1.2571502685546876,7.592547607421875,9.0499267578125,1729396367589.0
12.366,0.073870849609375,7.58267822265625,7.510751342773438,1729396367599.0
12.37599999999999,-0.0587677001953125,7.904031372070313,5.089910888671875,1729396367609.0
12.385999999999996,-0.7381103515625,6.623403930664063,5.302401733398438,1729396367619.0
12.396,-0.2447906494140625,7.409365844726563,5.880657958984376,1729396367629.0
12.405999999999992,1.0020416259765623,7.531686401367188,8.822482299804689,1729396367639.0
12.415999999999997,1.6707672119140626,7.80458984375,6.094793701171875,1729396367649.0
12.426999999999992,1.145745849609375,6.464447021484376,5.4244232177734375,1729396367660.0
12.435999999999993,-0.2074066162109375,6.911560058593751,6.964495849609375,1729396367669.0
12.445999999999998,-0.7807281494140625,7.42357177734375,8.54150390625,1729396367679.0
12.456000000000005,-0.6996795654296876,7.703054809570313,7.162631225585938,1729396367689.0
12.465999999999994,-0.7571014404296875,6.855633544921876,5.0160400390625,1729396367699.0
12.476,-1.3027587890625,7.529891967773438,4.098486328125,1729396367709.0
12.48599999999999,-0.117236328125,7.533779907226563,8.279815673828125,1729396367719.0
12.495999999999997,0.6720153808593751,7.297512817382813,8.183514404296876,1729396367729.0
12.506,0.9760223388671876,7.171154785156251,5.5096588134765625,1729396367739.0
12.515999999999991,1.36077880859375,6.4752136230468755,6.3002563476562505,1729396367749.0
12.527,0.465655517578125,7.353439331054688,7.406973266601563,1729396367760.0
12.536999999999992,-0.0186920166015625,7.613781738281251,7.819842529296875,1729396367770.0
12.546999999999995,-0.2280426025390625,7.768850708007813,5.534332275390625,1729396367780.0
12.557000000000002,-0.6735107421875001,7.296017456054688,4.256845092773438,1729396367790.0
12.566999999999991,-0.715679931640625,7.291381835937501,6.216366577148438,1729396367800.0
12.576999999999998,-1.080996704101563,7.150518798828125,8.923419189453126,1729396367810.0
12.586999999999987,-0.3013153076171875,6.891970825195313,7.871731567382813,1729396367820.0
12.596999999999994,0.5127593994140626,6.968084716796875,5.993408203125,1729396367830.0
12.607,1.01026611328125,6.888531494140626,5.831759643554688,1729396367840.0
12.61699999999999,0.48748779296875,7.00487060546875,6.962402343750001,1729396367850.0
12.626999999999995,0.251220703125,7.953378295898438,7.376617431640626,1729396367860.0
12.637,0.6032287597656251,8.142541503906251,5.9371826171875,1729396367870.0
12.646999999999991,0.5878265380859375,8.237496948242189,4.334902954101563,1729396367880.0
12.656999999999996,-0.1090118408203125,6.670657348632813,5.4289093017578125,1729396367890.0
12.667000000000002,-1.5867279052734375,6.399548339843751,8.053717041015625,1729396367900.0
12.676999999999992,-1.6202239990234375,6.615927124023438,10.252496337890626,1729396367910.0
12.686999999999998,0.387896728515625,7.127490234375,7.296466064453125,1729396367920.0
12.697000000000005,0.863720703125,8.035772705078125,4.629638671875,1729396367930.0
12.706999999999994,-0.2729034423828125,6.8798583984375,5.618072509765625,1729396367940.0
12.717,-0.781475830078125,7.488320922851563,6.418988037109376,1729396367950.0
12.72699999999999,0.2002288818359375,7.974612426757813,7.587911987304688,1729396367960.0
12.736999999999997,1.7779846191406252,7.445254516601563,5.402890014648438,1729396367970.0
12.747,1.25430908203125,6.971823120117188,5.104714965820313,1729396367980.0
12.75699999999999,-0.3695037841796875,6.746322631835938,8.047735595703125,1729396367990.0
12.766999999999996,-0.6796417236328125,6.969430541992188,9.031982421875,1729396368000.0
12.777,-0.1179840087890625,7.505966186523438,7.4564697265625,1729396368010.0
12.786999999999992,-0.35469970703125,7.189398193359375,4.5780487060546875,1729396368020.0
12.796999999999995,-1.07008056640625,7.210482788085938,3.99022216796875,1729396368030.0
12.807000000000002,-0.9957611083984376,7.595837402343751,8.476306152343751,1729396368040.0
12.816999999999991,-0.1158905029296875,7.616622924804688,8.256039428710938,1729396368050.0
12.826999999999998,1.0005462646484375,7.04375,5.186959838867188,1729396368060.0
12.836999999999987,1.1864196777343752,6.794174194335938,5.61956787109375,1729396368070.0
12.846999999999994,0.3216522216796875,7.038067626953126,7.8249267578125,1729396368080.0
12.857,0.3744384765625,7.36734619140625,8.681768798828125,1729396368090.0
12.86699999999999,0.2041168212890625,7.877862548828125,5.965444946289063,1729396368100.0
12.876999999999995,0.3122314453125,7.396505737304688,3.4871826171875004,1729396368110.0
12.887,-0.2093505859375,7.629483032226563,4.535430908203125,1729396368120.0
12.896999999999991,-1.073968505859375,7.053021240234376,9.4255615234375,1729396368130.0
12.906999999999996,-1.0268646240234376,6.967037963867188,8.921923828125001,1729396368140.0
12.917000000000002,-0.2367156982421875,6.644488525390625,6.325228881835938,1729396368150.0
12.926999999999992,0.520086669921875,7.0030761718750005,5.2090911865234375,1729396368160.0
12.936999999999998,0.173162841796875,7.234857177734376,6.7608276367187505,1729396368170.0
12.947000000000005,0.0737213134765625,7.661334228515625,7.319644165039063,1729396368180.0
12.956999999999994,0.7693634033203126,7.394561767578126,6.33853759765625,1729396368190.0
12.967,1.3782745361328126,8.094689941406251,5.0770507812500005,1729396368200.0
12.97699999999999,0.1900604248046875,8.023211669921876,6.3750244140625005,1729396368210.0
12.986999999999997,-0.850262451171875,5.794674682617188,6.797912597656251,1729396368220.0
12.997,-1.3011138916015623,7.16337890625,7.525704956054688,1729396368230.0
13.00699999999999,-0.9329559326171876,6.804043579101563,8.683563232421875,1729396368240.0
13.016999999999996,0.5371337890625001,7.879507446289063,5.452536010742188,1729396368250.0
13.027,-0.134283447265625,7.652362060546875,6.334799194335938,1729396368260.0
13.036999999999992,-0.496160888671875,6.475662231445313,5.898153686523438,1729396368270.0
13.046999999999995,-0.1565643310546875,7.835842895507813,6.590206909179688,1729396368280.0
13.057000000000002,1.274945068359375,7.510302734375,7.603463745117188,1729396368290.0
13.066999999999991,1.629345703125,7.511050415039063,4.789044189453126,1729396368300.0
13.076999999999998,0.401953125,6.829315185546876,6.6456848144531255,1729396368310.0
13.086999999999987,-0.6939971923828125,6.722546386718751,8.048483276367188,1729396368320.0
13.096999999999994,-0.8018127441406251,7.4920593261718755,7.8374877929687505,1729396368330.0
13.107,-0.438140869140625,7.207192993164063,6.723294067382813,1729396368340.0
13.11699999999999,-0.6978851318359376,7.382748413085938,4.277182006835938,1729396368350.0
13.126999999999995,-0.93609619140625,7.32607421875,6.036624145507813,1729396368360.0
13.137,0.059814453125,7.6565490722656255,7.994052124023438,1729396368370.0
13.146999999999991,0.9209930419921876,7.214968872070313,6.759033203125001,1729396368380.0
13.156999999999996,1.504632568359375,7.363308715820313,5.3103271484375005,1729396368390.0
13.167000000000002,0.8620758056640626,6.504074096679688,6.95462646484375,1729396368400.0
13.176999999999992,0.150433349609375,7.436431884765626,7.801898193359375,1729396368410.0
13.186999999999998,-0.4655059814453125,7.271194458007813,7.876516723632813,1729396368420.0
13.197000000000005,-0.511114501953125,7.603912353515626,5.0685272216796875,1729396368430.0
13.206999999999994,-0.7648773193359375,7.400244140625,4.611096191406251,1729396368440.0
13.21799999999999,-0.8673095703125001,7.419833374023438,6.826922607421875,1729396368451.0
13.22699999999999,-0.7379608154296875,7.128536987304688,8.457614135742189,1729396368460.0
13.236999999999997,0.1830322265625,6.9641967773437505,7.132873535156251,1729396368470.0
13.247,1.00667724609375,7.014141845703126,5.924322509765625,1729396368480.0
13.25699999999999,1.1340820312500002,6.8281188964843755,6.1501220703125,1729396368490.0
13.268,0.7173248291015626,7.326821899414063,7.025955200195313,1729396368501.0
13.277,0.2268463134765625,7.916293334960938,7.17294921875,1729396368510.0
13.286999999999992,0.452496337890625,7.973117065429688,5.650970458984375,1729396368520.0
13.296999999999995,-0.093011474609375,8.000482177734376,4.9260192871093755,1729396368530.0
13.307999999999993,-1.1360260009765626,6.3893798828125,6.071316528320313,1729396368541.0
13.317999999999998,-1.6576080322265627,6.517233276367188,8.199066162109375,1729396368551.0
13.328000000000005,-1.22440185546875,6.8341003417968755,9.458758544921876,1729396368561.0
13.337999999999994,0.8480194091796875,7.398150634765625,6.567178344726563,1729396368571.0
13.348,0.9700408935546876,7.840927124023438,5.3910766601562505,1729396368581.0
13.35799999999999,-0.197088623046875,6.655255126953126,5.6707092285156255,1729396368591.0
13.367999999999997,-0.2238555908203125,7.81595458984375,6.382351684570313,1729396368601.0
13.378,0.7941864013671875,7.818048095703125,7.43912353515625,1729396368611.0
13.387999999999993,1.5729705810546877,7.578939819335938,4.783212280273438,1729396368621.0
13.397999999999996,0.4520477294921875,6.839932250976563,6.006716918945313,1729396368631.0
13.408,-0.80091552734375,6.5798889160156255,8.178280639648438,1729396368641.0
13.417999999999992,-0.8240936279296875,7.168164062500001,8.785247802734375,1729396368651.0
13.427999999999995,-0.27574462890625,7.564584350585938,7.1795288085937505,1729396368661.0
13.438000000000002,-0.3372039794921875,7.013394165039063,4.066036987304688,1729396368671.0
13.447999999999992,-0.9203948974609376,7.297512817382813,4.598684692382813,1729396368681.0
13.457999999999998,-0.5010955810546875,7.712176513671875,9.086264038085938,1729396368691.0
13.46799999999999,0.4041961669921875,7.305438232421875,7.840628051757813,1729396368701.0
13.477999999999994,1.008172607421875,7.129733276367188,4.8521484375,1729396368711.0
13.488,0.8326171875,6.732116699218751,6.115130615234375,1729396368721.0
13.49799999999999,0.3629241943359375,7.344616699218751,7.524060058593751,1729396368731.0
13.507999999999996,0.1638916015625,7.642941284179688,8.3752197265625,1729396368741.0
13.518,0.1423583984375,7.572061157226563,5.3566833496093755,1729396368751.0
13.527999999999992,0.1078155517578125,7.38828125,3.609054565429688,1729396368761.0
13.537999999999997,-0.430364990234375,7.356280517578125,6.343173217773438,1729396368771.0
13.548000000000002,-0.9817047119140626,7.130032348632813,9.435281372070314,1729396368781.0
13.557999999999993,-0.6506317138671875,6.941467285156251,7.944854736328126,1729396368791.0
13.567999999999998,-0.102581787109375,6.601422119140626,5.7424865722656255,1729396368801.0
13.578000000000005,0.383709716796875,7.198370361328125,5.79422607421875,1729396368811.0
13.587999999999994,0.1601531982421875,7.398898315429688,7.028048706054688,1729396368821.0
13.598,0.153424072265625,7.843768310546875,6.696078491210938,1729396368831.0
13.60799999999999,1.063052368164063,7.184613037109376,6.0165863037109375,1729396368841.0
13.617999999999997,1.41700439453125,8.285198974609376,5.34801025390625,1729396368851.0
13.628,-0.2866607666015625,7.464993286132813,7.093395996093751,1729396368861.0
13.637999999999993,-1.0533325195312502,5.702261352539063,7.086367797851563,1729396368871.0
13.647999999999996,-1.2347198486328126,7.226034545898438,7.597482299804688,1729396368881.0
13.658,-0.5431152343750001,7.165771484375001,7.789785766601563,1729396368891.0
13.667999999999992,0.0811981201171875,7.908517456054688,5.433993530273438,1729396368901.0
13.677999999999995,-0.4574310302734375,7.404730224609375,6.501531982421875,1729396368911.0
13.688000000000002,-0.3624755859375,6.871633911132813,5.425619506835938,1729396368921.0
13.697999999999992,0.3219512939453125,7.340579223632813,7.234259033203125,1729396368931.0
13.707999999999998,1.5478485107421875,7.656250000000001,7.291082763671875,1729396368941.0
13.71799999999999,1.3026092529296875,7.176388549804688,5.815310668945313,1729396368951.0
